File: DataFile2021-07-15_064454.csv
Test ID:,Date Tested:,Time:,Test Type:,Diameter Avg. (mm):,Cyl. Corr. Factor:,Height (mm):,Age (days):,Weight (kN):,Break Type:,Ramp Rate (MPa/s):,Load at Break (kN):,Stress at Break (MPa):
12,7/15/2021,06:44,Cylinder,150,1,300,0,3.6,3,0.24,1402.3,79.35
Sample Time,Load (kN),Stress (MPa),Long. Strain,Trans. Strain,Chan1 Deflection (mm),Chan2 Deflection (mm)
0:0:4.141,5.21776,0.296475,0,0.000885,0,0
0:0:4.441,5.45352,0.310264,0,0.000885,0,0
0:0:4.753,7.15719,0.406791,0,0.000885,0,0
0:0:5.046,8.67848,0.489528,0,0.000885,0,0
0:0:5.346,9.44357,0.537791,0,0.000885,0,0
0:0:5.642,10.6757,0.606739,0,0.000885,0,0
0:0:5.943,13.0778,0.737739,0,0.000885,0,0
0:0:6.252,13.9007,0.786002,0,0.000885,0,0
0:0:6.551,15.1328,0.85495,0,0.000885,0,0
0:0:6.851,16.7742,0.951477,0,0.000885,0,0
0:0:7.156,17.7706,1.00663,0,0.000885,0,0
0:0:7.457,18.8871,1.06869,0,0.000885,0,0
0:0:7.755,20.4707,1.15832,0,0.000885,0,0
0:0:8.053,21.6406,1.22727,0,0.000885,0,0
0:0:8.352,22.9306,1.29621,0,0.000885,0,0
0:0:8.647,23.7535,1.34448,0,0.000885,0,0
0:0:8.952,25.9821,1.46858,0,0.000885,0,0
0:0:9.256,27.272,1.54443,0,0.000885,0,0
0:0:9.560,28.9713,1.64095,0,0.000885,0,0
0:0:9.863,29.9098,1.68922,0,0.000885,0,0
0:0:10.169,32.2007,1.82022,0,0.000885,0,0
0:0:10.471,34.1357,1.93053,0,0.000885,0,0
0:0:10.774,35.0742,1.98569,0,0.000885,0,0
0:0:11.076,36.6578,2.07532,0,0.000885,0,0
0:0:11.374,38.9442,2.20632,0,0.000885,0,0
0:0:11.672,40.1763,2.27527,0,0.000885,0,0
0:0:11.972,41.582,2.35111,0,0.000885,0,0
0:0:12.268,42.4049,2.39938,0,0.000885,0,0
0:0:12.571,43.3435,2.45453,0,0.000885,0,0
0:0:12.867,44.4555,2.51659,0,0.000885,0,0
0:0:13.169,45.572,2.57864,0,0.000885,0,0
0:0:13.466,46.2748,2.62001,0,0.000885,0,0
0:0:13.763,47.8006,2.70274,0,0.000885,0,0
0:0:14.064,49.3263,2.79238,0,0.000885,0,0
0:0:14.359,50.7898,2.87511,0,0.000885,0,0
0:0:14.662,51.3191,2.90269,0,0.000885,0,0
0:0:14.966,53.0806,3.00611,0,0.000885,0,0
0:0:15.271,54.1349,3.06127,0,0.000885,0,0
0:0:15.575,56.1277,3.17848,0,0.000885,0,0
0:0:15.878,57.0662,3.22675,0,0.000885,0,0
0:0:16.181,58.414,3.30259,0,0.000885,0,0
0:0:16.477,59.7663,3.38533,0,0.000885,0,0
0:0:16.778,61.3499,3.47496,0,0.000885,0,0
0:0:17.075,62.8133,3.55769,0,0.000885,0,0
0:0:17.373,64.3391,3.64043,0,0.000885,0,0
0:0:17.675,65.3933,3.70248,0,0.000885,0,0
0:0:17.968,66.7456,3.77833,0,0.000885,0,0
0:0:18.271,68.209,3.86106,0,0.000885,0,0
0:0:18.567,69.0898,3.90933,0,0.000885,0,0
0:0:18.867,70.144,3.97138,0,0.000885,0,0
0:0:19.166,71.4384,4.04033,0,0.000885,0,0
0:0:19.464,72.7863,4.11617,0,0.000885,0,0
0:0:19.766,74.957,4.24028,0,0.000885,0,0
0:0:20.070,75.602,4.27475,0,0.000885,0,0
0:0:20.374,76.7719,4.3437,0,0.000885,0,0
0:0:20.678,78.1819,4.42643,0,0.000885,0,0
0:0:20.981,79.7077,4.50917,0,0.000885,0,0
0:0:21.282,81.1133,4.59191,0,0.000885,0,0
0:0:21.577,82.3455,4.66086,0,0.000885,0,0
0:0:21.880,83.8134,4.74359,0,0.000885,0,0
0:0:22.175,84.6897,4.79186,0,0.000885,0,0
0:0:22.477,86.6247,4.90217,0,0.000885,0,0
0:0:22.777,87.8568,4.97112,0,0.000885,0,0
0:0:23.072,89.2091,5.04696,0,0.000885,0,0
0:0:23.374,90.0854,5.09523,0,0.000885,0,0
0:0:23.669,91.4376,5.17107,0,0.000885,0,0
0:0:23.970,93.3726,5.28138,0,0.000885,0,0
0:0:24.267,94.4268,5.34344,0,0.000885,0,0
0:0:24.570,95.5434,5.40549,0,0.000885,0,0
0:0:24.876,96.6554,5.46754,0,0.000885,0,0
0:0:25.179,98.8261,5.59165,0,0.000885,0,0
0:0:25.482,99.7069,5.63991,0,0.000885,0,0
0:0:25.783,101.113,5.72265,0,0.000885,0,0
0:0:26.083,102.58,5.80539,0,0.000885,0,0
0:0:26.382,103.519,5.86054,0,0.000885,0,0
0:0:26.679,105.57,5.97086,0,0.000885,0,0
0:0:26.981,106.45,6.02602,0,0.000885,0,0
0:0:27.276,107.567,6.08807,0,0.000885,0,0
0:0:27.576,108.737,6.15012,0,0.000885,0,0
0:0:27.875,109.675,6.20528,0,0.000885,0,0
0:0:28.173,111.379,6.30181,0,0.000885,0,0
0:0:28.473,112.433,6.36386,0,0.000885,0,0
0:0:28.770,113.959,6.4466,0,0.000885,0,0
0:0:29.072,115.191,6.51555,0,0.000885,0,0
0:0:29.368,116.775,6.60518,0,0.000885,0,0
0:0:29.672,118.474,6.7017,0,0.000885,0,0
0:0:29.978,119.297,6.74997,0,0.000885,0,0
0:0:30.281,120.409,6.81202,0,0.000885,0,0
0:0:30.583,121.699,6.88786,0,0.000885,0,0
0:0:30.887,123.576,6.99128,0,0.000885,0,0
0:0:31.188,124.399,7.03955,0,0.000885,0,0
0:0:31.486,126.156,7.13607,0,0.000885,0,0
0:0:31.784,127.152,7.19813,0,0.000885,0,0
0:0:32.086,129.265,7.31534,0,0.000885,0,0
0:0:32.380,130.613,7.39118,0,0.000885,0,0
0:0:32.682,131.73,7.45323,0,0.000885,0,0
0:0:32.980,132.784,7.51529,0,0.000885,0,0
0:0:33.279,133.843,7.57044,0,0.000885,0,0
0:0:33.579,135.715,7.68076,0,0.000885,0,0
0:0:33.874,136.596,7.72902,0,0.000885,0,0
0:0:34.178,138.3,7.82555,0,0.000885,0,0
0:0:34.471,139.354,7.8876,0,0.000885,0,0
0:0:34.775,140.466,7.94966,0,0.000885,0,0
0:0:35.080,142.112,8.03929,0,0.000885,0,0
0:0:35.384,143.05,8.09445,0,0.000885,0,0
0:0:35.687,144.634,8.18408,0,0.000885,0,0
0:0:35.991,145.804,8.25302,0,0.000885,0,0
0:0:36.293,147.859,8.37024,0,0.000885,0,0
0:0:36.589,148.855,8.42539,0,0.000885,0,0
0:0:36.889,150.087,8.49434,0,0.000885,0,0
0:0:37.187,151.084,8.5495,0,0.000885,0,0
0:0:37.486,153.37,8.6805,0,0.000885,0,0
0:0:37.787,154.429,8.73566,0,0.000885,0,0
0:0:38.081,155.305,8.79082,0,0.000885,0,0
0:0:38.381,156.715,8.86666,0,0.000885,0,0
0:0:38.680,157.77,8.92871,0,0.000885,0,0
0:0:38.978,159.237,9.01145,0,0.000885,0,0
0:0:39.279,160.701,9.09418,0,0.000885,0,0
0:0:39.582,162.227,9.17692,0,0.000885,0,0
0:0:39.887,163.223,9.23897,0,0.000885,0,0
0:0:40.190,164.104,9.28724,0,0.000885,0,0
0:0:40.492,165.803,9.38376,0,0.000885,0,0
0:0:40.797,166.977,9.44582,0,0.000885,0,0
0:0:41.093,168.325,9.52855,0,0.000885,0,0
0:0:41.396,169.851,9.61129,0,0.000885,0,0
0:0:41.692,171.612,9.70782,0,0.000885,0,0
0:0:41.991,172.609,9.76987,0,0.000885,0,0
0:0:42.289,173.783,9.83192,0,0.000885,0,0
0:0:42.588,174.78,9.88708,0,0.000885,0,0
0:0:42.888,175.949,9.95603,0,0.000885,0,0
0:0:43.183,177.947,10.0663,0,0.000885,0,0
0:0:43.486,179.237,10.1422,0,0.000885,0,0
0:0:43.783,180.584,10.218,0,0.000885,0,0
0:0:44.081,181.407,10.2663,0,0.000885,0,0
0:0:44.380,182.871,10.349,0,0.000885,0,0
0:0:44.684,184.454,10.4387,0,0.000885,0,0
0:0:44.989,186.038,10.5283,0,0.000885,0,0
0:0:45.291,186.919,10.5766,0,0.000885,0,0
0:0:45.594,188.267,10.6524,0,0.000885,0,0
0:0:45.898,189.85,10.742,0,0.000885,0,0
0:0:46.196,191.082,10.811,0,0.000885,0,0
0:0:46.497,192.021,10.8661,0,0.000885,0,0
0:0:46.789,192.959,10.9213,0,0.000885,0,0
0:0:47.090,194.543,11.0109,0,0.000885,0,0
0:0:47.383,196.011,11.0937,0,0.000885,0,0
0:0:47.682,197.301,11.1626,0,0.000885,0,0
0:0:47.978,198.764,11.2453,0,0.000885,0,0
0:0:48.273,199.939,11.3143,0,0.000885,0,0
0:0:48.572,201.464,11.4039,0,0.000885,0,0
0:0:48.865,203.515,11.5142,0,0.000885,0,0
0:0:49.166,204.809,11.5901,0,0.000885,0,0
0:0:49.459,205.864,11.6521,0,0.000885,0,0
0:0:49.759,207.038,11.7142,0,0.000885,0,0
0:0:50.063,208.444,11.7969,0,0.000885,0,0
0:0:50.365,209.912,11.8797,0,0.000885,0,0
0:0:50.666,211.202,11.9486,0,0.000885,0,0
0:0:50.967,211.962,11.9969,0,0.000885,0,0
0:0:51.266,213.604,12.0865,0,0.000885,0,0
0:0:51.562,215.249,12.183,0,0.000885,0,0
0:0:51.857,216.01,12.2244,0,0.000885,0,0
0:0:52.156,217.064,12.2865,0,0.000885,0,0
0:0:52.459,218.706,12.3761,0,0.000885,0,0
0:0:52.759,219.707,12.4312,0,0.000885,0,0
0:0:53.051,221.521,12.5347,0,0.000885,0,0
0:0:53.349,222.874,12.6105,0,0.000885,0,0
0:0:53.645,224.044,12.6795,0,0.000885,0,0
0:0:53.960,225.454,12.7553,0,0.000885,0,0
0:0:54.261,227.211,12.8587,0,0.000885,0,0
0:0:54.555,228.091,12.907,0,0.000885,0,0
0:0:54.856,229.266,12.9759,0,0.000885,0,0
0:0:55.160,231.085,13.0794,0,0.000885,0,0
0:0:55.459,231.788,13.1138,0,0.000885,0,0
0:0:55.762,233.896,13.2379,0,0.000885,0,0
0:0:56.062,234.835,13.2862,0,0.000885,0,0
0:0:56.361,235.831,13.3483,0,0.000885,0,0
0:0:56.657,237.006,13.4103,0,0.000885,0,0
0:0:56.963,238.474,13.493,0,0.000885,0,0
0:0:57.261,239.937,13.5758,0,0.000885,0,0
0:0:57.555,241.405,13.6585,0,0.000885,0,0
0:0:57.856,242.931,13.7481,0,0.000885,0,0
0:0:58.158,243.576,13.7826,0,0.000885,0,0
0:0:58.457,245.569,13.8998,0,0.000885,0,0
0:0:58.752,246.801,13.9688,0,0.000885,0,0
0:0:59.047,247.566,14.0101,0,0.000885,0,0
0:0:59.346,249.029,14.0929,0,0.000885,0,0
0:0:59.649,249.732,14.1343,0,0.000885,0,0
0:0:59.950,251.961,14.2584,0,0.000885,0,0
0:1:0.252,253.371,14.3411,0,0.000885,0,0
0:1:0.551,254.661,14.41,0,0.000885,0,0
0:1:0.852,255.951,14.4859,0,0.000885,0,0
0:1:1.156,257.356,14.5617,0,0.000885,0,0
0:1:1.456,258.824,14.6445,0,0.000885,0,0
0:1:1.747,259.705,14.6996,0,0.000885,0,0
0:1:2.047,261.231,14.7824,0,0.000885,0,0
0:1:2.342,262.049,14.8306,0,0.000885,0,0
0:1:2.639,263.108,14.8858,0,0.000885,0,0
0:1:2.937,265.101,15.003,0,0.000885,0,0
0:1:3.232,266.275,15.065,0,0.000885,0,0
0:1:3.531,267.623,15.1409,0,0.000885,0,0
0:1:3.824,268.677,15.2029,0,0.000885,0,0
0:1:4.124,269.851,15.2719,0,0.000885,0,0
0:1:4.420,272.316,15.4098,0,0.000885,0,0
0:1:4.721,273.37,15.4718,0,0.000885,0,0
0:1:5.023,273.957,15.4994,0,0.000885,0,0
0:1:5.324,275.483,15.589,0,0.000885,0,0
0:1:5.626,277.124,15.6787,0,0.000885,0,0
0:1:5.927,278.063,15.7338,0,0.000885,0,0
0:1:6.224,279.646,15.8235,0,0.000885,0,0
0:1:6.520,280.701,15.8855,0,0.000885,0,0
0:1:6.815,282.111,15.9614,0,0.000885,0,0
0:1:7.114,283.868,16.0648,0,0.000885,0,0
0:1:7.409,285.216,16.1406,0,0.000885,0,0
0:1:7.707,286.154,16.1958,0,0.000885,0,0
0:1:8.003,286.861,16.2303,0,0.000885,0,0
0:1:8.298,288.089,16.2992,0,0.000885,0,0
0:1:8.598,289.441,16.3819,0,0.000885,0,0
0:1:8.890,291.492,16.4923,0,0.000885,0,0
0:1:9.191,292.431,16.5474,0,0.000885,0,0
0:1:9.484,294.486,16.6646,0,0.000885,0,0
0:1:9.786,295.304,16.7129,0,0.000885,0,0
0:1:10.090,296.888,16.8025,0,0.000885,0,0
0:1:10.391,298.591,16.8991,0,0.000885,0,0
0:1:10.691,299.468,16.9473,0,0.000885,0,0
0:1:10.991,300.7,17.0163,0,0.000885,0,0
0:1:11.289,301.99,17.0921,0,0.000885,0,0
0:1:11.586,303.516,17.1748,0,0.000885,0,0
0:1:11.882,304.748,17.2438,0,0.000885,0,0
0:1:12.180,306.158,17.3265,0,0.000885,0,0
0:1:12.474,307.092,17.3748,0,0.000885,0,0
0:1:12.775,308.208,17.4437,0,0.000885,0,0
0:1:13.068,309.734,17.5265,0,0.000885,0,0
0:1:13.366,310.731,17.5816,0,0.000885,0,0
0:1:13.664,312.372,17.6782,0,0.000885,0,0
0:1:13.959,313.72,17.754,0,0.000885,0,0
0:1:14.257,314.894,17.8161,0,0.000885,0,0
0:1:14.558,316.829,17.9264,0,0.000885,0,0
0:1:14.861,317.768,17.9815,0,0.000885,0,0
0:1:15.162,318.884,18.0436,0,0.000885,0,0
0:1:15.461,320.174,18.1194,0,0.000885,0,0
0:1:15.763,321.17,18.1746,0,0.000885,0,0
0:1:16.058,323.221,18.2918,0,0.000885,0,0
0:1:16.357,324.573,18.3676,0,0.000885,0,0
0:1:16.661,325.276,18.409,0,0.000885,0,0
0:1:16.959,326.566,18.4779,0,0.000885,0,0
0:1:17.251,328.034,18.5607,0,0.000885,0,0
0:1:17.547,329.555,18.6503,0,0.000885,0,0
0:1:17.846,330.672,18.7124,0,0.000885,0,0
0:1:18.149,332.255,18.802,0,0.000885,0,0
0:1:18.448,333.661,18.8847,0,0.000885,0,0
0:1:18.742,334.542,18.933,0,0.000885,0,0
0:1:19.040,336.828,19.064,0,0.000885,0,0
0:1:19.336,337.887,19.1192,0,0.000885,0,0
0:1:19.638,338.825,19.1743,0,0.000885,0,0
0:1:19.941,339.822,19.2295,0,0.000885,0,0
0:1:20.241,341.579,19.3329,0,0.000885,0,0
0:1:20.541,343.047,19.4156,0,0.000885,0,0
0:1:20.840,344.279,19.4846,0,0.000885,0,0
0:1:21.148,345.511,19.5535,0,0.000885,0,0
0:1:21.445,346.623,19.6156,0,0.000885,0,0
0:1:21.740,348.149,19.6983,0,0.000885,0,0
0:1:22.039,349.323,19.7673,0,0.000885,0,0
0:1:22.333,350.435,19.8293,0,0.000885,0,0
0:1:22.631,351.788,19.9052,0,0.000885,0,0
0:1:22.927,353.545,20.0086,0,0.000885,0,0
0:1:23.224,354.719,20.0706,0,0.000885,0,0
0:1:23.521,355.831,20.1327,0,0.000885,0,0
0:1:23.813,357.299,20.2223,0,0.000885,0,0
0:1:24.114,358.767,20.3051,0,0.000885,0,0
0:1:24.407,359.412,20.3395,0,0.000885,0,0
0:1:24.710,361.405,20.4499,0,0.000885,0,0
0:1:25.013,362.459,20.5119,0,0.000885,0,0
0:1:25.313,363.749,20.5809,0,0.000885,0,0
0:1:25.613,364.981,20.6567,0,0.000885,0,0
0:1:25.912,366.213,20.7256,0,0.000885,0,0
0:1:26.214,368.148,20.836,0,0.000885,0,0
0:1:26.507,369.322,20.898,0,0.000885,0,0
0:1:26.804,370.025,20.9394,0,0.000885,0,0
0:1:27.101,371.729,21.0359,0,0.000885,0,0
0:1:27.396,372.783,21.098,0,0.000885,0,0
0:1:27.697,374.834,21.2083,0,0.000885,0,0
0:1:27.988,376.066,21.2841,0,0.000885,0,0
0:1:28.288,377.24,21.3462,0,0.000885,0,0
0:1:28.584,378.121,21.3944,0,0.000885,0,0
0:1:28.879,379.411,21.4703,0,0.000885,0,0
0:1:29.178,381.288,21.5737,0,0.000885,0,0
0:1:29.479,382.578,21.6495,0,0.000885,0,0
0:1:29.783,383.748,21.7185,0,0.000885,0,0
0:1:30.083,384.571,21.7599,0,0.000885,0,0
0:1:30.384,385.919,21.8357,0,0.000885,0,0
0:1:30.685,387.974,21.9529,0,0.000885,0,0
0:1:30.979,388.792,22.0012,0,0.000885,0,0
0:1:31.279,390.318,22.0908,0,0.000885,0,0
0:1:31.573,391.377,22.146,0,0.000885,0,0
0:1:31.872,392.604,22.2149,0,0.000885,0,0
0:1:32.167,394.424,22.3183,0,0.000885,0,0
0:1:32.463,395.247,22.3666,0,0.000885,0,0
0:1:32.763,396.127,22.4149,0,0.000885,0,0
0:1:33.064,398.178,22.5321,0,0.000885,0,0
0:1:33.365,399.82,22.6286,0,0.000885,0,0
0:1:33.656,400.758,22.6769,0,0.000885,0,0
0:1:33.954,402.462,22.7734,0,0.000885,0,0
0:1:34.250,403.28,22.8216,0,0.000885,0,0
0:1:34.552,404.161,22.8699,0,0.000885,0,0
0:1:34.856,406.038,22.9802,0,0.000885,0,0
0:1:35.160,407.27,23.0492,0,0.000885,0,0
0:1:35.460,408.56,23.1181,0,0.000885,0,0
0:1:35.762,409.614,23.1802,0,0.000885,0,0
0:1:36.056,411.082,23.2629,0,0.000885,0,0
0:1:36.366,412.666,23.3525,0,0.000885,0,0
0:1:36.656,413.72,23.4146,0,0.000885,0,0
0:1:36.956,415.068,23.4904,0,0.000885,0,0
0:1:37.262,416.3,23.5594,0,0.000885,0,0
0:1:37.559,418.177,23.6628,0,0.000885,0,0
0:1:37.866,419.294,23.7249,0,0.000885,0,0
0:1:38.161,420.232,23.78,0,0.000885,0,0
0:1:38.462,421.932,23.8765,0,0.000885,0,0
0:1:38.762,423.164,23.9455,0,0.000885,0,0
0:1:39.063,424.921,24.0489,0,0.000885,0,0
0:1:39.366,426.095,24.111,0,0.000885,0,0
0:1:39.668,426.918,24.1592,0,0.000885,0,0
0:1:39.972,428.324,24.2351,0,0.000885,0,0
0:1:40.272,430.379,24.3523,0,0.000885,0,0
0:1:40.573,431.317,24.4074,0,0.000885,0,0
0:1:40.873,432.839,24.4971,0,0.000885,0,0
0:1:41.169,433.662,24.5384,0,0.000885,0,0
0:1:41.468,435.067,24.6212,0,0.000885,0,0
0:1:41.761,436.299,24.6901,0,0.000885,0,0
0:1:42.062,437.652,24.766,0,0.000885,0,0
0:1:42.365,438.942,24.8418,0,0.000885,0,0
0:1:42.663,440.583,24.9314,0,0.000885,0,0
0:1:42.956,441.112,24.959,0,0.000885,0,0
0:1:43.253,443.279,25.0831,0,0.000885,0,0
0:1:43.552,444.689,25.1659,0,0.000885,0,0
0:1:43.845,445.863,25.2279,0,0.000885,0,0
0:1:44.146,447.211,25.3038,0,0.000885,0,0
0:1:44.449,448.385,25.3727,0,0.000885,0,0
0:1:44.751,450.027,25.4692,0,0.000885,0,0
0:1:45.051,451.49,25.552,0,0.000885,0,0
0:1:45.350,452.313,25.5933,0,0.000885,0,0
0:1:45.651,453.603,25.6692,0,0.000885,0,0
0:1:45.944,455.422,25.7726,0,0.000885,0,0
0:1:46.243,456.654,25.8416,0,0.000885,0,0
0:1:46.541,457.709,25.9036,0,0.000885,0,0
0:1:46.844,458.821,25.9657,0,0.000885,0,0
0:1:47.144,459.995,26.0277,0,0.000885,0,0
0:1:47.449,461.699,26.1242,0,0.000885,0,0
0:1:47.748,462.575,26.1794,0,0.000885,0,0
0:1:48.053,464.216,26.269,0,0.000885,0,0
0:1:48.347,464.746,26.2966,0,0.000885,0,0
0:1:48.647,466.156,26.3793,0,0.000885,0,0
0:1:48.942,467.677,26.4621,0,0.000885,0,0
0:1:49.242,469.203,26.5517,0,0.000885,0,0
0:1:49.546,470.377,26.6207,0,0.000885,0,0
0:1:49.847,471.609,26.6896,0,0.000885,0,0
0:1:50.149,474.131,26.8275,0,0.000885,0,0
0:1:50.449,475.421,26.9033,0,0.000885,0,0
0:1:50.749,476.24,26.9516,0,0.000885,0,0
0:1:51.065,477.65,27.0274,0,0.000885,0,0
0:1:51.361,479.176,27.1171,0,0.000885,0,0
0:1:51.657,480.114,27.1722,0,0.000885,0,0
0:1:51.951,481.52,27.2481,0,0.000885,0,0
0:1:52.251,482.285,27.2894,0,0.000885,0,0
0:1:52.553,484.1,27.3929,0,0.000885,0,0
0:1:52.864,485.977,27.5032,0,0.000885,0,0
0:1:53.162,486.974,27.5583,0,0.000885,0,0
0:1:53.464,488.441,27.6411,0,0.000885,0,0
0:1:53.764,489.789,27.7169,0,0.000885,0,0
0:1:54.056,490.492,27.7583,0,0.000885,0,0
0:1:54.358,492.138,27.8479,0,0.000885,0,0
0:1:54.664,493.544,27.9307,0,0.000885,0,0
0:1:54.965,494.776,27.9996,0,0.000885,0,0
0:1:55.264,495.83,28.0617,0,0.000885,0,0
0:1:55.565,497.534,28.1513,0,0.000885,0,0
0:1:55.862,498.881,28.234,0,0.000885,0,0
0:1:56.158,500.229,28.3099,0,0.000885,0,0
0:1:56.465,501.404,28.3719,0,0.000885,0,0
0:1:56.764,502.342,28.4271,0,0.000885,0,0
0:1:57.056,503.926,28.5167,0,0.000885,0,0
0:1:57.356,505.683,28.6132,0,0.000885,0,0
0:1:57.661,507.035,28.6891,0,0.000885,0,0
0:1:57.954,508.031,28.7511,0,0.000885,0,0
0:1:58.254,509.206,28.8132,0,0.000885,0,0
0:1:58.547,511.021,28.9166,0,0.000885,0,0
0:1:58.847,511.844,28.9649,0,0.000885,0,0
0:1:59.159,513.249,29.0407,0,0.000885,0,0
0:1:59.462,513.778,29.0752,0,0.000885,0,0
0:1:59.766,516.185,29.2131,0,0.000885,0,0
0:2:0.068,517.239,29.2682,0,0.000885,0,0
0:2:0.369,518.471,29.3372,0,0.000885,0,0
0:2:0.669,519.819,29.413,0,0.000885,0,0
0:2:0.968,521.461,29.5096,0,0.000885,0,0
0:2:1.266,522.871,29.5854,0,0.000885,0,0
0:2:1.558,524.103,29.6612,0,0.000885,0,0
0:2:1.857,525.157,29.7164,0,0.000885,0,0
0:2:2.149,526.741,29.806,0,0.000885,0,0
0:2:2.449,527.328,29.8405,0,0.000885,0,0
0:2:2.744,529.614,29.9715,0,0.000885,0,0
0:2:3.040,530.553,30.0198,0,0.000885,0,0
0:2:3.338,532.021,30.1094,0,0.000885,0,0
0:2:3.632,533.248,30.1784,0,0.000885,0,0
0:2:3.932,534.423,30.2404,0,0.000885,0,0
0:2:4.225,535.77,30.3162,0,0.000885,0,0
0:2:4.525,536.887,30.3783,0,0.000885,0,0
0:2:4.829,538.119,30.4541,0,0.000885,0,0
0:2:5.131,539.231,30.5162,0,0.000885,0,0
0:2:5.432,541.108,30.6196,0,0.000885,0,0
0:2:5.732,542.283,30.6886,0,0.000885,0,0
0:2:6.033,543.106,30.7299,0,0.000885,0,0
0:2:6.326,545.098,30.8471,0,0.000885,0,0
0:2:6.625,546.095,30.9023,0,0.000885,0,0
0:2:6.922,547.385,30.9781,0,0.000885,0,0
0:2:7.217,548.968,31.0678,0,0.000885,0,0
0:2:7.516,549.849,31.116,0,0.000885,0,0
0:2:7.810,551.726,31.2195,0,0.000885,0,0
0:2:8.108,552.545,31.2677,0,0.000885,0,0
0:2:8.401,553.719,31.3367,0,0.000885,0,0
0:2:8.700,555.712,31.447,0,0.000885,0,0
0:2:8.997,557.002,31.5228,0,0.000885,0,0
0:2:9.300,558.003,31.578,0,0.000885,0,0
0:2:9.602,559.351,31.6538,0,0.000885,0,0
0:2:9.904,561.579,31.7779,0,0.000885,0,0
0:2:10.203,562.691,31.84,0,0.000885,0,0
0:2:10.503,564.043,31.9158,0,0.000885,0,0
0:2:10.798,565.391,31.9917,0,0.000885,0,0
0:2:11.098,566.445,32.0537,0,0.000885,0,0
0:2:11.391,568.265,32.1571,0,0.000885,0,0
0:2:11.691,569.555,32.233,0,0.000885,0,0
0:2:11.985,570.493,32.2813,0,0.000885,0,0
0:2:12.284,571.961,32.364,0,0.000885,0,0
0:2:12.579,572.838,32.4191,0,0.000885,0,0
0:2:12.873,574.248,32.495,0,0.000885,0,0
0:2:13.173,574.777,32.5226,0,0.000885,0,0
0:2:13.467,576.067,32.5984,0,0.000885,0,0
0:2:13.767,577.824,32.6949,0,0.000885,0,0
0:2:14.059,579.114,32.7708,0,0.000885,0,0
0:2:14.360,580.288,32.8397,0,0.000885,0,0
0:2:14.664,581.93,32.9294,0,0.000885,0,0
0:2:14.966,583.104,32.9983,0,0.000885,0,0
0:2:15.265,584.216,33.0604,0,0.000885,0,0
0:2:15.566,585.097,33.1086,0,0.000885,0,0
0:2:15.864,587.21,33.2258,0,0.000885,0,0
0:2:16.171,588.38,33.2948,0,0.000885,0,0
0:2:16.466,589.554,33.3637,0,0.000885,0,0
0:2:16.767,590.728,33.4258,0,0.000885,0,0
0:2:17.058,592.018,33.5016,0,0.000885,0,0
0:2:17.363,593.9,33.605,0,0.000885,0,0
0:2:17.657,595.012,33.674,0,0.000885,0,0
0:2:17.966,596.542,33.7567,0,0.000885,0,0
0:2:18.264,597.361,33.805,0,0.000885,0,0
0:2:18.559,599.242,33.9084,0,0.000885,0,0
0:2:18.860,600.354,33.9705,0,0.000885,0,0
0:2:19.154,601.177,34.0187,0,0.000885,0,0
0:2:19.456,602.761,34.1084,0,0.000885,0,0
0:2:19.761,604.055,34.1842,0,0.000885,0,0
0:2:20.066,606.462,34.3152,0,0.000885,0,0
0:2:20.368,607.107,34.3566,0,0.000885,0,0
0:2:20.670,608.161,34.4117,0,0.000885,0,0
0:2:20.972,608.984,34.46,0,0.000885,0,0
0:2:21.268,610.923,34.5703,0,0.000885,0,0
0:2:21.566,612.271,34.6462,0,0.000885,0,0
0:2:21.866,613.681,34.7289,0,0.000885,0,0
0:2:22.159,614.678,34.7841,0,0.000885,0,0
0:2:22.460,616.03,34.8599,0,0.000885,0,0
0:2:22.757,617.729,34.9564,0,0.000885,0,0
0:2:23.056,619.668,35.0667,0,0.000885,0,0
0:2:23.364,620.958,35.1357,0,0.000885,0,0
0:2:23.659,622.426,35.2253,0,0.000885,0,0
0:2:23.959,623.129,35.2598,0,0.000885,0,0
0:2:24.265,624.775,35.3563,0,0.000885,0,0
0:2:24.568,626.536,35.4528,0,0.000885,0,0
0:2:24.870,627.239,35.4942,0,0.000885,0,0
0:2:25.171,628.298,35.5563,0,0.000885,0,0
0:2:25.475,630.411,35.6735,0,0.000885,0,0
0:2:25.769,631.349,35.7286,0,0.000885,0,0
0:2:26.072,632.466,35.7907,0,0.000885,0,0
0:2:26.366,633.347,35.8389,0,0.000885,0,0
0:2:26.667,634.637,35.9148,0,0.000885,0,0
0:2:26.961,636.692,36.032,0,0.000885,0,0
0:2:27.270,638.16,36.1147,0,0.000885,0,0
0:2:27.569,639.156,36.1699,0,0.000885,0,0
0:2:27.865,640.037,36.2182,0,0.000885,0,0
0:2:28.168,641.856,36.3216,0,0.000885,0,0
0:2:28.464,643.03,36.3905,0,0.000885,0,0
0:2:28.761,644.32,36.4595,0,0.000885,0,0
0:2:29.059,645.904,36.5491,0,0.000885,0,0
0:2:29.362,646.433,36.5836,0,0.000885,0,0
0:2:29.669,648.431,36.6939,0,0.000885,0,0
0:2:29.971,649.956,36.7766,0,0.000885,0,0
0:2:30.272,650.837,36.8318,0,0.000885,0,0
0:2:30.575,652.656,36.9352,0,0.000885,0,0
0:2:30.871,653.479,36.9766,0,0.000885,0,0
0:2:31.171,655.179,37.0731,0,0.000885,0,0
0:2:31.467,656.122,37.1283,0,0.000885,0,0
0:2:31.768,656.94,37.1765,0,0.000885,0,0
0:2:32.061,658.586,37.2662,0,0.000885,0,0
0:2:32.360,660.579,37.3834,0,0.000885,0,0
0:2:32.660,661.637,37.4385,0,0.000885,0,0
0:2:32.966,663.221,37.5282,0,0.000885,0,0
0:2:33.267,663.986,37.5764,0,0.000885,0,0
0:2:33.561,665.04,37.6316,0,0.000885,0,0
0:2:33.861,666.98,37.7419,0,0.000885,0,0
0:2:34.159,668.39,37.8246,0,0.000885,0,0
0:2:34.460,669.56,37.8867,0,0.000885,0,0
0:2:34.768,670.503,37.9418,0,0.000885,0,0
0:2:35.072,672.38,38.0522,0,0.000885,0,0
0:2:35.372,673.434,38.1073,0,0.000885,0,0
0:2:35.675,674.844,38.1901,0,0.000885,0,0
0:2:35.974,676.076,38.259,0,0.000885,0,0
0:2:36.272,676.957,38.3073,0,0.000885,0,0
0:2:36.568,678.896,38.4176,0,0.000885,0,0
0:2:36.870,680.186,38.4934,0,0.000885,0,0
0:2:37.162,681.303,38.5555,0,0.000885,0,0
0:2:37.462,682.242,38.6037,0,0.000885,0,0
0:2:37.760,683.532,38.6796,0,0.000885,0,0
0:2:38.058,685.529,38.7899,0,0.000885,0,0
0:2:38.356,686.525,38.852,0,0.000885,0,0
0:2:38.651,687.877,38.9278,0,0.000885,0,0
0:2:38.954,688.638,38.9692,0,0.000885,0,0
0:2:39.248,690.048,39.0519,0,0.000885,0,0
0:2:39.550,691.81,39.1484,0,0.000885,0,0
0:2:39.855,693.335,39.2381,0,0.000885,0,0
0:2:40.159,694.452,39.3001,0,0.000885,0,0
0:2:40.460,695.626,39.3622,0,0.000885,0,0
0:2:40.763,697.268,39.4587,0,0.000885,0,0
0:2:41.067,698.678,39.5345,0,0.000885,0,0
0:2:41.361,699.852,39.6035,0,0.000885,0,0
0:2:41.658,701.378,39.6931,0,0.000885,0,0
0:2:41.955,702.552,39.7552,0,0.000885,0,0
0:2:42.273,703.9,39.831,0,0.000885,0,0
0:2:42.574,704.959,39.8931,0,0.000885,0,0
0:2:42.870,705.897,39.9482,0,0.000885,0,0
0:2:43.168,707.365,40.031,0,0.000885,0,0
0:2:43.467,709.358,40.1413,0,0.000885,0,0
0:2:43.760,710.417,40.2033,0,0.000885,0,0
0:2:44.061,711.591,40.2654,0,0.000885,0,0
0:2:44.367,713.174,40.355,0,0.000885,0,0
0:2:44.670,714.113,40.4102,0,0.000885,0,0
0:2:44.973,716.346,40.5343,0,0.000885,0,0
0:2:45.274,717.342,40.5963,0,0.000885,0,0
0:2:45.577,718.517,40.6584,0,0.000885,0,0
0:2:45.871,719.398,40.7066,0,0.000885,0,0
0:2:46.174,721.039,40.8032,0,0.000885,0,0
0:2:46.470,722.155,40.8652,0,0.000885,0,0
0:2:46.767,723.094,40.9204,0,0.000885,0,0
0:2:47.067,724.682,41.01,0,0.000885,0,0
0:2:47.371,726.444,41.1065,0,0.000885,0,0
0:2:47.673,727.849,41.1893,0,0.000885,0,0
0:2:47.968,728.614,41.2306,0,0.000885,0,0
0:2:48.269,730.198,41.3203,0,0.000885,0,0
0:2:48.567,731.55,41.3961,0,0.000885,0,0
0:2:48.861,732.782,41.4651,0,0.000885,0,0
0:2:49.161,734.717,41.5754,0,0.000885,0,0
0:2:49.462,735.718,41.6305,0,0.000885,0,0
0:2:49.770,736.95,41.6995,0,0.000885,0,0
0:2:50.072,738.062,41.7684,0,0.000885,0,0
0:2:50.374,740.589,41.9063,0,0.000885,0,0
0:2:50.675,741.118,41.9408,0,0.000885,0,0
0:2:50.972,742.408,42.0098,0,0.000885,0,0
0:2:51.272,743.405,42.0649,0,0.000885,0,0
0:2:51.568,744.637,42.1408,0,0.000885,0,0
0:2:51.868,746.047,42.2166,0,0.000885,0,0
0:2:52.163,747.279,42.2855,0,0.000885,0,0
0:2:52.461,748.631,42.3614,0,0.000885,0,0
0:2:52.760,749.685,42.4234,0,0.000885,0,0
0:2:53.064,751.918,42.5475,0,0.000885,0,0
0:2:53.368,753.386,42.6303,0,0.000885,0,0
0:2:53.662,754.383,42.6923,0,0.000885,0,0
0:2:53.972,755.086,42.7268,0,0.000885,0,0
0:2:54.271,756.202,42.7889,0,0.000885,0,0
0:2:54.574,758.493,42.9199,0,0.000885,0,0
0:2:54.879,759.374,42.975,0,0.000885,0,0
0:2:55.181,760.899,43.0578,0,0.000885,0,0
0:2:55.482,762.132,43.1267,0,0.000885,0,0
0:2:55.785,763.715,43.2163,0,0.000885,0,0
0:2:56.081,765.067,43.2922,0,0.000885,0,0
0:2:56.382,766.3,43.3611,0,0.000885,0,0
0:2:56.677,767.705,43.4439,0,0.000885,0,0
0:2:56.979,768.355,43.4783,0,0.000885,0,0
0:2:57.272,770.112,43.5818,0,0.000885,0,0
0:2:57.571,771.17,43.6369,0,0.000885,0,0
0:2:57.871,773.105,43.7472,0,0.000885,0,0
0:2:58.175,774.048,43.8024,0,0.000885,0,0
0:2:58.477,775.396,43.8782,0,0.000885,0,0
0:2:58.772,776.571,43.9472,0,0.000885,0,0
0:2:59.075,777.509,43.9954,0,0.000885,0,0
0:2:59.379,778.568,44.0575,0,0.000885,0,0
0:2:59.682,779.916,44.1333,0,0.000885,0,0
0:2:59.984,782.558,44.285,0,0.000885,0,0
0:3:0.285,784.084,44.3678,0,0.000885,0,0
0:3:0.586,785.142,44.4298,0,0.000885,0,0
0:3:0.882,785.845,44.4712,0,0.000885,0,0
0:3:1.180,787.549,44.5677,0,0.000885,0,0
0:3:1.478,788.545,44.6229,0,0.000885,0,0
0:3:1.773,789.955,44.7056,0,0.000885,0,0
0:3:2.074,791.187,44.7746,0,0.000885,0,0
0:3:2.368,791.948,44.8159,0,0.000885,0,0
0:3:2.670,794.239,44.9469,0,0.000885,0,0
0:3:2.963,795.471,45.0159,0,0.000885,0,0
0:3:3.263,796.823,45.0917,0,0.000885,0,0
0:3:3.563,797.762,45.1469,0,0.000885,0,0
0:3:3.877,799.755,45.2572,0,0.000885,0,0
0:3:4.180,801.049,45.333,0,0.000885,0,0
0:3:4.484,802.045,45.3882,0,0.000885,0,0
0:3:4.786,803.104,45.4433,0,0.000885,0,0
0:3:5.088,804.452,45.5261,0,0.000885,0,0
0:3:5.390,806.271,45.6226,0,0.000885,0,0
0:3:5.693,807.152,45.6778,0,0.000885,0,0
0:3:5.987,808.148,45.7329,0,0.000885,0,0
0:3:6.289,809.149,45.7881,0,0.000885,0,0
0:3:6.585,811.614,45.926,0,0.000885,0,0
0:3:6.884,813.024,46.0087,0,0.000885,0,0
0:3:7.184,813.727,46.0501,0,0.000885,0,0
0:3:7.479,815.252,46.1328,0,0.000885,0,0
0:3:7.781,816.427,46.2018,0,0.000885,0,0
0:3:8.076,818.246,46.3052,0,0.000885,0,0
0:3:8.374,819.247,46.3603,0,0.000885,0,0
0:3:8.674,820.185,46.4155,0,0.000885,0,0
0:3:8.968,821.533,46.4913,0,0.000885,0,0
0:3:9.265,823.001,46.5741,0,0.000885,0,0
0:3:9.572,824.353,46.6499,0,0.000885,0,0
0:3:9.877,826.288,46.7602,0,0.000885,0,0
0:3:10.179,826.875,46.7947,0,0.000885,0,0
0:3:10.480,828.637,46.8912,0,0.000885,0,0
0:3:10.783,829.985,46.9671,0,0.000885,0,0
0:3:11.078,831.159,47.036,0,0.000885,0,0
0:3:11.379,832.454,47.105,0,0.000885,0,0
0:3:11.674,833.744,47.1808,0,0.000885,0,0
0:3:11.975,834.682,47.236,0,0.000885,0,0
0:3:12.271,836.208,47.3187,0,0.000885,0,0
0:3:12.570,837.912,47.4152,0,0.000885,0,0
0:3:12.869,838.672,47.4566,0,0.000885,0,0
0:3:13.162,840.14,47.5394,0,0.000885,0,0
0:3:13.462,841.492,47.6221,0,0.000885,0,0
0:3:13.759,843.134,47.7117,0,0.000885,0,0
0:3:14.057,844.192,47.7738,0,0.000885,0,0
0:3:14.355,845.54,47.8496,0,0.000885,0,0
0:3:14.658,846.305,47.891,0,0.000885,0,0
0:3:14.962,847.889,47.9806,0,0.000885,0,0
0:3:15.264,850.18,48.1116,0,0.000885,0,0
0:3:15.565,850.825,48.1461,0,0.000885,0,0
0:3:15.870,852.35,48.2357,0,0.000885,0,0
0:3:16.165,852.88,48.2633,0,0.000885,0,0
0:3:16.466,855.108,48.3874,0,0.000885,0,0
0:3:16.761,856.225,48.4495,0,0.000885,0,0
0:3:17.063,857.751,48.5391,0,0.000885,0,0
0:3:17.358,858.751,48.5942,0,0.000885,0,0
0:3:17.657,860.041,48.6701,0,0.000885,0,0
0:3:17.965,861.096,48.7252,0,0.000885,0,0
0:3:18.261,862.915,48.8287,0,0.000885,0,0
0:3:18.562,864.031,48.8976,0,0.000885,0,0
0:3:18.857,865.148,48.9597,0,0.000885,0,0
0:3:19.159,866.264,49.0217,0,0.000885,0,0
0:3:19.464,868.142,49.1251,0,0.000885,0,0
0:3:19.767,869.316,49.1941,0,0.000885,0,0
0:3:20.071,870.49,49.263,0,0.000885,0,0
0:3:20.372,871.722,49.332,0,0.000885,0,0
0:3:20.674,874.071,49.463,0,0.000885,0,0
0:3:20.979,875.01,49.5181,0,0.000885,0,0
0:3:21.277,876.064,49.5733,0,0.000885,0,0
0:3:21.575,877.123,49.6354,0,0.000885,0,0
0:3:21.870,878.706,49.725,0,0.000885,0,0
0:3:22.170,880.001,49.8008,0,0.000885,0,0
0:3:22.465,881.348,49.8767,0,0.000885,0,0
0:3:22.764,882.701,49.9525,0,0.000885,0,0
0:3:23.072,883.871,50.0146,0,0.000885,0,0
0:3:23.370,885.574,50.1111,0,0.000885,0,0
0:3:23.670,886.926,50.1869,0,0.000885,0,0
0:3:23.973,888.039,50.2559,0,0.000885,0,0
0:3:24.275,889.097,50.311,0,0.000885,0,0
0:3:24.579,890.859,50.4145,0,0.000885,0,0
0:3:24.883,892.206,50.4903,0,0.000885,0,0
0:3:25.185,893.207,50.5455,0,0.000885,0,0
0:3:25.486,894.319,50.6075,0,0.000885,0,0
0:3:25.790,896.023,50.704,0,0.000885,0,0
0:3:26.085,897.785,50.8075,0,0.000885,0,0
0:3:26.385,898.959,50.8695,0,0.000885,0,0
0:3:26.682,899.897,50.9247,0,0.000885,0,0
0:3:26.978,900.894,50.9798,0,0.000885,0,0
0:3:27.278,902.362,51.0626,0,0.000885,0,0
0:3:27.573,904.181,51.166,0,0.000885,0,0
0:3:27.874,905.004,51.2143,0,0.000885,0,0
0:3:28.168,906.236,51.2832,0,0.000885,0,0
0:3:28.468,907.998,51.3797,0,0.000885,0,0
0:3:28.766,909.23,51.4487,0,0.000885,0,0
0:3:29.073,910.756,51.5383,0,0.000885,0,0
0:3:29.374,911.93,51.6073,0,0.000885,0,0
0:3:29.679,913.162,51.6762,0,0.000885,0,0
0:3:29.982,913.985,51.7176,0,0.000885,0,0
0:3:30.284,915.746,51.821,0,0.000885,0,0
0:3:30.586,917.272,51.9037,0,0.000885,0,0
0:3:30.889,918.624,51.9865,0,0.000885,0,0
0:3:31.184,919.563,52.0347,0,0.000885,0,0
0:3:31.486,921.382,52.1382,0,0.000885,0,0
0:3:31.782,922.73,52.214,0,0.000885,0,0
0:3:32.080,923.731,52.2692,0,0.000885,0,0
0:3:32.379,925.199,52.3588,0,0.000885,0,0
0:3:32.675,925.608,52.3795,0,0.000885,0,0
0:3:32.977,927.779,52.5036,0,0.000885,0,0
0:3:33.268,929.011,52.5725,0,0.000885,0,0
0:3:33.568,930.128,52.6346,0,0.000885,0,0
0:3:33.867,931.48,52.7104,0,0.000885,0,0
0:3:34.175,932.418,52.7656,0,0.000885,0,0
0:3:34.474,934.118,52.8621,0,0.000885,0,0
0:3:34.778,935.763,52.9517,0,0.000885,0,0
0:3:35.081,936.996,53.0207,0,0.000885,0,0
0:3:35.384,938.464,53.1034,0,0.000885,0,0
0:3:35.686,939.874,53.1862,0,0.000885,0,0
0:3:35.988,941.337,53.2689,0,0.000885,0,0
0:3:36.285,942.102,53.3103,0,0.000885,0,0
0:3:36.587,944.099,53.4275,0,0.000885,0,0
0:3:36.881,944.918,53.4688,0,0.000885,0,0
0:3:37.180,946.857,53.5792,0,0.000885,0,0
0:3:37.477,948.267,53.6619,0,0.000885,0,0
0:3:37.773,948.97,53.7033,0,0.000885,0,0
0:3:38.069,949.909,53.7515,0,0.000885,0,0
0:3:38.366,951.906,53.8687,0,0.000885,0,0
0:3:38.667,953.312,53.9446,0,0.000885,0,0
0:3:38.973,954.077,53.9928,0,0.000885,0,0
0:3:39.275,955.425,54.0687,0,0.000885,0,0
0:3:39.580,956.425,54.1238,0,0.000885,0,0
0:3:39.883,958.187,54.2204,0,0.000885,0,0
0:3:40.185,959.886,54.3169,0,0.000885,0,0
0:3:40.486,960.358,54.3445,0,0.000885,0,0
0:3:40.786,962.177,54.4479,0,0.000885,0,0
0:3:41.083,962.706,54.4755,0,0.000885,0,0
0:3:41.380,964.877,54.5996,0,0.000885,0,0
0:3:41.681,966.109,54.6685,0,0.000885,0,0
0:3:41.975,967.635,54.7582,0,0.000885,0,0
0:3:42.275,968.574,54.8133,0,0.000885,0,0
0:3:42.572,969.984,54.8892,0,0.000885,0,0
0:3:42.868,971.745,54.9926,0,0.000885,0,0
0:3:43.178,973.564,55.0891,0,0.000885,0,0
0:3:43.473,973.8,55.1029,0,0.000885,0,0
0:3:43.775,975.735,55.2132,0,0.000885,0,0
0:3:44.066,977.261,55.3028,0,0.000885,0,0
0:3:44.368,978.262,55.358,0,0.000885,0,0
0:3:44.674,979.143,55.4063,0,0.000885,0,0
0:3:44.977,980.904,55.5097,0,0.000885,0,0
0:3:45.280,982.897,55.62,0,0.000885,0,0
0:3:45.581,984.013,55.6821,0,0.000885,0,0
0:3:45.883,985.01,55.7372,0,0.000885,0,0
0:3:46.179,986.535,55.8268,0,0.000885,0,0
0:3:46.478,987.243,55.8682,0,0.000885,0,0
0:3:46.778,988.826,55.9579,0,0.000885,0,0
0:3:47.073,990.058,56.0268,0,0.000885,0,0
0:3:47.374,991.175,56.0889,0,0.000885,0,0
0:3:47.667,992.879,56.1854,0,0.000885,0,0
0:3:47.967,993.581,56.2267,0,0.000885,0,0
0:3:48.275,995.516,56.3371,0,0.000885,0,0
0:3:48.569,996.691,56.3991,0,0.000885,0,0
0:3:48.870,998.217,56.4887,0,0.000885,0,0
0:3:49.164,999.097,56.537,0,0.000885,0,0
0:3:49.467,1000.63,56.6266,0,0.000885,0,0
0:3:49.770,1002.15,56.7094,0,0.000885,0,0
0:3:50.076,1003.03,56.7576,0,0.000885,0,0
0:3:50.378,1004.73,56.8542,0,0.000885,0,0
0:3:50.681,1005.67,56.9093,0,0.000885,0,0
0:3:50.982,1007.08,56.9921,0,0.000885,0,0
0:3:51.278,1008.9,57.0955,0,0.000885,0,0
0:3:51.576,1010.48,57.1851,0,0.000885,0,0
0:3:51.874,1011.37,57.2334,0,0.000885,0,0
0:3:52.181,1013.13,57.3299,0,0.000885,0,0
0:3:52.481,1014.01,57.3782,0,0.000885,0,0
0:3:52.774,1015.12,57.4471,0,0.000885,0,0
0:3:53.076,1016.53,57.523,0,0.000885,0,0
0:3:53.373,1017.59,57.585,0,0.000885,0,0
0:3:53.669,1019.23,57.6746,0,0.000885,0,0
0:3:53.979,1021.17,57.785,0,0.000885,0,0
0:3:54.280,1022.58,57.8677,0,0.000885,0,0
0:3:54.585,1023.05,57.8953,0,0.000885,0,0
0:3:54.888,1024.99,58.0056,0,0.000885,0,0
0:3:55.189,1025.98,58.0608,0,0.000885,0,0
0:3:55.491,1026.81,58.1021,0,0.000885,0,0
0:3:55.789,1028.68,58.2124,0,0.000885,0,0
0:3:56.090,1029.39,58.2538,0,0.000885,0,0
0:3:56.385,1031.21,58.3572,0,0.000885,0,0
0:3:56.686,1032.85,58.4469,0,0.000885,0,0
0:3:56.981,1034.26,58.5296,0,0.000885,0,0
0:3:57.280,1035.31,58.5848,0,0.000885,0,0
0:3:57.578,1035.67,58.6054,0,0.000885,0,0
0:3:57.873,1037.9,58.7364,0,0.000885,0,0
0:3:58.175,1039.54,58.8261,0,0.000885,0,0
0:3:58.468,1040.25,58.8674,0,0.000885,0,0
0:3:58.768,1041.13,58.9157,0,0.000885,0,0
0:3:59.064,1042.48,58.9915,0,0.000885,0,0
0:3:59.367,1044.36,59.1019,0,0.000885,0,0
0:3:59.670,1045.94,59.1915,0,0.000885,0,0
0:3:59.975,1047.29,59.2673,0,0.000885,0,0
0:4:0.278,1048.35,59.3225,0,0.000885,0,0
0:4:0.580,1049.76,59.4052,0,0.000885,0,0
0:4:0.880,1051.34,59.4949,0,0.000885,0,0
0:4:1.178,1052.04,59.5362,0,0.000885,0,0
0:4:1.474,1053.22,59.5983,0,0.000885,0,0
0:4:1.776,1055.75,59.7431,0,0.000885,0,0
0:4:2.068,1056.92,59.812,0,0.000885,0,0
0:4:2.368,1058.21,59.881,0,0.000885,0,0
0:4:2.665,1058.91,59.9223,0,0.000885,0,0
0:4:2.964,1059.85,59.9775,0,0.000885,0,0
0:4:3.261,1061.61,60.074,0,0.000885,0,0
0:4:3.558,1063.14,60.1637,0,0.000885,0,0
0:4:3.859,1064.43,60.2326,0,0.000885,0,0
0:4:4.153,1065.54,60.2947,0,0.000885,0,0
0:4:4.455,1066.78,60.3705,0,0.000885,0,0
0:4:4.761,1068.36,60.4601,0,0.000885,0,0
0:4:5.062,1069.65,60.5291,0,0.000885,0,0
0:4:5.365,1070.54,60.5773,0,0.000885,0,0
0:4:5.666,1071.59,60.6394,0,0.000885,0,0
0:4:5.969,1074,60.7773,0,0.000885,0,0
0:4:6.264,1075.47,60.86,0,0.000885,0,0
0:4:6.562,1076.29,60.9083,0,0.000885,0,0
0:4:6.860,1077.35,60.9634,0,0.000885,0,0
0:4:7.157,1078.64,61.0393,0,0.000885,0,0
0:4:7.458,1080.16,61.122,0,0.000885,0,0
0:4:7.752,1081.81,61.2185,0,0.000885,0,0
0:4:8.053,1083.21,61.2944,0,0.000885,0,0
0:4:8.350,1084.04,61.3427,0,0.000885,0,0
0:4:8.646,1084.74,61.384,0,0.000885,0,0
0:4:8.946,1086.62,61.4874,0,0.000885,0,0
0:4:9.249,1088.38,61.5909,0,0.000885,0,0
0:4:9.552,1089.38,61.646,0,0.000885,0,0
0:4:9.854,1090.37,61.7012,0,0.000885,0,0
0:4:10.157,1092.14,61.8046,0,0.000885,0,0
0:4:10.459,1093.14,61.8598,0,0.000885,0,0
0:4:10.755,1094.19,61.9218,0,0.000885,0,0
0:4:11.055,1095.77,62.0114,0,0.000885,0,0
0:4:11.352,1097.07,62.0804,0,0.000885,0,0
0:4:11.652,1099.24,62.2045,0,0.000885,0,0
0:4:11.949,1100.29,62.2666,0,0.000885,0,0
0:4:12.246,1101.53,62.3355,0,0.000885,0,0
0:4:12.547,1102.47,62.3838,0,0.000885,0,0
0:4:12.840,1103.7,62.4596,0,0.000885,0,0
0:4:13.140,1104.93,62.5286,0,0.000885,0,0
0:4:13.437,1106.17,62.5975,0,0.000885,0,0
0:4:13.737,1107.81,62.6871,0,0.000885,0,0
0:4:14.034,1109.45,62.7837,0,0.000885,0,0
0:4:14.336,1110.22,62.825,0,0.000885,0,0
0:4:14.642,1112.15,62.9353,0,0.000885,0,0
0:4:14.943,1113.74,63.025,0,0.000885,0,0
0:4:15.245,1115.09,63.1008,0,0.000885,0,0
0:4:15.547,1116.03,63.156,0,0.000885,0,0
0:4:15.845,1117.2,63.218,0,0.000885,0,0
0:4:16.146,1119.2,63.3352,0,0.000885,0,0
0:4:16.441,1120.14,63.3835,0,0.000885,0,0
0:4:16.742,1121.13,63.4456,0,0.000885,0,0
0:4:17.038,1122.54,63.5214,0,0.000885,0,0
0:4:17.336,1123.66,63.5835,0,0.000885,0,0
0:4:17.636,1125.01,63.6593,0,0.000885,0,0
0:4:17.930,1126.77,63.7627,0,0.000885,0,0
0:4:18.231,1127.89,63.8248,0,0.000885,0,0
0:4:18.528,1128.83,63.8799,0,0.000885,0,0
0:4:18.827,1130.52,63.9765,0,0.000885,0,0
0:4:19.126,1131.88,64.0523,0,0.000885,0,0
0:4:19.429,1133.17,64.1212,0,0.000885,0,0
0:4:19.733,1134.28,64.1902,0,0.000885,0,0
0:4:20.036,1135.99,64.2867,0,0.000885,0,0
0:4:20.338,1136.69,64.3212,0,0.000885,0,0
0:4:20.641,1138.04,64.397,0,0.000885,0,0
0:4:20.937,1139.63,64.4867,0,0.000885,0,0
0:4:21.239,1140.74,64.5556,0,0.000885,0,0
0:4:21.533,1142.33,64.6452,0,0.000885,0,0
0:4:21.834,1144.09,64.7418,0,0.000885,0,0
0:4:22.131,1145.14,64.8038,0,0.000885,0,0
0:4:22.427,1145.91,64.8452,0,0.000885,0,0
0:4:22.727,1147.49,64.9348,0,0.000885,0,0
0:4:23.023,1149.19,65.0314,0,0.000885,0,0
0:4:23.323,1150.19,65.0865,0,0.000885,0,0
0:4:23.620,1151.07,65.1348,0,0.000885,0,0
0:4:23.919,1152.6,65.2244,0,0.000885,0,0
0:4:24.218,1153.77,65.2934,0,0.000885,0,0
0:4:24.522,1156.18,65.4244,0,0.000885,0,0
0:4:24.827,1157.06,65.4795,0,0.000885,0,0
0:4:25.129,1157.76,65.514,0,0.000885,0,0
0:4:25.431,1159.23,65.5967,0,0.000885,0,0
0:4:25.734,1160.64,65.6795,0,0.000885,0,0
0:4:26.031,1161.64,65.7346,0,0.000885,0,0
0:4:26.332,1163.45,65.838,0,0.000885,0,0
0:4:26.626,1164.34,65.8863,0,0.000885,0,0
0:4:26.925,1165.92,65.9759,0,0.000885,0,0
0:4:27.226,1167.62,66.0725,0,0.000885,0,0
0:4:27.521,1169.38,66.1759,0,0.000885,0,0
0:4:27.823,1169.91,66.2035,0,0.000885,0,0
0:4:28.119,1171.79,66.3069,0,0.000885,0,0
0:4:28.419,1172.91,66.3758,0,0.000885,0,0
0:4:28.716,1174.43,66.4586,0,0.000885,0,0
0:4:29.012,1175.14,66.4999,0,0.000885,0,0
0:4:29.314,1176.6,66.5827,0,0.000885,0,0
0:4:29.618,1177.66,66.6447,0,0.000885,0,0
0:4:29.921,1179.89,66.7688,0,0.000885,0,0
0:4:30.223,1181.01,66.8309,0,0.000885,0,0
0:4:30.525,1182.42,66.9136,0,0.000885,0,0
0:4:30.828,1183.18,66.955,0,0.000885,0,0
0:4:31.122,1184.47,67.0239,0,0.000885,0,0
0:4:31.424,1186.29,67.1274,0,0.000885,0,0
0:4:31.721,1187.29,67.1894,0,0.000885,0,0
0:4:32.017,1188.35,67.2446,0,0.000885,0,0
0:4:32.315,1189.87,67.3342,0,0.000885,0,0
0:4:32.611,1191.57,67.4307,0,0.000885,0,0
0:4:32.913,1192.81,67.4997,0,0.000885,0,0
0:4:33.208,1193.86,67.5617,0,0.000885,0,0
0:4:33.509,1195.21,67.6376,0,0.000885,0,0
0:4:33.806,1196.03,67.6789,0,0.000885,0,0
0:4:34.102,1197.97,67.7893,0,0.000885,0,0
0:4:34.403,1199.73,67.8927,0,0.000885,0,0
0:4:34.706,1200.26,67.9203,0,0.000885,0,0
0:4:35.011,1201.85,68.0099,0,0.000885,0,0
0:4:35.312,1202.49,68.0444,0,0.000885,0,0
0:4:35.615,1204.49,68.1616,0,0.000885,0,0
0:4:35.916,1206.37,68.265,0,0.000885,0,0
0:4:36.211,1207.13,68.3064,0,0.000885,0,0
0:4:36.512,1208.72,68.396,0,0.000885,0,0
0:4:36.810,1210.83,68.5201,0,0.000885,0,0
0:4:37.108,1211.59,68.5615,0,0.000885,0,0
0:4:37.407,1212.76,68.6304,0,0.000885,0,0
0:4:37.702,1213.59,68.6718,0,0.000885,0,0
0:4:38.004,1214.64,68.7338,0,0.000885,0,0
0:4:38.298,1216.34,68.8304,0,0.000885,0,0
0:4:38.598,1217.99,68.9269,0,0.000885,0,0
0:4:38.895,1218.69,68.9614,0,0.000885,0,0
0:4:39.199,1220.1,69.0441,0,0.000885,0,0
0:4:39.504,1220.51,69.0648,0,0.000885,0,0
0:4:39.806,1222.45,69.1751,0,0.000885,0,0
0:4:40.108,1224.09,69.2716,0,0.000885,0,0
0:4:40.409,1225.91,69.375,0,0.000885,0,0
0:4:40.708,1227.03,69.4371,0,0.000885,0,0
0:4:41.008,1228.96,69.5474,0,0.000885,0,0
0:4:41.304,1229.9,69.5957,0,0.000885,0,0
0:4:41.604,1230.96,69.6577,0,0.000885,0,0
0:4:41.899,1232.6,69.7543,0,0.000885,0,0
0:4:42.199,1234.19,69.8439,0,0.000885,0,0
0:4:42.495,1235.66,69.9266,0,0.000885,0,0
0:4:42.791,1236.54,69.9749,0,0.000885,0,0
0:4:43.091,1237.18,70.0094,0,0.000885,0,0
0:4:43.386,1238.42,70.0783,0,0.000885,0,0
0:4:43.689,1239.71,70.1542,0,0.000885,0,0
0:4:43.984,1241.29,70.2438,0,0.000885,0,0
0:4:44.285,1242.82,70.3265,0,0.000885,0,0
0:4:44.590,1244.05,70.3955,0,0.000885,0,0
0:4:44.893,1245.05,70.4575,0,0.000885,0,0
0:4:45.196,1246.99,70.5678,0,0.000885,0,0
0:4:45.498,1248.16,70.6299,0,0.000885,0,0
0:4:45.800,1249.69,70.7195,0,0.000885,0,0
0:4:46.095,1250.63,70.7678,0,0.000885,0,0
0:4:46.394,1252.09,70.8505,0,0.000885,0,0
0:4:46.694,1253.5,70.9333,0,0.000885,0,0
0:4:46.988,1255.09,71.0229,0,0.000885,0,0
0:4:47.290,1256.26,71.0918,0,0.000885,0,0
0:4:47.584,1257.96,71.1884,0,0.000885,0,0
0:4:47.883,1258.96,71.2435,0,0.000885,0,0
0:4:48.181,1260.66,71.3401,0,0.000885,0,0
0:4:48.486,1261.37,71.3814,0,0.000885,0,0
0:4:48.788,1262.48,71.4435,0,0.000885,0,0
0:4:49.081,1263.78,71.5124,0,0.000885,0,0
0:4:49.384,1265.42,71.6089,0,0.000885,0,0
0:4:49.688,1266.94,71.6917,0,0.000885,0,0
0:4:49.992,1268.29,71.7675,0,0.000885,0,0
0:4:50.294,1269.23,71.8227,0,0.000885,0,0
0:4:50.595,1270.29,71.8847,0,0.000885,0,0
0:4:50.899,1272.4,72.002,0,0.000885,0,0
0:4:51.193,1273.69,72.0778,0,0.000885,0,0
0:4:51.493,1274.46,72.1192,0,0.000885,0,0
0:4:51.792,1275.69,72.1881,0,0.000885,0,0
0:4:52.086,1277.68,72.3053,0,0.000885,0,0
0:4:52.388,1278.68,72.3605,0,0.000885,0,0
0:4:52.682,1279.98,72.4294,0,0.000885,0,0
0:4:52.984,1281.27,72.5053,0,0.000885,0,0
0:4:53.289,1282.56,72.5811,0,0.000885,0,0
0:4:53.588,1284.26,72.6776,0,0.000885,0,0
0:4:53.885,1285.38,72.7397,0,0.000885,0,0
0:4:54.189,1286.67,72.8086,0,0.000885,0,0
0:4:54.493,1288.02,72.8845,0,0.000885,0,0
0:4:54.796,1289.31,72.9603,0,0.000885,0,0
0:4:55.099,1291.19,73.0637,0,0.000885,0,0
0:4:55.401,1292.01,73.112,0,0.000885,0,0
0:4:55.696,1293.12,73.1741,0,0.000885,0,0
0:4:55.999,1294.01,73.2223,0,0.000885,0,0
0:4:56.292,1296.53,73.3671,0,0.000885,0,0
0:4:56.593,1297.88,73.443,0,0.000885,0,0
0:4:56.890,1298.7,73.4912,0,0.000885,0,0
0:4:57.186,1299.81,73.5533,0,0.000885,0,0
0:4:57.486,1300.64,73.6015,0,0.000885,0,0
0:4:57.781,1302.75,73.7187,0,0.000885,0,0
0:4:58.083,1303.75,73.7739,0,0.000885,0,0
0:4:58.388,1305.1,73.8566,0,0.000885,0,0
0:4:58.685,1306.57,73.9394,0,0.000885,0,0
0:4:58.984,1308.21,74.029,0,0.000885,0,0
0:4:59.286,1309.44,74.098,0,0.000885,0,0
0:4:59.590,1310.5,74.16,0,0.000885,0,0
0:4:59.893,1311.97,74.2427,0,0.000885,0,0
0:5:0.196,1313.26,74.3186,0,0.000885,0,0
0:5:0.500,1314.55,74.3875,0,0.000885,0,0
0:5:0.795,1315.78,74.4565,0,0.000885,0,0
0:5:1.095,1316.95,74.5254,0,0.000885,0,0
0:5:1.390,1317.95,74.5806,0,0.000885,0,0
0:5:1.692,1319.77,74.684,0,0.000885,0,0
0:5:1.986,1321.12,74.7599,0,0.000885,0,0
0:5:2.287,1322.18,74.8219,0,0.000885,0,0
0:5:2.585,1323.35,74.884,0,0.000885,0,0
0:5:2.889,1324.82,74.9667,0,0.000885,0,0
0:5:3.189,1326.52,75.0632,0,0.000885,0,0
0:5:3.485,1327.34,75.1115,0,0.000885,0,0
0:5:3.786,1328.58,75.1804,0,0.000885,0,0
0:5:4.081,1330.1,75.2701,0,0.000885,0,0
0:5:4.383,1331.16,75.3252,0,0.000885,0,0
0:5:4.688,1332.92,75.4286,0,0.000885,0,0
0:5:4.991,1334.21,75.4976,0,0.000885,0,0
0:5:5.293,1335.56,75.5803,0,0.000885,0,0
0:5:5.595,1336.74,75.6424,0,0.000885,0,0
0:5:5.895,1338.5,75.7458,0,0.000885,0,0
0:5:6.193,1339.61,75.8079,0,0.000885,0,0
0:5:6.489,1341.08,75.8906,0,0.000885,0,0
0:5:6.790,1342.14,75.9526,0,0.000885,0,0
0:5:7.084,1342.78,75.9871,0,0.000885,0,0
0:5:7.386,1344.84,76.1043,0,0.000885,0,0
0:5:7.682,1346.42,76.194,0,0.000885,0,0
0:5:7.981,1348.01,76.2836,0,0.000885,0,0
0:5:8.290,1349.06,76.3388,0,0.000885,0,0
0:5:8.584,1350.3,76.4077,0,0.000885,0,0
0:5:8.887,1351.82,76.4973,0,0.000885,0,0
0:5:9.182,1352.94,76.5594,0,0.000885,0,0
0:5:9.485,1354.17,76.6283,0,0.000885,0,0
0:5:9.790,1355.11,76.6835,0,0.000885,0,0
0:5:10.092,1356.99,76.7869,0,0.000885,0,0
0:5:10.396,1357.75,76.8352,0,0.000885,0,0
0:5:10.695,1358.92,76.8972,0,0.000885,0,0
0:5:10.997,1360.45,76.9869,0,0.000885,0,0
0:5:11.293,1361.57,77.0489,0,0.000885,0,0
0:5:11.590,1363.09,77.1385,0,0.000885,0,0
0:5:11.892,1364.97,77.242,0,0.000885,0,0
0:5:12.185,1365.97,77.2971,0,0.000885,0,0
0:5:12.486,1366.85,77.3454,0,0.000885,0,0
0:5:12.782,1368.38,77.435,0,0.000885,0,0
0:5:13.089,1370.49,77.5522,0,0.000885,0,0
0:5:13.388,1371.55,77.6143,0,0.000885,0,0
0:5:13.684,1372.78,77.6832,0,0.000885,0,0
0:5:13.986,1373.83,77.7453,0,0.000885,0,0
0:5:14.290,1375.59,77.8418,0,0.000885,0,0
0:5:14.594,1376.53,77.897,0,0.000885,0,0
0:5:14.895,1377.94,77.9728,0,0.000885,0,0
0:5:15.199,1379.3,78.0487,0,0.000885,0,0
0:5:15.500,1380.7,78.1314,0,0.000885,0,0
0:5:15.794,1381.93,78.2003,0,0.000885,0,0
0:5:16.096,1382.76,78.2486,0,0.000885,0,0
0:5:16.390,1384.11,78.3244,0,0.000885,0,0
0:5:16.689,1385.22,78.3865,0,0.000885,0,0
0:5:16.986,1386.81,78.4761,0,0.000885,0,0
0:5:17.284,1388.1,78.552,0,0.000885,0,0
0:5:17.584,1389.51,78.6278,0,0.000885,0,0
0:5:17.887,1390.74,78.6968,0,0.000885,0,0
0:5:18.190,1391.39,78.7381,0,0.000885,0,0
0:5:18.485,1393.03,78.8278,0,0.000885,0,0
0:5:18.784,1394.14,78.8898,0,0.000885,0,0
0:5:19.093,1395.43,78.9657,0,0.000885,0,0
0:5:19.396,1396.73,79.0415,0,0.000885,0,0
0:5:19.701,1398.84,79.1587,0,0.000885,0,0
0:5:20.003,1399.78,79.2139,0,0.000885,0,0
0:5:20.305,1400.95,79.2759,0,0.000885,0,0
0:5:20.608,1402.3,79.3518,0,0.000885,0,0
0:5:20.903,1400.48,79.2483,0,0.000885,0,0
0:5:21.203,1396.84,79.0484,0,0.000885,0,0
0:5:21.496,1389.68,78.6416,0,0.000885,0,0
0:5:21.797,1385.87,78.421,0,0.000885,0,0
0:5:22.091,1382.99,78.2624,0,0.000885,0,0
0:5:22.389,1381.58,78.1797,0,0.000885,0,0
0:5:22.687,1379.3,78.0487,0,0.000885,0,0
0:5:22.990,1374.83,77.8004,0,0.000885,0,0
0:5:23.291,1370.31,77.5453,0,0.000885,0,0
0:5:23.585,1368.78,77.4557,0,0.000885,0,0
0:5:23.884,1370.14,77.5315,0,0.000885,0,0
0:5:24.190,1370.9,77.5798,0,0.000885,0,0
0:5:24.492,1371.25,77.5936,0,0.000885,0,0
0:5:24.796,1371.37,77.6005,0,0.000885,0,0
0:5:25.098,1372.31,77.6557,0,0.000885,0,0
0:5:25.399,1373.25,77.7108,0,0.000885,0,0
0:5:25.701,1373.54,77.7246,0,0.000885,0,0
0:5:25.997,1374.6,77.7867,0,0.000885,0,0
0:5:26.295,1375.89,77.8625,0,0.000885,0,0
0:5:26.589,1378.77,78.0211,0,0.000885,0,0
0:5:26.891,1380.59,78.1245,0,0.000885,0,0
0:5:27.184,1382.29,78.221,0,0.000885,0,0
0:5:27.483,1384.52,78.3451,0,0.000885,0,0
0:5:27.779,1386.04,78.4348,0,0.000885,0,0
0:5:28.086,1388.16,78.552,0,0.000885,0,0
0:5:28.385,1389.22,78.614,0,0.000885,0,0
0:5:28.678,1390.39,78.683,0,0.000885,0,0
0:5:28.978,1391.39,78.7381,0,0.000885,0,0
0:5:29.285,1392.8,78.814,0,0.000885,0,0
0:5:29.586,1393.38,78.8484,0,0.000885,0,0
0:5:29.888,1393.5,78.8553,0,0.000885,0,0
0:5:30.189,1393.73,78.8691,0,0.000885,0,0
0:5:30.491,1394.32,78.9036,0,0.000885,0,0
0:5:30.784,1395.38,78.9588,0,0.000885,0,0
0:5:31.083,1395.61,78.9725,0,0.000885,0,0
0:5:31.390,1396.2,79.007,0,0.000885,0,0
0:5:31.684,1395.02,78.945,0,0.000885,0,0
0:5:31.984,1393.79,78.8691,0,0.000885,0,0
0:5:32.288,1394.5,78.9105,0,0.000885,0,0
0:5:32.589,1395.5,78.9657,0,0.000885,0,0
0:5:32.892,1396.96,79.0553,0,0.000885,0,0
0:5:33.191,1397.9,79.1036,0,0.000885,0,0
0:5:33.468,1142.73,64.6659,0,0.000885,0,0