File: DataFile2021-06-08_074152.csv
Test ID:,Date Tested:,Time:,Test Type:,Diameter Avg. (mm):,Cyl. Corr. Factor:,Height (mm):,Age (days):,Weight (kN):,Break Type:,Ramp Rate (MPa/s):,Load at Break (kN):,Stress at Break (MPa):
12,6/8/2021,07:41,Cylinder,100,1,200,0,3.6,3,0.24,532.43,67.79
Sample Time,Load (kN),Stress (MPa),Long. Strain,Trans. Strain,Chan1 Deflection (mm),Chan2 Deflection (mm)
0:0:14.192,6.21861,0.792897,0,0.000885,0,0
0:0:14.487,11.7878,1.50306,0,0.000885,0,0
0:0:14.787,13.3714,1.70301,0,0.000885,0,0
0:0:15.089,12.9621,1.64785,0,0.000885,0,0
0:0:15.381,12.7264,1.62027,0,0.000885,0,0
0:0:15.683,12.2015,1.55132,0,0.000885,0,0
0:0:15.979,12.0235,1.53064,0,0.000885,0,0
0:0:16.277,11.4942,1.46169,0,0.000885,0,0
0:0:16.574,11.6143,1.47548,0,0.000885,0,0
0:0:16.868,11.4942,1.46169,0,0.000885,0,0
0:0:17.171,12.4328,1.58579,0,0.000885,0,0
0:0:17.463,12.0814,1.53753,0,0.000885,0,0
0:0:17.764,12.1392,1.54443,0,0.000885,0,0
0:0:18.060,12.3171,1.56511,0,0.000885,0,0
0:0:18.358,13.0778,1.66853,0,0.000885,0,0
0:0:18.654,13.1356,1.67543,0,0.000885,0,0
0:0:18.948,13.1356,1.67543,0,0.000885,0,0
0:0:19.252,13.9007,1.77195,0,0.000885,0,0
0:0:19.547,14.4879,1.84779,0,0.000885,0,0
0:0:19.849,15.0127,1.90985,0,0.000885,0,0
0:0:20.154,15.8357,2.01327,0,0.000885,0,0
0:0:20.458,16.5385,2.1029,0,0.000885,0,0
0:0:20.763,17.8863,2.27527,0,0.000885,0,0
0:0:21.064,18.945,2.41317,0,0.000885,0,0
0:0:21.366,19.0606,2.42695,0,0.000885,0,0
0:0:21.664,20.2928,2.58553,0,0.000885,0,0
0:0:21.961,20.6442,2.6269,0,0.000885,0,0
0:0:22.261,21.9342,2.79238,0,0.000885,0,0
0:0:22.558,22.0543,2.80617,0,0.000885,0,0
0:0:22.859,22.5792,2.87511,0,0.000885,0,0
0:0:23.153,23.4021,2.97854,0,0.000885,0,0
0:0:23.454,23.9893,3.05438,0,0.000885,0,0
0:0:23.751,24.1049,3.06817,0,0.000885,0,0
0:0:24.049,24.8077,3.1578,0,0.000885,0,0
0:0:24.349,25.3371,3.22675,0,0.000885,0,0
0:0:24.651,25.8041,3.2888,0,0.000885,0,0
0:0:24.957,26.5114,3.37843,0,0.000885,0,0
0:0:25.259,26.7427,3.40601,0,0.000885,0,0
0:0:25.562,27.3299,3.48185,0,0.000885,0,0
0:0:25.864,27.3877,3.48875,0,0.000885,0,0
0:0:26.162,28.3886,3.61285,0,0.000885,0,0
0:0:26.463,28.8556,3.67491,0,0.000885,0,0
0:0:26.759,29.5006,3.75764,0,0.000885,0,0
0:0:27.060,30.1456,3.84038,0,0.000885,0,0
0:0:27.357,30.9685,3.9438,0,0.000885,0,0
0:0:27.654,31.4356,4.00585,0,0.000885,0,0
0:0:27.955,32.2585,4.10928,0,0.000885,0,0
0:0:28.249,33.1971,4.22649,0,0.000885,0,0
0:0:28.552,33.8421,4.30922,0,0.000885,0,0
0:0:28.849,34.4871,4.39196,0,0.000885,0,0
0:0:29.149,35.2477,4.48849,0,0.000885,0,0
0:0:29.455,34.9541,4.45401,0,0.000885,0,0
0:0:29.759,35.7192,4.55054,0,0.000885,0,0
0:0:30.064,36.1285,4.5988,0,0.000885,0,0
0:0:30.367,36.6578,4.66775,0,0.000885,0,0
0:0:30.670,37.712,4.79875,0,0.000885,0,0
0:0:30.972,37.89,4.82633,0,0.000885,0,0
0:0:31.270,38.6506,4.92286,0,0.000885,0,0
0:0:31.572,39.5892,5.04007,0,0.000885,0,0
0:0:31.868,40.1185,5.10902,0,0.000885,0,0
0:0:32.170,40.5277,5.15728,0,0.000885,0,0
0:0:32.466,41.0571,5.22623,0,0.000885,0,0
0:0:32.764,41.9334,5.33654,0,0.000885,0,0
0:0:33.063,41.7021,5.30896,0,0.000885,0,0
0:0:33.360,42.6985,5.43307,0,0.000885,0,0
0:0:33.660,43.2856,5.50891,0,0.000885,0,0
0:0:33.955,43.9306,5.59165,0,0.000885,0,0
0:0:34.257,44.3977,5.6537,0,0.000885,0,0
0:0:34.554,45.6299,5.81228,0,0.000885,0,0
0:0:34.858,45.8656,5.83986,0,0.000885,0,0
0:0:35.161,46.4528,5.9157,0,0.000885,0,0
0:0:35.464,47.0355,5.99154,0,0.000885,0,0
0:0:35.768,47.6849,6.07428,0,0.000885,0,0
0:0:36.070,48.0942,6.12254,0,0.000885,0,0
0:0:36.370,48.797,6.21218,0,0.000885,0,0
0:0:36.668,49.442,6.29491,0,0.000885,0,0
0:0:36.963,49.9713,6.36386,0,0.000885,0,0
0:0:37.265,50.3227,6.40523,0,0.000885,0,0
0:0:37.560,50.7898,6.46728,0,0.000885,0,0
0:0:37.862,51.4348,6.55002,0,0.000885,0,0
0:0:38.159,52.4356,6.67413,0,0.000885,0,0
0:0:38.459,52.5513,6.68791,0,0.000885,0,0
0:0:38.759,53.5477,6.81891,0,0.000885,0,0
0:0:39.052,54.4284,6.92923,0,0.000885,0,0
0:0:39.355,54.722,6.9706,0,0.000885,0,0
0:0:39.660,55.0734,7.01197,0,0.000885,0,0
0:0:39.963,55.7184,7.09471,0,0.000885,0,0
0:0:40.267,56.4212,7.18434,0,0.000885,0,0
0:0:40.567,56.4791,7.19123,0,0.000885,0,0
0:0:40.871,57.6534,7.34292,0,0.000885,0,0
0:0:41.167,58.0048,7.38429,0,0.000885,0,0
0:0:41.470,59.1213,7.52907,0,0.000885,0,0
0:0:41.767,59.8241,7.61871,0,0.000885,0,0
0:0:42.064,60.1755,7.66008,0,0.000885,0,0
0:0:42.364,60.6426,7.72213,0,0.000885,0,0
0:0:42.658,60.8205,7.74281,0,0.000885,0,0
0:0:42.961,61.4077,7.81865,0,0.000885,0,0
0:0:43.255,62.582,7.97034,0,0.000885,0,0
0:0:43.556,63.3427,8.06687,0,0.000885,0,0
0:0:43.854,63.2848,8.05997,0,0.000885,0,0
0:0:44.150,63.6363,8.10134,0,0.000885,0,0
0:0:44.462,64.6905,8.23923,0,0.000885,0,0
0:0:44.767,65.2198,8.30129,0,0.000885,0,0
0:0:45.070,64.9841,8.27371,0,0.000885,0,0
0:0:45.372,66.2741,8.43918,0,0.000885,0,0
0:0:45.675,67.1548,8.5495,0,0.000885,0,0
0:0:45.978,67.7998,8.63224,0,0.000885,0,0
0:0:46.272,68.0355,8.65982,0,0.000885,0,0
0:0:46.574,68.6805,8.74255,0,0.000885,0,0
0:0:46.872,69.9127,8.90113,0,0.000885,0,0
0:0:47.172,70.0862,8.92182,0,0.000885,0,0
0:0:47.470,70.0862,8.92182,0,0.000885,0,0
0:0:47.768,70.8513,9.01834,0,0.000885,0,0
0:0:48.069,71.4963,9.10108,0,0.000885,0,0
0:0:48.364,72.4348,9.22519,0,0.000885,0,0
0:0:48.665,73.022,9.29413,0,0.000885,0,0
0:0:48.964,73.8983,9.41134,0,0.000885,0,0
0:0:49.261,74.2497,9.45271,0,0.000885,0,0
0:0:49.561,74.3698,9.4665,0,0.000885,0,0
0:0:49.865,75.3084,9.59061,0,0.000885,0,0
0:0:50.171,75.9534,9.67334,0,0.000885,0,0
0:0:50.472,76.3626,9.72161,0,0.000885,0,0
0:0:50.775,76.8341,9.78366,0,0.000885,0,0
0:0:51.078,77.6526,9.88708,0,0.000885,0,0
0:0:51.374,78.3554,9.97671,0,0.000885,0,0
0:0:51.675,78.7068,10.025,0,0.000885,0,0
0:0:51.972,79.1783,10.0801,0,0.000885,0,0
0:0:52.273,80.0591,10.1905,0,0.000885,0,0
0:0:52.570,80.5262,10.2525,0,0.000885,0,0
0:0:52.868,80.9977,10.3146,0,0.000885,0,0
0:0:53.169,81.5848,10.3904,0,0.000885,0,0
0:0:53.464,81.7583,10.4111,0,0.000885,0,0
0:0:53.765,83.0483,10.5766,0,0.000885,0,0
0:0:54.060,83.3419,10.611,0,0.000885,0,0
0:0:54.361,83.7511,10.6662,0,0.000885,0,0
0:0:54.658,84.4584,10.7558,0,0.000885,0,0
0:0:54.963,84.9254,10.811,0,0.000885,0,0
0:0:55.267,85.7484,10.9144,0,0.000885,0,0
0:0:55.571,86.4512,11.004,0,0.000885,0,0
0:0:55.872,87.0962,11.0868,0,0.000885,0,0
0:0:56.175,87.6833,11.1626,0,0.000885,0,0
0:0:56.475,88.1504,11.2247,0,0.000885,0,0
0:0:56.775,88.8577,11.3143,0,0.000885,0,0
0:0:57.070,89.3826,11.3832,0,0.000885,0,0
0:0:57.373,89.734,11.4246,0,0.000885,0,0
0:0:57.668,90.2633,11.4936,0,0.000885,0,0
0:0:57.968,91.3754,11.6315,0,0.000885,0,0
0:0:58.265,91.2597,11.6177,0,0.000885,0,0
0:0:58.564,92.0248,11.7142,0,0.000885,0,0
0:0:58.864,92.7276,11.8038,0,0.000885,0,0
0:0:59.158,93.4883,11.9004,0,0.000885,0,0
0:0:59.462,94.8984,12.0796,0,0.000885,0,0
0:0:59.767,94.4847,12.0314,0,0.000885,0,0
0:1:0.072,95.014,12.1003,0,0.000885,0,0
0:1:0.374,95.6012,12.1692,0,0.000885,0,0
0:1:0.676,96.1261,12.2382,0,0.000885,0,0
0:1:0.979,96.8333,12.3278,0,0.000885,0,0
0:1:1.274,97.5362,12.4175,0,0.000885,0,0
0:1:1.574,98.239,12.5071,0,0.000885,0,0
0:1:1.873,98.9418,12.5967,0,0.000885,0,0
0:1:2.170,99.8225,12.707,0,0.000885,0,0
0:1:2.471,100.294,12.7691,0,0.000885,0,0
0:1:2.767,100.058,12.7415,0,0.000885,0,0
0:1:3.067,100.997,12.8587,0,0.000885,0,0
0:1:3.363,101.815,12.9621,0,0.000885,0,0
0:1:3.662,101.758,12.9552,0,0.000885,0,0
0:1:3.965,102.874,13.1,0,0.000885,0,0
0:1:4.258,103.341,13.1552,0,0.000885,0,0
0:1:4.561,104.044,13.2448,0,0.000885,0,0
0:1:4.865,104.573,13.3138,0,0.000885,0,0
0:1:5.170,104.982,13.3689,0,0.000885,0,0
0:1:5.472,105.748,13.4655,0,0.000885,0,0
0:1:5.773,106.45,13.5551,0,0.000885,0,0
0:1:6.077,106.98,13.624,0,0.000885,0,0
0:1:6.374,108.328,13.7895,0,0.000885,0,0
0:1:6.673,108.328,13.7895,0,0.000885,0,0
0:1:6.972,108.385,13.8033,0,0.000885,0,0
0:1:7.268,109.266,13.9136,0,0.000885,0,0
0:1:7.569,109.853,13.9895,0,0.000885,0,0
0:1:7.867,110.205,14.0308,0,0.000885,0,0
0:1:8.165,111.085,14.1411,0,0.000885,0,0
0:1:8.465,111.553,14.2032,0,0.000885,0,0
0:1:8.761,112.255,14.2928,0,0.000885,0,0
0:1:9.064,112.842,14.3687,0,0.000885,0,0
0:1:9.358,113.901,14.4997,0,0.000885,0,0
0:1:9.662,113.781,14.4859,0,0.000885,0,0
0:1:9.966,114.426,14.5686,0,0.000885,0,0
0:1:10.271,115.485,14.7065,0,0.000885,0,0
0:1:10.573,115.952,14.7617,0,0.000885,0,0
0:1:10.875,116.775,14.8651,0,0.000885,0,0
0:1:11.177,117.006,14.8996,0,0.000885,0,0
0:1:11.474,117.651,14.9823,0,0.000885,0,0
0:1:11.771,118.238,15.0513,0,0.000885,0,0
0:1:12.072,118.825,15.1271,0,0.000885,0,0
0:1:12.369,119.413,15.2029,0,0.000885,0,0
0:1:12.669,119.942,15.2719,0,0.000885,0,0
0:1:12.965,120.587,15.3546,0,0.000885,0,0
0:1:13.264,120.76,15.3753,0,0.000885,0,0
0:1:13.564,121.935,15.527,0,0.000885,0,0
0:1:13.860,121.992,15.5339,0,0.000885,0,0
0:1:14.161,122.58,15.6097,0,0.000885,0,0
0:1:14.459,123.46,15.72,0,0.000885,0,0
0:1:14.761,124.515,15.851,0,0.000885,0,0
0:1:15.065,124.572,15.8579,0,0.000885,0,0
0:1:15.368,125.511,15.982,0,0.000885,0,0
0:1:15.671,126.04,16.051,0,0.000885,0,0
0:1:15.974,126.57,16.113,0,0.000885,0,0
0:1:16.275,127.508,16.2372,0,0.000885,0,0
0:1:16.574,128.153,16.3199,0,0.000885,0,0
0:1:16.869,128.091,16.3061,0,0.000885,0,0
0:1:17.171,128.914,16.4164,0,0.000885,0,0
0:1:17.466,129.092,16.4371,0,0.000885,0,0
0:1:17.767,129.91,16.5405,0,0.000885,0,0
0:1:18.064,130.146,16.5681,0,0.000885,0,0
0:1:18.363,131.2,16.706,0,0.000885,0,0
0:1:18.665,132.259,16.837,0,0.000885,0,0
0:1:18.959,132.49,16.8715,0,0.000885,0,0
0:1:19.260,132.668,16.8922,0,0.000885,0,0
0:1:19.559,133.02,16.9335,0,0.000885,0,0
0:1:19.862,133.78,17.0369,0,0.000885,0,0
0:1:20.167,134.777,17.1611,0,0.000885,0,0
0:1:20.471,135.484,17.2507,0,0.000885,0,0
0:1:20.772,135.951,17.3127,0,0.000885,0,0
0:1:21.075,136.36,17.361,0,0.000885,0,0
0:1:21.373,137.068,17.4506,0,0.000885,0,0
0:1:21.674,138.357,17.6161,0,0.000885,0,0
0:1:21.969,138.064,17.5816,0,0.000885,0,0
0:1:22.269,138.593,17.6437,0,0.000885,0,0
0:1:22.566,139.412,17.7471,0,0.000885,0,0
0:1:22.867,140.115,17.8367,0,0.000885,0,0
0:1:23.165,140.408,17.8781,0,0.000885,0,0
0:1:23.460,140.644,17.9057,0,0.000885,0,0
0:1:23.762,140.937,17.9471,0,0.000885,0,0
0:1:24.059,142.521,18.147,0,0.000885,0,0
0:1:24.359,142.757,18.1746,0,0.000885,0,0
0:1:24.655,144.047,18.3401,0,0.000885,0,0
0:1:24.959,143.869,18.3194,0,0.000885,0,0
0:1:25.262,145.159,18.4848,0,0.000885,0,0
0:1:25.565,145.862,18.5745,0,0.000885,0,0
0:1:25.869,146.04,18.5952,0,0.000885,0,0
0:1:26.170,146.511,18.6572,0,0.000885,0,0
0:1:26.469,146.627,18.671,0,0.000885,0,0
0:1:26.769,147.507,18.7813,0,0.000885,0,0
0:1:27.065,148.152,18.8641,0,0.000885,0,0
0:1:27.366,148.62,18.9261,0,0.000885,0,0
0:1:27.662,150.03,19.1054,0,0.000885,0,0
0:1:27.963,150.145,19.1192,0,0.000885,0,0
0:1:28.262,150.732,19.195,0,0.000885,0,0
0:1:28.555,150.906,19.2157,0,0.000885,0,0
0:1:28.859,151.493,19.2915,0,0.000885,0,0
0:1:29.155,152.374,19.4018,0,0.000885,0,0
0:1:29.460,152.552,19.4225,0,0.000885,0,0
0:1:29.764,153.779,19.5811,0,0.000885,0,0
0:1:30.069,154.367,19.657,0,0.000885,0,0
0:1:30.369,154.66,19.6914,0,0.000885,0,0
0:1:30.672,154.78,19.7052,0,0.000885,0,0
0:1:30.972,155.95,19.8569,0,0.000885,0,0
0:1:31.271,156.773,19.9603,0,0.000885,0,0
0:1:31.567,156.889,19.9741,0,0.000885,0,0
0:1:31.868,157.067,20.0017,0,0.000885,0,0
0:1:32.164,157.885,20.1051,0,0.000885,0,0
0:1:32.467,158.824,20.2223,0,0.000885,0,0
0:1:32.763,159.94,20.3671,0,0.000885,0,0
0:1:33.061,159.94,20.3671,0,0.000885,0,0
0:1:33.361,160.879,20.4843,0,0.000885,0,0
0:1:33.655,161.466,20.5602,0,0.000885,0,0
0:1:33.958,161.697,20.5877,0,0.000885,0,0
0:1:34.262,162.111,20.6429,0,0.000885,0,0
0:1:34.566,162.992,20.7532,0,0.000885,0,0
0:1:34.871,163.343,20.7946,0,0.000885,0,0
0:1:35.176,164.282,20.9187,0,0.000885,0,0
0:1:35.477,164.691,20.967,0,0.000885,0,0
0:1:35.780,165.514,21.0704,0,0.000885,0,0
0:1:36.080,165.514,21.0704,0,0.000885,0,0
0:1:36.377,166.39,21.1876,0,0.000885,0,0
0:1:36.677,167.155,21.2841,0,0.000885,0,0
0:1:36.974,167.035,21.2703,0,0.000885,0,0
0:1:37.271,168.445,21.4496,0,0.000885,0,0
0:1:37.572,168.619,21.4703,0,0.000885,0,0
0:1:37.868,169.971,21.6426,0,0.000885,0,0
0:1:38.168,169.971,21.6426,0,0.000885,0,0
0:1:38.465,170.496,21.7116,0,0.000885,0,0
0:1:38.764,171.434,21.8288,0,0.000885,0,0
0:1:39.064,171.434,21.8288,0,0.000885,0,0
0:1:39.359,172.551,21.9667,0,0.000885,0,0
0:1:39.662,173.254,22.0563,0,0.000885,0,0
0:1:39.965,173.196,22.0494,0,0.000885,0,0
0:1:40.269,174.135,22.1735,0,0.000885,0,0
0:1:40.571,174.953,22.277,0,0.000885,0,0
0:1:40.875,175.892,22.3942,0,0.000885,0,0
0:1:41.176,176.479,22.47,0,0.000885,0,0
0:1:41.472,176.479,22.47,0,0.000885,0,0
0:1:41.773,177.244,22.5665,0,0.000885,0,0
0:1:42.072,177.947,22.6562,0,0.000885,0,0
0:1:42.368,178.182,22.6838,0,0.000885,0,0
0:1:42.668,178.24,22.6906,0,0.000885,0,0
0:1:42.963,178.943,22.7803,0,0.000885,0,0
0:1:43.267,180.175,22.9389,0,0.000885,0,0
0:1:43.562,180.584,22.994,0,0.000885,0,0
0:1:43.862,181.229,23.0768,0,0.000885,0,0
0:1:44.161,181.465,23.1043,0,0.000885,0,0
0:1:44.455,182.64,23.256,0,0.000885,0,0
0:1:44.759,183.342,23.3456,0,0.000885,0,0
0:1:45.062,183.516,23.3663,0,0.000885,0,0
0:1:45.367,184.223,23.456,0,0.000885,0,0
0:1:45.668,184.161,23.4491,0,0.000885,0,0
0:1:45.971,185.629,23.6352,0,0.000885,0,0
0:1:46.273,186.216,23.7111,0,0.000885,0,0
0:1:46.570,186.625,23.7593,0,0.000885,0,0
0:1:46.871,187.097,23.8214,0,0.000885,0,0
0:1:47.167,187.564,23.8834,0,0.000885,0,0
0:1:47.467,188.444,23.9938,0,0.000885,0,0
0:1:47.765,188.618,24.0144,0,0.000885,0,0
0:1:48.063,189.205,24.0903,0,0.000885,0,0
0:1:48.364,190.264,24.2282,0,0.000885,0,0
0:1:48.658,190.615,24.2695,0,0.000885,0,0
0:1:48.959,191.669,24.4074,0,0.000885,0,0
0:1:49.251,191.434,24.373,0,0.000885,0,0
0:1:49.557,192.492,24.5109,0,0.000885,0,0
0:1:49.861,192.55,24.5178,0,0.000885,0,0
0:1:50.164,193.547,24.6419,0,0.000885,0,0
0:1:50.462,194.014,24.7039,0,0.000885,0,0
0:1:50.763,194.837,24.8073,0,0.000885,0,0
0:1:51.060,195.366,24.8763,0,0.000885,0,0
0:1:51.355,195.539,24.897,0,0.000885,0,0
0:1:51.661,196.598,25.0349,0,0.000885,0,0
0:1:51.961,196.949,25.0762,0,0.000885,0,0
0:1:52.262,198.062,25.221,0,0.000885,0,0
0:1:52.562,197.888,25.1934,0,0.000885,0,0
0:1:52.855,199.414,25.3865,0,0.000885,0,0
0:1:53.162,199.587,25.4141,0,0.000885,0,0
0:1:53.459,200.059,25.4692,0,0.000885,0,0
0:1:53.763,200.174,25.4899,0,0.000885,0,0
0:1:54.062,201.349,25.6347,0,0.000885,0,0
0:1:54.355,201.7,25.683,0,0.000885,0,0
0:1:54.653,202.581,25.7933,0,0.000885,0,0
0:1:54.958,202.87,25.8278,0,0.000885,0,0
0:1:55.260,203.342,25.8898,0,0.000885,0,0
0:1:55.561,203.929,25.9657,0,0.000885,0,0
0:1:55.862,205.099,26.1173,0,0.000885,0,0
0:1:56.162,205.454,26.1587,0,0.000885,0,0
0:1:56.456,205.864,26.2139,0,0.000885,0,0
0:1:56.764,206.273,26.2621,0,0.000885,0,0
0:1:57.063,206.86,26.338,0,0.000885,0,0
0:1:57.365,207.505,26.4207,0,0.000885,0,0
0:1:57.664,208.208,26.5103,0,0.000885,0,0
0:1:57.959,208.622,26.5655,0,0.000885,0,0
0:1:58.265,209.146,26.6276,0,0.000885,0,0
0:1:58.563,210.027,26.7448,0,0.000885,0,0
0:1:58.857,210.205,26.7654,0,0.000885,0,0
0:1:59.158,211.553,26.9378,0,0.000885,0,0
0:1:59.457,211.375,26.9102,0,0.000885,0,0
0:1:59.759,211.904,26.9792,0,0.000885,0,0
0:2:0.061,213.079,27.1309,0,0.000885,0,0
0:2:0.363,213.724,27.2136,0,0.000885,0,0
0:2:0.664,214.311,27.2894,0,0.000885,0,0
0:2:0.963,214.72,27.3377,0,0.000885,0,0
0:2:1.265,216.126,27.517,0,0.000885,0,0
0:2:1.556,216.126,27.517,0,0.000885,0,0
0:2:1.853,216.833,27.6066,0,0.000885,0,0
0:2:2.161,217.184,27.6549,0,0.000885,0,0
0:2:2.456,217.709,27.7169,0,0.000885,0,0
0:2:2.752,218.061,27.7652,0,0.000885,0,0
0:2:3.059,218.59,27.8341,0,0.000885,0,0
0:2:3.358,219.177,27.9031,0,0.000885,0,0
0:2:3.661,219.351,27.9307,0,0.000885,0,0
0:2:3.959,220.645,28.0961,0,0.000885,0,0
0:2:4.266,221.112,28.1513,0,0.000885,0,0
0:2:4.568,221.642,28.2202,0,0.000885,0,0
0:2:4.871,222.051,28.2754,0,0.000885,0,0
0:2:5.173,222.518,28.3306,0,0.000885,0,0
0:2:5.472,223.283,28.4271,0,0.000885,0,0
0:2:5.773,224.164,28.5443,0,0.000885,0,0
0:2:6.068,224.573,28.5926,0,0.000885,0,0
0:2:6.366,225.454,28.7029,0,0.000885,0,0
0:2:6.660,225.979,28.7718,0,0.000885,0,0
0:2:6.961,226.859,28.8821,0,0.000885,0,0
0:2:7.265,227.856,29.0131,0,0.000885,0,0
0:2:7.561,227.856,29.0131,0,0.000885,0,0
0:2:7.859,228.269,29.0614,0,0.000885,0,0
0:2:8.162,228.852,29.1372,0,0.000885,0,0
0:2:8.463,229.675,29.2407,0,0.000885,0,0
0:2:8.765,230.026,29.2889,0,0.000885,0,0
0:2:9.063,230.965,29.4061,0,0.000885,0,0
0:2:9.360,231.437,29.4682,0,0.000885,0,0
0:2:9.660,232.139,29.5578,0,0.000885,0,0
0:2:9.964,232.313,29.5785,0,0.000885,0,0
0:2:10.265,232.727,29.6337,0,0.000885,0,0
0:2:10.565,233.545,29.7371,0,0.000885,0,0
0:2:10.867,234.19,29.8198,0,0.000885,0,0
0:2:11.162,234.604,29.8681,0,0.000885,0,0
0:2:11.461,235.364,29.9646,0,0.000885,0,0
0:2:11.765,235.951,30.0405,0,0.000885,0,0
0:2:12.063,236.419,30.1025,0,0.000885,0,0
0:2:12.359,237.241,30.2059,0,0.000885,0,0
0:2:12.664,237.886,30.2887,0,0.000885,0,0
0:2:12.963,238.354,30.3507,0,0.000885,0,0
0:2:13.253,239.061,30.4404,0,0.000885,0,0
0:2:13.552,239.528,30.4955,0,0.000885,0,0
0:2:13.861,240.409,30.6127,0,0.000885,0,0
0:2:14.166,241.232,30.7161,0,0.000885,0,0
0:2:14.464,241.111,30.7024,0,0.000885,0,0
0:2:14.766,241.463,30.7437,0,0.000885,0,0
0:2:15.068,242.286,30.8471,0,0.000885,0,0
0:2:15.368,242.521,30.8816,0,0.000885,0,0
0:2:15.668,243.576,31.0126,0,0.000885,0,0
0:2:15.969,244.105,31.0816,0,0.000885,0,0
0:2:16.263,244.866,31.1781,0,0.000885,0,0
0:2:16.562,245.626,31.2746,0,0.000885,0,0
0:2:16.866,245.982,31.316,0,0.000885,0,0
0:2:17.163,246.685,31.4056,0,0.000885,0,0
0:2:17.461,247.094,31.4608,0,0.000885,0,0
0:2:17.763,247.797,31.5504,0,0.000885,0,0
0:2:18.064,248.678,31.6607,0,0.000885,0,0
0:2:18.355,248.856,31.6883,0,0.000885,0,0
0:2:18.666,249.91,31.8193,0,0.000885,0,0
0:2:18.962,249.968,31.8262,0,0.000885,0,0
0:2:19.259,250.613,31.9089,0,0.000885,0,0
0:2:19.555,251.316,31.9986,0,0.000885,0,0
0:2:19.861,252.316,32.1227,0,0.000885,0,0
0:2:20.163,252.668,32.1709,0,0.000885,0,0
0:2:20.464,253.544,32.2813,0,0.000885,0,0
0:2:20.764,254.016,32.3433,0,0.000885,0,0
0:2:21.065,254.074,32.3502,0,0.000885,0,0
0:2:21.359,254.603,32.4191,0,0.000885,0,0
0:2:21.668,255.421,32.5226,0,0.000885,0,0
0:2:21.962,256.48,32.6536,0,0.000885,0,0
0:2:22.260,256.831,32.7018,0,0.000885,0,0
0:2:22.568,257.125,32.7363,0,0.000885,0,0
0:2:22.860,257.534,32.7915,0,0.000885,0,0
0:2:23.161,258.237,32.8811,0,0.000885,0,0
0:2:23.465,258.709,32.9363,0,0.000885,0,0
0:2:23.763,259.585,33.0535,0,0.000885,0,0
0:2:24.059,260.056,33.1086,0,0.000885,0,0
0:2:24.363,260.701,33.1914,0,0.000885,0,0
0:2:24.665,261.111,33.2465,0,0.000885,0,0
0:2:24.968,262.285,33.3982,0,0.000885,0,0
0:2:25.269,262.752,33.4534,0,0.000885,0,0
0:2:25.568,263.339,33.5292,0,0.000885,0,0
0:2:25.870,263.691,33.5775,0,0.000885,0,0
0:2:26.169,264.456,33.674,0,0.000885,0,0
0:2:26.464,264.923,33.7292,0,0.000885,0,0
0:2:26.762,265.568,33.8119,0,0.000885,0,0
0:2:27.067,266.097,33.8808,0,0.000885,0,0
0:2:27.362,266.569,33.9429,0,0.000885,0,0
0:2:27.662,266.978,33.9912,0,0.000885,0,0
0:2:27.964,267.796,34.0946,0,0.000885,0,0
0:2:28.263,268.383,34.1704,0,0.000885,0,0
0:2:28.567,268.855,34.2325,0,0.000885,0,0
0:2:28.866,269.264,34.2807,0,0.000885,0,0
0:2:29.163,269.967,34.3704,0,0.000885,0,0
0:2:29.466,270.732,34.4738,0,0.000885,0,0
0:2:29.766,271.026,34.5083,0,0.000885,0,0
0:2:30.068,271.844,34.6117,0,0.000885,0,0
0:2:30.370,272.841,34.7427,0,0.000885,0,0
0:2:30.671,273.134,34.7772,0,0.000885,0,0
0:2:30.970,273.663,34.8461,0,0.000885,0,0
0:2:31.271,274.424,34.9426,0,0.000885,0,0
0:2:31.566,274.544,34.9564,0,0.000885,0,0
0:2:31.863,275.541,35.0805,0,0.000885,0,0
0:2:32.161,275.656,35.1012,0,0.000885,0,0
0:2:32.464,276.07,35.1495,0,0.000885,0,0
0:2:32.764,276.773,35.2391,0,0.000885,0,0
0:2:33.068,277.711,35.3563,0,0.000885,0,0
0:2:33.366,278.299,35.4322,0,0.000885,0,0
0:2:33.661,279.175,35.5425,0,0.000885,0,0
0:2:33.968,279.526,35.5907,0,0.000885,0,0
0:2:34.265,280.113,35.6666,0,0.000885,0,0
0:2:34.568,280.758,35.7493,0,0.000885,0,0
0:2:34.869,281.346,35.8252,0,0.000885,0,0
0:2:35.170,282.168,35.9286,0,0.000885,0,0
0:2:35.470,282.578,35.9768,0,0.000885,0,0
0:2:35.771,283.338,36.0734,0,0.000885,0,0
0:2:36.065,283.752,36.1285,0,0.000885,0,0
0:2:36.365,284.161,36.1837,0,0.000885,0,0
0:2:36.656,284.748,36.2526,0,0.000885,0,0
0:2:36.965,285.216,36.3147,0,0.000885,0,0
0:2:37.264,286.39,36.4664,0,0.000885,0,0
0:2:37.568,286.741,36.5077,0,0.000885,0,0
0:2:37.865,287.328,36.5836,0,0.000885,0,0
0:2:38.169,288.089,36.6801,0,0.000885,0,0
0:2:38.469,288.796,36.7697,0,0.000885,0,0
0:2:38.762,289.148,36.818,0,0.000885,0,0
0:2:39.068,289.384,36.8456,0,0.000885,0,0
0:2:39.366,289.851,36.9076,0,0.000885,0,0
0:2:39.667,290.611,37.0042,0,0.000885,0,0
0:2:39.971,291.55,37.1214,0,0.000885,0,0
0:2:40.271,291.906,37.1696,0,0.000885,0,0
0:2:40.571,292.724,37.2731,0,0.000885,0,0
0:2:40.871,293.253,37.3351,0,0.000885,0,0
0:2:41.166,293.605,37.3834,0,0.000885,0,0
0:2:41.465,294.134,37.4523,0,0.000885,0,0
0:2:41.768,294.837,37.542,0,0.000885,0,0
0:2:42.067,295.188,37.5833,0,0.000885,0,0
0:2:42.361,295.655,37.6454,0,0.000885,0,0
0:2:42.669,296.536,37.7557,0,0.000885,0,0
0:2:42.965,297.123,37.8315,0,0.000885,0,0
0:2:43.260,297.826,37.9212,0,0.000885,0,0
0:2:43.556,298.24,37.9694,0,0.000885,0,0
0:2:43.849,298.707,38.0315,0,0.000885,0,0
0:2:44.150,299.646,38.1487,0,0.000885,0,0
0:2:44.443,300.291,38.2314,0,0.000885,0,0
0:2:44.745,300.82,38.3004,0,0.000885,0,0
0:2:45.047,301.407,38.3762,0,0.000885,0,0
0:2:45.349,301.523,38.39,0,0.000885,0,0
0:2:45.649,302.519,38.521,0,0.000885,0,0
0:2:45.951,303.28,38.6175,0,0.000885,0,0
0:2:46.260,303.693,38.6658,0,0.000885,0,0
0:2:46.568,303.925,38.7003,0,0.000885,0,0
0:2:46.862,304.748,38.8037,0,0.000885,0,0
0:2:47.162,305.277,38.8657,0,0.000885,0,0
0:2:47.463,305.628,38.914,0,0.000885,0,0
0:2:47.764,305.98,38.9554,0,0.000885,0,0
0:2:48.069,307.448,39.1484,0,0.000885,0,0
0:2:48.364,307.799,39.1898,0,0.000885,0,0
0:2:48.662,308.386,39.2656,0,0.000885,0,0
0:2:48.965,308.796,39.3139,0,0.000885,0,0
0:2:49.264,309.734,39.438,0,0.000885,0,0
0:2:49.567,310.437,39.5276,0,0.000885,0,0
0:2:49.868,310.673,39.5552,0,0.000885,0,0
0:2:50.171,311.433,39.6517,0,0.000885,0,0
0:2:50.472,311.611,39.6724,0,0.000885,0,0
0:2:50.774,312.55,39.7965,0,0.000885,0,0
0:2:51.073,313.075,39.8655,0,0.000885,0,0
0:2:51.372,313.368,39.9,0,0.000885,0,0
0:2:51.666,314.307,40.0172,0,0.000885,0,0
0:2:51.963,314.721,40.0723,0,0.000885,0,0
0:2:52.258,315.245,40.1413,0,0.000885,0,0
0:2:52.551,315.423,40.162,0,0.000885,0,0
0:2:52.850,316.068,40.2447,0,0.000885,0,0
0:2:53.153,316.771,40.3343,0,0.000885,0,0
0:2:53.462,317.007,40.3619,0,0.000885,0,0
0:2:53.769,317.358,40.4102,0,0.000885,0,0
0:2:54.064,318.119,40.5067,0,0.000885,0,0
0:2:54.364,318.47,40.5481,0,0.000885,0,0
0:2:54.666,319.236,40.6446,0,0.000885,0,0
0:2:54.969,319.938,40.7342,0,0.000885,0,0
0:2:55.268,320.468,40.8032,0,0.000885,0,0
0:2:55.570,320.819,40.8445,0,0.000885,0,0
0:2:55.869,321.464,40.9273,0,0.000885,0,0
0:2:56.159,322.518,41.0652,0,0.000885,0,0
0:2:56.462,323.048,41.1341,0,0.000885,0,0
0:2:56.764,322.928,41.1134,0,0.000885,0,0
0:2:57.062,323.457,41.1824,0,0.000885,0,0
0:2:57.366,323.457,41.1824,0,0.000885,0,0
0:2:57.662,323.808,41.2306,0,0.000885,0,0
0:2:57.956,324.453,41.3134,0,0.000885,0,0
0:2:58.263,324.573,41.3272,0,0.000885,0,0
0:2:58.564,325.743,41.472,0,0.000885,0,0
0:2:58.867,326.566,41.5823,0,0.000885,0,0
0:2:59.164,328.092,41.7753,0,0.000885,0,0
0:2:59.471,328.973,41.8857,0,0.000885,0,0
0:2:59.772,330.263,42.0511,0,0.000885,0,0
0:3:0.074,330.614,42.0925,0,0.000885,0,0
0:3:0.375,331.784,42.2442,0,0.000885,0,0
0:3:0.676,332.491,42.3338,0,0.000885,0,0
0:3:0.974,333.074,42.4097,0,0.000885,0,0
0:3:1.270,333.781,42.4993,0,0.000885,0,0
0:3:1.569,334.662,42.6096,0,0.000885,0,0
0:3:1.864,335.774,42.7544,0,0.000885,0,0
0:3:2.163,336.419,42.8371,0,0.000885,0,0
0:3:2.465,336.77,42.8785,0,0.000885,0,0
0:3:2.762,337.473,42.9681,0,0.000885,0,0
0:3:3.059,338.238,43.0647,0,0.000885,0,0
0:3:3.363,339.057,43.1681,0,0.000885,0,0
0:3:3.663,339.293,43.2025,0,0.000885,0,0
0:3:3.966,339.702,43.2508,0,0.000885,0,0
0:3:4.264,340.703,43.3818,0,0.000885,0,0
0:3:4.569,341.579,43.4921,0,0.000885,0,0
0:3:4.870,341.579,43.4921,0,0.000885,0,0
0:3:5.173,342.286,43.5818,0,0.000885,0,0
0:3:5.473,342.638,43.6231,0,0.000885,0,0
0:3:5.774,342.989,43.6714,0,0.000885,0,0
0:3:6.075,343.75,43.7679,0,0.000885,0,0
0:3:6.371,343.928,43.7886,0,0.000885,0,0
0:3:6.669,344.221,43.83,0,0.000885,0,0
0:3:6.962,344.746,43.892,0,0.000885,0,0
0:3:7.263,345.511,43.9886,0,0.000885,0,0
0:3:7.565,346.098,44.0644,0,0.000885,0,0
0:3:7.860,346.33,44.0989,0,0.000885,0,0
0:3:8.158,346.859,44.1609,0,0.000885,0,0
0:3:8.464,347.446,44.2368,0,0.000885,0,0
0:3:8.763,348.033,44.3126,0,0.000885,0,0
0:3:9.066,348.678,44.3953,0,0.000885,0,0
0:3:9.368,349.559,44.5057,0,0.000885,0,0
0:3:9.670,349.559,44.5057,0,0.000885,0,0
0:3:9.971,350.262,44.5953,0,0.000885,0,0
0:3:10.271,350.907,44.678,0,0.000885,0,0
0:3:10.571,351.668,44.7746,0,0.000885,0,0
0:3:10.872,352.019,44.8228,0,0.000885,0,0
0:3:11.166,352.9,44.9331,0,0.000885,0,0
0:3:11.463,353.309,44.9883,0,0.000885,0,0
0:3:11.769,353.487,45.009,0,0.000885,0,0
0:3:12.073,354.132,45.0917,0,0.000885,0,0
0:3:12.373,354.835,45.1813,0,0.000885,0,0
0:3:12.665,355.013,45.202,0,0.000885,0,0
0:3:12.965,355.831,45.3055,0,0.000885,0,0
0:3:13.269,356.182,45.3537,0,0.000885,0,0
0:3:13.567,356.827,45.4296,0,0.000885,0,0
0:3:13.865,357.357,45.4985,0,0.000885,0,0
0:3:14.156,358.238,45.6088,0,0.000885,0,0
0:3:14.456,358.825,45.6847,0,0.000885,0,0
0:3:14.760,359.705,45.8019,0,0.000885,0,0
0:3:15.065,360.288,45.8708,0,0.000885,0,0
0:3:15.365,360.76,45.9329,0,0.000885,0,0
0:3:15.665,361.578,46.0363,0,0.000885,0,0
0:3:15.965,362.05,46.0983,0,0.000885,0,0
0:3:16.257,362.343,46.1328,0,0.000885,0,0
0:3:16.556,363.282,46.2569,0,0.000885,0,0
0:3:16.851,363.691,46.3052,0,0.000885,0,0
0:3:17.159,364.22,46.3741,0,0.000885,0,0
0:3:17.469,365.039,46.4776,0,0.000885,0,0
0:3:17.771,365.568,46.5465,0,0.000885,0,0
0:3:18.072,365.746,46.5672,0,0.000885,0,0
0:3:18.364,366.565,46.6706,0,0.000885,0,0
0:3:18.664,367.152,46.7465,0,0.000885,0,0
0:3:18.958,367.681,46.8154,0,0.000885,0,0
0:3:19.265,368.5,46.9188,0,0.000885,0,0
0:3:19.564,368.735,46.9464,0,0.000885,0,0
0:3:19.867,369.322,47.0222,0,0.000885,0,0
0:3:20.169,370.497,47.1739,0,0.000885,0,0
0:3:20.469,371.373,47.2842,0,0.000885,0,0
0:3:20.769,371.493,47.298,0,0.000885,0,0
0:3:21.071,372.312,47.4015,0,0.000885,0,0
0:3:21.364,372.841,47.4704,0,0.000885,0,0
0:3:21.664,373.428,47.5462,0,0.000885,0,0
0:3:21.967,373.895,47.6083,0,0.000885,0,0
0:3:22.265,374.425,47.6704,0,0.000885,0,0
0:3:22.558,375.185,47.7669,0,0.000885,0,0
0:3:22.866,375.657,47.8289,0,0.000885,0,0
0:3:23.166,376.244,47.9048,0,0.000885,0,0
0:3:23.456,376.653,47.9599,0,0.000885,0,0
0:3:23.767,377.65,48.084,0,0.000885,0,0
0:3:24.061,377.885,48.1116,0,0.000885,0,0
0:3:24.368,378.646,48.2081,0,0.000885,0,0
0:3:24.665,379.233,48.284,0,0.000885,0,0
0:3:24.966,379.705,48.346,0,0.000885,0,0
0:3:25.269,380.35,48.4288,0,0.000885,0,0
0:3:25.569,380.875,48.4977,0,0.000885,0,0
0:3:25.869,381.52,48.5736,0,0.000885,0,0
0:3:26.170,382.636,48.7184,0,0.000885,0,0
0:3:26.465,382.93,48.7528,0,0.000885,0,0
0:3:26.762,383.397,48.8149,0,0.000885,0,0
0:3:27.066,383.926,48.8838,0,0.000885,0,0
0:3:27.366,384.22,48.9183,0,0.000885,0,0
0:3:27.670,384.687,48.9804,0,0.000885,0,0
0:3:27.966,385.745,49.1114,0,0.000885,0,0
0:3:28.265,385.981,49.1458,0,0.000885,0,0
0:3:28.569,386.742,49.2424,0,0.000885,0,0
0:3:28.868,387.445,49.332,0,0.000885,0,0
0:3:29.159,387.738,49.3665,0,0.000885,0,0
0:3:29.461,388.619,49.4837,0,0.000885,0,0
0:3:29.767,388.855,49.5113,0,0.000885,0,0
0:3:30.067,389.437,49.5871,0,0.000885,0,0
0:3:30.368,390.202,49.6836,0,0.000885,0,0
0:3:30.667,391.141,49.8008,0,0.000885,0,0
0:3:30.965,391.844,49.8905,0,0.000885,0,0
0:3:31.270,392.195,49.9387,0,0.000885,0,0
0:3:31.566,392.489,49.9732,0,0.000885,0,0
0:3:31.873,393.312,50.0766,0,0.000885,0,0
0:3:32.166,393.899,50.1525,0,0.000885,0,0
0:3:32.467,394.953,50.2835,0,0.000885,0,0
0:3:32.759,395.834,50.4007,0,0.000885,0,0
0:3:33.068,395.892,50.4076,0,0.000885,0,0
0:3:33.363,396.359,50.4627,0,0.000885,0,0
0:3:33.669,396.946,50.5386,0,0.000885,0,0
0:3:33.967,397.533,50.6144,0,0.000885,0,0
0:3:34.268,397.942,50.6696,0,0.000885,0,0
0:3:34.570,398.53,50.7454,0,0.000885,0,0
0:3:34.872,399.232,50.835,0,0.000885,0,0
0:3:35.173,399.584,50.8764,0,0.000885,0,0
0:3:35.474,399.94,50.9247,0,0.000885,0,0
0:3:35.774,400.407,50.9798,0,0.000885,0,0
0:3:36.075,401.167,51.0764,0,0.000885,0,0
0:3:36.369,402.226,51.2143,0,0.000885,0,0
0:3:36.668,402.693,51.2694,0,0.000885,0,0
0:3:36.962,402.987,51.3108,0,0.000885,0,0
0:3:37.268,403.983,51.4349,0,0.000885,0,0
0:3:37.566,404.219,51.4694,0,0.000885,0,0
0:3:37.858,404.984,51.5659,0,0.000885,0,0
0:3:38.169,405.802,51.6693,0,0.000885,0,0
0:3:38.463,406.332,51.7383,0,0.000885,0,0
0:3:38.759,406.683,51.7796,0,0.000885,0,0
0:3:39.058,407.328,51.8624,0,0.000885,0,0
0:3:39.360,407.973,51.9451,0,0.000885,0,0
0:3:39.660,408.382,52.0003,0,0.000885,0,0
0:3:39.962,408.969,52.0692,0,0.000885,0,0
0:3:40.264,409.614,52.1519,0,0.000885,0,0
0:3:40.567,410.259,52.2347,0,0.000885,0,0
0:3:40.864,411.025,52.3312,0,0.000885,0,0
0:3:41.166,411.607,52.4071,0,0.000885,0,0
0:3:41.469,411.963,52.4553,0,0.000885,0,0
0:3:41.768,412.488,52.5174,0,0.000885,0,0
0:3:42.067,413.133,52.6001,0,0.000885,0,0
0:3:42.358,413.898,52.6966,0,0.000885,0,0
0:3:42.655,414.014,52.7173,0,0.000885,0,0
0:3:42.972,414.895,52.8276,0,0.000885,0,0
0:3:43.272,415.891,52.9517,0,0.000885,0,0
0:3:43.567,416.772,53.0621,0,0.000885,0,0
0:3:43.859,417.065,53.1034,0,0.000885,0,0
0:3:44.169,417.359,53.1379,0,0.000885,0,0
0:3:44.460,417.768,53.1931,0,0.000885,0,0
0:3:44.761,418.764,53.3172,0,0.000885,0,0
0:3:45.068,419.058,53.3585,0,0.000885,0,0
0:3:45.367,419.467,53.4068,0,0.000885,0,0
0:3:45.668,420.112,53.4895,0,0.000885,0,0
0:3:45.967,420.935,53.5929,0,0.000885,0,0
0:3:46.269,421.58,53.6757,0,0.000885,0,0
0:3:46.572,422.167,53.7515,0,0.000885,0,0
0:3:46.870,422.519,53.7998,0,0.000885,0,0
0:3:47.177,423.106,53.8687,0,0.000885,0,0
0:3:47.471,423.693,53.9446,0,0.000885,0,0
0:3:47.771,424.102,53.9997,0,0.000885,0,0
0:3:48.061,425.214,54.1376,0,0.000885,0,0
0:3:48.360,425.744,54.2066,0,0.000885,0,0
0:3:48.655,425.979,54.2342,0,0.000885,0,0
0:3:48.951,426.86,54.3514,0,0.000885,0,0
0:3:49.250,427.149,54.3858,0,0.000885,0,0
0:3:49.555,428.03,54.4962,0,0.000885,0,0
0:3:49.854,428.559,54.5651,0,0.000885,0,0
0:3:50.157,429.556,54.6961,0,0.000885,0,0
0:3:50.460,429.849,54.7306,0,0.000885,0,0
0:3:50.761,430.437,54.8064,0,0.000885,0,0
0:3:51.061,431.255,54.9098,0,0.000885,0,0
0:3:51.371,431.962,54.9995,0,0.000885,0,0
0:3:51.669,432.372,55.0546,0,0.000885,0,0
0:3:51.972,432.959,55.1236,0,0.000885,0,0
0:3:52.270,432.959,55.1236,0,0.000885,0,0
0:3:52.574,433.897,55.2477,0,0.000885,0,0
0:3:52.874,434.484,55.3166,0,0.000885,0,0
0:3:53.168,435.423,55.4407,0,0.000885,0,0
0:3:53.473,435.948,55.5097,0,0.000885,0,0
0:3:53.771,436.299,55.5511,0,0.000885,0,0
0:3:54.075,436.477,55.5717,0,0.000885,0,0
0:3:54.374,437.358,55.689,0,0.000885,0,0
0:3:54.679,437.883,55.751,0,0.000885,0,0
0:3:54.979,438.354,55.8131,0,0.000885,0,0
0:3:55.281,439.293,55.9303,0,0.000885,0,0
0:3:55.581,439.702,55.9854,0,0.000885,0,0
0:3:55.882,440.756,56.1164,0,0.000885,0,0
0:3:56.175,440.756,56.1164,0,0.000885,0,0
0:3:56.471,441.579,56.2267,0,0.000885,0,0
0:3:56.765,441.815,56.2543,0,0.000885,0,0
0:3:57.061,443.221,56.4336,0,0.000885,0,0
0:3:57.361,443.514,56.4681,0,0.000885,0,0
0:3:57.674,443.692,56.4956,0,0.000885,0,0
0:3:57.973,444.569,56.606,0,0.000885,0,0
0:3:58.268,444.982,56.6542,0,0.000885,0,0
0:3:58.560,445.801,56.7645,0,0.000885,0,0
0:3:58.870,445.863,56.7714,0,0.000885,0,0
0:3:59.162,446.446,56.8404,0,0.000885,0,0
0:3:59.464,447.153,56.93,0,0.000885,0,0
0:3:59.770,448.092,57.0541,0,0.000885,0,0
0:4:0.072,448.559,57.1093,0,0.000885,0,0
0:4:0.372,449.382,57.2196,0,0.000885,0,0
0:4:0.673,449.906,57.2816,0,0.000885,0,0
0:4:0.973,450.436,57.3506,0,0.000885,0,0
0:4:1.265,450.965,57.4195,0,0.000885,0,0
0:4:1.574,451.548,57.4954,0,0.000885,0,0
0:4:1.871,452.135,57.5712,0,0.000885,0,0
0:4:2.174,452.549,57.6195,0,0.000885,0,0
0:4:2.474,453.545,57.7505,0,0.000885,0,0
0:4:2.770,454.484,57.8677,0,0.000885,0,0
0:4:3.075,455.009,57.9366,0,0.000885,0,0
0:4:3.372,455.129,57.9504,0,0.000885,0,0
0:4:3.676,455.832,58.0401,0,0.000885,0,0
0:4:3.976,456.299,58.0952,0,0.000885,0,0
0:4:4.269,456.948,58.178,0,0.000885,0,0
0:4:4.571,457.415,58.24,0,0.000885,0,0
0:4:4.872,457.824,58.2952,0,0.000885,0,0
0:4:5.175,458.821,58.4193,0,0.000885,0,0
0:4:5.475,459.292,58.4813,0,0.000885,0,0
0:4:5.777,459.937,58.5641,0,0.000885,0,0
0:4:6.075,460.582,58.6399,0,0.000885,0,0
0:4:6.371,460.818,58.6744,0,0.000885,0,0
0:4:6.676,461.699,58.7847,0,0.000885,0,0
0:4:6.975,461.872,58.8054,0,0.000885,0,0
0:4:7.277,462.637,58.9019,0,0.000885,0,0
0:4:7.577,463.456,59.0122,0,0.000885,0,0
0:4:7.872,463.985,59.0743,0,0.000885,0,0
0:4:8.170,464.51,59.1432,0,0.000885,0,0
0:4:8.475,465.155,59.226,0,0.000885,0,0
0:4:8.771,465.862,59.3156,0,0.000885,0,0
0:4:9.070,466.156,59.3501,0,0.000885,0,0
0:4:9.373,466.859,59.4397,0,0.000885,0,0
0:4:9.673,467.677,59.55,0,0.000885,0,0
0:4:9.976,467.855,59.5707,0,0.000885,0,0
0:4:10.276,468.558,59.6603,0,0.000885,0,0
0:4:10.576,469.203,59.7431,0,0.000885,0,0
0:4:10.875,470.026,59.8465,0,0.000885,0,0
0:4:11.175,470.319,59.881,0,0.000885,0,0
0:4:11.478,470.844,59.9499,0,0.000885,0,0
0:4:11.774,471.374,60.0189,0,0.000885,0,0
0:4:12.073,472.019,60.1016,0,0.000885,0,0
0:4:12.365,472.842,60.205,0,0.000885,0,0
0:4:12.663,473.251,60.2533,0,0.000885,0,0
0:4:12.970,473.954,60.3429,0,0.000885,0,0
0:4:13.266,475.128,60.4946,0,0.000885,0,0
0:4:13.562,475.186,60.5015,0,0.000885,0,0
0:4:13.867,476.36,60.6532,0,0.000885,0,0
0:4:14.165,476.534,60.6739,0,0.000885,0,0
0:4:14.478,477.179,60.7566,0,0.000885,0,0
0:4:14.780,477.472,60.7911,0,0.000885,0,0
0:4:15.083,478.353,60.9083,0,0.000885,0,0
0:4:15.384,478.411,60.9152,0,0.000885,0,0
0:4:15.685,479.118,61.0048,0,0.000885,0,0
0:4:15.985,479.879,61.1013,0,0.000885,0,0
0:4:16.287,480.759,61.2117,0,0.000885,0,0
0:4:16.579,480.933,61.2323,0,0.000885,0,0
0:4:16.877,481.404,61.2944,0,0.000885,0,0
0:4:17.172,481.929,61.3633,0,0.000885,0,0
0:4:17.470,482.401,61.4185,0,0.000885,0,0
0:4:17.765,483.513,61.5633,0,0.000885,0,0
0:4:18.057,483.691,61.584,0,0.000885,0,0
0:4:18.357,484.514,61.6874,0,0.000885,0,0
0:4:18.661,485.096,61.7632,0,0.000885,0,0
0:4:18.971,485.684,61.8391,0,0.000885,0,0
0:4:19.276,486.506,61.9425,0,0.000885,0,0
0:4:19.576,486.622,61.9563,0,0.000885,0,0
0:4:19.879,487.267,62.039,0,0.000885,0,0
0:4:20.179,488.09,62.1424,0,0.000885,0,0
0:4:20.479,488.677,62.2183,0,0.000885,0,0
0:4:20.779,489.264,62.2941,0,0.000885,0,0
0:4:21.075,489.553,62.3355,0,0.000885,0,0
0:4:21.374,490.786,62.4872,0,0.000885,0,0
0:4:21.676,491.199,62.5423,0,0.000885,0,0
0:4:21.977,491.902,62.632,0,0.000885,0,0
0:4:22.279,492.369,62.694,0,0.000885,0,0
0:4:22.577,493.134,62.7906,0,0.000885,0,0
0:4:22.875,493.721,62.8595,0,0.000885,0,0
0:4:23.166,494.246,62.9284,0,0.000885,0,0
0:4:23.466,494.718,62.9905,0,0.000885,0,0
0:4:23.771,495.069,63.0319,0,0.000885,0,0
0:4:24.067,495.95,63.1491,0,0.000885,0,0
0:4:24.363,496.653,63.2387,0,0.000885,0,0
0:4:24.663,496.768,63.2525,0,0.000885,0,0
0:4:24.966,497.649,63.3628,0,0.000885,0,0
0:4:25.266,498.179,63.4318,0,0.000885,0,0
0:4:25.565,498.41,63.4593,0,0.000885,0,0
0:4:25.866,499.704,63.6248,0,0.000885,0,0
0:4:26.174,499.469,63.5972,0,0.000885,0,0
0:4:26.471,500.171,63.6869,0,0.000885,0,0
0:4:26.775,500.638,63.742,0,0.000885,0,0
0:4:27.075,501.871,63.9006,0,0.000885,0,0
0:4:27.365,502.106,63.9282,0,0.000885,0,0
0:4:27.664,502.871,64.0247,0,0.000885,0,0
0:4:27.960,503.339,64.0868,0,0.000885,0,0
0:4:28.265,503.161,64.0661,0,0.000885,0,0
0:4:28.563,504.806,64.2729,0,0.000885,0,0
0:4:28.867,505.038,64.3005,0,0.000885,0,0
0:4:29.166,505.567,64.3695,0,0.000885,0,0
0:4:29.472,506.448,64.4798,0,0.000885,0,0
0:4:29.772,506.915,64.5418,0,0.000885,0,0
0:4:30.076,507.618,64.6315,0,0.000885,0,0
0:4:30.376,508.325,64.7211,0,0.000885,0,0
0:4:30.677,508.441,64.7349,0,0.000885,0,0
0:4:30.975,509.028,64.8107,0,0.000885,0,0
0:4:31.276,510.082,64.9486,0,0.000885,0,0
0:4:31.567,510.496,64.9969,0,0.000885,0,0
0:4:31.875,510.847,65.0451,0,0.000885,0,0
0:4:32.174,511.55,65.1348,0,0.000885,0,0
0:4:32.476,512.017,65.1899,0,0.000885,0,0
0:4:32.776,512.431,65.2451,0,0.000885,0,0
0:4:33.069,513.249,65.3485,0,0.000885,0,0
0:4:33.377,514.308,65.4864,0,0.000885,0,0
0:4:33.675,515.011,65.576,0,0.000885,0,0
0:4:33.977,515.246,65.6036,0,0.000885,0,0
0:4:34.277,516.065,65.707,0,0.000885,0,0
0:4:34.579,516.536,65.7691,0,0.000885,0,0
0:4:34.881,516.652,65.7829,0,0.000885,0,0
0:4:35.183,517.942,65.9484,0,0.000885,0,0
0:4:35.482,518.058,65.9621,0,0.000885,0,0
0:4:35.784,518.178,65.9759,0,0.000885,0,0
0:4:36.076,518.823,66.0587,0,0.000885,0,0
0:4:36.377,519.761,66.1759,0,0.000885,0,0
0:4:36.680,520.758,66.3069,0,0.000885,0,0
0:4:36.976,520.758,66.3069,0,0.000885,0,0
0:4:37.272,521.109,66.3482,0,0.000885,0,0
0:4:37.577,521.99,66.4586,0,0.000885,0,0
0:4:37.876,522.751,66.562,0,0.000885,0,0
0:4:38.177,523.689,66.6792,0,0.000885,0,0
0:4:38.477,524.57,66.7895,0,0.000885,0,0
0:4:38.772,524.512,66.7826,0,0.000885,0,0
0:4:39.076,524.686,66.8033,0,0.000885,0,0
0:4:39.375,525.451,66.8998,0,0.000885,0,0
0:4:39.675,526.331,67.017,0,0.000885,0,0
0:4:39.979,527.208,67.1274,0,0.000885,0,0
0:4:40.278,527.559,67.1687,0,0.000885,0,0
0:4:40.579,528.266,67.2584,0,0.000885,0,0
0:4:40.879,528.791,67.3273,0,0.000885,0,0
0:4:41.173,529.672,67.4376,0,0.000885,0,0
0:4:41.473,529.966,67.479,0,0.000885,0,0
0:4:41.775,530.375,67.5273,0,0.000885,0,0
0:4:42.075,530.726,67.5755,0,0.000885,0,0
0:4:42.379,530.788,67.5824,0,0.000885,0,0
0:4:42.675,530.023,67.4859,0,0.000885,0,0
0:4:42.970,529.321,67.3963,0,0.000885,0,0
0:4:43.273,528.324,67.2653,0,0.000885,0,0
0:4:43.570,529.027,67.3549,0,0.000885,0,0
0:4:43.864,528.854,67.3342,0,0.000885,0,0
0:4:44.161,528.854,67.3342,0,0.000885,0,0
0:4:44.465,529.027,67.3549,0,0.000885,0,0
0:4:44.766,530.259,67.5135,0,0.000885,0,0
0:4:45.067,530.081,67.4928,0,0.000885,0,0
0:4:45.367,530.375,67.5273,0,0.000885,0,0
0:4:45.665,530.375,67.5273,0,0.000885,0,0
0:4:45.966,530.201,67.5066,0,0.000885,0,0
0:4:46.270,529.672,67.4376,0,0.000885,0,0
0:4:46.569,530.201,67.5066,0,0.000885,0,0
0:4:46.873,530.788,67.5824,0,0.000885,0,0
0:4:47.173,531.607,67.6858,0,0.000885,0,0
0:4:47.465,532.43,67.7893,0,0.000885,0,0
0:4:47.771,532.194,67.7617,0,0.000885,0,0
0:4:48.079,528.088,67.2377,0,0.000885,0,0
0:4:48.369,526.798,67.0722,0,0.000885,0,0
0:4:48.670,527.559,67.1687,0,0.000885,0,0
0:4:48.974,528.56,67.2997,0,0.000885,0,0
0:4:49.269,530.495,67.5479,0,0.000885,0,0
0:4:49.578,531.313,67.6514,0,0.000885,0,0
0:4:49.877,530.668,67.5686,0,0.000885,0,0
0:4:50.180,530.962,67.6031,0,0.000885,0,0
0:4:50.479,528.56,67.2997,0,0.000885,0,0
0:4:50.779,527.853,67.2101,0,0.000885,0,0
0:4:51.079,528.204,67.2515,0,0.000885,0,0
0:4:51.370,528.911,67.3411,0,0.000885,0,0
0:4:51.669,529.85,67.4652,0,0.000885,0,0
0:4:51.981,531.491,67.672,0,0.000885,0,0
0:4:52.280,530.081,67.4928,0,0.000885,0,0
0:4:52.574,529.614,67.4307,0,0.000885,0,0
0:4:52.877,529.614,67.4307,0,0.000885,0,0
0:4:53.176,530.375,67.5273,0,0.000885,0,0
0:4:53.467,530.726,67.5755,0,0.000885,0,0
0:4:53.766,531.02,67.61,0,0.000885,0,0
0:4:54.068,531.607,67.6858,0,0.000885,0,0
0:4:54.376,532.021,67.741,0,0.000885,0,0
0:4:54.671,531.02,67.61,0,0.000885,0,0
0:4:54.975,531.082,67.6169,0,0.000885,0,0
0:4:55.275,529.027,67.3549,0,0.000885,0,0
0:4:55.575,520.228,66.2379,0,0.000885,0,0
0:4:55.874,519.29,66.1207,0,0.000885,0,0
0:4:56.174,515.949,65.6932,0,0.000885,0,0
0:4:56.271,515.949,65.6932,0,0.000885,0,0