File: DataFile2021-06-07_052507.csv
Test ID:,Date Tested:,Time:,Test Type:,Diameter Avg. (mm):,Cyl. Corr. Factor:,Height (mm):,Age (days):,Weight (kN):,Break Type:,Ramp Rate (MPa/s):,Load at Break (kN):,Stress at Break (MPa):
12,6/7/2021,05:25,Cylinder,100,1,200,0,3.6,3,0.25,917.51,116.82
Sample Time,Load (kN),Stress (MPa),Long. Strain,Trans. Strain,Chan1 Deflection (mm),Chan2 Deflection (mm)
0:0:14.764,8.32707,1.06179,0,0.000885,0,0
0:0:15.172,14.2521,1.81332,0,0.000885,0,0
0:0:15.572,13.4292,1.7099,0,0.000885,0,0
0:0:15.970,13.3135,1.69611,0,0.000885,0,0
0:0:16.373,12.9621,1.64785,0,0.000885,0,0
0:0:16.767,12.4906,1.59269,0,0.000885,0,0
0:0:17.164,12.3171,1.56511,0,0.000885,0,0
0:0:17.573,12.4328,1.58579,0,0.000885,0,0
0:0:17.969,12.1392,1.54443,0,0.000885,0,0
0:0:18.365,12.6107,1.60648,0,0.000885,0,0
0:0:18.770,12.8465,1.63406,0,0.000885,0,0
0:0:19.168,13.6649,1.73748,0,0.000885,0,0
0:0:19.567,13.6071,1.73058,0,0.000885,0,0
0:0:19.973,14.5457,1.85469,0,0.000885,0,0
0:0:20.378,15.1907,1.93743,0,0.000885,0,0
0:0:20.781,16.0714,2.04774,0,0.000885,0,0
0:0:21.185,17.9486,2.28216,0,0.000885,0,0
0:0:21.588,18.4735,2.35111,0,0.000885,0,0
0:0:21.986,19.7634,2.51659,0,0.000885,0,0
0:0:22.383,20.5864,2.62001,0,0.000885,0,0
0:0:22.782,22.1121,2.81306,0,0.000885,0,0
0:0:23.180,22.1699,2.81996,0,0.000885,0,0
0:0:23.579,22.8149,2.90269,0,0.000885,0,0
0:0:23.976,23.7535,3.0268,0,0.000885,0,0
0:0:24.373,24.5764,3.13022,0,0.000885,0,0
0:0:24.773,24.4563,3.11643,0,0.000885,0,0
0:0:25.173,25.3371,3.22675,0,0.000885,0,0
0:0:25.578,25.9821,3.30948,0,0.000885,0,0
0:0:25.982,27.0363,3.44048,0,0.000885,0,0
0:0:26.385,27.7436,3.53012,0,0.000885,0,0
0:0:26.787,28.9134,3.6818,0,0.000885,0,0
0:0:27.185,29.6163,3.77143,0,0.000885,0,0
0:0:27.581,30.7906,3.92312,0,0.000885,0,0
0:0:27.978,31.3778,3.99206,0,0.000885,0,0
0:0:28.378,32.3163,4.11617,0,0.000885,0,0
0:0:28.777,32.6677,4.15754,0,0.000885,0,0
0:0:29.175,34.0778,4.3368,0,0.000885,0,0
0:0:29.568,34.0778,4.3368,0,0.000885,0,0
0:0:29.967,35.0742,4.4678,0,0.000885,0,0
0:0:30.368,35.9505,4.57812,0,0.000885,0,0
0:0:30.773,36.7734,4.68154,0,0.000885,0,0
0:0:31.179,37.067,4.72291,0,0.000885,0,0
0:0:31.581,38.1213,4.85391,0,0.000885,0,0
0:0:31.981,38.5928,4.91596,0,0.000885,0,0
0:0:32.380,39.8828,5.07454,0,0.000885,0,0
0:0:32.777,40.8792,5.20554,0,0.000885,0,0
0:0:33.173,41.6398,5.30207,0,0.000885,0,0
0:0:33.573,41.9334,5.33654,0,0.000885,0,0
0:0:33.972,42.872,5.46065,0,0.000885,0,0
0:0:34.370,43.8684,5.58475,0,0.000885,0,0
0:0:34.768,44.8069,5.70196,0,0.000885,0,0
0:0:35.172,45.2784,5.76402,0,0.000885,0,0
0:0:35.577,46.3327,5.90191,0,0.000885,0,0
0:0:35.980,46.862,5.96397,0,0.000885,0,0
0:0:36.383,47.507,6.0467,0,0.000885,0,0
0:0:36.781,48.6191,6.19149,0,0.000885,0,0
0:0:37.178,49.3842,6.28802,0,0.000885,0,0
0:0:37.579,50.087,6.37765,0,0.000885,0,0
0:0:37.978,50.6741,6.45349,0,0.000885,0,0
0:0:38.373,51.4348,6.55002,0,0.000885,0,0
0:0:38.770,52.3155,6.66034,0,0.000885,0,0
0:0:39.170,53.3698,6.79823,0,0.000885,0,0
0:0:39.578,53.6633,6.8327,0,0.000885,0,0
0:0:39.975,54.722,6.9706,0,0.000885,0,0
0:0:40.381,55.1891,7.02576,0,0.000885,0,0
0:0:40.786,55.9542,7.12228,0,0.000885,0,0
0:0:41.189,56.8928,7.24639,0,0.000885,0,0
0:0:41.592,58.2406,7.41876,0,0.000885,0,0
0:0:41.989,58.414,7.43944,0,0.000885,0,0
0:0:42.384,59.1791,7.53597,0,0.000885,0,0
0:0:42.784,60.3535,7.68076,0,0.000885,0,0
0:0:43.184,61.2876,7.80487,0,0.000885,0,0
0:0:43.580,61.8169,7.87381,0,0.000885,0,0
0:0:43.976,62.4041,7.94276,0,0.000885,0,0
0:0:44.374,63.3427,8.06687,0,0.000885,0,0
0:0:44.775,64.8684,8.25992,0,0.000885,0,0
0:0:45.172,65.7492,8.37024,0,0.000885,0,0
0:0:45.577,65.8648,8.38402,0,0.000885,0,0
0:0:45.981,66.2741,8.43918,0,0.000885,0,0
0:0:46.385,67.564,8.60466,0,0.000885,0,0
0:0:46.788,68.0934,8.66671,0,0.000885,0,0
0:0:47.184,68.7962,8.75634,0,0.000885,0,0
0:0:47.581,69.3834,8.83218,0,0.000885,0,0
0:0:47.979,69.9705,8.90803,0,0.000885,0,0
0:0:48.381,71.5541,9.10797,0,0.000885,0,0
0:0:48.778,71.9633,9.16313,0,0.000885,0,0
0:0:49.172,72.6083,9.24587,0,0.000885,0,0
0:0:49.570,73.7248,9.38376,0,0.000885,0,0
0:0:49.969,74.312,9.45961,0,0.000885,0,0
0:0:50.379,75.2506,9.58371,0,0.000885,0,0
0:0:50.783,76.1269,9.69403,0,0.000885,0,0
0:0:51.189,76.8341,9.78366,0,0.000885,0,0
0:0:51.592,77.537,9.87329,0,0.000885,0,0
0:0:51.996,78.3554,9.97671,0,0.000885,0,0
0:0:52.393,79.0004,10.0595,0,0.000885,0,0
0:0:52.790,80.0013,10.1836,0,0.000885,0,0
0:0:53.185,80.7619,10.2801,0,0.000885,0,0
0:0:53.585,81.5226,10.3766,0,0.000885,0,0
0:0:53.985,82.1097,10.4525,0,0.000885,0,0
0:0:54.383,82.9326,10.5559,0,0.000885,0,0
0:0:54.778,83.929,10.6869,0,0.000885,0,0
0:0:55.183,84.3383,10.7351,0,0.000885,0,0
0:0:55.590,84.9254,10.811,0,0.000885,0,0
0:0:55.992,86.6247,11.0316,0,0.000885,0,0
0:0:56.396,87.5054,11.1419,0,0.000885,0,0
0:0:56.793,87.799,11.1764,0,0.000885,0,0
0:0:57.192,88.7376,11.3005,0,0.000885,0,0
0:0:57.591,89.3826,11.3832,0,0.000885,0,0
0:0:57.988,90.4991,11.5211,0,0.000885,0,0
0:0:58.384,90.9661,11.5832,0,0.000885,0,0
0:0:58.781,91.5533,11.659,0,0.000885,0,0
0:0:59.183,92.1983,11.7418,0,0.000885,0,0
0:0:59.580,93.4304,11.8935,0,0.000885,0,0
0:0:59.975,93.8975,11.9555,0,0.000885,0,0
0:1:0.381,95.014,12.1003,0,0.000885,0,0
0:1:0.787,95.6012,12.1692,0,0.000885,0,0
0:1:1.191,96.7711,12.3209,0,0.000885,0,0
0:1:1.595,96.8912,12.3347,0,0.000885,0,0
0:1:1.993,98.0655,12.4864,0,0.000885,0,0
0:1:2.391,98.5904,12.5554,0,0.000885,0,0
0:1:2.791,99.529,12.6726,0,0.000885,0,0
0:1:3.190,100.41,12.7829,0,0.000885,0,0
0:1:3.586,101.406,12.9139,0,0.000885,0,0
0:1:3.982,102.638,13.0656,0,0.000885,0,0
0:1:4.382,103.225,13.1414,0,0.000885,0,0
0:1:4.782,103.399,13.1621,0,0.000885,0,0
0:1:5.180,103.87,13.2241,0,0.000885,0,0
0:1:5.585,104.867,13.3551,0,0.000885,0,0
0:1:5.990,105.748,13.4655,0,0.000885,0,0
0:1:6.392,106.393,13.5482,0,0.000885,0,0
0:1:6.797,107.625,13.6999,0,0.000885,0,0
0:1:7.192,108.328,13.7895,0,0.000885,0,0
0:1:7.591,108.857,13.8585,0,0.000885,0,0
0:1:7.989,109.675,13.9619,0,0.000885,0,0
0:1:8.389,110.378,14.0515,0,0.000885,0,0
0:1:8.787,111.201,14.1618,0,0.000885,0,0
0:1:9.182,111.904,14.2515,0,0.000885,0,0
0:1:9.580,112.549,14.3273,0,0.000885,0,0
0:1:9.980,113.723,14.479,0,0.000885,0,0
0:1:10.380,114.426,14.5686,0,0.000885,0,0
0:1:10.785,115.129,14.6583,0,0.000885,0,0
0:1:11.190,115.894,14.7548,0,0.000885,0,0
0:1:11.592,116.775,14.8651,0,0.000885,0,0
0:1:11.995,117.887,15.0099,0,0.000885,0,0
0:1:12.393,118.358,15.0719,0,0.000885,0,0
0:1:12.790,119.119,15.1685,0,0.000885,0,0
0:1:13.187,120.351,15.3202,0,0.000885,0,0
0:1:13.587,121.054,15.4098,0,0.000885,0,0
0:1:13.987,121.405,15.458,0,0.000885,0,0
0:1:14.383,122.815,15.6373,0,0.000885,0,0
0:1:14.780,123.46,15.72,0,0.000885,0,0
0:1:15.185,124.048,15.7959,0,0.000885,0,0
0:1:15.591,124.75,15.8855,0,0.000885,0,0
0:1:15.993,125.747,16.0096,0,0.000885,0,0
0:1:16.395,126.098,16.0579,0,0.000885,0,0
0:1:16.791,127.095,16.182,0,0.000885,0,0
0:1:17.193,128.505,16.3613,0,0.000885,0,0
0:1:17.591,129.03,16.4302,0,0.000885,0,0
0:1:17.986,129.852,16.5336,0,0.000885,0,0
0:1:18.383,130.44,16.6095,0,0.000885,0,0
0:1:18.780,130.733,16.6439,0,0.000885,0,0
0:1:19.182,131.32,16.7198,0,0.000885,0,0
0:1:19.580,132.023,16.8094,0,0.000885,0,0
0:1:19.975,133.313,16.9749,0,0.000885,0,0
0:1:20.380,134.016,17.0645,0,0.000885,0,0
0:1:20.785,134.839,17.1679,0,0.000885,0,0
0:1:21.189,135.484,17.2507,0,0.000885,0,0
0:1:21.592,137.01,17.4437,0,0.000885,0,0
0:1:21.990,137.299,17.4851,0,0.000885,0,0
0:1:22.388,138.006,17.5747,0,0.000885,0,0
0:1:22.788,138.651,17.6506,0,0.000885,0,0
0:1:23.187,139.59,17.7747,0,0.000885,0,0
0:1:23.584,140.466,17.885,0,0.000885,0,0
0:1:23.979,141.347,17.9953,0,0.000885,0,0
0:1:24.379,142.112,18.0918,0,0.000885,0,0
0:1:24.780,143.108,18.2228,0,0.000885,0,0
0:1:25.177,143.869,18.3194,0,0.000885,0,0
0:1:25.582,144.75,18.4297,0,0.000885,0,0
0:1:25.985,145.452,18.5193,0,0.000885,0,0
0:1:26.389,146.217,18.6158,0,0.000885,0,0
0:1:26.792,146.742,18.6848,0,0.000885,0,0
0:1:27.187,147.214,18.7468,0,0.000885,0,0
0:1:27.584,148.21,18.871,0,0.000885,0,0
0:1:27.984,148.62,18.9261,0,0.000885,0,0
0:1:28.383,149.616,19.0502,0,0.000885,0,0
0:1:28.781,150.732,19.195,0,0.000885,0,0
0:1:29.177,151.32,19.264,0,0.000885,0,0
0:1:29.573,152.022,19.3536,0,0.000885,0,0
0:1:29.974,152.725,19.4432,0,0.000885,0,0
0:1:30.372,153.37,19.526,0,0.000885,0,0
0:1:30.779,154.251,19.6432,0,0.000885,0,0
0:1:31.183,155.19,19.7604,0,0.000885,0,0
0:1:31.585,156.186,19.8845,0,0.000885,0,0
0:1:31.989,157.182,20.0155,0,0.000885,0,0
0:1:32.386,157.534,20.0568,0,0.000885,0,0
0:1:32.782,158.472,20.1741,0,0.000885,0,0
0:1:33.179,158.944,20.2361,0,0.000885,0,0
0:1:33.579,159.998,20.374,0,0.000885,0,0
0:1:33.979,160.701,20.4636,0,0.000885,0,0
0:1:34.376,161.933,20.6153,0,0.000885,0,0
0:1:34.769,162.405,20.6774,0,0.000885,0,0
0:1:35.175,163.459,20.8153,0,0.000885,0,0
0:1:35.581,163.93,20.8704,0,0.000885,0,0
0:1:35.984,164.691,20.967,0,0.000885,0,0
0:1:36.385,165.572,21.0842,0,0.000885,0,0
0:1:36.784,166.159,21.1531,0,0.000885,0,0
0:1:37.185,166.742,21.229,0,0.000885,0,0
0:1:37.583,168.032,21.3944,0,0.000885,0,0
0:1:37.979,168.619,21.4703,0,0.000885,0,0
0:1:38.376,169.499,21.5806,0,0.000885,0,0
0:1:38.775,169.971,21.6426,0,0.000885,0,0
0:1:39.176,171.612,21.8495,0,0.000885,0,0
0:1:39.573,172.022,21.9046,0,0.000885,0,0
0:1:39.978,172.782,22.0012,0,0.000885,0,0
0:1:40.381,173.49,22.0908,0,0.000885,0,0
0:1:40.787,173.783,22.1253,0,0.000885,0,0
0:1:41.190,174.544,22.2218,0,0.000885,0,0
0:1:41.592,175.304,22.3183,0,0.000885,0,0
0:1:41.991,176.421,22.4631,0,0.000885,0,0
0:1:42.390,177.302,22.5734,0,0.000885,0,0
0:1:42.791,178.12,22.6769,0,0.000885,0,0
0:1:43.188,179.237,22.8216,0,0.000885,0,0
0:1:43.582,179.646,22.8699,0,0.000885,0,0
0:1:43.980,181.056,23.0492,0,0.000885,0,0
0:1:44.380,181.639,23.125,0,0.000885,0,0
0:1:44.779,182.284,23.2078,0,0.000885,0,0
0:1:45.174,182.284,23.2078,0,0.000885,0,0
0:1:45.579,183.516,23.3663,0,0.000885,0,0
0:1:45.984,184.161,23.4491,0,0.000885,0,0
0:1:46.387,185.219,23.5801,0,0.000885,0,0
0:1:46.789,186.158,23.7042,0,0.000885,0,0
0:1:47.185,186.683,23.7662,0,0.000885,0,0
0:1:47.583,187.448,23.8696,0,0.000885,0,0
0:1:47.984,188.502,24.0007,0,0.000885,0,0
0:1:48.382,189.089,24.0765,0,0.000885,0,0
0:1:48.777,189.912,24.1799,0,0.000885,0,0
0:1:49.174,190.615,24.2695,0,0.000885,0,0
0:1:49.574,191.554,24.3868,0,0.000885,0,0
0:1:49.969,192.021,24.4488,0,0.000885,0,0
0:1:50.374,193.253,24.6074,0,0.000885,0,0
0:1:50.775,193.898,24.6901,0,0.000885,0,0
0:1:51.175,194.485,24.766,0,0.000885,0,0
0:1:51.575,194.952,24.8211,0,0.000885,0,0
0:1:51.980,195.833,24.9314,0,0.000885,0,0
0:1:52.374,196.772,25.0555,0,0.000885,0,0
0:1:52.776,197.888,25.1934,0,0.000885,0,0
0:1:53.174,198.707,25.2969,0,0.000885,0,0
0:1:53.569,199.236,25.3658,0,0.000885,0,0
0:1:53.975,200.348,25.5106,0,0.000885,0,0
0:1:54.365,200.641,25.5451,0,0.000885,0,0
0:1:54.771,201.349,25.6347,0,0.000885,0,0
0:1:55.170,202.109,25.7312,0,0.000885,0,0
0:1:55.576,203.106,25.8622,0,0.000885,0,0
0:1:55.977,204.28,26.007,0,0.000885,0,0
0:1:56.376,204.809,26.076,0,0.000885,0,0
0:1:56.784,205.454,26.1587,0,0.000885,0,0
0:1:57.181,206.918,26.3449,0,0.000885,0,0
0:1:57.575,207.269,26.3931,0,0.000885,0,0
0:1:57.977,208.034,26.4897,0,0.000885,0,0
0:1:58.371,208.795,26.5862,0,0.000885,0,0
0:1:58.768,209.618,26.6896,0,0.000885,0,0
0:1:59.174,210.379,26.7861,0,0.000885,0,0
0:1:59.578,211.259,26.8964,0,0.000885,0,0
0:1:59.969,211.433,26.924,0,0.000885,0,0
0:2:0.370,212.082,26.9999,0,0.000885,0,0
0:2:0.775,213.016,27.124,0,0.000885,0,0
0:2:1.177,213.897,27.2343,0,0.000885,0,0
0:2:1.577,214.778,27.3446,0,0.000885,0,0
0:2:1.982,215.659,27.4618,0,0.000885,0,0
0:2:2.379,216.713,27.5928,0,0.000885,0,0
0:2:2.775,217.767,27.7238,0,0.000885,0,0
0:2:3.178,218.826,27.8617,0,0.000885,0,0
0:2:3.570,219.644,27.9651,0,0.000885,0,0
0:2:3.978,220.231,28.041,0,0.000885,0,0
0:2:4.372,220.819,28.1168,0,0.000885,0,0
0:2:4.778,220.934,28.1306,0,0.000885,0,0
0:2:5.169,221.699,28.2271,0,0.000885,0,0
0:2:5.569,222.344,28.3099,0,0.000885,0,0
0:2:5.972,223.105,28.4064,0,0.000885,0,0
0:2:6.375,224.044,28.5236,0,0.000885,0,0
0:2:6.775,224.924,28.6408,0,0.000885,0,0
0:2:7.179,225.921,28.7649,0,0.000885,0,0
0:2:7.575,226.686,28.8615,0,0.000885,0,0
0:2:7.981,227.504,28.9649,0,0.000885,0,0
0:2:8.372,228.149,29.0476,0,0.000885,0,0
0:2:8.776,229.439,29.2131,0,0.000885,0,0
0:2:9.171,229.969,29.282,0,0.000885,0,0
0:2:9.568,230.671,29.3717,0,0.000885,0,0
0:2:9.971,231.61,29.4889,0,0.000885,0,0
0:2:10.377,232.491,29.5992,0,0.000885,0,0
0:2:10.778,233.487,29.7302,0,0.000885,0,0
0:2:11.178,234.074,29.806,0,0.000885,0,0
0:2:11.579,234.835,29.9026,0,0.000885,0,0
0:2:11.970,235.129,29.937,0,0.000885,0,0
0:2:12.364,236.419,30.1025,0,0.000885,0,0
0:2:12.769,236.89,30.1646,0,0.000885,0,0
0:2:13.166,238.064,30.3094,0,0.000885,0,0
0:2:13.573,238.883,30.4128,0,0.000885,0,0
0:2:13.977,239.586,30.5024,0,0.000885,0,0
0:2:14.380,240.466,30.6196,0,0.000885,0,0
0:2:14.777,240.76,30.6541,0,0.000885,0,0
0:2:15.182,241.169,30.7092,0,0.000885,0,0
0:2:15.585,241.699,30.7713,0,0.000885,0,0
0:2:15.986,242.753,30.9092,0,0.000885,0,0
0:2:16.387,243.691,31.0264,0,0.000885,0,0
0:2:16.786,244.572,31.1367,0,0.000885,0,0
0:2:17.181,245.862,31.3022,0,0.000885,0,0
0:2:17.573,246.801,31.4263,0,0.000885,0,0
0:2:17.978,247.094,31.4608,0,0.000885,0,0
0:2:18.373,248.033,31.578,0,0.000885,0,0
0:2:18.770,248.442,31.6331,0,0.000885,0,0
0:2:19.172,249.381,31.7504,0,0.000885,0,0
0:2:19.566,250.439,31.8883,0,0.000885,0,0
0:2:19.984,251.258,31.9917,0,0.000885,0,0
0:2:20.383,252.374,32.1365,0,0.000885,0,0
0:2:20.786,253.193,32.2399,0,0.000885,0,0
0:2:21.187,253.606,32.2881,0,0.000885,0,0
0:2:21.588,254.483,32.4054,0,0.000885,0,0
0:2:21.984,255.012,32.4674,0,0.000885,0,0
0:2:22.381,255.893,32.5846,0,0.000885,0,0
0:2:22.782,256.596,32.6674,0,0.000885,0,0
0:2:23.174,256.947,32.7156,0,0.000885,0,0
0:2:23.571,258.006,32.8466,0,0.000885,0,0
0:2:23.969,259.118,32.9914,0,0.000885,0,0
0:2:24.371,259.763,33.0742,0,0.000885,0,0
0:2:24.773,260.114,33.1155,0,0.000885,0,0
0:2:25.174,260.995,33.2327,0,0.000885,0,0
0:2:25.580,261.934,33.3499,0,0.000885,0,0
0:2:25.981,262.579,33.4327,0,0.000885,0,0
0:2:26.381,263.224,33.5154,0,0.000885,0,0
0:2:26.782,264.513,33.6809,0,0.000885,0,0
0:2:27.180,265.394,33.7912,0,0.000885,0,0
0:2:27.578,266.155,33.8877,0,0.000885,0,0
0:2:27.982,267.093,34.0049,0,0.000885,0,0
0:2:28.386,267.916,34.1153,0,0.000885,0,0
0:2:28.778,268.268,34.1566,0,0.000885,0,0
0:2:29.174,269.673,34.3359,0,0.000885,0,0
0:2:29.571,270.087,34.391,0,0.000885,0,0
0:2:29.973,271.199,34.5289,0,0.000885,0,0
0:2:30.375,271.844,34.6117,0,0.000885,0,0
0:2:30.779,272.489,34.6944,0,0.000885,0,0
0:2:31.179,272.961,34.7565,0,0.000885,0,0
0:2:31.580,273.721,34.853,0,0.000885,0,0
0:2:31.983,274.896,34.9978,0,0.000885,0,0
0:2:32.387,275.363,35.0598,0,0.000885,0,0
0:2:32.783,276.301,35.1771,0,0.000885,0,0
0:2:33.179,276.715,35.2322,0,0.000885,0,0
0:2:33.573,277.827,35.377,0,0.000885,0,0
0:2:33.985,278.65,35.4804,0,0.000885,0,0
0:2:34.383,279.411,35.5769,0,0.000885,0,0
0:2:34.779,279.704,35.6114,0,0.000885,0,0
0:2:35.172,280.758,35.7493,0,0.000885,0,0
0:2:35.575,281.523,35.8458,0,0.000885,0,0
0:2:35.980,282.52,35.9699,0,0.000885,0,0
0:2:36.380,283.752,36.1285,0,0.000885,0,0
0:2:36.780,284.633,36.2388,0,0.000885,0,0
0:2:37.183,285.393,36.3354,0,0.000885,0,0
0:2:37.575,285.803,36.3905,0,0.000885,0,0
0:2:37.981,286.448,36.4733,0,0.000885,0,0
0:2:38.376,287.155,36.5629,0,0.000885,0,0
0:2:38.773,288.151,36.687,0,0.000885,0,0
0:2:39.186,289.206,36.8249,0,0.000885,0,0
0:2:39.580,289.735,36.887,0,0.000885,0,0
0:2:39.987,290.144,36.9421,0,0.000885,0,0
0:2:40.385,291.198,37.08,0,0.000885,0,0
0:2:40.788,291.728,37.1421,0,0.000885,0,0
0:2:41.189,292.902,37.2937,0,0.000885,0,0
0:2:41.588,293.721,37.3972,0,0.000885,0,0
0:2:41.987,294.423,37.4868,0,0.000885,0,0
0:2:42.382,295.131,37.5764,0,0.000885,0,0
0:2:42.784,296.007,37.6867,0,0.000885,0,0
0:2:43.189,296.594,37.7626,0,0.000885,0,0
0:2:43.585,297.239,37.8453,0,0.000885,0,0
0:2:43.982,298.24,37.9694,0,0.000885,0,0
0:2:44.374,299.001,38.0728,0,0.000885,0,0
0:2:44.766,299.761,38.1694,0,0.000885,0,0
0:2:45.168,300.406,38.2521,0,0.000885,0,0
0:2:45.572,301.051,38.328,0,0.000885,0,0
0:2:45.972,301.99,38.4521,0,0.000885,0,0
0:2:46.373,302.755,38.5486,0,0.000885,0,0
0:2:46.786,303.925,38.7003,0,0.000885,0,0
0:2:47.184,304.69,38.7968,0,0.000885,0,0
0:2:47.582,305.686,38.9209,0,0.000885,0,0
0:2:47.984,306.273,38.9967,0,0.000885,0,0
0:2:48.375,306.625,39.0381,0,0.000885,0,0
0:2:48.771,307.385,39.1346,0,0.000885,0,0
0:2:49.180,308.502,39.2794,0,0.000885,0,0
0:2:49.586,309.089,39.3553,0,0.000885,0,0
0:2:49.977,310.143,39.4863,0,0.000885,0,0
0:2:50.380,311.376,39.6449,0,0.000885,0,0
0:2:50.783,312.198,39.7483,0,0.000885,0,0
0:2:51.183,312.55,39.7965,0,0.000885,0,0
0:2:51.584,313.195,39.8793,0,0.000885,0,0
0:2:51.975,313.84,39.962,0,0.000885,0,0
0:2:52.370,314.485,40.0448,0,0.000885,0,0
0:2:52.777,315.366,40.1551,0,0.000885,0,0
0:2:53.173,316.42,40.2861,0,0.000885,0,0
0:2:53.578,317.123,40.3757,0,0.000885,0,0
0:2:53.984,317.946,40.4791,0,0.000885,0,0
0:2:54.386,318.591,40.5619,0,0.000885,0,0
0:2:54.782,319.351,40.6584,0,0.000885,0,0
0:2:55.190,320.232,40.7756,0,0.000885,0,0
0:2:55.594,320.993,40.8721,0,0.000885,0,0
0:2:55.993,321.758,40.9686,0,0.000885,0,0
0:2:56.393,322.225,41.0238,0,0.000885,0,0
0:2:56.793,322.87,41.1065,0,0.000885,0,0
0:2:57.189,324.044,41.2582,0,0.000885,0,0
0:2:57.580,324.805,41.3548,0,0.000885,0,0
0:2:57.972,325.45,41.4375,0,0.000885,0,0
0:2:58.370,326.451,41.5616,0,0.000885,0,0
0:2:58.776,327.563,41.7064,0,0.000885,0,0
0:2:59.172,328.034,41.7684,0,0.000885,0,0
0:2:59.586,329.262,41.9201,0,0.000885,0,0
0:2:59.989,330.027,42.0235,0,0.000885,0,0
0:3:0.391,330.73,42.1132,0,0.000885,0,0
0:3:0.794,331.317,42.1821,0,0.000885,0,0
0:3:1.194,331.784,42.2442,0,0.000885,0,0
0:3:1.594,332.371,42.32,0,0.000885,0,0
0:3:1.990,333.488,42.4579,0,0.000885,0,0
0:3:2.390,334.133,42.5407,0,0.000885,0,0
0:3:2.783,335.071,42.6648,0,0.000885,0,0
0:3:3.174,335.89,42.7682,0,0.000885,0,0
0:3:3.590,336.655,42.8647,0,0.000885,0,0
0:3:3.986,337.18,42.9337,0,0.000885,0,0
0:3:4.383,338.118,43.0509,0,0.000885,0,0
0:3:4.785,339.177,43.1819,0,0.000885,0,0
0:3:5.188,339.995,43.2922,0,0.000885,0,0
0:3:5.589,340.703,43.3818,0,0.000885,0,0
0:3:5.989,341.521,43.4852,0,0.000885,0,0
0:3:6.390,342.224,43.5749,0,0.000885,0,0
0:3:6.783,343.283,43.7059,0,0.000885,0,0
0:3:7.186,343.634,43.7541,0,0.000885,0,0
0:3:7.586,344.866,43.9127,0,0.000885,0,0
0:3:7.978,345.569,44.0023,0,0.000885,0,0
0:3:8.384,345.978,44.0506,0,0.000885,0,0
0:3:8.775,346.623,44.1333,0,0.000885,0,0
0:3:9.172,347.682,44.2712,0,0.000885,0,0
0:3:9.578,348.207,44.3333,0,0.000885,0,0
0:3:9.973,349.381,44.485,0,0.000885,0,0
0:3:10.376,349.91,44.5539,0,0.000885,0,0
0:3:10.779,350.965,44.6849,0,0.000885,0,0
0:3:11.179,351.845,44.7952,0,0.000885,0,0
0:3:11.582,352.433,44.8711,0,0.000885,0,0
0:3:11.976,353.487,45.009,0,0.000885,0,0
0:3:12.377,353.838,45.0503,0,0.000885,0,0
0:3:12.785,354.661,45.1538,0,0.000885,0,0
0:3:13.183,355.128,45.2158,0,0.000885,0,0
0:3:13.585,356.245,45.3606,0,0.000885,0,0
0:3:13.987,356.827,45.4296,0,0.000885,0,0
0:3:14.383,358.002,45.5812,0,0.000885,0,0
0:3:14.777,358.531,45.6502,0,0.000885,0,0
0:3:15.173,359.643,45.7881,0,0.000885,0,0
0:3:15.576,360.057,45.8432,0,0.000885,0,0
0:3:15.977,360.702,45.926,0,0.000885,0,0
0:3:16.377,361.64,46.0432,0,0.000885,0,0
0:3:16.779,362.93,46.2087,0,0.000885,0,0
0:3:17.184,363.282,46.2569,0,0.000885,0,0
0:3:17.586,364.1,46.3603,0,0.000885,0,0
0:3:17.979,364.572,46.4155,0,0.000885,0,0
0:3:18.378,365.862,46.581,0,0.000885,0,0
0:3:18.784,366.685,46.6844,0,0.000885,0,0
0:3:19.188,367.445,46.7878,0,0.000885,0,0
0:3:19.578,368.735,46.9464,0,0.000885,0,0
0:3:19.975,369.029,46.9878,0,0.000885,0,0
0:3:20.372,369.852,47.0912,0,0.000885,0,0
0:3:20.775,370.203,47.1326,0,0.000885,0,0
0:3:21.176,370.497,47.1739,0,0.000885,0,0
0:3:21.577,371.729,47.3325,0,0.000885,0,0
0:3:21.976,372.783,47.4635,0,0.000885,0,0
0:3:22.380,373.544,47.56,0,0.000885,0,0
0:3:22.788,374.776,47.7186,0,0.000885,0,0
0:3:23.189,375.07,47.7531,0,0.000885,0,0
0:3:23.586,376.066,47.8841,0,0.000885,0,0
0:3:23.992,376.595,47.9461,0,0.000885,0,0
0:3:24.386,377.885,48.1116,0,0.000885,0,0
0:3:24.788,378.237,48.1599,0,0.000885,0,0
0:3:25.189,379.233,48.284,0,0.000885,0,0
0:3:25.593,379.647,48.3391,0,0.000885,0,0
0:3:25.994,380.23,48.415,0,0.000885,0,0
0:3:26.394,381.52,48.5736,0,0.000885,0,0
0:3:26.790,382.872,48.7459,0,0.000885,0,0
0:3:27.185,383.69,48.8563,0,0.000885,0,0
0:3:27.591,384.042,48.8976,0,0.000885,0,0
0:3:27.986,384.865,49.001,0,0.000885,0,0
0:3:28.387,385.452,49.0769,0,0.000885,0,0
0:3:28.793,386.155,49.1665,0,0.000885,0,0
0:3:29.190,386.915,49.263,0,0.000885,0,0
0:3:29.585,387.622,49.3527,0,0.000885,0,0
0:3:29.977,388.499,49.463,0,0.000885,0,0
0:3:30.380,389.206,49.5526,0,0.000885,0,0
0:3:30.785,389.793,49.6285,0,0.000885,0,0
0:3:31.185,390.847,49.7664,0,0.000885,0,0
0:3:31.586,391.608,49.8629,0,0.000885,0,0
0:3:31.978,392.547,49.9801,0,0.000885,0,0
0:3:32.373,393.249,50.0697,0,0.000885,0,0
0:3:32.770,393.957,50.1594,0,0.000885,0,0
0:3:33.176,394.482,50.2283,0,0.000885,0,0
0:3:33.589,395.54,50.3593,0,0.000885,0,0
0:3:33.981,396.359,50.4627,0,0.000885,0,0
0:3:34.379,397.475,50.6075,0,0.000885,0,0
0:3:34.775,398.236,50.704,0,0.000885,0,0
0:3:35.170,399.175,50.8213,0,0.000885,0,0
0:3:35.573,399.704,50.8902,0,0.000885,0,0
0:3:35.974,400.229,50.9592,0,0.000885,0,0
0:3:36.374,401.167,51.0764,0,0.000885,0,0
0:3:36.774,402.168,51.2074,0,0.000885,0,0
0:3:37.176,402.813,51.2901,0,0.000885,0,0
0:3:37.572,403.396,51.359,0,0.000885,0,0
0:3:37.978,403.516,51.3797,0,0.000885,0,0
0:3:38.387,404.806,51.5383,0,0.000885,0,0
0:3:38.789,405.745,51.6624,0,0.000885,0,0
0:3:39.179,406.977,51.821,0,0.000885,0,0
0:3:39.588,407.444,51.8762,0,0.000885,0,0
0:3:39.986,408.267,51.9796,0,0.000885,0,0
0:3:40.389,409.027,52.0761,0,0.000885,0,0
0:3:40.790,409.321,52.1175,0,0.000885,0,0
0:3:41.188,409.908,52.1933,0,0.000885,0,0
0:3:41.585,411.256,52.3657,0,0.000885,0,0
0:3:41.979,412.137,52.476,0,0.000885,0,0
0:3:42.383,413.253,52.6139,0,0.000885,0,0
0:3:42.788,413.836,52.6897,0,0.000885,0,0
0:3:43.191,414.129,52.7311,0,0.000885,0,0
0:3:43.589,415.246,52.869,0,0.000885,0,0
0:3:43.993,416.652,53.0483,0,0.000885,0,0
0:3:44.386,417.359,53.1379,0,0.000885,0,0
0:3:44.779,417.648,53.1793,0,0.000885,0,0
0:3:45.180,418.177,53.2413,0,0.000885,0,0
0:3:45.585,418.942,53.3378,0,0.000885,0,0
0:3:45.987,420.054,53.4826,0,0.000885,0,0
0:3:46.388,420.815,53.5792,0,0.000885,0,0
0:3:46.780,421.58,53.6757,0,0.000885,0,0
0:3:47.188,421.874,53.7171,0,0.000885,0,0
0:3:47.595,422.692,53.8205,0,0.000885,0,0
0:3:47.988,423.457,53.917,0,0.000885,0,0
0:3:48.390,424.218,54.0135,0,0.000885,0,0
0:3:48.787,425.802,54.2135,0,0.000885,0,0
0:3:49.182,426.095,54.2548,0,0.000885,0,0
0:3:49.588,427.149,54.3858,0,0.000885,0,0
0:3:49.979,428.03,54.4962,0,0.000885,0,0
0:3:50.379,428.502,54.5582,0,0.000885,0,0
0:3:50.783,429.147,54.641,0,0.000885,0,0
0:3:51.183,429.965,54.7444,0,0.000885,0,0
0:3:51.587,430.73,54.8409,0,0.000885,0,0
0:3:51.991,431.611,54.9512,0,0.000885,0,0
0:3:52.387,432.55,55.0753,0,0.000885,0,0
0:3:52.782,433.368,55.1787,0,0.000885,0,0
0:3:53.177,434.133,55.2753,0,0.000885,0,0
0:3:53.572,435.009,55.3856,0,0.000885,0,0
0:3:53.975,435.774,55.4821,0,0.000885,0,0
0:3:54.370,436.419,55.5648,0,0.000885,0,0
0:3:54.776,437.474,55.7027,0,0.000885,0,0
0:3:55.183,438.119,55.7855,0,0.000885,0,0
0:3:55.588,438.648,55.8475,0,0.000885,0,0
0:3:55.990,439.76,55.9923,0,0.000885,0,0
0:3:56.391,440.289,56.0613,0,0.000885,0,0
0:3:56.789,441.05,56.1578,0,0.000885,0,0
0:3:57.182,441.989,56.275,0,0.000885,0,0
0:3:57.577,442.812,56.3784,0,0.000885,0,0
0:3:57.992,443.514,56.4681,0,0.000885,0,0
0:3:58.388,444.217,56.5577,0,0.000885,0,0
0:3:58.784,445.392,56.7094,0,0.000885,0,0
0:3:59.189,445.507,56.7232,0,0.000885,0,0
0:3:59.592,446.797,56.8886,0,0.000885,0,0
0:3:59.988,447.678,56.999,0,0.000885,0,0
0:4:0.387,448.149,57.061,0,0.000885,0,0
0:4:0.790,448.737,57.1369,0,0.000885,0,0
0:4:1.193,449.969,57.2885,0,0.000885,0,0
0:4:1.591,450.729,57.392,0,0.000885,0,0
0:4:1.990,451.259,57.454,0,0.000885,0,0
0:4:2.387,452.019,57.5505,0,0.000885,0,0
0:4:2.790,453.425,57.7298,0,0.000885,0,0
0:4:3.181,453.897,57.7919,0,0.000885,0,0
0:4:3.585,454.364,57.8539,0,0.000885,0,0
0:4:3.984,454.951,57.9229,0,0.000885,0,0
0:4:4.390,456.419,58.1159,0,0.000885,0,0
0:4:4.793,456.948,58.178,0,0.000885,0,0
0:4:5.195,457.651,58.2676,0,0.000885,0,0
0:4:5.596,458.354,58.3572,0,0.000885,0,0
0:4:5.997,459.466,58.502,0,0.000885,0,0
0:4:6.399,460.173,58.5916,0,0.000885,0,0
0:4:6.792,461.227,58.7226,0,0.000885,0,0
0:4:7.196,461.636,58.7778,0,0.000885,0,0
0:4:7.594,462.224,58.8536,0,0.000885,0,0
0:4:7.989,462.989,58.9502,0,0.000885,0,0
0:4:8.381,463.807,59.0536,0,0.000885,0,0
0:4:8.794,464.746,59.1708,0,0.000885,0,0
0:4:9.192,465.391,59.2535,0,0.000885,0,0
0:4:9.590,465.804,59.3087,0,0.000885,0,0
0:4:9.992,467.032,59.4673,0,0.000885,0,0
0:4:10.396,467.797,59.5638,0,0.000885,0,0
0:4:10.797,468.558,59.6603,0,0.000885,0,0
0:4:11.198,469.617,59.7913,0,0.000885,0,0
0:4:11.599,470.377,59.8879,0,0.000885,0,0
0:4:11.994,471.552,60.0395,0,0.000885,0,0
0:4:12.385,471.845,60.074,0,0.000885,0,0
0:4:12.781,472.139,60.1154,0,0.000885,0,0
0:4:13.179,473.429,60.2809,0,0.000885,0,0
0:4:13.595,474.305,60.3912,0,0.000885,0,0
0:4:13.986,475.364,60.5222,0,0.000885,0,0
0:4:14.380,475.773,60.5773,0,0.000885,0,0
0:4:14.779,476.711,60.6945,0,0.000885,0,0
0:4:15.183,477.414,60.7842,0,0.000885,0,0
0:4:15.586,477.534,60.798,0,0.000885,0,0
0:4:15.990,478.589,60.9359,0,0.000885,0,0
0:4:16.389,479.527,61.0531,0,0.000885,0,0
0:4:16.789,479.701,61.0807,0,0.000885,0,0
0:4:17.181,480.702,61.2048,0,0.000885,0,0
0:4:17.584,481.991,61.3702,0,0.000885,0,0
0:4:17.981,482.694,61.4599,0,0.000885,0,0
0:4:18.377,483.691,61.584,0,0.000885,0,0
0:4:18.774,484.629,61.7081,0,0.000885,0,0
0:4:19.185,485.096,61.7632,0,0.000885,0,0
0:4:19.579,486.035,61.8873,0,0.000885,0,0
0:4:19.976,486.858,61.9908,0,0.000885,0,0
0:4:20.373,487.325,62.0459,0,0.000885,0,0
0:4:20.777,488.148,62.1562,0,0.000885,0,0
0:4:21.179,489.029,62.2666,0,0.000885,0,0
0:4:21.579,489.789,62.3631,0,0.000885,0,0
0:4:21.979,490.554,62.4596,0,0.000885,0,0
0:4:22.375,491.724,62.6113,0,0.000885,0,0
0:4:22.785,492.663,62.7285,0,0.000885,0,0
0:4:23.181,493.192,62.7974,0,0.000885,0,0
0:4:23.578,493.837,62.8802,0,0.000885,0,0
0:4:23.974,494.598,62.9767,0,0.000885,0,0
0:4:24.380,495.536,63.0939,0,0.000885,0,0
0:4:24.793,496.301,63.1905,0,0.000885,0,0
0:4:25.195,496.653,63.2387,0,0.000885,0,0
0:4:25.599,497.649,63.3628,0,0.000885,0,0
0:4:25.999,498.588,63.48,0,0.000885,0,0
0:4:26.399,499.117,63.549,0,0.000885,0,0
0:4:26.793,500.171,63.6869,0,0.000885,0,0
0:4:27.190,500.932,63.7834,0,0.000885,0,0
0:4:27.587,501.577,63.8661,0,0.000885,0,0
0:4:27.992,502.342,63.9627,0,0.000885,0,0
0:4:28.393,503.103,64.0592,0,0.000885,0,0
0:4:28.799,503.574,64.1143,0,0.000885,0,0
0:4:29.196,504.571,64.2453,0,0.000885,0,0
0:4:29.591,505.389,64.3488,0,0.000885,0,0
0:4:29.995,506.212,64.4522,0,0.000885,0,0
0:4:30.398,506.857,64.5349,0,0.000885,0,0
0:4:30.801,508.267,64.7142,0,0.000885,0,0
0:4:31.201,509.028,64.8107,0,0.000885,0,0
0:4:31.601,509.495,64.8728,0,0.000885,0,0
0:4:31.994,510.433,64.99,0,0.000885,0,0
0:4:32.400,511.199,65.0865,0,0.000885,0,0
0:4:32.797,511.55,65.1348,0,0.000885,0,0
0:4:33.193,512.956,65.314,0,0.000885,0,0
0:4:33.583,513.485,65.3761,0,0.000885,0,0
0:4:33.988,514.481,65.5071,0,0.000885,0,0
0:4:34.395,514.891,65.5554,0,0.000885,0,0
0:4:34.792,516.185,65.7208,0,0.000885,0,0
0:4:35.184,516.416,65.7553,0,0.000885,0,0
0:4:35.586,516.946,65.8174,0,0.000885,0,0
0:4:35.987,517.475,65.8863,0,0.000885,0,0
0:4:36.387,518.938,66.0725,0,0.000885,0,0
0:4:36.788,519.704,66.169,0,0.000885,0,0
0:4:37.183,520.464,66.2655,0,0.000885,0,0
0:4:37.597,521.051,66.3414,0,0.000885,0,0
0:4:37.996,522.283,66.4999,0,0.000885,0,0
0:4:38.392,522.751,66.562,0,0.000885,0,0
0:4:38.794,523.458,66.6516,0,0.000885,0,0
0:4:39.185,524.686,66.8033,0,0.000885,0,0
0:4:39.582,525.508,66.9067,0,0.000885,0,0
0:4:39.981,526.038,66.9757,0,0.000885,0,0
0:4:40.384,527.034,67.1067,0,0.000885,0,0
0:4:40.785,527.328,67.1411,0,0.000885,0,0
0:4:41.184,528.146,67.2446,0,0.000885,0,0
0:4:41.584,529.263,67.3894,0,0.000885,0,0
0:4:41.991,529.672,67.4376,0,0.000885,0,0
0:4:42.397,530.846,67.5893,0,0.000885,0,0
0:4:42.788,531.785,67.7065,0,0.000885,0,0
0:4:43.195,532.194,67.7617,0,0.000885,0,0
0:4:43.593,533.075,67.872,0,0.000885,0,0
0:4:43.997,533.484,67.9271,0,0.000885,0,0
0:4:44.389,534.013,67.9892,0,0.000885,0,0
0:4:44.795,535.188,68.1409,0,0.000885,0,0
0:4:45.194,536.242,68.2788,0,0.000885,0,0
0:4:45.599,537.181,68.396,0,0.000885,0,0
0:4:45.999,537.768,68.4718,0,0.000885,0,0
0:4:46.400,538.706,68.589,0,0.000885,0,0
0:4:46.795,539.289,68.6649,0,0.000885,0,0
0:4:47.193,540.228,68.7821,0,0.000885,0,0
0:4:47.599,540.935,68.8717,0,0.000885,0,0
0:4:48.000,541.402,68.9338,0,0.000885,0,0
0:4:48.394,542.167,69.0303,0,0.000885,0,0
0:4:48.793,543.457,69.1958,0,0.000885,0,0
0:4:49.186,543.808,69.2372,0,0.000885,0,0
0:4:49.579,544.863,69.375,0,0.000885,0,0
0:4:49.983,545.565,69.4647,0,0.000885,0,0
0:4:50.383,545.859,69.4992,0,0.000885,0,0
0:4:50.786,546.976,69.6439,0,0.000885,0,0
0:4:51.186,547.794,69.7474,0,0.000885,0,0
0:4:51.587,549.262,69.9335,0,0.000885,0,0
0:4:51.982,549.791,70.0025,0,0.000885,0,0
0:4:52.387,550.61,70.1059,0,0.000885,0,0
0:4:52.795,551.375,70.2024,0,0.000885,0,0
0:4:53.198,552.313,70.3196,0,0.000885,0,0
0:4:53.588,552.607,70.361,0,0.000885,0,0
0:4:53.998,553.425,70.4644,0,0.000885,0,0
0:4:54.395,554.191,70.5609,0,0.000885,0,0
0:4:54.786,554.658,70.623,0,0.000885,0,0
0:4:55.189,555.712,70.754,0,0.000885,0,0
0:4:55.594,556.477,70.8505,0,0.000885,0,0
0:4:55.997,557.122,70.9333,0,0.000885,0,0
0:4:56.397,558.176,71.0712,0,0.000885,0,0
0:4:56.797,558.941,71.1677,0,0.000885,0,0
0:4:57.199,559.351,71.2159,0,0.000885,0,0
0:4:57.594,560.934,71.4228,0,0.000885,0,0
0:4:57.989,561.637,71.5124,0,0.000885,0,0
0:4:58.395,562.46,71.6158,0,0.000885,0,0
0:4:58.797,563.105,71.6986,0,0.000885,0,0
0:4:59.190,563.692,71.7744,0,0.000885,0,0
0:4:59.587,564.275,71.8434,0,0.000885,0,0
0:4:59.995,565.507,72.002,0,0.000885,0,0
0:5:0.397,566.272,72.0985,0,0.000885,0,0
0:5:0.798,566.917,72.1812,0,0.000885,0,0
0:5:1.197,567.793,72.2915,0,0.000885,0,0
0:5:1.598,568.616,72.4018,0,0.000885,0,0
0:5:2.001,569.203,72.4708,0,0.000885,0,0
0:5:2.395,569.848,72.5535,0,0.000885,0,0
0:5:2.799,570.258,72.6087,0,0.000885,0,0
0:5:3.196,570.96,72.6983,0,0.000885,0,0
0:5:3.594,572.077,72.8362,0,0.000885,0,0
0:5:3.996,573.015,72.9603,0,0.000885,0,0
0:5:4.388,574.07,73.0913,0,0.000885,0,0
0:5:4.785,574.777,73.181,0,0.000885,0,0
0:5:5.183,575.48,73.2706,0,0.000885,0,0
0:5:5.587,576.183,73.3602,0,0.000885,0,0
0:5:5.988,576.885,73.4498,0,0.000885,0,0
0:5:6.387,577.882,73.5808,0,0.000885,0,0
0:5:6.787,578.82,73.6981,0,0.000885,0,0
0:5:7.195,579.643,73.8015,0,0.000885,0,0
0:5:7.599,579.759,73.8153,0,0.000885,0,0
0:5:8.002,580.582,73.9187,0,0.000885,0,0
0:5:8.395,581.756,74.0704,0,0.000885,0,0
0:5:8.794,582.459,74.16,0,0.000885,0,0
0:5:9.188,583.455,74.291,0,0.000885,0,0
0:5:9.583,584.567,74.4289,0,0.000885,0,0
0:5:9.985,585.039,74.491,0,0.000885,0,0
0:5:10.387,585.92,74.6013,0,0.000885,0,0
0:5:10.790,586.974,74.7392,0,0.000885,0,0
0:5:11.192,587.561,74.8081,0,0.000885,0,0
0:5:11.595,587.797,74.8426,0,0.000885,0,0
0:5:11.999,588.322,74.9046,0,0.000885,0,0
0:5:12.392,589.203,75.0219,0,0.000885,0,0
0:5:12.791,590.377,75.1666,0,0.000885,0,0
0:5:13.188,590.728,75.2149,0,0.000885,0,0
0:5:13.583,591.96,75.3735,0,0.000885,0,0
0:5:13.980,592.899,75.4907,0,0.000885,0,0
0:5:14.379,593.428,75.5596,0,0.000885,0,0
0:5:14.786,594.251,75.6631,0,0.000885,0,0
0:5:15.183,594.896,75.7458,0,0.000885,0,0
0:5:15.588,595.599,75.8354,0,0.000885,0,0
0:5:15.991,596.249,75.9182,0,0.000885,0,0
0:5:16.396,597.187,76.0354,0,0.000885,0,0
0:5:16.798,598.299,76.1802,0,0.000885,0,0
0:5:17.196,599.122,76.2836,0,0.000885,0,0
0:5:17.590,600.296,76.4353,0,0.000885,0,0
0:5:17.997,600.768,76.4904,0,0.000885,0,0
0:5:18.398,601.586,76.5939,0,0.000885,0,0
0:5:18.792,602.236,76.6766,0,0.000885,0,0
0:5:19.187,602.645,76.7318,0,0.000885,0,0
0:5:19.604,603.762,76.8696,0,0.000885,0,0
0:5:20.002,604.522,76.9731,0,0.000885,0,0
0:5:20.400,605.167,77.0558,0,0.000885,0,0
0:5:20.804,606.106,77.173,0,0.000885,0,0
0:5:21.206,606.519,77.2213,0,0.000885,0,0
0:5:21.609,607.342,77.3316,0,0.000885,0,0
0:5:22.010,608.397,77.4626,0,0.000885,0,0
0:5:22.408,609.335,77.5798,0,0.000885,0,0
0:5:22.805,610.158,77.6901,0,0.000885,0,0
0:5:23.198,610.745,77.7591,0,0.000885,0,0
0:5:23.599,611.448,77.8556,0,0.000885,0,0
0:5:23.997,612.565,77.9935,0,0.000885,0,0
0:5:24.390,613.445,78.1038,0,0.000885,0,0
0:5:24.788,614.033,78.1797,0,0.000885,0,0
0:5:25.190,614.855,78.2831,0,0.000885,0,0
0:5:25.597,615.265,78.3382,0,0.000885,0,0
0:5:26.000,616.261,78.4623,0,0.000885,0,0
0:5:26.400,616.848,78.5382,0,0.000885,0,0
0:5:26.796,617.849,78.6692,0,0.000885,0,0
0:5:27.193,618.903,78.8002,0,0.000885,0,0
0:5:27.592,619.49,78.876,0,0.000885,0,0
0:5:27.988,620.198,78.9657,0,0.000885,0,0
0:5:28.382,621.136,79.0829,0,0.000885,0,0
0:5:28.780,622.075,79.207,0,0.000885,0,0
0:5:29.179,622.542,79.2621,0,0.000885,0,0
0:5:29.585,623.071,79.3311,0,0.000885,0,0
0:5:29.983,624.13,79.469,0,0.000885,0,0
0:5:30.389,624.833,79.5586,0,0.000885,0,0
0:5:30.791,625.949,79.6965,0,0.000885,0,0
0:5:31.196,626.243,79.7379,0,0.000885,0,0
0:5:31.598,627.181,79.8551,0,0.000885,0,0
0:5:31.991,628.298,79.9999,0,0.000885,0,0
0:5:32.386,628.707,80.0481,0,0.000885,0,0
0:5:32.785,629.472,80.1447,0,0.000885,0,0
0:5:33.184,630.469,80.2757,0,0.000885,0,0
0:5:33.580,631.349,80.386,0,0.000885,0,0
0:5:33.993,632.172,80.4894,0,0.000885,0,0
0:5:34.391,632.466,80.5308,0,0.000885,0,0
0:5:34.790,633.636,80.6756,0,0.000885,0,0
0:5:35.186,634.517,80.7928,0,0.000885,0,0
0:5:35.591,634.93,80.841,0,0.000885,0,0
0:5:35.994,635.927,80.972,0,0.000885,0,0
0:5:36.399,636.692,81.0686,0,0.000885,0,0
0:5:36.801,637.688,81.1927,0,0.000885,0,0
0:5:37.198,638.742,81.3306,0,0.000885,0,0
0:5:37.591,638.805,81.3375,0,0.000885,0,0
0:5:37.987,639.623,81.4409,0,0.000885,0,0
0:5:38.388,640.74,81.5788,0,0.000885,0,0
0:5:38.784,641.211,81.6408,0,0.000885,0,0
0:5:39.179,641.798,81.7167,0,0.000885,0,0
0:5:39.586,643.088,81.8821,0,0.000885,0,0
0:5:39.994,644.205,82.02,0,0.000885,0,0
0:5:40.404,644.441,82.0545,0,0.000885,0,0
0:5:40.810,645.379,82.1717,0,0.000885,0,0
0:5:41.213,646.198,82.2751,0,0.000885,0,0
0:5:41.614,646.669,82.3372,0,0.000885,0,0
0:5:42.014,647.314,82.4199,0,0.000885,0,0
0:5:42.413,648.546,82.5785,0,0.000885,0,0
0:5:42.809,649.721,82.7233,0,0.000885,0,0
0:5:43.205,650.25,82.7922,0,0.000885,0,0
0:5:43.602,650.953,82.8819,0,0.000885,0,0
0:5:44.001,651.598,82.9646,0,0.000885,0,0
0:5:44.395,652.478,83.0749,0,0.000885,0,0
0:5:44.791,653.244,83.1715,0,0.000885,0,0
0:5:45.195,653.773,83.2404,0,0.000885,0,0
0:5:45.602,654.591,83.3438,0,0.000885,0,0
0:5:46.004,655.708,83.4886,0,0.000885,0,0
0:5:46.408,656.415,83.5782,0,0.000885,0,0
0:5:46.802,657.354,83.6955,0,0.000885,0,0
0:5:47.203,658.057,83.7851,0,0.000885,0,0
0:5:47.602,659.115,83.923,0,0.000885,0,0
0:5:47.995,659.582,83.9781,0,0.000885,0,0
0:5:48.401,660.347,84.0747,0,0.000885,0,0
0:5:48.796,661.108,84.1781,0,0.000885,0,0
0:5:49.195,661.931,84.2815,0,0.000885,0,0
0:5:49.592,662.634,84.3711,0,0.000885,0,0
0:5:49.986,663.163,84.4332,0,0.000885,0,0
0:5:50.391,664.102,84.5573,0,0.000885,0,0
0:5:50.794,664.867,84.6538,0,0.000885,0,0
0:5:51.200,665.512,84.7366,0,0.000885,0,0
0:5:51.601,666.215,84.8262,0,0.000885,0,0
0:5:51.994,667.625,85.0055,0,0.000885,0,0
0:5:52.392,667.976,85.0468,0,0.000885,0,0
0:5:52.791,668.741,85.1434,0,0.000885,0,0
0:5:53.188,669.502,85.2468,0,0.000885,0,0
0:5:53.585,670.147,85.3226,0,0.000885,0,0
0:5:53.980,671.206,85.4605,0,0.000885,0,0
0:5:54.380,672.495,85.626,0,0.000885,0,0
0:5:54.788,673.261,85.7225,0,0.000885,0,0
0:5:55.204,673.728,85.7846,0,0.000885,0,0
0:5:55.608,674.551,85.888,0,0.000885,0,0
0:5:56.013,675.138,85.9638,0,0.000885,0,0
0:5:56.415,675.961,86.0673,0,0.000885,0,0
0:5:56.818,676.663,86.1569,0,0.000885,0,0
0:5:57.215,677.371,86.2465,0,0.000885,0,0
0:5:57.610,678.247,86.3568,0,0.000885,0,0
0:5:58.009,679.306,86.4947,0,0.000885,0,0
0:5:58.408,679.893,86.5637,0,0.000885,0,0
0:5:58.805,680.889,86.6947,0,0.000885,0,0
0:5:59.196,681.419,86.7636,0,0.000885,0,0
0:5:59.606,682.242,86.867,0,0.000885,0,0
0:6:0.004,683.122,86.9774,0,0.000885,0,0
0:6:0.402,683.767,87.0601,0,0.000885,0,0
0:6:0.807,684.706,87.1773,0,0.000885,0,0
0:6:1.211,685.529,87.2807,0,0.000885,0,0
0:6:1.613,686.352,87.391,0,0.000885,0,0
0:6:2.016,687.228,87.5014,0,0.000885,0,0
0:6:2.412,687.815,87.5772,0,0.000885,0,0
0:6:2.808,688.696,87.6875,0,0.000885,0,0
0:6:3.204,689.577,87.7978,0,0.000885,0,0
0:6:3.602,689.928,87.8461,0,0.000885,0,0
0:6:3.996,690.751,87.9495,0,0.000885,0,0
0:6:4.392,691.574,88.0529,0,0.000885,0,0
0:6:4.786,692.397,88.1564,0,0.000885,0,0
0:6:5.190,692.864,88.2184,0,0.000885,0,0
0:6:5.595,694.096,88.377,0,0.000885,0,0
0:6:5.997,694.803,88.4666,0,0.000885,0,0
0:6:6.401,695.8,88.5907,0,0.000885,0,0
0:6:6.796,696.68,88.7011,0,0.000885,0,0
0:6:7.195,697.09,88.7562,0,0.000885,0,0
0:6:7.594,697.797,88.8458,0,0.000885,0,0
0:6:7.989,698.851,88.9837,0,0.000885,0,0
0:6:8.384,699.029,89.0044,0,0.000885,0,0
0:6:8.790,699.852,89.1078,0,0.000885,0,0
0:6:9.202,701.142,89.2733,0,0.000885,0,0
0:6:9.596,701.671,89.3423,0,0.000885,0,0
0:6:9.993,702.61,89.4595,0,0.000885,0,0
0:6:10.396,703.371,89.556,0,0.000885,0,0
0:6:10.804,704.429,89.6939,0,0.000885,0,0
0:6:11.207,705.252,89.7973,0,0.000885,0,0
0:6:11.609,705.897,89.8801,0,0.000885,0,0
0:6:12.005,707.129,90.0317,0,0.000885,0,0
0:6:12.403,707.774,90.1145,0,0.000885,0,0
0:6:12.801,708.184,90.1696,0,0.000885,0,0
0:6:13.207,708.771,90.2455,0,0.000885,0,0
0:6:13.605,709.3,90.3144,0,0.000885,0,0
0:6:13.997,710.181,90.4247,0,0.000885,0,0
0:6:14.397,711.471,90.5902,0,0.000885,0,0
0:6:14.796,712,90.6523,0,0.000885,0,0
0:6:15.202,713.059,90.7902,0,0.000885,0,0
0:6:15.606,713.997,90.9074,0,0.000885,0,0
0:6:16.010,714.349,90.9556,0,0.000885,0,0
0:6:16.412,715.114,91.0522,0,0.000885,0,0
0:6:16.815,715.995,91.1625,0,0.000885,0,0
0:6:17.212,716.991,91.2935,0,0.000885,0,0
0:6:17.608,717.814,91.3969,0,0.000885,0,0
0:6:18.005,718.632,91.5003,0,0.000885,0,0
0:6:18.403,719.162,91.5693,0,0.000885,0,0
0:6:18.799,719.807,91.652,0,0.000885,0,0
0:6:19.195,720.923,91.7899,0,0.000885,0,0
0:6:19.590,721.568,91.8726,0,0.000885,0,0
0:6:19.998,721.982,91.9278,0,0.000885,0,0
0:6:20.398,723.036,92.0588,0,0.000885,0,0
0:6:20.806,723.859,92.1622,0,0.000885,0,0
0:6:21.209,724.913,92.3001,0,0.000885,0,0
0:6:21.609,725.914,92.4242,0,0.000885,0,0
0:6:22.008,726.501,92.5001,0,0.000885,0,0
0:6:22.407,726.911,92.5552,0,0.000885,0,0
0:6:22.805,727.849,92.6724,0,0.000885,0,0
0:6:23.198,728.614,92.769,0,0.000885,0,0
0:6:23.593,729.846,92.9275,0,0.000885,0,0
0:6:23.993,730.198,92.9689,0,0.000885,0,0
0:6:24.403,731.079,93.0861,0,0.000885,0,0
0:6:24.808,731.666,93.162,0,0.000885,0,0
0:6:25.203,731.959,93.1964,0,0.000885,0,0
0:6:25.607,733.134,93.3481,0,0.000885,0,0
0:6:26.013,733.663,93.4102,0,0.000885,0,0
0:6:26.415,734.775,93.555,0,0.000885,0,0
0:6:26.818,735.892,93.6998,0,0.000885,0,0
0:6:27.214,736.479,93.7687,0,0.000885,0,0
0:6:27.613,737.711,93.9273,0,0.000885,0,0
0:6:28.011,738.004,93.9686,0,0.000885,0,0
0:6:28.408,738.885,94.079,0,0.000885,0,0
0:6:28.804,739.415,94.1479,0,0.000885,0,0
0:6:29.197,739.65,94.1755,0,0.000885,0,0
0:6:29.596,740.94,94.341,0,0.000885,0,0
0:6:29.995,742.115,94.4858,0,0.000885,0,0
0:6:30.400,742.817,94.5754,0,0.000885,0,0
0:6:30.806,743.289,94.6374,0,0.000885,0,0
0:6:31.208,744.579,94.8029,0,0.000885,0,0
0:6:31.608,745.46,94.9132,0,0.000885,0,0
0:6:32.007,746.456,95.0442,0,0.000885,0,0
0:6:32.410,746.692,95.0718,0,0.000885,0,0
0:6:32.806,747.337,95.1545,0,0.000885,0,0
0:6:33.201,748.16,95.258,0,0.000885,0,0
0:6:33.601,749.04,95.3683,0,0.000885,0,0
0:6:34.010,749.628,95.4441,0,0.000885,0,0
0:6:34.406,750.744,95.5889,0,0.000885,0,0
0:6:34.799,752.212,95.7751,0,0.000885,0,0
0:6:35.204,752.563,95.8164,0,0.000885,0,0
0:6:35.610,752.679,95.8371,0,0.000885,0,0
0:6:36.011,753.911,95.9888,0,0.000885,0,0
0:6:36.414,754.912,96.1198,0,0.000885,0,0
0:6:36.810,755.437,96.1888,0,0.000885,0,0
0:6:37.210,756.024,96.2577,0,0.000885,0,0
0:6:37.609,756.905,96.3749,0,0.000885,0,0
0:6:38.004,757.612,96.4645,0,0.000885,0,0
0:6:38.408,758.373,96.5611,0,0.000885,0,0
0:6:38.807,759.196,96.6645,0,0.000885,0,0
0:6:39.207,760.019,96.7679,0,0.000885,0,0
0:6:39.601,760.722,96.8576,0,0.000885,0,0
0:6:39.996,761.367,96.9403,0,0.000885,0,0
0:6:40.400,762.834,97.1264,0,0.000885,0,0
0:6:40.806,763.364,97.1954,0,0.000885,0,0
0:6:41.208,763.951,97.2712,0,0.000885,0,0
0:6:41.609,765.005,97.4022,0,0.000885,0,0
0:6:42.004,765.419,97.4574,0,0.000885,0,0
0:6:42.401,766.064,97.5401,0,0.000885,0,0
0:6:42.800,767.412,97.7125,0,0.000885,0,0
0:6:43.196,767.532,97.7263,0,0.000885,0,0
0:6:43.590,768.88,97.8987,0,0.000885,0,0
0:6:44.007,769.231,97.94,0,0.000885,0,0
0:6:44.406,770.29,98.0779,0,0.000885,0,0
0:6:44.814,771.344,98.2089,0,0.000885,0,0
0:6:45.211,771.464,98.2227,0,0.000885,0,0
0:6:45.617,772.932,98.4158,0,0.000885,0,0
0:6:46.018,773.105,98.4364,0,0.000885,0,0
0:6:46.422,774.693,98.6364,0,0.000885,0,0
0:6:46.825,774.867,98.6571,0,0.000885,0,0
0:6:47.220,776.161,98.8226,0,0.000885,0,0
0:6:47.615,776.748,98.8984,0,0.000885,0,0
0:6:48.014,777.509,98.9949,0,0.000885,0,0
0:6:48.412,778.038,99.0639,0,0.000885,0,0
0:6:48.807,778.861,99.1673,0,0.000885,0,0
0:6:49.201,779.328,99.2293,0,0.000885,0,0
0:6:49.600,780.094,99.3259,0,0.000885,0,0
0:6:49.999,781.268,99.4707,0,0.000885,0,0
0:6:50.408,782.028,99.5741,0,0.000885,0,0
0:6:50.812,783.203,99.7189,0,0.000885,0,0
0:6:51.213,783.439,99.7533,0,0.000885,0,0
0:6:51.615,784.262,99.8568,0,0.000885,0,0
0:6:52.012,784.964,99.9464,0,0.000885,0,0
0:6:52.407,786.081,100.084,0,0.000885,0,0
0:6:52.800,786.784,100.174,0,0.000885,0,0
0:6:53.199,787.607,100.284,0,0.000885,0,0
0:6:53.597,787.722,100.298,0,0.000885,0,0
0:6:53.994,789.248,100.491,0,0.000885,0,0
0:6:54.388,789.835,100.567,0,0.000885,0,0
0:6:54.787,790.894,100.698,0,0.000885,0,0
0:6:55.186,791.597,100.788,0,0.000885,0,0
0:6:55.593,791.948,100.836,0,0.000885,0,0
0:6:55.996,792.42,100.891,0,0.000885,0,0
0:6:56.398,793.71,101.056,0,0.000885,0,0
0:6:56.796,794.768,101.194,0,0.000885,0,0
0:6:57.197,795.471,101.284,0,0.000885,0,0
0:6:57.593,795.88,101.332,0,0.000885,0,0
0:6:57.988,797.29,101.512,0,0.000885,0,0
0:6:58.395,798.055,101.608,0,0.000885,0,0
0:6:58.793,798.407,101.656,0,0.000885,0,0
0:6:59.191,799.461,101.794,0,0.000885,0,0
0:6:59.587,799.99,101.856,0,0.000885,0,0
0:6:59.983,800.462,101.918,0,0.000885,0,0
0:7:0.386,801.694,102.077,0,0.000885,0,0
0:7:0.792,802.748,102.208,0,0.000885,0,0
0:7:1.195,803.22,102.27,0,0.000885,0,0
0:7:1.595,803.923,102.36,0,0.000885,0,0
0:7:1.992,804.803,102.47,0,0.000885,0,0
0:7:2.393,805.978,102.622,0,0.000885,0,0
0:7:2.790,806.858,102.732,0,0.000885,0,0
0:7:3.194,807.33,102.794,0,0.000885,0,0
0:7:3.591,808.033,102.884,0,0.000885,0,0
0:7:3.999,808.562,102.953,0,0.000885,0,0
0:7:4.397,809.559,103.077,0,0.000885,0,0
0:7:4.792,809.972,103.132,0,0.000885,0,0
0:7:5.195,810.849,103.242,0,0.000885,0,0
0:7:5.599,811.792,103.359,0,0.000885,0,0
0:7:6.004,812.494,103.449,0,0.000885,0,0
0:7:6.410,813.139,103.532,0,0.000885,0,0
0:7:6.810,814.198,103.67,0,0.000885,0,0
0:7:7.203,815.194,103.794,0,0.000885,0,0
0:7:7.604,816.133,103.911,0,0.000885,0,0
0:7:8.003,816.72,103.987,0,0.000885,0,0
0:7:8.398,817.072,104.035,0,0.000885,0,0
0:7:8.795,817.717,104.118,0,0.000885,0,0
0:7:9.192,818.66,104.235,0,0.000885,0,0
0:7:9.592,819.772,104.38,0,0.000885,0,0
0:7:9.989,820.537,104.476,0,0.000885,0,0
0:7:10.396,821.297,104.573,0,0.000885,0,0
0:7:10.798,822.062,104.669,0,0.000885,0,0
0:7:11.201,823.237,104.821,0,0.000885,0,0
0:7:11.603,823.94,104.911,0,0.000885,0,0
0:7:11.999,824.647,105,0,0.000885,0,0
0:7:12.415,825.879,105.152,0,0.000885,0,0
0:7:12.813,825.879,105.152,0,0.000885,0,0
0:7:13.211,826.053,105.18,0,0.000885,0,0
0:7:13.608,827.52,105.366,0,0.000885,0,0
0:7:14.003,828.753,105.517,0,0.000885,0,0
0:7:14.409,829.691,105.641,0,0.000885,0,0
0:7:14.807,829.927,105.669,0,0.000885,0,0
0:7:15.204,830.221,105.71,0,0.000885,0,0
0:7:15.612,831.221,105.835,0,0.000885,0,0
0:7:16.017,832.04,105.938,0,0.000885,0,0
0:7:16.418,833.334,106.103,0,0.000885,0,0
0:7:16.819,833.45,106.117,0,0.000885,0,0
0:7:17.216,834.624,106.269,0,0.000885,0,0
0:7:17.613,835.269,106.352,0,0.000885,0,0
0:7:18.007,836.386,106.49,0,0.000885,0,0
0:7:18.408,837.56,106.641,0,0.000885,0,0
0:7:18.804,838.027,106.703,0,0.000885,0,0
0:7:19.211,838.441,106.752,0,0.000885,0,0
0:7:19.604,839.144,106.841,0,0.000885,0,0
0:7:20.000,840.26,106.986,0,0.000885,0,0
0:7:20.401,841.199,107.103,0,0.000885,0,0
0:7:20.810,841.902,107.193,0,0.000885,0,0
0:7:21.211,842.489,107.269,0,0.000885,0,0
0:7:21.613,843.547,107.407,0,0.000885,0,0
0:7:22.014,843.957,107.455,0,0.000885,0,0
0:7:22.413,844.837,107.565,0,0.000885,0,0
0:7:22.808,845.718,107.682,0,0.000885,0,0
0:7:23.213,846.835,107.82,0,0.000885,0,0
0:7:23.611,847.36,107.889,0,0.000885,0,0
0:7:24.010,848.418,108.027,0,0.000885,0,0
0:7:24.404,848.654,108.055,0,0.000885,0,0
0:7:24.812,849.65,108.179,0,0.000885,0,0
0:7:25.216,850.353,108.268,0,0.000885,0,0
0:7:25.622,851.118,108.365,0,0.000885,0,0
0:7:26.024,851.648,108.434,0,0.000885,0,0
0:7:26.427,852.466,108.537,0,0.000885,0,0
0:7:26.823,853.289,108.648,0,0.000885,0,0
0:7:27.221,854.228,108.765,0,0.000885,0,0
0:7:27.619,854.583,108.806,0,0.000885,0,0
0:7:28.018,855.873,108.972,0,0.000885,0,0
0:7:28.413,857.106,109.13,0,0.000885,0,0
0:7:28.809,857.808,109.22,0,0.000885,0,0
0:7:29.218,858.516,109.309,0,0.000885,0,0
0:7:29.616,858.925,109.365,0,0.000885,0,0
0:7:30.013,859.628,109.454,0,0.000885,0,0
0:7:30.418,860.393,109.551,0,0.000885,0,0
0:7:30.822,861.274,109.661,0,0.000885,0,0
0:7:31.224,862.328,109.792,0,0.000885,0,0
0:7:31.628,862.977,109.875,0,0.000885,0,0
0:7:32.022,863.858,109.992,0,0.000885,0,0
0:7:32.419,864.383,110.054,0,0.000885,0,0
0:7:32.817,865.677,110.22,0,0.000885,0,0
0:7:33.215,866.496,110.323,0,0.000885,0,0
0:7:33.610,866.558,110.33,0,0.000885,0,0
0:7:34.002,867.261,110.426,0,0.000885,0,0
0:7:34.402,868.435,110.571,0,0.000885,0,0
0:7:34.801,869.552,110.716,0,0.000885,0,0
0:7:35.205,869.961,110.764,0,0.000885,0,0
0:7:35.612,870.428,110.826,0,0.000885,0,0
0:7:36.017,871.487,110.964,0,0.000885,0,0
0:7:36.419,872.252,111.061,0,0.000885,0,0
0:7:36.822,873.248,111.185,0,0.000885,0,0
0:7:37.218,873.6,111.233,0,0.000885,0,0
0:7:37.614,874.716,111.371,0,0.000885,0,0
0:7:38.012,875.77,111.509,0,0.000885,0,0
0:7:38.412,876.3,111.571,0,0.000885,0,0
0:7:38.807,877.652,111.743,0,0.000885,0,0
0:7:39.212,878.706,111.881,0,0.000885,0,0
0:7:39.607,878.826,111.895,0,0.000885,0,0
0:7:40.005,879.645,111.998,0,0.000885,0,0
0:7:40.403,880.116,112.06,0,0.000885,0,0
0:7:40.811,881.348,112.219,0,0.000885,0,0
0:7:41.215,881.993,112.302,0,0.000885,0,0
0:7:41.618,883.168,112.447,0,0.000885,0,0
0:7:42.019,883.519,112.495,0,0.000885,0,0
0:7:42.416,884.106,112.571,0,0.000885,0,0
0:7:42.813,885.281,112.715,0,0.000885,0,0
0:7:43.217,885.983,112.805,0,0.000885,0,0
0:7:43.616,886.633,112.888,0,0.000885,0,0
0:7:44.016,887.1,112.95,0,0.000885,0,0
0:7:44.411,887.629,113.019,0,0.000885,0,0
0:7:44.818,889.039,113.198,0,0.000885,0,0
0:7:45.222,889.8,113.295,0,0.000885,0,0
0:7:45.627,890.094,113.329,0,0.000885,0,0
0:7:46.029,891.326,113.488,0,0.000885,0,0
0:7:46.432,888.216,113.088,0,0.000885,0,0
0:7:46.826,888.274,113.102,0,0.000885,0,0
0:7:47.222,890.036,113.322,0,0.000885,0,0
0:7:47.621,892.327,113.612,0,0.000885,0,0
0:7:48.018,894.613,113.908,0,0.000885,0,0
0:7:48.414,896.081,114.094,0,0.000885,0,0
0:7:48.819,897.9,114.322,0,0.000885,0,0
0:7:49.218,898.781,114.439,0,0.000885,0,0
0:7:49.616,899.72,114.556,0,0.000885,0,0
0:7:50.012,900.6,114.667,0,0.000885,0,0
0:7:50.415,900.952,114.715,0,0.000885,0,0
0:7:50.819,901.717,114.811,0,0.000885,0,0
0:7:51.221,902.598,114.922,0,0.000885,0,0
0:7:51.624,903.3,115.011,0,0.000885,0,0
0:7:52.019,903.478,115.032,0,0.000885,0,0
0:7:52.414,902.833,114.949,0,0.000885,0,0
0:7:52.813,902.482,114.908,0,0.000885,0,0
0:7:53.218,902.655,114.929,0,0.000885,0,0
0:7:53.614,904.008,115.101,0,0.000885,0,0
0:7:54.006,905.591,115.301,0,0.000885,0,0
0:7:54.407,907.295,115.522,0,0.000885,0,0
0:7:54.806,906.588,115.432,0,0.000885,0,0
0:7:55.200,900.894,114.708,0,0.000885,0,0
0:7:55.604,897.958,114.329,0,0.000885,0,0
0:7:56.008,900.658,114.674,0,0.000885,0,0
0:7:56.408,904.359,115.149,0,0.000885,0,0
0:7:56.813,908.349,115.653,0,0.000885,0,0
0:7:57.219,911.169,116.011,0,0.000885,0,0
0:7:57.616,913.869,116.356,0,0.000885,0,0
0:7:58.013,916.391,116.68,0,0.000885,0,0
0:7:58.410,917.681,116.845,0,0.000885,0,0
0:7:58.807,688.696,87.6875,0,0.000885,0,0
0:7:59.200,681.476,86.7705,0,0.000885,0,0
0:7:59.595,680.244,86.6119,0,0.000885,0,0
0:7:59.994,681.009,86.7085,0,0.000885,0,0
0:8:0.391,682.593,86.9084,0,0.000885,0,0
0:8:0.796,683.883,87.0739,0,0.000885,0,0
0:8:1.199,685.409,87.2669,0,0.000885,0,0
0:8:1.600,686.116,87.3566,0,0.000885,0,0
0:8:2.002,687.348,87.5152,0,0.000885,0,0
0:8:2.398,688.522,87.6668,0,0.000885,0,0
0:8:2.790,689.345,87.7703,0,0.000885,0,0
0:8:3.187,689.87,87.8392,0,0.000885,0,0
0:8:3.584,690.457,87.9151,0,0.000885,0,0
0:8:3.982,691.102,87.9909,0,0.000885,0,0
0:8:4.377,664.573,84.6194,0,0.000885,0,0
0:8:4.769,651.718,82.9784,0,0.000885,0,0
0:8:5.173,646.963,82.3717,0,0.000885,0,0
0:8:5.387,645.788,82.2269,0,0.000885,0,0