File: DataFile2021-06-09_055828.csv
Test ID:,Date Tested:,Time:,Test Type:,Diameter Avg. (mm):,Cyl. Corr. Factor:,Height (mm):,Age (days):,Weight (kN):,Break Type:,Ramp Rate (MPa/s):,Load at Break (kN):,Stress at Break (MPa):
12,6/9/2021,05:58,Cylinder,100,1,200,0,3.6,3,0.24,337.42,42.96
Sample Time,Load (kN),Stress (MPa),Long. Strain,Trans. Strain,Chan1 Deflection (mm),Chan2 Deflection (mm)
0:0:19.290,5.04428,0.641212,0,0.000885,0,0
0:0:19.488,9.96846,1.26864,0,0.000885,0,0
0:0:19.685,11.1428,1.42032,0,0.000885,0,0
0:0:19.886,11.552,1.46858,0,0.000885,0,0
0:0:20.078,11.1428,1.42032,0,0.000885,0,0
0:0:20.279,10.7914,1.37206,0,0.000885,0,0
0:0:20.489,10.4978,1.33758,0,0.000885,0,0
0:0:20.687,10.3243,1.3169,0,0.000885,0,0
0:0:20.886,10.6757,1.35827,0,0.000885,0,0
0:0:21.090,10.262,1.31,0,0.000885,0,0
0:0:21.292,10.0886,1.28242,0,0.000885,0,0
0:0:21.489,9.91064,1.26174,0,0.000885,0,0
0:0:21.687,10.44,1.33069,0,0.000885,0,0
0:0:21.888,10.1464,1.28932,0,0.000885,0,0
0:0:22.091,10.7336,1.36516,0,0.000885,0,0
0:0:22.292,11.0271,1.40653,0,0.000885,0,0
0:0:22.491,10.4978,1.33758,0,0.000885,0,0
0:0:22.686,10.4978,1.33758,0,0.000885,0,0
0:0:22.887,11.2629,1.43411,0,0.000885,0,0
0:0:23.093,11.1428,1.42032,0,0.000885,0,0
0:0:23.292,11.8456,1.50995,0,0.000885,0,0
0:0:23.493,11.9657,1.52374,0,0.000885,0,0
0:0:23.689,13.1356,1.67543,0,0.000885,0,0
0:0:23.890,13.4915,1.71679,0,0.000885,0,0
0:0:24.087,14.3099,1.82022,0,0.000885,0,0
0:0:24.295,14.5457,1.85469,0,0.000885,0,0
0:0:24.497,14.8393,1.88916,0,0.000885,0,0
0:0:24.699,15.075,1.91674,0,0.000885,0,0
0:0:24.902,16.0714,2.04774,0,0.000885,0,0
0:0:25.105,16.365,2.08222,0,0.000885,0,0
0:0:25.306,17.01,2.16495,0,0.000885,0,0
0:0:25.508,17.1257,2.17874,0,0.000885,0,0
0:0:25.709,17.3036,2.20632,0,0.000885,0,0
0:0:25.910,17.655,2.24769,0,0.000885,0,0
0:0:26.111,18.1221,2.30974,0,0.000885,0,0
0:0:26.309,18.3578,2.33732,0,0.000885,0,0
0:0:26.509,19.0028,2.42006,0,0.000885,0,0
0:0:26.706,19.5321,2.48901,0,0.000885,0,0
0:0:26.905,19.6478,2.5028,0,0.000885,0,0
0:0:27.105,20.4707,2.60622,0,0.000885,0,0
0:0:27.301,20.4084,2.59932,0,0.000885,0,0
0:0:27.502,21.7029,2.7648,0,0.000885,0,0
0:0:27.699,21.7029,2.7648,0,0.000885,0,0
0:0:27.900,22.3479,2.84753,0,0.000885,0,0
0:0:28.099,22.2856,2.84064,0,0.000885,0,0
0:0:28.295,23.0507,2.93717,0,0.000885,0,0
0:0:28.496,23.6957,3.0199,0,0.000885,0,0
0:0:28.694,24.1049,3.06817,0,0.000885,0,0
0:0:28.893,24.2206,3.08196,0,0.000885,0,0
0:0:29.095,24.8077,3.1578,0,0.000885,0,0
0:0:29.290,25.1591,3.20606,0,0.000885,0,0
0:0:29.491,25.2214,3.21296,0,0.000885,0,0
0:0:29.693,25.8664,3.29569,0,0.000885,0,0
0:0:29.897,26.0399,3.31638,0,0.000885,0,0
0:0:30.099,26.6271,3.39222,0,0.000885,0,0
0:0:30.301,27.0363,3.44048,0,0.000885,0,0
0:0:30.504,27.5078,3.50254,0,0.000885,0,0
0:0:30.704,27.8014,3.53701,0,0.000885,0,0
0:0:30.906,28.095,3.57838,0,0.000885,0,0
0:0:31.108,28.4464,3.61975,0,0.000885,0,0
0:0:31.306,28.8556,3.67491,0,0.000885,0,0
0:0:31.505,28.9713,3.6887,0,0.000885,0,0
0:0:31.706,30.0299,3.82659,0,0.000885,0,0
0:0:31.901,29.6207,3.77143,0,0.000885,0,0
0:0:32.102,30.0878,3.83349,0,0.000885,0,0
0:0:32.301,30.2657,3.85417,0,0.000885,0,0
0:0:32.498,31.0263,3.9507,0,0.000885,0,0
0:0:32.700,31.142,3.96449,0,0.000885,0,0
0:0:32.896,31.6135,4.02654,0,0.000885,0,0
0:0:33.096,31.9649,4.06791,0,0.000885,0,0
0:0:33.297,32.4943,4.13685,0,0.000885,0,0
0:0:33.492,32.6677,4.15754,0,0.000885,0,0
0:0:33.694,32.9035,4.19201,0,0.000885,0,0
0:0:33.892,33.7842,4.30233,0,0.000885,0,0
0:0:34.090,34.0156,4.32991,0,0.000885,0,0
0:0:34.292,34.8385,4.43333,0,0.000885,0,0
0:0:34.487,35.3678,4.50228,0,0.000885,0,0
0:0:34.690,35.6614,4.54365,0,0.000885,0,0
0:0:34.892,35.8927,4.57122,0,0.000885,0,0
0:0:35.095,36.4799,4.64707,0,0.000885,0,0
0:0:35.297,36.4799,4.64707,0,0.000885,0,0
0:0:35.499,37.0092,4.70912,0,0.000885,0,0
0:0:35.700,37.3606,4.75738,0,0.000885,0,0
0:0:35.901,37.6542,4.79186,0,0.000885,0,0
0:0:36.101,37.7698,4.81254,0,0.000885,0,0
0:0:36.304,38.2414,4.8677,0,0.000885,0,0
0:0:36.500,38.6506,4.92286,0,0.000885,0,0
0:0:36.700,39.0598,4.97112,0,0.000885,0,0
0:0:36.899,39.5313,5.03317,0,0.000885,0,0
0:0:37.095,40.0562,5.10212,0,0.000885,0,0
0:0:37.298,40.4121,5.14349,0,0.000885,0,0
0:0:37.496,41.2884,5.25381,0,0.000885,0,0
0:0:37.694,41.2884,5.25381,0,0.000885,0,0
0:0:37.895,41.8756,5.32965,0,0.000885,0,0
0:0:38.090,41.9334,5.33654,0,0.000885,0,0
0:0:38.293,42.4049,5.39859,0,0.000885,0,0
0:0:38.491,42.8141,5.45375,0,0.000885,0,0
0:0:38.689,43.3435,5.51581,0,0.000885,0,0
0:0:38.890,43.517,5.54338,0,0.000885,0,0
0:0:39.095,44.1619,5.62612,0,0.000885,0,0
0:0:39.295,44.8069,5.70196,0,0.000885,0,0
0:0:39.495,44.8069,5.70196,0,0.000885,0,0
0:0:39.692,44.8692,5.71575,0,0.000885,0,0
0:0:39.894,45.1628,5.75023,0,0.000885,0,0
0:0:40.097,46.1014,5.86744,0,0.000885,0,0
0:0:40.300,46.4528,5.9157,0,0.000885,0,0
0:0:40.503,46.9777,5.98465,0,0.000885,0,0
0:0:40.704,46.7464,5.95018,0,0.000885,0,0
0:0:40.906,46.6263,5.93639,0,0.000885,0,0
0:0:41.107,47.4492,6.03981,0,0.000885,0,0
0:0:41.309,48.152,6.12944,0,0.000885,0,0
0:0:41.509,49.0327,6.23976,0,0.000885,0,0
0:0:41.707,49.7934,6.34318,0,0.000885,0,0
0:0:41.908,50.0291,6.37076,0,0.000885,0,0
0:0:42.105,50.1448,6.38455,0,0.000885,0,0
0:0:42.302,50.4384,6.41902,0,0.000885,0,0
0:0:42.504,50.9677,6.48797,0,0.000885,0,0
0:0:42.699,50.732,6.46039,0,0.000885,0,0
0:0:42.901,51.7284,6.58449,0,0.000885,0,0
0:0:43.100,51.9641,6.61897,0,0.000885,0,0
0:0:43.296,52.3155,6.66034,0,0.000885,0,0
0:0:43.498,52.7248,6.71549,0,0.000885,0,0
0:0:43.694,52.8449,6.72928,0,0.000885,0,0
0:0:43.895,53.4899,6.81202,0,0.000885,0,0
0:0:44.095,53.7834,6.84649,0,0.000885,0,0
0:0:44.291,54.0192,6.88097,0,0.000885,0,0
0:0:44.493,54.1927,6.90165,0,0.000885,0,0
0:0:44.694,54.722,6.9706,0,0.000885,0,0
0:0:44.897,55.0734,7.01197,0,0.000885,0,0
0:0:45.100,56.1277,7.14986,0,0.000885,0,0
0:0:45.302,56.3056,7.17055,0,0.000885,0,0
0:0:45.503,56.3634,7.17744,0,0.000885,0,0
0:0:45.705,56.5369,7.19813,0,0.000885,0,0
0:0:45.907,57.5377,7.32913,0,0.000885,0,0
0:0:46.108,57.947,7.37739,0,0.000885,0,0
0:0:46.305,58.3562,7.43255,0,0.000885,0,0
0:0:46.506,58.7076,7.47392,0,0.000885,0,0
0:0:46.703,58.9434,7.50839,0,0.000885,0,0
0:0:46.902,59.0012,7.51529,0,0.000885,0,0
0:0:47.104,59.7663,7.61181,0,0.000885,0,0
0:0:47.301,60.2912,7.67386,0,0.000885,0,0
0:0:47.502,60.8784,7.74971,0,0.000885,0,0
0:0:47.701,61.1141,7.78418,0,0.000885,0,0
0:0:47.896,61.2298,7.79797,0,0.000885,0,0
0:0:48.099,61.7591,7.86002,0,0.000885,0,0
0:0:48.297,62.0527,7.90139,0,0.000885,0,0
0:0:48.495,62.8133,7.99792,0,0.000885,0,0
0:0:48.696,62.9334,8.01171,0,0.000885,0,0
0:0:48.891,63.2848,8.05997,0,0.000885,0,0
0:0:49.093,63.5206,8.08755,0,0.000885,0,0
0:0:49.292,63.8097,8.12202,0,0.000885,0,0
0:0:49.490,64.2813,8.18408,0,0.000885,0,0
0:0:49.692,64.7483,8.24613,0,0.000885,0,0
0:0:49.894,64.9262,8.26681,0,0.000885,0,0
0:0:50.096,65.3933,8.32887,0,0.000885,0,0
0:0:50.299,65.5712,8.34955,0,0.000885,0,0
0:0:50.501,66.7456,8.50124,0,0.000885,0,0
0:0:50.702,66.919,8.52192,0,0.000885,0,0
0:0:50.904,67.2705,8.56329,0,0.000885,0,0
0:0:51.105,67.6841,8.61845,0,0.000885,0,0
0:0:51.307,67.8576,8.63913,0,0.000885,0,0
0:0:51.502,68.387,8.70808,0,0.000885,0,0
0:0:51.704,68.9741,8.78392,0,0.000885,0,0
0:0:51.902,69.1476,8.80461,0,0.000885,0,0
0:0:52.101,69.499,8.84597,0,0.000885,0,0
0:0:52.303,69.6769,8.87355,0,0.000885,0,0
0:0:52.498,69.9705,8.90803,0,0.000885,0,0
0:0:52.700,70.4376,8.97008,0,0.000885,0,0
0:0:52.897,70.9669,9.03903,0,0.000885,0,0
0:0:53.095,71.9633,9.16313,0,0.000885,0,0
0:0:53.297,72.0834,9.17692,0,0.000885,0,0
0:0:53.494,72.4927,9.23208,0,0.000885,0,0
0:0:53.694,72.8441,9.27345,0,0.000885,0,0
0:0:53.893,72.9597,9.28724,0,0.000885,0,0
0:0:54.089,73.2533,9.32861,0,0.000885,0,0
0:0:54.292,74.0184,9.42513,0,0.000885,0,0
0:0:54.489,74.1341,9.43892,0,0.000885,0,0
0:0:54.688,74.3698,9.4665,0,0.000885,0,0
0:0:54.889,75.1305,9.56303,0,0.000885,0,0
0:0:55.093,75.6598,9.63198,0,0.000885,0,0
0:0:55.296,75.8956,9.66645,0,0.000885,0,0
0:0:55.497,76.6562,9.76298,0,0.000885,0,0
0:0:55.698,76.7719,9.77677,0,0.000885,0,0
0:0:55.900,76.892,9.79056,0,0.000885,0,0
0:0:56.102,77.0654,9.81124,0,0.000885,0,0
0:0:56.303,78.0618,9.94224,0,0.000885,0,0
0:0:56.502,78.0618,9.94224,0,0.000885,0,0
0:0:56.699,78.4755,9.9905,0,0.000885,0,0
0:0:56.901,78.7068,10.025,0,0.000885,0,0
0:0:57.096,79.1783,10.0801,0,0.000885,0,0
0:0:57.296,79.4141,10.1077,0,0.000885,0,0
0:0:57.496,79.8812,10.1698,0,0.000885,0,0
0:0:57.694,80.5262,10.2525,0,0.000885,0,0
0:0:57.895,80.7619,10.2801,0,0.000885,0,0
0:0:58.092,81.4647,10.3697,0,0.000885,0,0
0:0:58.290,81.4647,10.3697,0,0.000885,0,0
0:0:58.491,82.0519,10.4456,0,0.000885,0,0
0:0:58.684,82.4033,10.4938,0,0.000885,0,0
0:0:58.889,83.2262,10.5972,0,0.000885,0,0
0:0:59.083,83.2262,10.5972,0,0.000885,0,0
0:0:59.281,83.8712,10.68,0,0.000885,0,0
0:0:59.483,83.6933,10.6593,0,0.000885,0,0
0:0:59.688,84.2226,10.7213,0,0.000885,0,0
0:0:59.891,84.6319,10.7765,0,0.000885,0,0
0:1:0.093,85.3347,10.8661,0,0.000885,0,0
0:1:0.296,85.6905,10.9075,0,0.000885,0,0
0:1:0.498,85.9797,10.9489,0,0.000885,0,0
0:1:0.699,86.3355,10.9902,0,0.000885,0,0
0:1:0.900,87.2741,11.1143,0,0.000885,0,0
0:1:1.101,87.6833,11.1626,0,0.000885,0,0
0:1:1.298,87.8568,11.1833,0,0.000885,0,0
0:1:1.499,87.9769,11.204,0,0.000885,0,0
0:1:1.696,88.2082,11.2316,0,0.000885,0,0
0:1:1.897,88.444,11.2591,0,0.000885,0,0
0:1:2.096,89.0312,11.335,0,0.000885,0,0
0:1:2.292,89.734,11.4246,0,0.000885,0,0
0:1:2.494,90.2633,11.4936,0,0.000885,0,0
0:1:2.691,90.2633,11.4936,0,0.000885,0,0
0:1:2.889,90.4412,11.5142,0,0.000885,0,0
0:1:3.091,90.9083,11.5763,0,0.000885,0,0
0:1:3.284,91.3754,11.6315,0,0.000885,0,0
0:1:3.485,91.669,11.6728,0,0.000885,0,0
0:1:3.683,92.1983,11.7418,0,0.000885,0,0
0:1:3.881,92.6698,11.7969,0,0.000885,0,0
0:1:4.083,92.6698,11.7969,0,0.000885,0,0
0:1:4.279,93.6084,11.921,0,0.000885,0,0
0:1:4.478,94.0176,11.9693,0,0.000885,0,0
0:1:4.680,94.4268,12.0245,0,0.000885,0,0
0:1:4.884,94.5425,12.0382,0,0.000885,0,0
0:1:5.090,95.1297,12.1141,0,0.000885,0,0
0:1:5.291,95.2498,12.1279,0,0.000885,0,0
0:1:5.493,96.0682,12.2313,0,0.000885,0,0
0:1:5.694,96.0682,12.2313,0,0.000885,0,0
0:1:5.895,96.1883,12.2451,0,0.000885,0,0
0:1:6.098,97.0068,12.3485,0,0.000885,0,0
0:1:6.296,97.3004,12.3899,0,0.000885,0,0
0:1:6.494,97.8297,12.4588,0,0.000885,0,0
0:1:6.695,98.3591,12.5209,0,0.000885,0,0
0:1:6.890,98.7105,12.5691,0,0.000885,0,0
0:1:7.093,99.0041,12.6036,0,0.000885,0,0
0:1:7.292,99.4133,12.6588,0,0.000885,0,0
0:1:7.485,99.6491,12.6864,0,0.000885,0,0
0:1:7.690,99.9426,12.7277,0,0.000885,0,0
0:1:7.883,100.174,12.7553,0,0.000885,0,0
0:1:8.084,100.819,12.838,0,0.000885,0,0
0:1:8.284,101.526,12.9277,0,0.000885,0,0
0:1:8.479,101.642,12.9415,0,0.000885,0,0
0:1:8.682,101.993,12.9828,0,0.000885,0,0
0:1:8.879,102.816,13.0931,0,0.000885,0,0
0:1:9.090,102.99,13.1138,0,0.000885,0,0
0:1:9.292,103.399,13.1621,0,0.000885,0,0
0:1:9.496,103.692,13.2035,0,0.000885,0,0
0:1:9.699,103.986,13.2379,0,0.000885,0,0
0:1:9.899,104.337,13.2862,0,0.000885,0,0
0:1:10.104,105.045,13.3758,0,0.000885,0,0
0:1:10.306,105.57,13.4448,0,0.000885,0,0
0:1:10.508,105.69,13.4586,0,0.000885,0,0
0:1:10.711,106.099,13.5068,0,0.000885,0,0
0:1:10.912,106.628,13.5758,0,0.000885,0,0
0:1:11.113,106.98,13.624,0,0.000885,0,0
0:1:11.315,107.331,13.6654,0,0.000885,0,0
0:1:11.510,107.447,13.6792,0,0.000885,0,0
0:1:11.712,108.15,13.7688,0,0.000885,0,0
0:1:11.909,108.092,13.7619,0,0.000885,0,0
0:1:12.106,108.505,13.8171,0,0.000885,0,0
0:1:12.308,108.857,13.8585,0,0.000885,0,0
0:1:12.504,109.382,13.9274,0,0.000885,0,0
0:1:12.705,109.853,13.9895,0,0.000885,0,0
0:1:12.904,109.853,13.9895,0,0.000885,0,0
0:1:13.099,110.672,14.0929,0,0.000885,0,0
0:1:13.301,110.85,14.1136,0,0.000885,0,0
0:1:13.501,111.846,14.2377,0,0.000885,0,0
0:1:13.698,111.846,14.2377,0,0.000885,0,0
0:1:13.899,112.375,14.3066,0,0.000885,0,0
0:1:14.094,112.727,14.3549,0,0.000885,0,0
0:1:14.296,113.256,14.4169,0,0.000885,0,0
0:1:14.495,113.901,14.4997,0,0.000885,0,0
0:1:14.692,114.075,14.5273,0,0.000885,0,0
0:1:14.894,114.955,14.6376,0,0.000885,0,0
0:1:15.096,115.013,14.6445,0,0.000885,0,0
0:1:15.299,115.013,14.6445,0,0.000885,0,0
0:1:15.502,115.894,14.7548,0,0.000885,0,0
0:1:15.703,116.245,14.803,0,0.000885,0,0
0:1:15.904,116.539,14.8375,0,0.000885,0,0
0:1:16.105,116.775,14.8651,0,0.000885,0,0
0:1:16.307,117.068,14.9065,0,0.000885,0,0
0:1:16.509,117.593,14.9754,0,0.000885,0,0
0:1:16.704,117.651,14.9823,0,0.000885,0,0
0:1:16.906,118.065,15.0306,0,0.000885,0,0
0:1:17.104,118.416,15.0788,0,0.000885,0,0
0:1:17.301,118.474,15.0857,0,0.000885,0,0
0:1:17.503,118.825,15.1271,0,0.000885,0,0
0:1:17.699,119.47,15.2098,0,0.000885,0,0
0:1:17.900,119.942,15.2719,0,0.000885,0,0
0:1:18.099,120.587,15.3546,0,0.000885,0,0
0:1:18.296,121.054,15.4098,0,0.000885,0,0
0:1:18.498,121.819,15.5132,0,0.000885,0,0
0:1:18.694,121.935,15.527,0,0.000885,0,0
0:1:18.895,121.877,15.5201,0,0.000885,0,0
0:1:19.094,122.815,15.6373,0,0.000885,0,0
0:1:19.287,123.047,15.6649,0,0.000885,0,0
0:1:19.492,123.576,15.7338,0,0.000885,0,0
0:1:19.694,124.163,15.8097,0,0.000885,0,0
0:1:19.896,124.399,15.8373,0,0.000885,0,0
0:1:20.099,124.866,15.8993,0,0.000885,0,0
0:1:20.300,124.75,15.8855,0,0.000885,0,0
0:1:20.502,124.924,15.9062,0,0.000885,0,0
0:1:20.704,125.747,16.0096,0,0.000885,0,0
0:1:20.905,125.747,16.0096,0,0.000885,0,0
0:1:21.106,125.983,16.0372,0,0.000885,0,0
0:1:21.303,126.276,16.0786,0,0.000885,0,0
0:1:21.505,127.215,16.1958,0,0.000885,0,0
0:1:21.702,127.33,16.2096,0,0.000885,0,0
0:1:21.901,127.624,16.2509,0,0.000885,0,0
0:1:22.103,128.153,16.3199,0,0.000885,0,0
0:1:22.299,129.092,16.4371,0,0.000885,0,0
0:1:22.499,129.15,16.444,0,0.000885,0,0
0:1:22.699,129.795,16.5267,0,0.000885,0,0
0:1:22.895,129.968,16.5474,0,0.000885,0,0
0:1:23.098,130.497,16.6164,0,0.000885,0,0
0:1:23.294,131.085,16.6922,0,0.000885,0,0
0:1:23.493,131.32,16.7198,0,0.000885,0,0
0:1:23.694,131.903,16.7956,0,0.000885,0,0
0:1:23.886,132.197,16.8301,0,0.000885,0,0
0:1:24.091,132.197,16.8301,0,0.000885,0,0
0:1:24.299,132.842,16.9128,0,0.000885,0,0
0:1:24.495,133.135,16.9542,0,0.000885,0,0
0:1:24.698,133.429,16.9887,0,0.000885,0,0
0:1:24.901,134.132,17.0783,0,0.000885,0,0
0:1:25.104,134.016,17.0645,0,0.000885,0,0
0:1:25.306,134.719,17.1542,0,0.000885,0,0
0:1:25.508,134.839,17.1679,0,0.000885,0,0
0:1:25.710,135.07,17.1955,0,0.000885,0,0
0:1:25.911,135.715,17.2783,0,0.000885,0,0
0:1:26.114,136.654,17.4024,0,0.000885,0,0
0:1:26.314,136.538,17.3817,0,0.000885,0,0
0:1:26.510,136.89,17.4299,0,0.000885,0,0
0:1:26.713,137.361,17.492,0,0.000885,0,0
0:1:26.909,137.361,17.492,0,0.000885,0,0
0:1:27.109,138.064,17.5816,0,0.000885,0,0
0:1:27.310,138.593,17.6437,0,0.000885,0,0
0:1:27.506,139.354,17.7402,0,0.000885,0,0
0:1:27.707,139.296,17.7333,0,0.000885,0,0
0:1:27.904,139.763,17.7954,0,0.000885,0,0
0:1:28.102,140.408,17.8781,0,0.000885,0,0
0:1:28.304,140.822,17.9264,0,0.000885,0,0
0:1:28.501,141.405,18.0022,0,0.000885,0,0
0:1:28.702,141.467,18.0091,0,0.000885,0,0
0:1:28.900,142.05,18.0849,0,0.000885,0,0
0:1:29.097,142.227,18.1056,0,0.000885,0,0
0:1:29.300,142.988,18.2091,0,0.000885,0,0
0:1:29.496,143.166,18.2297,0,0.000885,0,0
0:1:29.696,143.575,18.278,0,0.000885,0,0
0:1:29.897,143.927,18.3263,0,0.000885,0,0
0:1:30.100,143.811,18.3125,0,0.000885,0,0
0:1:30.303,144.22,18.3607,0,0.000885,0,0
0:1:30.505,144.807,18.4366,0,0.000885,0,0
0:1:30.706,145.217,18.4917,0,0.000885,0,0
0:1:30.907,145.452,18.5193,0,0.000885,0,0
0:1:31.109,145.862,18.5745,0,0.000885,0,0
0:1:31.309,146.217,18.6158,0,0.000885,0,0
0:1:31.509,146.862,18.6986,0,0.000885,0,0
0:1:31.706,147.094,18.7262,0,0.000885,0,0
0:1:31.909,147.681,18.802,0,0.000885,0,0
0:1:32.105,148.152,18.8641,0,0.000885,0,0
0:1:32.305,148.504,18.9054,0,0.000885,0,0
0:1:32.506,148.62,18.9261,0,0.000885,0,0
0:1:32.704,149.678,19.0571,0,0.000885,0,0
0:1:32.905,149.967,19.0916,0,0.000885,0,0
0:1:33.101,150.203,19.1261,0,0.000885,0,0
0:1:33.302,150.968,19.2226,0,0.000885,0,0
0:1:33.501,151.084,19.2364,0,0.000885,0,0
0:1:33.698,151.084,19.2364,0,0.000885,0,0
0:1:33.900,151.377,19.2708,0,0.000885,0,0
0:1:34.096,151.965,19.3467,0,0.000885,0,0
0:1:34.295,152.022,19.3536,0,0.000885,0,0
0:1:34.497,152.374,19.4018,0,0.000885,0,0
0:1:34.698,152.845,19.4639,0,0.000885,0,0
0:1:34.902,153.664,19.5673,0,0.000885,0,0
0:1:35.105,154.309,19.6501,0,0.000885,0,0
0:1:35.306,154.66,19.6914,0,0.000885,0,0
0:1:35.508,154.838,19.7121,0,0.000885,0,0
0:1:35.709,155.425,19.788,0,0.000885,0,0
0:1:35.910,155.483,19.7948,0,0.000885,0,0
0:1:36.110,155.892,19.85,0,0.000885,0,0
0:1:36.307,156.07,19.8707,0,0.000885,0,0
0:1:36.509,156.889,19.9741,0,0.000885,0,0
0:1:36.705,156.537,19.9327,0,0.000885,0,0
0:1:36.905,157.418,20.0431,0,0.000885,0,0
0:1:37.105,157.712,20.0775,0,0.000885,0,0
0:1:37.301,158.53,20.1878,0,0.000885,0,0
0:1:37.502,158.472,20.1741,0,0.000885,0,0
0:1:37.699,159.002,20.243,0,0.000885,0,0
0:1:37.898,159.295,20.2844,0,0.000885,0,0
0:1:38.099,159.647,20.3257,0,0.000885,0,0
0:1:38.294,160.176,20.3947,0,0.000885,0,0
0:1:38.495,160.527,20.4361,0,0.000885,0,0
0:1:38.694,160.937,20.4912,0,0.000885,0,0
0:1:38.892,161.115,20.5119,0,0.000885,0,0
0:1:39.094,161.524,20.5671,0,0.000885,0,0
0:1:39.299,162.053,20.636,0,0.000885,0,0
0:1:39.499,162.578,20.6981,0,0.000885,0,0
0:1:39.701,163.05,20.7601,0,0.000885,0,0
0:1:39.905,163.574,20.8291,0,0.000885,0,0
0:1:40.107,163.459,20.8153,0,0.000885,0,0
0:1:40.308,163.81,20.8566,0,0.000885,0,0
0:1:40.509,164.34,20.9256,0,0.000885,0,0
0:1:40.711,164.864,20.9945,0,0.000885,0,0
0:1:40.912,165.278,21.0428,0,0.000885,0,0
0:1:41.115,165.923,21.1255,0,0.000885,0,0
0:1:41.311,166.097,21.1462,0,0.000885,0,0
0:1:41.512,166.39,21.1876,0,0.000885,0,0
0:1:41.712,166.51,21.2014,0,0.000885,0,0
0:1:41.907,167.916,21.3806,0,0.000885,0,0
0:1:42.108,168.209,21.4151,0,0.000885,0,0
0:1:42.307,168.619,21.4703,0,0.000885,0,0
0:1:42.506,168.912,21.5047,0,0.000885,0,0
0:1:42.708,169.499,21.5806,0,0.000885,0,0
0:1:42.901,169.499,21.5806,0,0.000885,0,0
0:1:43.103,169.615,21.5944,0,0.000885,0,0
0:1:43.303,169.735,21.6082,0,0.000885,0,0
0:1:43.500,170.554,21.7185,0,0.000885,0,0
0:1:43.702,171.083,21.7805,0,0.000885,0,0
0:1:43.899,171.555,21.8426,0,0.000885,0,0
0:1:44.098,171.199,21.8012,0,0.000885,0,0
0:1:44.298,171.199,21.8012,0,0.000885,0,0
0:1:44.493,172.079,21.9115,0,0.000885,0,0
0:1:44.695,172.315,21.9391,0,0.000885,0,0
0:1:44.898,173.663,22.1115,0,0.000885,0,0
0:1:45.100,173.49,22.0908,0,0.000885,0,0
0:1:45.304,174.192,22.1804,0,0.000885,0,0
0:1:45.506,174.837,22.2632,0,0.000885,0,0
0:1:45.706,174.837,22.2632,0,0.000885,0,0
0:1:45.907,174.837,22.2632,0,0.000885,0,0
0:1:46.108,175.304,22.3183,0,0.000885,0,0
0:1:46.309,175.776,22.3804,0,0.000885,0,0
0:1:46.505,176.012,22.408,0,0.000885,0,0
0:1:46.707,176.127,22.4286,0,0.000885,0,0
0:1:46.905,176.657,22.4907,0,0.000885,0,0
0:1:47.102,177.124,22.5528,0,0.000885,0,0
0:1:47.304,177.947,22.6562,0,0.000885,0,0
0:1:47.501,178.298,22.7044,0,0.000885,0,0
0:1:47.700,178.885,22.7734,0,0.000885,0,0
0:1:47.901,178.707,22.7527,0,0.000885,0,0
0:1:48.096,179.294,22.8285,0,0.000885,0,0
0:1:48.299,180.175,22.9389,0,0.000885,0,0
0:1:48.496,180.878,23.0285,0,0.000885,0,0
0:1:48.695,180.584,22.994,0,0.000885,0,0
0:1:48.895,180.642,23.0009,0,0.000885,0,0
0:1:49.100,181.639,23.125,0,0.000885,0,0
0:1:49.302,182.11,23.1871,0,0.000885,0,0
0:1:49.501,182.64,23.256,0,0.000885,0,0
0:1:49.698,182.519,23.2422,0,0.000885,0,0
0:1:49.900,182.64,23.256,0,0.000885,0,0
0:1:50.101,183.164,23.3181,0,0.000885,0,0
0:1:50.305,183.694,23.387,0,0.000885,0,0
0:1:50.508,183.93,23.4215,0,0.000885,0,0
0:1:50.709,184.339,23.4698,0,0.000885,0,0
0:1:50.910,184.926,23.5456,0,0.000885,0,0
0:1:51.111,185.451,23.6145,0,0.000885,0,0
0:1:51.313,186.038,23.6904,0,0.000885,0,0
0:1:51.512,186.803,23.7869,0,0.000885,0,0
0:1:51.710,186.683,23.7662,0,0.000885,0,0
0:1:51.911,186.919,23.8007,0,0.000885,0,0
0:1:52.108,187.034,23.8145,0,0.000885,0,0
0:1:52.308,187.973,23.9317,0,0.000885,0,0
0:1:52.507,188.267,23.9731,0,0.000885,0,0
0:1:52.704,188.329,23.98,0,0.000885,0,0
0:1:52.907,189.263,24.0972,0,0.000885,0,0
0:1:53.103,190.028,24.1937,0,0.000885,0,0
0:1:53.302,189.619,24.1454,0,0.000885,0,0
0:1:53.502,189.205,24.0903,0,0.000885,0,0
0:1:53.697,189.85,24.173,0,0.000885,0,0
0:1:53.899,189.912,24.1799,0,0.000885,0,0
0:1:54.096,190.144,24.2075,0,0.000885,0,0
0:1:54.294,191.554,24.3868,0,0.000885,0,0
0:1:54.496,191.847,24.4281,0,0.000885,0,0
0:1:54.698,192.199,24.4695,0,0.000885,0,0
0:1:54.901,192.844,24.5522,0,0.000885,0,0
0:1:55.102,192.959,24.566,0,0.000885,0,0
0:1:55.304,193.547,24.6419,0,0.000885,0,0
0:1:55.503,193.662,24.6557,0,0.000885,0,0
0:1:55.704,194.427,24.7522,0,0.000885,0,0
0:1:55.905,194.894,24.8142,0,0.000885,0,0
0:1:56.104,195.424,24.8832,0,0.000885,0,0
0:1:56.298,195.246,24.8625,0,0.000885,0,0
0:1:56.499,196.42,25.0073,0,0.000885,0,0
0:1:56.693,196.42,25.0073,0,0.000885,0,0
0:1:56.890,197.065,25.09,0,0.000885,0,0
0:1:57.090,197.301,25.1176,0,0.000885,0,0
0:1:57.295,198.062,25.221,0,0.000885,0,0
0:1:57.496,197.71,25.1728,0,0.000885,0,0
0:1:57.689,198.355,25.2555,0,0.000885,0,0
0:1:57.896,198.827,25.3175,0,0.000885,0,0
0:1:58.097,199.294,25.3727,0,0.000885,0,0
0:1:58.301,199.236,25.3658,0,0.000885,0,0
0:1:58.501,200.059,25.4692,0,0.000885,0,0
0:1:58.698,200.41,25.5175,0,0.000885,0,0
0:1:58.890,200.41,25.5175,0,0.000885,0,0
0:1:59.094,201.113,25.6071,0,0.000885,0,0
0:1:59.300,201.58,25.6692,0,0.000885,0,0
0:1:59.497,202.225,25.745,0,0.000885,0,0
0:1:59.697,201.874,25.7037,0,0.000885,0,0
0:1:59.900,202.639,25.8002,0,0.000885,0,0
0:2:0.101,203.457,25.9036,0,0.000885,0,0
0:2:0.301,203.399,25.8967,0,0.000885,0,0
0:2:0.500,203.226,25.876,0,0.000885,0,0
0:2:0.700,203.871,25.9588,0,0.000885,0,0
0:2:0.901,204.516,26.0415,0,0.000885,0,0
0:2:1.101,204.983,26.0967,0,0.000885,0,0
0:2:1.297,205.454,26.1587,0,0.000885,0,0
0:2:1.496,205.806,26.207,0,0.000885,0,0
0:2:1.695,205.979,26.2277,0,0.000885,0,0
0:2:1.899,206.215,26.2552,0,0.000885,0,0
0:2:2.099,206.802,26.3311,0,0.000885,0,0
0:2:2.297,207.505,26.4207,0,0.000885,0,0
0:2:2.494,207.799,26.4552,0,0.000885,0,0
0:2:2.694,208.208,26.5103,0,0.000885,0,0
0:2:2.897,208.386,26.531,0,0.000885,0,0
0:2:3.097,208.622,26.5655,0,0.000885,0,0
0:2:3.295,209.618,26.6896,0,0.000885,0,0
0:2:3.490,209.204,26.6344,0,0.000885,0,0
0:2:3.689,210.143,26.7586,0,0.000885,0,0
0:2:3.894,210.788,26.8413,0,0.000885,0,0
0:2:4.095,211.317,26.9033,0,0.000885,0,0
0:2:4.290,211.024,26.8689,0,0.000885,0,0
0:2:4.487,211.259,26.8964,0,0.000885,0,0
0:2:4.688,212.082,26.9999,0,0.000885,0,0
0:2:4.887,212.492,27.055,0,0.000885,0,0
0:2:5.090,212.959,27.1171,0,0.000885,0,0
0:2:5.295,213.43,27.1722,0,0.000885,0,0
0:2:5.494,213.724,27.2136,0,0.000885,0,0
0:2:5.694,213.546,27.1929,0,0.000885,0,0
0:2:5.891,214.075,27.255,0,0.000885,0,0
0:2:6.092,214.6,27.3239,0,0.000885,0,0
0:2:6.290,214.836,27.3515,0,0.000885,0,0
0:2:6.497,215.539,27.4411,0,0.000885,0,0
0:2:6.697,216.126,27.517,0,0.000885,0,0
0:2:6.890,216.833,27.6066,0,0.000885,0,0
0:2:7.089,216.713,27.5928,0,0.000885,0,0
0:2:7.287,217.416,27.6825,0,0.000885,0,0
0:2:7.491,218.061,27.7652,0,0.000885,0,0
0:2:7.694,218.239,27.7859,0,0.000885,0,0
0:2:7.889,218.296,27.7928,0,0.000885,0,0
0:2:8.085,218.648,27.841,0,0.000885,0,0
0:2:8.285,219.235,27.9169,0,0.000885,0,0
0:2:8.488,218.941,27.8755,0,0.000885,0,0
0:2:8.687,219.351,27.9307,0,0.000885,0,0
0:2:8.885,220,28.0134,0,0.000885,0,0
0:2:9.082,220.703,28.103,0,0.000885,0,0
0:2:9.281,220.761,28.1099,0,0.000885,0,0
0:2:9.475,221.521,28.2065,0,0.000885,0,0
0:2:9.675,221.521,28.2065,0,0.000885,0,0
0:2:9.874,222.46,28.3237,0,0.000885,0,0
0:2:10.076,222.874,28.3788,0,0.000885,0,0
0:2:10.277,223.519,28.4616,0,0.000885,0,0
0:2:10.479,223.047,28.3995,0,0.000885,0,0
0:2:10.679,223.456,28.4547,0,0.000885,0,0
0:2:10.888,224.457,28.5788,0,0.000885,0,0
0:2:11.087,224.689,28.6063,0,0.000885,0,0
0:2:11.289,225.04,28.6546,0,0.000885,0,0
0:2:11.495,225.685,28.7373,0,0.000885,0,0
0:2:11.695,225.863,28.758,0,0.000885,0,0
0:2:11.892,226.392,28.827,0,0.000885,0,0
0:2:12.098,226.744,28.8683,0,0.000885,0,0
0:2:12.300,227.095,28.9166,0,0.000885,0,0
0:2:12.492,227.331,28.9442,0,0.000885,0,0
0:2:12.695,227.624,28.9787,0,0.000885,0,0
0:2:12.889,228.327,29.0683,0,0.000885,0,0
0:2:13.086,228.794,29.1303,0,0.000885,0,0
0:2:13.287,229.502,29.22,0,0.000885,0,0
0:2:13.502,229.559,29.2269,0,0.000885,0,0
0:2:13.701,229.791,29.2613,0,0.000885,0,0
0:2:13.898,230.614,29.3648,0,0.000885,0,0
0:2:14.095,231.023,29.413,0,0.000885,0,0
0:2:14.296,230.849,29.3924,0,0.000885,0,0
0:2:14.499,230.965,29.4061,0,0.000885,0,0
0:2:14.696,231.023,29.413,0,0.000885,0,0
0:2:14.896,232.139,29.5578,0,0.000885,0,0
0:2:15.098,232.727,29.6337,0,0.000885,0,0
0:2:15.299,232.958,29.6612,0,0.000885,0,0
0:2:15.499,233.078,29.675,0,0.000885,0,0
0:2:15.699,233.603,29.744,0,0.000885,0,0
0:2:15.899,234.541,29.8612,0,0.000885,0,0
0:2:16.098,234.661,29.875,0,0.000885,0,0
0:2:16.297,234.541,29.8612,0,0.000885,0,0
0:2:16.492,234.777,29.8957,0,0.000885,0,0
0:2:16.689,235.129,29.937,0,0.000885,0,0
0:2:16.889,235.186,29.9439,0,0.000885,0,0
0:2:17.083,235.774,30.0198,0,0.000885,0,0
0:2:17.282,236.596,30.1232,0,0.000885,0,0
0:2:17.481,237.064,30.1852,0,0.000885,0,0
0:2:17.687,237.419,30.2266,0,0.000885,0,0
0:2:17.886,238.002,30.3025,0,0.000885,0,0
0:2:18.100,238.064,30.3094,0,0.000885,0,0
0:2:18.301,238.531,30.3714,0,0.000885,0,0
0:2:18.499,238.941,30.4197,0,0.000885,0,0
0:2:18.696,239.47,30.4886,0,0.000885,0,0
0:2:18.896,239.937,30.5507,0,0.000885,0,0
0:2:19.099,240.524,30.6265,0,0.000885,0,0
0:2:19.298,240.409,30.6127,0,0.000885,0,0
0:2:19.496,241.347,30.7299,0,0.000885,0,0
0:2:19.691,241.876,30.7989,0,0.000885,0,0
0:2:19.891,241.934,30.8058,0,0.000885,0,0
0:2:20.091,242.521,30.8816,0,0.000885,0,0
0:2:20.297,242.989,30.9368,0,0.000885,0,0
0:2:20.497,243.104,30.9506,0,0.000885,0,0
0:2:20.697,243.34,30.985,0,0.000885,0,0
0:2:20.897,243.985,31.0678,0,0.000885,0,0
0:2:21.097,244.163,31.0885,0,0.000885,0,0
0:2:21.296,244.221,31.0954,0,0.000885,0,0
0:2:21.497,244.981,31.1919,0,0.000885,0,0
0:2:21.688,245.337,31.2401,0,0.000885,0,0
0:2:21.888,245.217,31.2195,0,0.000885,0,0
0:2:22.085,246.098,31.3367,0,0.000885,0,0
0:2:22.281,246.507,31.3849,0,0.000885,0,0
0:2:22.482,246.859,31.4332,0,0.000885,0,0
0:2:22.686,247.33,31.4884,0,0.000885,0,0
0:2:22.885,248.384,31.6263,0,0.000885,0,0
0:2:23.092,248.211,31.6056,0,0.000885,0,0
0:2:23.286,248.62,31.6538,0,0.000885,0,0
0:2:23.487,248.971,31.7021,0,0.000885,0,0
0:2:23.693,249.559,31.7779,0,0.000885,0,0
0:2:23.891,249.501,31.7641,0,0.000885,0,0
0:2:24.090,249.968,31.8262,0,0.000885,0,0
0:2:24.293,250.377,31.8814,0,0.000885,0,0
0:2:24.496,251.022,31.9641,0,0.000885,0,0
0:2:24.696,251.378,32.0055,0,0.000885,0,0
0:2:24.900,252.081,32.0951,0,0.000885,0,0
0:2:25.100,252.196,32.1089,0,0.000885,0,0
0:2:25.301,252.548,32.1571,0,0.000885,0,0
0:2:25.500,253.255,32.2468,0,0.000885,0,0
0:2:25.700,253.9,32.3295,0,0.000885,0,0
0:2:25.899,253.429,32.2675,0,0.000885,0,0
0:2:26.100,253.78,32.3157,0,0.000885,0,0
0:2:26.293,254.603,32.4191,0,0.000885,0,0
0:2:26.492,254.834,32.4467,0,0.000885,0,0
0:2:26.690,255.012,32.4674,0,0.000885,0,0
0:2:26.885,255.364,32.5157,0,0.000885,0,0
0:2:27.085,256.008,32.5984,0,0.000885,0,0
0:2:27.290,255.951,32.5915,0,0.000885,0,0
0:2:27.499,256.422,32.6467,0,0.000885,0,0
0:2:27.697,256.947,32.7156,0,0.000885,0,0
0:2:27.892,257.298,32.757,0,0.000885,0,0
0:2:28.092,257.828,32.8259,0,0.000885,0,0
0:2:28.288,258.295,32.888,0,0.000885,0,0
0:2:28.485,258.651,32.9294,0,0.000885,0,0
0:2:28.684,258.824,32.9569,0,0.000885,0,0
0:2:28.889,259.296,33.0121,0,0.000885,0,0
0:2:29.089,259.647,33.0604,0,0.000885,0,0
0:2:29.294,260.172,33.1293,0,0.000885,0,0
0:2:29.503,260.701,33.1914,0,0.000885,0,0
0:2:29.704,260.879,33.2189,0,0.000885,0,0
0:2:29.905,261.582,33.3086,0,0.000885,0,0
0:2:30.107,261.582,33.3086,0,0.000885,0,0
0:2:30.309,262.401,33.412,0,0.000885,0,0
0:2:30.508,263.108,33.5016,0,0.000885,0,0
0:2:30.709,263.281,33.5223,0,0.000885,0,0
0:2:30.910,263.753,33.5844,0,0.000885,0,0
0:2:31.111,264.629,33.6947,0,0.000885,0,0
0:2:31.308,264.456,33.674,0,0.000885,0,0
0:2:31.503,265.158,33.7636,0,0.000885,0,0
0:2:31.703,265.568,33.8119,0,0.000885,0,0
0:2:31.899,265.274,33.7774,0,0.000885,0,0
0:2:32.094,265.452,33.7981,0,0.000885,0,0
0:2:32.294,265.919,33.8602,0,0.000885,0,0
0:2:32.488,266.506,33.936,0,0.000885,0,0
0:2:32.688,266.626,33.9498,0,0.000885,0,0
0:2:32.885,267.329,34.0394,0,0.000885,0,0
0:2:33.091,267.445,34.0532,0,0.000885,0,0
0:2:33.293,267.974,34.1222,0,0.000885,0,0
0:2:33.499,268.561,34.1911,0,0.000885,0,0
0:2:33.697,269.322,34.2945,0,0.000885,0,0
0:2:33.892,269.086,34.26,0,0.000885,0,0
0:2:34.087,269.967,34.3704,0,0.000885,0,0
0:2:34.288,270.318,34.4186,0,0.000885,0,0
0:2:34.484,270.612,34.4531,0,0.000885,0,0
0:2:34.681,271.257,34.5358,0,0.000885,0,0
0:2:34.881,271.026,34.5083,0,0.000885,0,0
0:2:35.083,271.377,34.5496,0,0.000885,0,0
0:2:35.283,271.964,34.6255,0,0.000885,0,0
0:2:35.485,272.316,34.6737,0,0.000885,0,0
0:2:35.685,272.725,34.722,0,0.000885,0,0
0:2:35.884,273.428,34.8116,0,0.000885,0,0
0:2:36.084,273.134,34.7772,0,0.000885,0,0
0:2:36.285,274.073,34.8944,0,0.000885,0,0
0:2:36.483,274.544,34.9564,0,0.000885,0,0
0:2:36.688,274.776,34.984,0,0.000885,0,0
0:2:36.889,275.011,35.0185,0,0.000885,0,0
0:2:37.083,275.421,35.0667,0,0.000885,0,0
0:2:37.281,275.363,35.0598,0,0.000885,0,0
0:2:37.482,276.243,35.1702,0,0.000885,0,0
0:2:37.684,276.773,35.2391,0,0.000885,0,0
0:2:37.886,277.182,35.2943,0,0.000885,0,0
0:2:38.082,277.827,35.377,0,0.000885,0,0
0:2:38.288,278.121,35.4115,0,0.000885,0,0
0:2:38.487,278.178,35.4184,0,0.000885,0,0
0:2:38.692,279.295,35.5632,0,0.000885,0,0
0:2:38.891,279.001,35.5218,0,0.000885,0,0
0:2:39.099,279.704,35.6114,0,0.000885,0,0
0:2:39.294,280.056,35.6597,0,0.000885,0,0
0:2:39.494,280.643,35.7355,0,0.000885,0,0
0:2:39.695,280.936,35.77,0,0.000885,0,0
0:2:39.899,281.466,35.8389,0,0.000885,0,0
0:2:40.099,281.23,35.8045,0,0.000885,0,0
0:2:40.300,281.755,35.8734,0,0.000885,0,0
0:2:40.500,282.168,35.9286,0,0.000885,0,0
0:2:40.699,282.636,35.9837,0,0.000885,0,0
0:2:40.901,283.632,36.1147,0,0.000885,0,0
0:2:41.098,283.401,36.0803,0,0.000885,0,0
0:2:41.303,283.694,36.1216,0,0.000885,0,0
0:2:41.504,284.571,36.2319,0,0.000885,0,0
0:2:41.699,284.806,36.2595,0,0.000885,0,0
0:2:41.898,285.216,36.3147,0,0.000885,0,0
0:2:42.095,285.923,36.4043,0,0.000885,0,0
0:2:42.300,285.629,36.3698,0,0.000885,0,0
0:2:42.500,286.154,36.4319,0,0.000885,0,0
0:2:42.695,286.626,36.494,0,0.000885,0,0
0:2:42.892,286.977,36.5422,0,0.000885,0,0
0:2:43.092,287.093,36.556,0,0.000885,0,0
0:2:43.294,287.8,36.6456,0,0.000885,0,0
0:2:43.494,288.209,36.6939,0,0.000885,0,0
0:2:43.693,288.854,36.7766,0,0.000885,0,0
0:2:43.900,289.09,36.8111,0,0.000885,0,0
0:2:44.100,289.09,36.8111,0,0.000885,0,0
0:2:44.292,289.557,36.8663,0,0.000885,0,0
0:2:44.490,289.673,36.8801,0,0.000885,0,0
0:2:44.691,290.028,36.9283,0,0.000885,0,0
0:2:44.893,290.496,36.9904,0,0.000885,0,0
0:2:45.094,291.256,37.0869,0,0.000885,0,0
0:2:45.295,291.55,37.1214,0,0.000885,0,0
0:2:45.496,291.843,37.1558,0,0.000885,0,0
0:2:45.694,292.666,37.2662,0,0.000885,0,0
0:2:45.895,293.253,37.3351,0,0.000885,0,0
0:2:46.096,293.489,37.3696,0,0.000885,0,0
0:2:46.293,294.308,37.473,0,0.000885,0,0
0:2:46.501,293.956,37.4247,0,0.000885,0,0
0:2:46.702,294.717,37.5282,0,0.000885,0,0
0:2:46.893,295.246,37.5902,0,0.000885,0,0
0:2:47.094,295.246,37.5902,0,0.000885,0,0
0:2:47.292,295.949,37.6798,0,0.000885,0,0
0:2:47.496,296.3,37.7281,0,0.000885,0,0
0:2:47.699,296.069,37.6936,0,0.000885,0,0
0:2:47.903,296.714,37.7764,0,0.000885,0,0
0:2:48.102,296.772,37.7833,0,0.000885,0,0
0:2:48.301,297.884,37.9281,0,0.000885,0,0
0:2:48.492,297.946,37.935,0,0.000885,0,0
0:2:48.693,298.356,37.9901,0,0.000885,0,0
0:2:48.889,298.943,38.0591,0,0.000885,0,0
0:2:49.087,299.058,38.0797,0,0.000885,0,0
0:2:49.287,299.236,38.1004,0,0.000885,0,0
0:2:49.489,299.997,38.197,0,0.000885,0,0
0:2:49.690,300.055,38.2039,0,0.000885,0,0
0:2:49.890,300.7,38.2866,0,0.000885,0,0
0:2:50.092,301.407,38.3762,0,0.000885,0,0
0:2:50.294,302.052,38.459,0,0.000885,0,0
0:2:50.495,301.758,38.4176,0,0.000885,0,0
0:2:50.694,301.874,38.4383,0,0.000885,0,0
0:2:50.895,302.403,38.5003,0,0.000885,0,0
0:2:51.094,302.341,38.4934,0,0.000885,0,0
0:2:51.294,303.342,38.6244,0,0.000885,0,0
0:2:51.490,303.636,38.6589,0,0.000885,0,0
0:2:51.687,304.396,38.7554,0,0.000885,0,0
0:2:51.895,304.748,38.8037,0,0.000885,0,0
0:2:52.090,305.277,38.8657,0,0.000885,0,0
0:2:52.289,304.926,38.8244,0,0.000885,0,0
0:2:52.496,306.158,38.983,0,0.000885,0,0
0:2:52.693,305.802,38.9347,0,0.000885,0,0
0:2:52.893,307.154,39.1071,0,0.000885,0,0
0:2:53.095,306.918,39.0795,0,0.000885,0,0
0:2:53.297,307.915,39.2036,0,0.000885,0,0
0:2:53.492,307.857,39.1967,0,0.000885,0,0
0:2:53.701,308.853,39.3277,0,0.000885,0,0
0:2:53.901,309.205,39.3691,0,0.000885,0,0
0:2:54.104,309.441,39.3966,0,0.000885,0,0
0:2:54.304,309.792,39.4449,0,0.000885,0,0
0:2:54.501,309.676,39.4311,0,0.000885,0,0
0:2:54.694,310.028,39.4725,0,0.000885,0,0
0:2:54.895,310.379,39.5207,0,0.000885,0,0
0:2:55.096,310.379,39.5207,0,0.000885,0,0
0:2:55.301,311.26,39.6311,0,0.000885,0,0
0:2:55.501,311.318,39.638,0,0.000885,0,0
0:2:55.702,311.963,39.7207,0,0.000885,0,0
0:2:55.902,312.372,39.7759,0,0.000885,0,0
0:2:56.102,313.017,39.8517,0,0.000885,0,0
0:2:56.302,313.137,39.8724,0,0.000885,0,0
0:2:56.502,313.72,39.9413,0,0.000885,0,0
0:2:56.705,314.307,40.0172,0,0.000885,0,0
0:2:56.905,314.6,40.0585,0,0.000885,0,0
0:2:57.101,315.13,40.1206,0,0.000885,0,0
0:2:57.295,314.894,40.093,0,0.000885,0,0
0:2:57.495,315.423,40.162,0,0.000885,0,0
0:2:57.691,315.597,40.1826,0,0.000885,0,0
0:2:57.890,316.126,40.2516,0,0.000885,0,0
0:2:58.087,316.713,40.3274,0,0.000885,0,0
0:2:58.281,316.478,40.293,0,0.000885,0,0
0:2:58.482,317.416,40.4171,0,0.000885,0,0
0:2:58.688,317.594,40.4378,0,0.000885,0,0
0:2:58.887,318.533,40.555,0,0.000885,0,0
0:2:59.086,318.826,40.5963,0,0.000885,0,0
0:2:59.289,319.115,40.6308,0,0.000885,0,0
0:2:59.490,319.351,40.6584,0,0.000885,0,0
0:2:59.690,320.054,40.748,0,0.000885,0,0
0:2:59.893,319.823,40.7204,0,0.000885,0,0
0:3:0.094,320.761,40.8376,0,0.000885,0,0
0:3:0.294,321.228,40.8997,0,0.000885,0,0
0:3:0.495,321.464,40.9273,0,0.000885,0,0
0:3:0.694,321.873,40.9824,0,0.000885,0,0
0:3:0.895,322.518,41.0652,0,0.000885,0,0
0:3:1.096,322.87,41.1065,0,0.000885,0,0
0:3:1.300,323.221,41.1548,0,0.000885,0,0
0:3:1.497,323.399,41.1755,0,0.000885,0,0
0:3:1.695,323.808,41.2306,0,0.000885,0,0
0:3:1.892,324.16,41.272,0,0.000885,0,0
0:3:2.094,324.747,41.3479,0,0.000885,0,0
0:3:2.288,324.983,41.3754,0,0.000885,0,0
0:3:2.486,325.628,41.4582,0,0.000885,0,0
0:3:2.685,325.863,41.4926,0,0.000885,0,0
0:3:2.881,326.095,41.5202,0,0.000885,0,0
0:3:3.080,326.975,41.6305,0,0.000885,0,0
0:3:3.286,327.153,41.6512,0,0.000885,0,0
0:3:3.493,327.563,41.7064,0,0.000885,0,0
0:3:3.693,327.856,41.7409,0,0.000885,0,0
0:3:3.896,328.092,41.7753,0,0.000885,0,0
0:3:4.097,328.15,41.7822,0,0.000885,0,0
0:3:4.295,328.737,41.8581,0,0.000885,0,0
0:3:4.490,328.853,41.8719,0,0.000885,0,0
0:3:4.691,329.791,41.9891,0,0.000885,0,0
0:3:4.893,330.2,42.0442,0,0.000885,0,0
0:3:5.094,330.32,42.058,0,0.000885,0,0
0:3:5.296,330.378,42.0649,0,0.000885,0,0
0:3:5.496,330.614,42.0925,0,0.000885,0,0
0:3:5.695,331.433,42.2028,0,0.000885,0,0
0:3:5.895,331.904,42.258,0,0.000885,0,0
0:3:6.095,332.429,42.3269,0,0.000885,0,0
0:3:6.295,332.491,42.3338,0,0.000885,0,0
0:3:6.498,332.665,42.3545,0,0.000885,0,0
0:3:6.701,333.194,42.4234,0,0.000885,0,0
0:3:6.906,333.194,42.4234,0,0.000885,0,0
0:3:7.104,333.723,42.4924,0,0.000885,0,0
0:3:7.304,334.133,42.5407,0,0.000885,0,0
0:3:7.496,334.6,42.6027,0,0.000885,0,0
0:3:7.696,334.835,42.6303,0,0.000885,0,0
0:3:7.904,335.596,42.7268,0,0.000885,0,0
0:3:8.101,335.774,42.7544,0,0.000885,0,0
0:3:8.302,336.246,42.8095,0,0.000885,0,0
0:3:8.505,336.01,42.782,0,0.000885,0,0
0:3:8.705,336.655,42.8647,0,0.000885,0,0
0:3:8.903,336.655,42.8647,0,0.000885,0,0
0:3:9.096,336.77,42.8785,0,0.000885,0,0
0:3:9.296,336.655,42.8647,0,0.000885,0,0
0:3:9.503,337.3,42.9474,0,0.000885,0,0
0:3:9.701,337.415,42.9612,0,0.000885,0,0
0:3:9.901,337.415,42.9612,0,0.000885,0,0
0:3:10.104,337.473,42.9681,0,0.000885,0,0
0:3:10.303,337.242,42.9405,0,0.000885,0,0
0:3:10.504,337.006,42.9061,0,0.000885,0,0
0:3:10.704,336.828,42.8854,0,0.000885,0,0
0:3:10.904,336.068,42.7889,0,0.000885,0,0
0:3:11.103,335.774,42.7544,0,0.000885,0,0
0:3:11.304,335.187,42.6785,0,0.000885,0,0
0:3:11.508,334.19,42.5475,0,0.000885,0,0
0:3:11.704,331.259,42.1752,0,0.000885,0,0
0:3:11.905,329.324,41.9339,0,0.000885,0,0
0:3:12.107,325.685,41.4651,0,0.000885,0,0
0:3:12.307,323.928,41.2444,0,0.000885,0,0
0:3:12.505,319.76,40.7135,0,0.000885,0,0
0:3:12.697,316.829,40.3412,0,0.000885,0,0
0:3:12.897,305.571,38.9071,0,0.000885,0,0
0:3:13.092,297.239,37.8453,0,0.000885,0,0
0:3:13.290,288.739,36.7628,0,0.000885,0,0
0:3:13.489,274.073,34.8944,0,0.000885,0,0
0:3:13.691,267.093,34.0049,0,0.000885,0,0
0:3:13.891,255.484,32.5295,0,0.000885,0,0
0:3:14.087,250.204,31.8538,0,0.000885,0,0
0:3:14.283,240.057,30.5645,0,0.000885,0,0
0:3:14.373,240.057,30.5645,0,0.000885,0,0