File: DataFile2021-07-03_072047.csv
Test ID:,Date Tested:,Time:,Test Type:,Diameter Avg. (mm):,Cyl. Corr. Factor:,Height (mm):,Age (days):,Weight (kN):,Break Type:,Ramp Rate (MPa/s):,Load at Break (kN):,Stress at Break (MPa):
12,7/3/2021,07:20,Cylinder,100,1,200,0,3.6,3,0.25,1071.89,136.47
Sample Time,Load (kN),Stress (MPa),Long. Strain,Trans. Strain,Chan1 Deflection (mm),Chan2 Deflection (mm)
0:0:18.701,5.33787,0.682581,0,0.000885,0,0
0:0:19.198,11.1428,1.42032,0,0.000885,0,0
0:0:19.694,10.6757,1.35827,0,0.000885,0,0
0:0:20.191,10.0307,1.27553,0,0.000885,0,0
0:0:20.686,9.55923,1.22037,0,0.000885,0,0
0:0:21.181,9.55923,1.22037,0,0.000885,0,0
0:0:21.676,9.79498,1.24795,0,0.000885,0,0
0:0:22.172,11.0271,1.40653,0,0.000885,0,0
0:0:22.668,11.8456,1.50995,0,0.000885,0,0
0:0:23.164,13.4292,1.7099,0,0.000885,0,0
0:0:23.661,14.7192,1.87537,0,0.000885,0,0
0:0:24.160,15.5999,1.98569,0,0.000885,0,0
0:0:24.664,16.365,2.08222,0,0.000885,0,0
0:0:25.171,17.9486,2.28216,0,0.000885,0,0
0:0:25.673,18.5936,2.3649,0,0.000885,0,0
0:0:26.170,19.8257,2.52348,0,0.000885,0,0
0:0:26.669,21.1735,2.69585,0,0.000885,0,0
0:0:27.166,22.2278,2.82685,0,0.000885,0,0
0:0:27.664,22.8728,2.90959,0,0.000885,0,0
0:0:28.160,24.0471,3.06127,0,0.000885,0,0
0:0:28.659,25.0435,3.18538,0,0.000885,0,0
0:0:29.165,25.8664,3.29569,0,0.000885,0,0
0:0:29.672,26.6849,3.39912,0,0.000885,0,0
0:0:30.176,27.6235,3.51633,0,0.000885,0,0
0:0:30.674,28.4464,3.61975,0,0.000885,0,0
0:0:31.170,29.1492,3.70938,0,0.000885,0,0
0:0:31.670,30.4392,3.87485,0,0.000885,0,0
0:0:32.168,32.0227,4.0748,0,0.000885,0,0
0:0:32.665,32.6677,4.15754,0,0.000885,0,0
0:0:33.163,33.722,4.29543,0,0.000885,0,0
0:0:33.662,34.7806,4.42643,0,0.000885,0,0
0:0:34.163,35.6614,4.54365,0,0.000885,0,0
0:0:34.672,36.5377,4.65396,0,0.000885,0,0
0:0:35.175,37.89,4.82633,0,0.000885,0,0
0:0:35.678,38.5349,4.90907,0,0.000885,0,0
0:0:36.177,39.2378,4.9987,0,0.000885,0,0
0:0:36.674,40.4699,5.15038,0,0.000885,0,0
0:0:37.173,41.8756,5.32965,0,0.000885,0,0
0:0:37.670,42.6985,5.43307,0,0.000885,0,0
0:0:38.167,43.9306,5.59165,0,0.000885,0,0
0:0:38.663,44.0463,5.60544,0,0.000885,0,0
0:0:39.160,44.8692,5.71575,0,0.000885,0,0
0:0:39.666,46.3327,5.90191,0,0.000885,0,0
0:0:40.171,47.8006,6.08807,0,0.000885,0,0
0:0:40.675,48.0942,6.12254,0,0.000885,0,0
0:0:41.172,48.7392,6.20528,0,0.000885,0,0
0:0:41.671,50.2649,6.39833,0,0.000885,0,0
0:0:42.166,51.0255,6.49486,0,0.000885,0,0
0:0:42.665,52.1999,6.64655,0,0.000885,0,0
0:0:43.162,53.3698,6.79823,0,0.000885,0,0
0:0:43.660,54.4284,6.92923,0,0.000885,0,0
0:0:44.165,55.1313,7.01886,0,0.000885,0,0
0:0:44.671,56.1277,7.14986,0,0.000885,0,0
0:0:45.175,57.5956,7.33602,0,0.000885,0,0
0:0:45.673,58.3562,7.43255,0,0.000885,0,0
0:0:46.168,59.1213,7.52907,0,0.000885,0,0
0:0:46.667,60.3535,7.68076,0,0.000885,0,0
0:0:47.164,60.8784,7.74971,0,0.000885,0,0
0:0:47.662,61.5812,7.83934,0,0.000885,0,0
0:0:48.160,62.9913,8.0186,0,0.000885,0,0
0:0:48.657,63.872,8.12892,0,0.000885,0,0
0:0:49.162,64.7483,8.24613,0,0.000885,0,0
0:0:49.669,65.6869,8.36334,0,0.000885,0,0
0:0:50.175,66.919,8.52192,0,0.000885,0,0
0:0:50.673,68.5604,8.72876,0,0.000885,0,0
0:0:51.170,68.7962,8.75634,0,0.000885,0,0
0:0:51.668,70.144,8.92871,0,0.000885,0,0
0:0:52.166,70.9091,9.02524,0,0.000885,0,0
0:0:52.665,71.9055,9.15624,0,0.000885,0,0
0:0:53.164,72.7284,9.25966,0,0.000885,0,0
0:0:53.660,73.8405,9.40445,0,0.000885,0,0
0:0:54.160,74.5433,9.49408,0,0.000885,0,0
0:0:54.667,75.6598,9.63198,0,0.000885,0,0
0:0:55.172,76.4204,9.7285,0,0.000885,0,0
0:0:55.676,77.8884,9.91466,0,0.000885,0,0
0:0:56.173,78.7068,10.025,0,0.000885,0,0
0:0:56.671,79.8233,10.1629,0,0.000885,0,0
0:0:57.167,81.0555,10.3215,0,0.000885,0,0
0:0:57.665,81.7005,10.4042,0,0.000885,0,0
0:0:58.162,82.3455,10.4869,0,0.000885,0,0
0:0:58.660,83.7511,10.6662,0,0.000885,0,0
0:0:59.158,84.3961,10.7489,0,0.000885,0,0
0:0:59.664,86.1576,10.9696,0,0.000885,0,0
0:1:0.168,86.9183,11.0661,0,0.000885,0,0
0:1:0.673,87.3898,11.1281,0,0.000885,0,0
0:1:1.170,88.5641,11.2729,0,0.000885,0,0
0:1:1.669,89.6183,11.4108,0,0.000885,0,0
0:1:2.164,90.379,11.5073,0,0.000885,0,0
0:1:2.663,91.3754,11.6315,0,0.000885,0,0
0:1:3.159,92.434,11.7694,0,0.000885,0,0
0:1:3.657,93.4304,11.8935,0,0.000885,0,0
0:1:4.162,94.4847,12.0314,0,0.000885,0,0
0:1:4.670,95.1297,12.1141,0,0.000885,0,0
0:1:5.173,96.6554,12.3071,0,0.000885,0,0
0:1:5.671,97.2426,12.383,0,0.000885,0,0
0:1:6.169,98.6482,12.5622,0,0.000885,0,0
0:1:6.668,99.5868,12.6795,0,0.000885,0,0
0:1:7.165,100.468,12.7898,0,0.000885,0,0
0:1:7.661,101.233,12.8863,0,0.000885,0,0
0:1:8.160,102.345,13.0311,0,0.000885,0,0
0:1:8.658,103.225,13.1414,0,0.000885,0,0
0:1:9.160,104.164,13.2655,0,0.000885,0,0
0:1:9.667,105.045,13.3758,0,0.000885,0,0
0:1:10.171,105.805,13.4724,0,0.000885,0,0
0:1:10.674,107.447,13.6792,0,0.000885,0,0
0:1:11.174,108.328,13.7895,0,0.000885,0,0
0:1:11.671,109.324,13.9205,0,0.000885,0,0
0:1:12.169,110.498,14.0722,0,0.000885,0,0
0:1:12.665,111.085,14.1411,0,0.000885,0,0
0:1:13.162,112.082,14.2721,0,0.000885,0,0
0:1:13.660,113.43,14.4445,0,0.000885,0,0
0:1:14.158,114.017,14.5204,0,0.000885,0,0
0:1:14.664,115.071,14.6514,0,0.000885,0,0
0:1:15.169,116.188,14.7961,0,0.000885,0,0
0:1:15.671,117.068,14.9065,0,0.000885,0,0
0:1:16.172,118.065,15.0306,0,0.000885,0,0
0:1:16.669,118.474,15.0857,0,0.000885,0,0
0:1:17.165,120.058,15.2857,0,0.000885,0,0
0:1:17.662,120.996,15.4029,0,0.000885,0,0
0:1:18.159,121.819,15.5132,0,0.000885,0,0
0:1:18.658,122.58,15.6097,0,0.000885,0,0
0:1:19.164,123.692,15.7476,0,0.000885,0,0
0:1:19.670,124.75,15.8855,0,0.000885,0,0
0:1:20.175,125.511,15.982,0,0.000885,0,0
0:1:20.673,126.628,16.1199,0,0.000885,0,0
0:1:21.171,127.797,16.2716,0,0.000885,0,0
0:1:21.668,128.798,16.3957,0,0.000885,0,0
0:1:22.165,130.026,16.5543,0,0.000885,0,0
0:1:22.664,130.675,16.637,0,0.000885,0,0
0:1:23.162,131.258,16.7129,0,0.000885,0,0
0:1:23.659,132.784,16.9059,0,0.000885,0,0
0:1:24.166,133.78,17.0369,0,0.000885,0,0
0:1:24.672,134.897,17.1748,0,0.000885,0,0
0:1:25.175,135.19,17.2162,0,0.000885,0,0
0:1:25.672,136.423,17.3679,0,0.000885,0,0
0:1:26.171,137.944,17.5609,0,0.000885,0,0
0:1:26.669,138.237,17.6023,0,0.000885,0,0
0:1:27.167,139.296,17.7333,0,0.000885,0,0
0:1:27.664,140.586,17.8988,0,0.000885,0,0
0:1:28.162,141.289,17.9884,0,0.000885,0,0
0:1:28.660,142.463,18.1401,0,0.000885,0,0
0:1:29.162,143.402,18.2573,0,0.000885,0,0
0:1:29.669,144.34,18.3745,0,0.000885,0,0
0:1:30.173,145.573,18.5331,0,0.000885,0,0
0:1:30.674,146.217,18.6158,0,0.000885,0,0
0:1:31.172,147.739,18.8089,0,0.000885,0,0
0:1:31.670,148.446,18.8985,0,0.000885,0,0
0:1:32.166,149.736,19.064,0,0.000885,0,0
0:1:32.664,150.79,19.2019,0,0.000885,0,0
0:1:33.162,151.32,19.264,0,0.000885,0,0
0:1:33.661,152.258,19.3881,0,0.000885,0,0
0:1:34.158,153.37,19.526,0,0.000885,0,0
0:1:34.665,154.015,19.6087,0,0.000885,0,0
0:1:35.169,155.012,19.7397,0,0.000885,0,0
0:1:35.674,156.012,19.8638,0,0.000885,0,0
0:1:36.173,157.418,20.0431,0,0.000885,0,0
0:1:36.669,157.947,20.112,0,0.000885,0,0
0:1:37.165,158.944,20.2361,0,0.000885,0,0
0:1:37.661,160.527,20.4361,0,0.000885,0,0
0:1:38.161,161.052,20.505,0,0.000885,0,0
0:1:38.658,162.636,20.705,0,0.000885,0,0
0:1:39.154,163.223,20.7808,0,0.000885,0,0
0:1:39.660,163.868,20.8635,0,0.000885,0,0
0:1:40.165,164.807,20.9807,0,0.000885,0,0
0:1:40.670,166.039,21.1393,0,0.000885,0,0
0:1:41.167,167.213,21.291,0,0.000885,0,0
0:1:41.664,167.974,21.3875,0,0.000885,0,0
0:1:42.163,169.326,21.5599,0,0.000885,0,0
0:1:42.658,170.144,21.6633,0,0.000885,0,0
0:1:43.156,171.141,21.7874,0,0.000885,0,0
0:1:43.653,171.492,21.8357,0,0.000885,0,0
0:1:44.160,173.369,22.077,0,0.000885,0,0
0:1:44.665,173.783,22.1253,0,0.000885,0,0
0:1:45.170,174.78,22.2563,0,0.000885,0,0
0:1:45.669,175.776,22.3804,0,0.000885,0,0
0:1:46.166,177.244,22.5665,0,0.000885,0,0
0:1:46.662,177.533,22.6079,0,0.000885,0,0
0:1:47.160,179.001,22.7941,0,0.000885,0,0
0:1:47.658,180.175,22.9389,0,0.000885,0,0
0:1:48.155,181.056,23.0492,0,0.000885,0,0
0:1:48.653,181.817,23.1526,0,0.000885,0,0
0:1:49.160,182.991,23.2974,0,0.000885,0,0
0:1:49.665,183.578,23.3732,0,0.000885,0,0
0:1:50.170,184.632,23.5111,0,0.000885,0,0
0:1:50.669,185.687,23.6421,0,0.000885,0,0
0:1:51.165,186.567,23.7524,0,0.000885,0,0
0:1:51.663,187.857,23.9179,0,0.000885,0,0
0:1:52.160,188.618,24.0144,0,0.000885,0,0
0:1:52.659,189.325,24.1041,0,0.000885,0,0
0:1:53.156,190.379,24.242,0,0.000885,0,0
0:1:53.655,191.26,24.3523,0,0.000885,0,0
0:1:54.154,192.666,24.5315,0,0.000885,0,0
0:1:54.658,193.311,24.6143,0,0.000885,0,0
0:1:55.160,194.779,24.8004,0,0.000885,0,0
0:1:55.658,195.366,24.8763,0,0.000885,0,0
0:1:56.153,196.184,24.9797,0,0.000885,0,0
0:1:56.647,197.537,25.1521,0,0.000885,0,0
0:1:57.140,198.884,25.3244,0,0.000885,0,0
0:1:57.631,199.529,25.4072,0,0.000885,0,0
0:1:58.129,200.584,25.5382,0,0.000885,0,0
0:1:58.631,201.349,25.6347,0,0.000885,0,0
0:1:59.134,202.052,25.7243,0,0.000885,0,0
0:1:59.636,203.342,25.8898,0,0.000885,0,0
0:2:0.139,204.516,26.0415,0,0.000885,0,0
0:2:0.640,205.512,26.1656,0,0.000885,0,0
0:2:1.141,206.037,26.2346,0,0.000885,0,0
0:2:1.646,206.802,26.3311,0,0.000885,0,0
0:2:2.148,208.15,26.5034,0,0.000885,0,0
0:2:2.640,209.204,26.6344,0,0.000885,0,0
0:2:3.133,210.499,26.7999,0,0.000885,0,0
0:2:3.627,211.495,26.9309,0,0.000885,0,0
0:2:4.131,211.847,26.9723,0,0.000885,0,0
0:2:4.633,213.194,27.1447,0,0.000885,0,0
0:2:5.133,214.484,27.3101,0,0.000885,0,0
0:2:5.626,214.836,27.3515,0,0.000885,0,0
0:2:6.129,215.659,27.4618,0,0.000885,0,0
0:2:6.633,216.949,27.6204,0,0.000885,0,0
0:2:7.137,218.354,27.7997,0,0.000885,0,0
0:2:7.642,218.826,27.8617,0,0.000885,0,0
0:2:8.136,219.938,28.0065,0,0.000885,0,0
0:2:8.631,221.29,28.172,0,0.000885,0,0
0:2:9.130,221.873,28.2478,0,0.000885,0,0
0:2:9.633,223.167,28.4133,0,0.000885,0,0
0:2:10.133,224.044,28.5236,0,0.000885,0,0
0:2:10.630,224.924,28.6408,0,0.000885,0,0
0:2:11.135,225.863,28.758,0,0.000885,0,0
0:2:11.638,227.095,28.9166,0,0.000885,0,0
0:2:12.133,227.918,29.02,0,0.000885,0,0
0:2:12.626,228.385,29.0821,0,0.000885,0,0
0:2:13.130,230.32,29.3234,0,0.000885,0,0
0:2:13.641,230.614,29.3648,0,0.000885,0,0
0:2:14.138,231.437,29.4682,0,0.000885,0,0
0:2:14.643,232.669,29.6268,0,0.000885,0,0
0:2:15.143,234.31,29.8336,0,0.000885,0,0
0:2:15.643,234.541,29.8612,0,0.000885,0,0
0:2:16.137,235.836,30.0267,0,0.000885,0,0
0:2:16.640,236.77,30.1439,0,0.000885,0,0
0:2:17.143,237.944,30.2956,0,0.000885,0,0
0:2:17.649,238.825,30.4059,0,0.000885,0,0
0:2:18.141,239.648,30.5093,0,0.000885,0,0
0:2:18.648,240.76,30.6541,0,0.000885,0,0
0:2:19.139,241.463,30.7437,0,0.000885,0,0
0:2:19.640,243.046,30.9437,0,0.000885,0,0
0:2:20.142,243.398,30.9919,0,0.000885,0,0
0:2:20.642,243.985,31.0678,0,0.000885,0,0
0:2:21.137,245.275,31.2264,0,0.000885,0,0
0:2:21.641,246.859,31.4332,0,0.000885,0,0
0:2:22.144,247.503,31.5159,0,0.000885,0,0
0:2:22.650,248.678,31.6607,0,0.000885,0,0
0:2:23.140,249.265,31.7366,0,0.000885,0,0
0:2:23.634,250.613,31.9089,0,0.000885,0,0
0:2:24.138,251.671,32.0468,0,0.000885,0,0
0:2:24.641,252.254,32.1158,0,0.000885,0,0
0:2:25.141,253.544,32.2813,0,0.000885,0,0
0:2:25.635,254.309,32.3778,0,0.000885,0,0
0:2:26.138,255.128,32.4812,0,0.000885,0,0
0:2:26.640,255.835,32.5708,0,0.000885,0,0
0:2:27.148,257.65,32.8053,0,0.000885,0,0
0:2:27.650,258.473,32.9087,0,0.000885,0,0
0:2:28.143,259.411,33.0259,0,0.000885,0,0
0:2:28.637,260.466,33.1638,0,0.000885,0,0
0:2:29.143,261.462,33.2879,0,0.000885,0,0
0:2:29.648,262.521,33.4258,0,0.000885,0,0
0:2:30.149,263.633,33.5637,0,0.000885,0,0
0:2:30.645,263.691,33.5775,0,0.000885,0,0
0:2:31.152,265.043,33.7429,0,0.000885,0,0
0:2:31.644,266.275,33.9015,0,0.000885,0,0
0:2:32.139,266.8,33.9705,0,0.000885,0,0
0:2:32.640,268.09,34.1359,0,0.000885,0,0
0:2:33.143,268.855,34.2325,0,0.000885,0,0
0:2:33.638,270.203,34.4048,0,0.000885,0,0
0:2:34.132,270.906,34.4945,0,0.000885,0,0
0:2:34.634,271.964,34.6255,0,0.000885,0,0
0:2:35.136,273.254,34.7909,0,0.000885,0,0
0:2:35.634,273.779,34.8599,0,0.000885,0,0
0:2:36.131,275.305,35.0529,0,0.000885,0,0
0:2:36.625,276.128,35.1564,0,0.000885,0,0
0:2:37.115,276.715,35.2322,0,0.000885,0,0
0:2:37.612,278.178,35.4184,0,0.000885,0,0
0:2:38.106,278.766,35.4942,0,0.000885,0,0
0:2:38.599,279.646,35.6045,0,0.000885,0,0
0:2:39.094,280.465,35.7079,0,0.000885,0,0
0:2:39.596,282.111,35.9217,0,0.000885,0,0
0:2:40.099,282.929,36.0251,0,0.000885,0,0
0:2:40.601,284.513,36.2251,0,0.000885,0,0
0:2:41.095,284.748,36.2526,0,0.000885,0,0
0:2:41.586,285.393,36.3354,0,0.000885,0,0
0:2:42.082,286.39,36.4664,0,0.000885,0,0
0:2:42.574,287.622,36.6181,0,0.000885,0,0
0:2:43.069,288.031,36.6732,0,0.000885,0,0
0:2:43.562,289.384,36.8456,0,0.000885,0,0
0:2:44.064,290.789,37.0248,0,0.000885,0,0
0:2:44.567,291.55,37.1214,0,0.000885,0,0
0:2:45.065,292.902,37.2937,0,0.000885,0,0
0:2:45.560,293.898,37.4178,0,0.000885,0,0
0:2:46.055,294.366,37.4799,0,0.000885,0,0
0:2:46.556,295.598,37.6385,0,0.000885,0,0
0:2:47.051,296.185,37.7143,0,0.000885,0,0
0:2:47.553,297.239,37.8453,0,0.000885,0,0
0:2:48.047,298.062,37.9487,0,0.000885,0,0
0:2:48.550,299.703,38.1625,0,0.000885,0,0
0:2:49.054,300.7,38.2866,0,0.000885,0,0
0:2:49.555,300.993,38.3211,0,0.000885,0,0
0:2:50.054,302.813,38.5555,0,0.000885,0,0
0:2:50.547,303.4,38.6313,0,0.000885,0,0
0:2:51.051,303.925,38.7003,0,0.000885,0,0
0:2:51.546,304.983,38.8313,0,0.000885,0,0
0:2:52.038,306.095,38.9761,0,0.000885,0,0
0:2:52.534,306.976,39.0864,0,0.000885,0,0
0:2:53.028,308.151,39.2381,0,0.000885,0,0
0:2:53.522,309.325,39.3829,0,0.000885,0,0
0:2:54.019,310.321,39.5139,0,0.000885,0,0
0:2:54.524,311.024,39.6035,0,0.000885,0,0
0:2:55.023,312.078,39.7345,0,0.000885,0,0
0:2:55.521,312.781,39.8241,0,0.000885,0,0
0:2:56.017,313.84,39.962,0,0.000885,0,0
0:2:56.511,314.894,40.093,0,0.000885,0,0
0:2:57.005,315.597,40.1826,0,0.000885,0,0
0:2:57.499,316.829,40.3412,0,0.000885,0,0
0:2:57.993,318.177,40.5136,0,0.000885,0,0
0:2:58.487,318.826,40.5963,0,0.000885,0,0
0:2:58.980,320.232,40.7756,0,0.000885,0,0
0:2:59.484,320.526,40.8101,0,0.000885,0,0
0:2:59.986,321.638,40.9549,0,0.000885,0,0
0:3:0.488,322.638,41.079,0,0.000885,0,0
0:3:0.983,324.16,41.272,0,0.000885,0,0
0:3:1.475,324.573,41.3272,0,0.000885,0,0
0:3:1.968,325.218,41.4099,0,0.000885,0,0
0:3:2.463,326.682,41.5961,0,0.000885,0,0
0:3:2.956,327.505,41.6995,0,0.000885,0,0
0:3:3.448,328.737,41.8581,0,0.000885,0,0
0:3:3.952,330.027,42.0235,0,0.000885,0,0
0:3:4.455,330.73,42.1132,0,0.000885,0,0
0:3:4.954,331.433,42.2028,0,0.000885,0,0
0:3:5.448,332.665,42.3545,0,0.000885,0,0
0:3:5.953,333.603,42.4786,0,0.000885,0,0
0:3:6.445,334.075,42.5338,0,0.000885,0,0
0:3:6.948,335.013,42.6579,0,0.000885,0,0
0:3:7.454,336.535,42.8509,0,0.000885,0,0
0:3:7.946,337.415,42.9612,0,0.000885,0,0
0:3:8.440,338.532,43.106,0,0.000885,0,0
0:3:8.946,339.644,43.2439,0,0.000885,0,0
0:3:9.451,340.289,43.3267,0,0.000885,0,0
0:3:9.952,341.054,43.4232,0,0.000885,0,0
0:3:10.452,342.402,43.5956,0,0.000885,0,0
0:3:10.945,343.163,43.6921,0,0.000885,0,0
0:3:11.438,344.337,43.8438,0,0.000885,0,0
0:3:11.942,345.453,43.9817,0,0.000885,0,0
0:3:12.443,346.156,44.0713,0,0.000885,0,0
0:3:12.937,347.095,44.1954,0,0.000885,0,0
0:3:13.440,348.62,44.3884,0,0.000885,0,0
0:3:13.935,349.439,44.4919,0,0.000885,0,0
0:3:14.437,349.848,44.547,0,0.000885,0,0
0:3:14.938,350.907,44.678,0,0.000885,0,0
0:3:15.438,352.49,44.878,0,0.000885,0,0
0:3:15.943,353.193,44.9676,0,0.000885,0,0
0:3:16.444,354.132,45.0917,0,0.000885,0,0
0:3:16.947,354.661,45.1538,0,0.000885,0,0
0:3:17.450,355.715,45.2917,0,0.000885,0,0
0:3:17.955,357.005,45.4571,0,0.000885,0,0
0:3:18.459,358.411,45.6364,0,0.000885,0,0
0:3:18.962,359.585,45.7812,0,0.000885,0,0
0:3:19.463,360.057,45.8432,0,0.000885,0,0
0:3:19.964,361.053,45.9673,0,0.000885,0,0
0:3:20.458,362.107,46.1052,0,0.000885,0,0
0:3:20.947,362.873,46.2018,0,0.000885,0,0
0:3:21.443,363.869,46.3259,0,0.000885,0,0
0:3:21.937,364.808,46.45,0,0.000885,0,0
0:3:22.449,365.804,46.5741,0,0.000885,0,0
0:3:22.954,366.743,46.6982,0,0.000885,0,0
0:3:23.447,368.09,46.8637,0,0.000885,0,0
0:3:23.945,368.851,46.9671,0,0.000885,0,0
0:3:24.449,369.674,47.0705,0,0.000885,0,0
0:3:24.949,370.612,47.1877,0,0.000885,0,0
0:3:25.447,371.667,47.3256,0,0.000885,0,0
0:3:25.949,372.605,47.4428,0,0.000885,0,0
0:3:26.455,373.895,47.6083,0,0.000885,0,0
0:3:26.959,374.718,47.7117,0,0.000885,0,0
0:3:27.451,375.305,47.7876,0,0.000885,0,0
0:3:27.945,376.538,47.9392,0,0.000885,0,0
0:3:28.438,378.179,48.153,0,0.000885,0,0
0:3:28.954,378.646,48.2081,0,0.000885,0,0
0:3:29.458,379.878,48.3667,0,0.000885,0,0
0:3:29.959,380.581,48.4564,0,0.000885,0,0
0:3:30.459,381.52,48.5736,0,0.000885,0,0
0:3:30.954,382.578,48.7115,0,0.000885,0,0
0:3:31.455,382.987,48.7666,0,0.000885,0,0
0:3:31.959,384.571,48.9666,0,0.000885,0,0
0:3:32.451,385.158,49.0424,0,0.000885,0,0
0:3:32.944,386.626,49.2286,0,0.000885,0,0
0:3:33.457,387.738,49.3665,0,0.000885,0,0
0:3:33.948,388.267,49.4354,0,0.000885,0,0
0:3:34.454,389.557,49.6009,0,0.000885,0,0
0:3:34.955,390.847,49.7664,0,0.000885,0,0
0:3:35.452,391.492,49.8491,0,0.000885,0,0
0:3:35.945,392.725,50.0008,0,0.000885,0,0
0:3:36.447,393.37,50.0835,0,0.000885,0,0
0:3:36.949,394.424,50.2214,0,0.000885,0,0
0:3:37.444,395.362,50.3386,0,0.000885,0,0
0:3:37.945,396.359,50.4627,0,0.000885,0,0
0:3:38.448,397.711,50.6351,0,0.000885,0,0
0:3:38.950,398.356,50.7178,0,0.000885,0,0
0:3:39.455,399.704,50.8902,0,0.000885,0,0
0:3:39.956,400.7,51.0212,0,0.000885,0,0
0:3:40.448,401.523,51.1246,0,0.000885,0,0
0:3:40.940,402.168,51.2074,0,0.000885,0,0
0:3:41.444,402.813,51.2901,0,0.000885,0,0
0:3:41.939,404.103,51.4487,0,0.000885,0,0
0:3:42.442,404.922,51.559,0,0.000885,0,0
0:3:42.945,405.687,51.6555,0,0.000885,0,0
0:3:43.440,407.035,51.8279,0,0.000885,0,0
0:3:43.945,408.089,51.9589,0,0.000885,0,0
0:3:44.451,409.614,52.1519,0,0.000885,0,0
0:3:44.951,410.789,52.3036,0,0.000885,0,0
0:3:45.449,411.025,52.3312,0,0.000885,0,0
0:3:45.942,411.901,52.4484,0,0.000885,0,0
0:3:46.458,413.427,52.6415,0,0.000885,0,0
0:3:46.951,414.423,52.7656,0,0.000885,0,0
0:3:47.442,414.837,52.8207,0,0.000885,0,0
0:3:47.947,415.833,52.9448,0,0.000885,0,0
0:3:48.450,417.065,53.1034,0,0.000885,0,0
0:3:48.953,417.417,53.1448,0,0.000885,0,0
0:3:49.457,418.822,53.3241,0,0.000885,0,0
0:3:49.960,419.761,53.4482,0,0.000885,0,0
0:3:50.459,420.29,53.5102,0,0.000885,0,0
0:3:50.961,421.58,53.6757,0,0.000885,0,0
0:3:51.453,422.692,53.8205,0,0.000885,0,0
0:3:51.945,423.048,53.8618,0,0.000885,0,0
0:3:52.440,424.454,54.0411,0,0.000885,0,0
0:3:52.952,425.922,54.2273,0,0.000885,0,0
0:3:53.445,427.034,54.3721,0,0.000885,0,0
0:3:53.950,428.382,54.5444,0,0.000885,0,0
0:3:54.451,428.382,54.5444,0,0.000885,0,0
0:3:54.954,429.792,54.7237,0,0.000885,0,0
0:3:55.458,430.317,54.7926,0,0.000885,0,0
0:3:55.948,431.433,54.9305,0,0.000885,0,0
0:3:56.443,432.839,55.1098,0,0.000885,0,0
0:3:56.936,434.071,55.2684,0,0.000885,0,0
0:3:57.430,435.067,55.3925,0,0.000885,0,0
0:3:57.924,435.774,55.4821,0,0.000885,0,0
0:3:58.418,436.535,55.5786,0,0.000885,0,0
0:3:58.919,437.652,55.7234,0,0.000885,0,0
0:3:59.423,438.648,55.8475,0,0.000885,0,0
0:3:59.923,439.173,55.9165,0,0.000885,0,0
0:4:0.419,439.88,56.0061,0,0.000885,0,0
0:4:0.914,440.992,56.1509,0,0.000885,0,0
0:4:1.408,442.927,56.3922,0,0.000885,0,0
0:4:1.902,442.985,56.406,0,0.000885,0,0
0:4:2.394,444.395,56.5853,0,0.000885,0,0
0:4:2.890,445.449,56.7163,0,0.000885,0,0
0:4:3.384,446.214,56.8128,0,0.000885,0,0
0:4:3.879,447.327,56.9576,0,0.000885,0,0
0:4:4.383,447.914,57.0334,0,0.000885,0,0
0:4:4.883,449.03,57.1713,0,0.000885,0,0
0:4:5.385,450.258,57.3299,0,0.000885,0,0
0:4:5.878,451.668,57.5092,0,0.000885,0,0
0:4:6.372,452.371,57.5988,0,0.000885,0,0
0:4:6.865,453.954,57.7988,0,0.000885,0,0
0:4:7.355,453.781,57.7781,0,0.000885,0,0
0:4:7.861,455.129,57.9504,0,0.000885,0,0
0:4:8.364,456.067,58.0676,0,0.000885,0,0
0:4:8.855,456.828,58.1642,0,0.000885,0,0
0:4:9.359,457.064,58.1918,0,0.000885,0,0
0:4:9.863,458.763,58.4124,0,0.000885,0,0
0:4:10.363,460.289,58.6054,0,0.000885,0,0
0:4:10.854,460.64,58.6537,0,0.000885,0,0
0:4:11.349,461.757,58.7916,0,0.000885,0,0
0:4:11.852,463.047,58.9571,0,0.000885,0,0
0:4:12.354,464.101,59.0881,0,0.000885,0,0
0:4:12.860,464.924,59.1984,0,0.000885,0,0
0:4:13.353,466.094,59.3432,0,0.000885,0,0
0:4:13.855,466.681,59.419,0,0.000885,0,0
0:4:14.360,467.561,59.5293,0,0.000885,0,0
0:4:14.860,469.087,59.7293,0,0.000885,0,0
0:4:15.363,470.141,59.8603,0,0.000885,0,0
0:4:15.867,470.671,59.9292,0,0.000885,0,0
0:4:16.360,471.961,60.0947,0,0.000885,0,0
0:4:16.854,473.135,60.2395,0,0.000885,0,0
0:4:17.347,473.251,60.2533,0,0.000885,0,0
0:4:17.851,474.425,60.405,0,0.000885,0,0
0:4:18.366,475.773,60.5773,0,0.000885,0,0
0:4:18.863,476.534,60.6739,0,0.000885,0,0
0:4:19.367,477.944,60.8531,0,0.000885,0,0
0:4:19.868,479.118,61.0048,0,0.000885,0,0
0:4:20.366,479.349,61.0324,0,0.000885,0,0
0:4:20.861,480.875,61.2254,0,0.000885,0,0
0:4:21.363,481.636,61.322,0,0.000885,0,0
0:4:21.855,482.574,61.4461,0,0.000885,0,0
0:4:22.348,482.752,61.4668,0,0.000885,0,0
0:4:22.842,484.278,61.6598,0,0.000885,0,0
0:4:23.355,486.213,61.908,0,0.000885,0,0
0:4:23.859,486.213,61.908,0,0.000885,0,0
0:4:24.362,486.974,62.0046,0,0.000885,0,0
0:4:24.865,488.793,62.2321,0,0.000885,0,0
0:4:25.364,489.086,62.2734,0,0.000885,0,0
0:4:25.856,490.203,62.4113,0,0.000885,0,0
0:4:26.349,491.786,62.6182,0,0.000885,0,0
0:4:26.851,492.311,62.6802,0,0.000885,0,0
0:4:27.346,492.663,62.7285,0,0.000885,0,0
0:4:27.856,494.424,62.9491,0,0.000885,0,0
0:4:28.350,495.127,63.0388,0,0.000885,0,0
0:4:28.844,495.772,63.1215,0,0.000885,0,0
0:4:29.346,497.413,63.3352,0,0.000885,0,0
0:4:29.848,498.294,63.4456,0,0.000885,0,0
0:4:30.348,499.82,63.6386,0,0.000885,0,0
0:4:30.851,500.581,63.7351,0,0.000885,0,0
0:4:31.345,500.932,63.7834,0,0.000885,0,0
0:4:31.837,501.991,63.9144,0,0.000885,0,0
0:4:32.330,503.045,64.0523,0,0.000885,0,0
0:4:32.824,503.806,64.1488,0,0.000885,0,0
0:4:33.316,505.273,64.335,0,0.000885,0,0
0:4:33.819,506.27,64.4591,0,0.000885,0,0
0:4:34.322,506.506,64.4936,0,0.000885,0,0
0:4:34.823,508.089,64.6935,0,0.000885,0,0
0:4:35.317,508.676,64.7693,0,0.000885,0,0
0:4:35.812,510.727,65.0314,0,0.000885,0,0
0:4:36.305,510.611,65.0107,0,0.000885,0,0
0:4:36.800,512.253,65.2244,0,0.000885,0,0
0:4:37.293,512.84,65.3002,0,0.000885,0,0
0:4:37.787,513.427,65.3692,0,0.000885,0,0
0:4:38.281,514.891,65.5554,0,0.000885,0,0
0:4:38.775,515.771,65.6726,0,0.000885,0,0
0:4:39.279,516.888,65.8105,0,0.000885,0,0
0:4:39.780,518,65.9552,0,0.000885,0,0
0:4:40.279,518.823,66.0587,0,0.000885,0,0
0:4:40.773,519.641,66.1621,0,0.000885,0,0
0:4:41.265,520.58,66.2793,0,0.000885,0,0
0:4:41.767,521.99,66.4586,0,0.000885,0,0
0:4:42.258,522.106,66.4792,0,0.000885,0,0
0:4:42.761,523.747,66.6861,0,0.000885,0,0
0:4:43.253,524.454,66.7757,0,0.000885,0,0
0:4:43.745,524.921,66.8378,0,0.000885,0,0
0:4:44.248,526.741,67.0653,0,0.000885,0,0
0:4:44.749,527.443,67.1549,0,0.000885,0,0
0:4:45.249,528.733,67.3204,0,0.000885,0,0
0:4:45.764,528.791,67.3273,0,0.000885,0,0
0:4:46.256,530.317,67.5204,0,0.000885,0,0
0:4:46.759,531.313,67.6514,0,0.000885,0,0
0:4:47.264,532.666,67.8237,0,0.000885,0,0
0:4:47.767,533.542,67.934,0,0.000885,0,0
0:4:48.258,534.658,68.0719,0,0.000885,0,0
0:4:48.759,535.419,68.1685,0,0.000885,0,0
0:4:49.264,536.536,68.3133,0,0.000885,0,0
0:4:49.764,536.945,68.3684,0,0.000885,0,0
0:4:50.267,538.293,68.5408,0,0.000885,0,0
0:4:50.762,539.351,68.6718,0,0.000885,0,0
0:4:51.264,540.406,68.8097,0,0.000885,0,0
0:4:51.756,540.641,68.8373,0,0.000885,0,0
0:4:52.250,542.047,69.0165,0,0.000885,0,0
0:4:52.743,543.163,69.1544,0,0.000885,0,0
0:4:53.235,543.866,69.244,0,0.000885,0,0
0:4:53.730,545.098,69.4026,0,0.000885,0,0
0:4:54.235,546.21,69.5474,0,0.000885,0,0
0:4:54.734,546.798,69.6233,0,0.000885,0,0
0:4:55.234,548.501,69.837,0,0.000885,0,0
0:4:55.726,549.44,69.9542,0,0.000885,0,0
0:4:56.221,550.143,70.0438,0,0.000885,0,0
0:4:56.711,550.374,70.0783,0,0.000885,0,0
0:4:57.208,551.375,70.2024,0,0.000885,0,0
0:4:57.700,552.896,70.3955,0,0.000885,0,0
0:4:58.194,553.835,70.5196,0,0.000885,0,0
0:4:58.687,555.303,70.7057,0,0.000885,0,0
0:4:59.190,555.89,70.7747,0,0.000885,0,0
0:4:59.692,556.593,70.8643,0,0.000885,0,0
0:5:0.193,558.003,71.0436,0,0.000885,0,0
0:5:0.687,559.466,71.2366,0,0.000885,0,0
0:5:1.181,559.938,71.2918,0,0.000885,0,0
0:5:1.674,560.814,71.4021,0,0.000885,0,0
0:5:2.170,562.166,71.5745,0,0.000885,0,0
0:5:2.664,562.34,71.6021,0,0.000885,0,0
0:5:3.166,563.456,71.7399,0,0.000885,0,0
0:5:3.669,564.51,71.8778,0,0.000885,0,0
0:5:4.172,565.565,72.0088,0,0.000885,0,0
0:5:4.672,566.566,72.1398,0,0.000885,0,0
0:5:5.167,567.268,72.2295,0,0.000885,0,0
0:5:5.670,568.265,72.3536,0,0.000885,0,0
0:5:6.164,569.67,72.5328,0,0.000885,0,0
0:5:6.669,571.196,72.7259,0,0.000885,0,0
0:5:7.160,571.548,72.7742,0,0.000885,0,0
0:5:7.666,572.313,72.8707,0,0.000885,0,0
0:5:8.159,573.545,73.0224,0,0.000885,0,0
0:5:8.656,574.483,73.1465,0,0.000885,0,0
0:5:9.160,575.128,73.2292,0,0.000885,0,0
0:5:9.661,576.65,73.4223,0,0.000885,0,0
0:5:10.161,577.651,73.5464,0,0.000885,0,0
0:5:10.666,578.411,73.6429,0,0.000885,0,0
0:5:11.159,579.528,73.7877,0,0.000885,0,0
0:5:11.653,580.173,73.8704,0,0.000885,0,0
0:5:12.148,580.818,73.9532,0,0.000885,0,0
0:5:12.651,581.872,74.0842,0,0.000885,0,0
0:5:13.146,583.104,74.2427,0,0.000885,0,0
0:5:13.649,583.807,74.3324,0,0.000885,0,0
0:5:14.153,584.803,74.4565,0,0.000885,0,0
0:5:14.654,586.796,74.7116,0,0.000885,0,0
0:5:15.154,587.735,74.8357,0,0.000885,0,0
0:5:15.660,588.442,74.9253,0,0.000885,0,0
0:5:16.156,589.323,75.0356,0,0.000885,0,0
0:5:16.652,590.67,75.208,0,0.000885,0,0
0:5:17.150,590.848,75.2287,0,0.000885,0,0
0:5:17.655,592.023,75.3804,0,0.000885,0,0
0:5:18.150,593.371,75.5528,0,0.000885,0,0
0:5:18.647,594.016,75.6355,0,0.000885,0,0
0:5:19.152,595.426,75.8148,0,0.000885,0,0
0:5:19.656,595.955,75.8768,0,0.000885,0,0
0:5:20.159,597.067,76.0216,0,0.000885,0,0
0:5:20.667,597.716,76.1043,0,0.000885,0,0
0:5:21.161,598.655,76.2215,0,0.000885,0,0
0:5:21.660,599.651,76.3525,0,0.000885,0,0
0:5:22.154,601.297,76.5594,0,0.000885,0,0
0:5:22.650,601.764,76.6214,0,0.000885,0,0
0:5:23.147,603.232,76.8076,0,0.000885,0,0
0:5:23.650,604.229,76.9317,0,0.000885,0,0
0:5:24.154,605.052,77.0351,0,0.000885,0,0
0:5:24.656,606.226,77.1868,0,0.000885,0,0
0:5:25.153,606.813,77.2627,0,0.000885,0,0
0:5:25.651,607.578,77.3592,0,0.000885,0,0
0:5:26.147,608.339,77.4557,0,0.000885,0,0
0:5:26.643,609.22,77.566,0,0.000885,0,0
0:5:27.159,611.155,77.8142,0,0.000885,0,0
0:5:27.655,611.742,77.8901,0,0.000885,0,0
0:5:28.151,612.449,77.9797,0,0.000885,0,0
0:5:28.655,613.917,78.1659,0,0.000885,0,0
0:5:29.160,614.384,78.2279,0,0.000885,0,0
0:5:29.663,615.794,78.4072,0,0.000885,0,0
0:5:30.160,616.323,78.4692,0,0.000885,0,0
0:5:30.657,618.023,78.6899,0,0.000885,0,0
0:5:31.174,618.672,78.7726,0,0.000885,0,0
0:5:31.670,620.14,78.9588,0,0.000885,0,0
0:5:32.169,620.785,79.0415,0,0.000885,0,0
0:5:32.662,621.016,79.0691,0,0.000885,0,0
0:5:33.160,622.426,79.2483,0,0.000885,0,0
0:5:33.659,623.601,79.4,0,0.000885,0,0
0:5:34.164,624.717,79.5379,0,0.000885,0,0
0:5:34.669,625.42,79.6344,0,0.000885,0,0
0:5:35.170,626.359,79.7517,0,0.000885,0,0
0:5:35.664,627.359,79.8758,0,0.000885,0,0
0:5:36.162,628.356,80.0068,0,0.000885,0,0
0:5:36.659,629.646,80.1722,0,0.000885,0,0
0:5:37.167,630.647,80.2963,0,0.000885,0,0
0:5:37.673,631.759,80.4411,0,0.000885,0,0
0:5:38.170,632.052,80.4756,0,0.000885,0,0
0:5:38.664,633.169,80.6204,0,0.000885,0,0
0:5:39.173,634.401,80.7721,0,0.000885,0,0
0:5:39.677,635.282,80.8893,0,0.000885,0,0
0:5:40.179,636.572,81.0479,0,0.000885,0,0
0:5:40.676,637.101,81.1168,0,0.000885,0,0
0:5:41.172,638.511,81.2961,0,0.000885,0,0
0:5:41.669,638.805,81.3375,0,0.000885,0,0
0:5:42.162,640.215,81.5167,0,0.000885,0,0
0:5:42.658,640.74,81.5788,0,0.000885,0,0
0:5:43.154,641.914,81.7305,0,0.000885,0,0
0:5:43.659,643.208,81.8959,0,0.000885,0,0
0:5:44.164,644.205,82.02,0,0.000885,0,0
0:5:44.669,645.437,82.1786,0,0.000885,0,0
0:5:45.175,646.024,82.2545,0,0.000885,0,0
0:5:45.672,647.314,82.4199,0,0.000885,0,0
0:5:46.169,648.137,82.5233,0,0.000885,0,0
0:5:46.674,649.076,82.6406,0,0.000885,0,0
0:5:47.170,650.25,82.7922,0,0.000885,0,0
0:5:47.664,650.837,82.8681,0,0.000885,0,0
0:5:48.161,651.896,82.9991,0,0.000885,0,0
0:5:48.665,652.714,83.1094,0,0.000885,0,0
0:5:49.174,653.831,83.2473,0,0.000885,0,0
0:5:49.676,655.414,83.4472,0,0.000885,0,0
0:5:50.175,656.179,83.5507,0,0.000885,0,0
0:5:50.670,657.176,83.6748,0,0.000885,0,0
0:5:51.165,657.999,83.7782,0,0.000885,0,0
0:5:51.661,658.35,83.8265,0,0.000885,0,0
0:5:52.159,659.115,83.923,0,0.000885,0,0
0:5:52.664,660.935,84.1505,0,0.000885,0,0
0:5:53.162,662.345,84.3298,0,0.000885,0,0
0:5:53.661,662.87,84.3987,0,0.000885,0,0
0:5:54.170,664.044,84.5504,0,0.000885,0,0
0:5:54.674,664.867,84.6538,0,0.000885,0,0
0:5:55.177,665.983,84.7986,0,0.000885,0,0
0:5:55.673,666.45,84.8538,0,0.000885,0,0
0:5:56.177,668.038,85.0537,0,0.000885,0,0
0:5:56.674,668.915,85.1709,0,0.000885,0,0
0:5:57.169,670.031,85.3088,0,0.000885,0,0
0:5:57.665,670.854,85.4191,0,0.000885,0,0
0:5:58.172,671.793,85.5364,0,0.000885,0,0
0:5:58.666,672.673,85.6467,0,0.000885,0,0
0:5:59.174,673.732,85.7846,0,0.000885,0,0
0:5:59.677,674.435,85.8742,0,0.000885,0,0
0:6:0.179,675.725,86.0328,0,0.000885,0,0
0:6:0.676,676.899,86.1845,0,0.000885,0,0
0:6:1.171,677.602,86.2741,0,0.000885,0,0
0:6:1.665,678.074,86.3362,0,0.000885,0,0
0:6:2.160,679.364,86.5016,0,0.000885,0,0
0:6:2.666,680.422,86.6326,0,0.000885,0,0
0:6:3.162,681.303,86.7429,0,0.000885,0,0
0:6:3.665,681.948,86.8257,0,0.000885,0,0
0:6:4.174,683.18,86.9843,0,0.000885,0,0
0:6:4.676,684.59,87.1635,0,0.000885,0,0
0:6:5.173,685.88,87.329,0,0.000885,0,0
0:6:5.670,686.997,87.4738,0,0.000885,0,0
0:6:6.165,687.17,87.4945,0,0.000885,0,0
0:6:6.660,688.287,87.6324,0,0.000885,0,0
0:6:7.158,689.288,87.7634,0,0.000885,0,0
0:6:7.654,689.99,87.853,0,0.000885,0,0
0:6:8.152,690.987,87.9771,0,0.000885,0,0
0:6:8.651,692.103,88.1219,0,0.000885,0,0
0:6:9.158,693.042,88.2391,0,0.000885,0,0
0:6:9.661,694.568,88.4322,0,0.000885,0,0
0:6:10.163,694.803,88.4666,0,0.000885,0,0
0:6:10.660,696.271,88.6528,0,0.000885,0,0
0:6:11.156,697.268,88.7769,0,0.000885,0,0
0:6:11.652,698.148,88.8941,0,0.000885,0,0
0:6:12.156,699.501,89.0596,0,0.000885,0,0
0:6:12.653,699.91,89.1147,0,0.000885,0,0
0:6:13.150,700.906,89.2457,0,0.000885,0,0
0:6:13.646,702.138,89.3974,0,0.000885,0,0
0:6:14.152,702.668,89.4664,0,0.000885,0,0
0:6:14.655,703.549,89.5767,0,0.000885,0,0
0:6:15.159,705.074,89.7697,0,0.000885,0,0
0:6:15.657,705.897,89.8801,0,0.000885,0,0
0:6:16.153,706.956,90.0111,0,0.000885,0,0
0:6:16.648,707.952,90.1421,0,0.000885,0,0
0:6:17.144,709.242,90.3006,0,0.000885,0,0
0:6:17.641,710.181,90.4247,0,0.000885,0,0
0:6:18.138,710.652,90.4799,0,0.000885,0,0
0:6:18.644,711.942,90.6454,0,0.000885,0,0
0:6:19.147,712.707,90.7419,0,0.000885,0,0
0:6:19.650,713.526,90.8522,0,0.000885,0,0
0:6:20.156,714.527,90.9763,0,0.000885,0,0
0:6:20.654,716.052,91.1694,0,0.000885,0,0
0:6:21.150,716.64,91.2452,0,0.000885,0,0
0:6:21.646,718.165,91.4383,0,0.000885,0,0
0:6:22.143,718.868,91.5279,0,0.000885,0,0
0:6:22.639,719.282,91.5831,0,0.000885,0,0
0:6:23.137,720.394,91.721,0,0.000885,0,0
0:6:23.637,721.275,91.8382,0,0.000885,0,0
0:6:24.142,722.863,92.0381,0,0.000885,0,0
0:6:24.645,723.272,92.0933,0,0.000885,0,0
0:6:25.144,724.624,92.2587,0,0.000885,0,0
0:6:25.642,725.794,92.4104,0,0.000885,0,0
0:6:26.138,726.444,92.4932,0,0.000885,0,0
0:6:26.633,727.618,92.6449,0,0.000885,0,0
0:6:27.131,728.205,92.7207,0,0.000885,0,0
0:6:27.625,729.144,92.8379,0,0.000885,0,0
0:6:28.121,730.669,93.031,0,0.000885,0,0
0:6:28.617,731.199,93.0999,0,0.000885,0,0
0:6:29.125,732.369,93.2516,0,0.000885,0,0
0:6:29.628,732.956,93.3205,0,0.000885,0,0
0:6:30.133,734.659,93.5412,0,0.000885,0,0
0:6:30.629,735.362,93.6308,0,0.000885,0,0
0:6:31.124,736.363,93.7549,0,0.000885,0,0
0:6:31.622,737.831,93.9411,0,0.000885,0,0
0:6:32.116,738.476,94.0238,0,0.000885,0,0
0:6:32.611,738.712,94.0583,0,0.000885,0,0
0:6:33.107,740.531,94.2858,0,0.000885,0,0
0:6:33.603,741.47,94.4099,0,0.000885,0,0
0:6:34.109,742.293,94.5133,0,0.000885,0,0
0:6:34.615,743.289,94.6374,0,0.000885,0,0
0:6:35.117,744.05,94.734,0,0.000885,0,0
0:6:35.613,744.637,94.8098,0,0.000885,0,0
0:6:36.110,746.167,95.0029,0,0.000885,0,0
0:6:36.606,747.221,95.1408,0,0.000885,0,0
0:6:37.101,747.573,95.1821,0,0.000885,0,0
0:6:37.597,749.334,95.4097,0,0.000885,0,0
0:6:38.094,750.33,95.5338,0,0.000885,0,0
0:6:38.599,750.918,95.6096,0,0.000885,0,0
0:6:39.104,751.861,95.7268,0,0.000885,0,0
0:6:39.606,753.031,95.8785,0,0.000885,0,0
0:6:40.103,753.618,95.9543,0,0.000885,0,0
0:6:40.599,754.561,96.0715,0,0.000885,0,0
0:6:41.097,755.731,96.2232,0,0.000885,0,0
0:6:41.592,756.967,96.3818,0,0.000885,0,0
0:6:42.088,758.199,96.5335,0,0.000885,0,0
0:6:42.584,758.96,96.6369,0,0.000885,0,0
0:6:43.080,759.961,96.761,0,0.000885,0,0
0:6:43.584,760.606,96.8438,0,0.000885,0,0
0:6:44.090,761.78,96.9954,0,0.000885,0,0
0:6:44.593,762.661,97.1058,0,0.000885,0,0
0:6:45.091,764.067,97.285,0,0.000885,0,0
0:6:45.588,764.832,97.3816,0,0.000885,0,0
0:6:46.084,765.534,97.4712,0,0.000885,0,0
0:6:46.582,766.473,97.5884,0,0.000885,0,0
0:6:47.079,767.767,97.7539,0,0.000885,0,0
0:6:47.575,768.648,97.8642,0,0.000885,0,0
0:6:48.082,769.88,98.0228,0,0.000885,0,0
0:6:48.582,770.405,98.0917,0,0.000885,0,0
0:6:49.090,771.58,98.2434,0,0.000885,0,0
0:6:49.592,772.58,98.3675,0,0.000885,0,0
0:6:50.093,773.577,98.4916,0,0.000885,0,0
0:6:50.591,774.4,98.6019,0,0.000885,0,0
0:6:51.086,775.454,98.7329,0,0.000885,0,0
0:6:51.582,776.335,98.8432,0,0.000885,0,0
0:6:52.081,777.687,99.0156,0,0.000885,0,0
0:6:52.576,778.804,99.1604,0,0.000885,0,0
0:6:53.071,779.506,99.25,0,0.000885,0,0
0:6:53.569,780.387,99.3603,0,0.000885,0,0
0:6:54.078,781.326,99.4845,0,0.000885,0,0
0:6:54.580,782.028,99.5741,0,0.000885,0,0
0:6:55.084,782.967,99.6913,0,0.000885,0,0
0:6:55.581,784.377,99.8706,0,0.000885,0,0
0:6:56.073,785.436,100.002,0,0.000885,0,0
0:6:56.570,786.668,100.16,0,0.000885,0,0
0:6:57.064,787.664,100.291,0,0.000885,0,0
0:6:57.571,788.136,100.346,0,0.000885,0,0
0:6:58.065,789.248,100.491,0,0.000885,0,0
0:6:58.563,789.719,100.553,0,0.000885,0,0
0:6:59.069,791.187,100.739,0,0.000885,0,0
0:6:59.573,791.89,100.829,0,0.000885,0,0
0:7:0.077,793.358,101.015,0,0.000885,0,0
0:7:0.572,794.59,101.174,0,0.000885,0,0
0:7:1.078,795.413,101.277,0,0.000885,0,0
0:7:1.573,796.058,101.36,0,0.000885,0,0
0:7:2.067,797.117,101.491,0,0.000885,0,0
0:7:2.564,798.229,101.636,0,0.000885,0,0
0:7:3.068,799.345,101.774,0,0.000885,0,0
0:7:3.573,799.817,101.836,0,0.000885,0,0
0:7:4.080,801.107,102.001,0,0.000885,0,0
0:7:4.583,802.103,102.125,0,0.000885,0,0
0:7:5.080,802.753,102.208,0,0.000885,0,0
0:7:5.577,803.807,102.346,0,0.000885,0,0
0:7:6.070,804.866,102.477,0,0.000885,0,0
0:7:6.567,806.213,102.649,0,0.000885,0,0
0:7:7.073,807.094,102.759,0,0.000885,0,0
0:7:7.569,808.033,102.884,0,0.000885,0,0
0:7:8.067,809.327,103.049,0,0.000885,0,0
0:7:8.568,809.679,103.09,0,0.000885,0,0
0:7:9.076,810.733,103.228,0,0.000885,0,0
0:7:9.578,811.378,103.311,0,0.000885,0,0
0:7:10.078,812.672,103.47,0,0.000885,0,0
0:7:10.571,813.847,103.621,0,0.000885,0,0
0:7:11.080,814.607,103.718,0,0.000885,0,0
0:7:11.574,816.017,103.897,0,0.000885,0,0
0:7:12.072,816.605,103.973,0,0.000885,0,0
0:7:12.568,818.015,104.152,0,0.000885,0,0
0:7:13.063,818.66,104.235,0,0.000885,0,0
0:7:13.560,819.598,104.352,0,0.000885,0,0
0:7:14.068,820.888,104.518,0,0.000885,0,0
0:7:14.570,821.182,104.559,0,0.000885,0,0
0:7:15.074,822.65,104.745,0,0.000885,0,0
0:7:15.571,823.53,104.855,0,0.000885,0,0
0:7:16.066,824.411,104.966,0,0.000885,0,0
0:7:16.563,825.937,105.159,0,0.000885,0,0
0:7:17.057,827.053,105.304,0,0.000885,0,0
0:7:17.555,827.578,105.373,0,0.000885,0,0
0:7:18.050,828.815,105.531,0,0.000885,0,0
0:7:18.546,829.696,105.641,0,0.000885,0,0
0:7:19.050,830.514,105.745,0,0.000885,0,0
0:7:19.555,831.337,105.848,0,0.000885,0,0
0:7:20.057,832.454,105.993,0,0.000885,0,0
0:7:20.564,833.744,106.159,0,0.000885,0,0
0:7:21.059,834.095,106.2,0,0.000885,0,0
0:7:21.555,834.918,106.303,0,0.000885,0,0
0:7:22.060,836.564,106.517,0,0.000885,0,0
0:7:22.556,837.089,106.579,0,0.000885,0,0
0:7:23.061,838.147,106.717,0,0.000885,0,0
0:7:23.566,839.846,106.931,0,0.000885,0,0
0:7:24.072,840.434,107.007,0,0.000885,0,0
0:7:24.574,841.67,107.165,0,0.000885,0,0
0:7:25.072,841.844,107.186,0,0.000885,0,0
0:7:25.568,843.076,107.344,0,0.000885,0,0
0:7:26.074,844.25,107.496,0,0.000885,0,0
0:7:26.570,845.482,107.648,0,0.000885,0,0
0:7:27.068,846.07,107.724,0,0.000885,0,0
0:7:27.563,847.128,107.862,0,0.000885,0,0
0:7:28.060,848.534,108.041,0,0.000885,0,0
0:7:28.558,849.77,108.193,0,0.000885,0,0
0:7:29.066,850.238,108.255,0,0.000885,0,0
0:7:29.568,850.883,108.337,0,0.000885,0,0
0:7:30.073,851.705,108.441,0,0.000885,0,0
0:7:30.568,853.116,108.62,0,0.000885,0,0
0:7:31.064,853.996,108.737,0,0.000885,0,0
0:7:31.562,854.935,108.854,0,0.000885,0,0
0:7:32.067,855.695,108.951,0,0.000885,0,0
0:7:32.572,856.345,109.034,0,0.000885,0,0
0:7:33.076,858.044,109.247,0,0.000885,0,0
0:7:33.573,858.983,109.372,0,0.000885,0,0
0:7:34.083,860.219,109.523,0,0.000885,0,0
0:7:34.586,860.98,109.627,0,0.000885,0,0
0:7:35.089,862.332,109.792,0,0.000885,0,0
0:7:35.586,863.151,109.902,0,0.000885,0,0
0:7:36.080,863.8,109.985,0,0.000885,0,0
0:7:36.574,864.445,110.061,0,0.000885,0,0
0:7:37.069,865.735,110.226,0,0.000885,0,0
0:7:37.565,866.558,110.337,0,0.000885,0,0
0:7:38.062,868.084,110.53,0,0.000885,0,0
0:7:38.566,868.613,110.592,0,0.000885,0,0
0:7:39.071,869.783,110.744,0,0.000885,0,0
0:7:39.572,870.784,110.875,0,0.000885,0,0
0:7:40.080,871.78,110.999,0,0.000885,0,0
0:7:40.573,872.488,111.088,0,0.000885,0,0
0:7:41.070,873.542,111.226,0,0.000885,0,0
0:7:41.566,874.774,111.378,0,0.000885,0,0
0:7:42.062,875.89,111.523,0,0.000885,0,0
0:7:42.566,876.42,111.592,0,0.000885,0,0
0:7:43.072,877.416,111.716,0,0.000885,0,0
0:7:43.576,878.706,111.881,0,0.000885,0,0
0:7:44.084,879.707,112.005,0,0.000885,0,0
0:7:44.587,880.468,112.102,0,0.000885,0,0
0:7:45.087,881.291,112.212,0,0.000885,0,0
0:7:45.582,882.701,112.391,0,0.000885,0,0
0:7:46.088,883.346,112.474,0,0.000885,0,0
0:7:46.584,884.169,112.578,0,0.000885,0,0
0:7:47.082,885.516,112.75,0,0.000885,0,0
0:7:47.588,886.633,112.888,0,0.000885,0,0
0:7:48.085,887.571,113.012,0,0.000885,0,0
0:7:48.584,888.688,113.15,0,0.000885,0,0
0:7:49.091,889.391,113.239,0,0.000885,0,0
0:7:49.594,890.214,113.343,0,0.000885,0,0
0:7:50.096,891.562,113.515,0,0.000885,0,0
0:7:50.594,892.206,113.598,0,0.000885,0,0
0:7:51.089,892.972,113.695,0,0.000885,0,0
0:7:51.587,894.382,113.874,0,0.000885,0,0
0:7:52.092,895.142,113.97,0,0.000885,0,0
0:7:52.588,896.552,114.15,0,0.000885,0,0
0:7:53.084,897.197,114.232,0,0.000885,0,0
0:7:53.581,898.194,114.363,0,0.000885,0,0
0:7:54.087,899.488,114.529,0,0.000885,0,0
0:7:54.590,899.84,114.57,0,0.000885,0,0
0:7:55.095,901.543,114.791,0,0.000885,0,0
0:7:55.591,902.068,114.853,0,0.000885,0,0
0:7:56.089,902.891,114.956,0,0.000885,0,0
0:7:56.584,904.595,115.177,0,0.000885,0,0
0:7:57.078,905.298,115.267,0,0.000885,0,0
0:7:57.586,906.121,115.37,0,0.000885,0,0
0:7:58.083,907.117,115.501,0,0.000885,0,0
0:7:58.576,908.056,115.618,0,0.000885,0,0
0:7:59.082,908.585,115.687,0,0.000885,0,0
0:7:59.586,909.644,115.818,0,0.000885,0,0
0:8:0.089,911.405,116.046,0,0.000885,0,0
0:8:0.586,912.575,116.19,0,0.000885,0,0
0:8:1.079,912.989,116.246,0,0.000885,0,0
0:8:1.587,914.221,116.404,0,0.000885,0,0
0:8:2.084,914.75,116.466,0,0.000885,0,0
0:8:2.578,915.804,116.604,0,0.000885,0,0
0:8:3.075,916.569,116.701,0,0.000885,0,0
0:8:3.579,918.389,116.935,0,0.000885,0,0
0:8:4.087,918.798,116.983,0,0.000885,0,0
0:8:4.593,919.679,117.101,0,0.000885,0,0
0:8:5.095,920.911,117.252,0,0.000885,0,0
0:8:5.592,921.498,117.328,0,0.000885,0,0
0:8:6.089,922.73,117.487,0,0.000885,0,0
0:8:6.584,923.437,117.576,0,0.000885,0,0
0:8:7.079,925.137,117.79,0,0.000885,0,0
0:8:7.574,926.08,117.914,0,0.000885,0,0
0:8:8.068,926.667,117.99,0,0.000885,0,0
0:8:8.573,927.428,118.087,0,0.000885,0,0
0:8:9.078,928.78,118.259,0,0.000885,0,0
0:8:9.584,929.661,118.369,0,0.000885,0,0
0:8:10.080,931.186,118.562,0,0.000885,0,0
0:8:10.577,931.36,118.583,0,0.000885,0,0
0:8:11.073,932.476,118.728,0,0.000885,0,0
0:8:11.571,933.651,118.879,0,0.000885,0,0
0:8:12.077,935.354,119.093,0,0.000885,0,0
0:8:12.585,936.351,119.217,0,0.000885,0,0
0:8:13.090,935.937,119.169,0,0.000885,0,0
0:8:13.589,937.819,119.403,0,0.000885,0,0
0:8:14.094,938.286,119.465,0,0.000885,0,0
0:8:14.598,939.518,119.624,0,0.000885,0,0
0:8:15.103,941.048,119.817,0,0.000885,0,0
0:8:15.598,941.751,119.907,0,0.000885,0,0
0:8:16.096,942.511,120.003,0,0.000885,0,0
0:8:16.591,943.864,120.176,0,0.000885,0,0
0:8:17.088,944.335,120.238,0,0.000885,0,0
0:8:17.581,944.98,120.32,0,0.000885,0,0
0:8:18.078,946.034,120.451,0,0.000885,0,0
0:8:18.573,947.329,120.617,0,0.000885,0,0
0:8:19.078,948.383,120.755,0,0.000885,0,0
0:8:19.586,949.5,120.893,0,0.000885,0,0
0:8:20.088,950.145,120.975,0,0.000885,0,0
0:8:20.582,951.199,121.113,0,0.000885,0,0
0:8:21.076,952.551,121.286,0,0.000885,0,0
0:8:21.572,953.08,121.348,0,0.000885,0,0
0:8:22.067,953.961,121.465,0,0.000885,0,0
0:8:22.565,955.193,121.617,0,0.000885,0,0
0:8:23.060,956.541,121.789,0,0.000885,0,0
0:8:23.565,957.186,121.872,0,0.000885,0,0
0:8:24.069,958.129,121.996,0,0.000885,0,0
0:8:24.573,959.068,122.113,0,0.000885,0,0
0:8:25.069,960.122,122.244,0,0.000885,0,0
0:8:25.565,960.593,122.306,0,0.000885,0,0
0:8:26.062,962.591,122.561,0,0.000885,0,0
0:8:26.558,963.236,122.644,0,0.000885,0,0
0:8:27.054,963.996,122.74,0,0.000885,0,0
0:8:27.551,964.584,122.816,0,0.000885,0,0
0:8:28.048,966.287,123.03,0,0.000885,0,0
0:8:28.548,966.754,123.092,0,0.000885,0,0
0:8:29.055,967.813,123.223,0,0.000885,0,0
0:8:29.557,968.987,123.375,0,0.000885,0,0
0:8:30.056,969.223,123.402,0,0.000885,0,0
0:8:30.552,970.277,123.54,0,0.000885,0,0
0:8:31.050,971.572,123.706,0,0.000885,0,0
0:8:31.546,972.742,123.851,0,0.000885,0,0
0:8:32.043,973.858,123.995,0,0.000885,0,0
0:8:32.539,974.975,124.14,0,0.000885,0,0
0:8:33.036,976.265,124.299,0,0.000885,0,0
0:8:33.531,977.03,124.402,0,0.000885,0,0
0:8:34.038,978.026,124.526,0,0.000885,0,0
0:8:34.543,978.965,124.643,0,0.000885,0,0
0:8:35.046,979.552,124.719,0,0.000885,0,0
0:8:35.542,980.317,124.816,0,0.000885,0,0
0:8:36.039,981.491,124.967,0,0.000885,0,0
0:8:36.533,982.194,125.057,0,0.000885,0,0
0:8:37.030,983.075,125.167,0,0.000885,0,0
0:8:37.527,984.894,125.402,0,0.000885,0,0
0:8:38.023,985.539,125.485,0,0.000885,0,0
0:8:38.529,986.42,125.595,0,0.000885,0,0
0:8:39.034,987.536,125.74,0,0.000885,0,0
0:8:39.536,988.768,125.891,0,0.000885,0,0
0:8:40.032,989.413,125.974,0,0.000885,0,0
0:8:40.528,990.352,126.098,0,0.000885,0,0
0:8:41.023,991.411,126.229,0,0.000885,0,0
0:8:41.519,992.759,126.402,0,0.000885,0,0
0:8:42.014,993.052,126.436,0,0.000885,0,0
0:8:42.511,994.347,126.602,0,0.000885,0,0
0:8:43.007,995.227,126.719,0,0.000885,0,0
0:8:43.509,996.869,126.926,0,0.000885,0,0
0:8:44.014,997.22,126.967,0,0.000885,0,0
0:8:44.517,997.927,127.057,0,0.000885,0,0
0:8:45.016,998.808,127.174,0,0.000885,0,0
0:8:45.513,1000.57,127.394,0,0.000885,0,0
0:8:46.010,1000.8,127.429,0,0.000885,0,0
0:8:46.507,1002.45,127.636,0,0.000885,0,0
0:8:47.004,1003.56,127.781,0,0.000885,0,0
0:8:47.501,1004.5,127.898,0,0.000885,0,0
0:8:47.996,1004.97,127.96,0,0.000885,0,0
0:8:48.493,1005.79,128.063,0,0.000885,0,0
0:8:49.000,1007.61,128.291,0,0.000885,0,0
0:8:49.503,1007.67,128.298,0,0.000885,0,0
0:8:50.008,1009.31,128.511,0,0.000885,0,0
0:8:50.504,1010.2,128.622,0,0.000885,0,0
0:8:51.002,1011.19,128.746,0,0.000885,0,0
0:8:51.496,1011.84,128.829,0,0.000885,0,0
0:8:51.993,1012.95,128.973,0,0.000885,0,0
0:8:52.488,1013.83,129.084,0,0.000885,0,0
0:8:52.982,1014.54,129.173,0,0.000885,0,0
0:8:53.476,1015.77,129.332,0,0.000885,0,0
0:8:53.982,1016.12,129.38,0,0.000885,0,0
0:8:54.488,1017.71,129.58,0,0.000885,0,0
0:8:54.991,1019,129.746,0,0.000885,0,0
0:8:55.488,1019.18,129.766,0,0.000885,0,0
0:8:55.981,1020.47,129.932,0,0.000885,0,0
0:8:56.477,1021.93,130.118,0,0.000885,0,0
0:8:56.971,1022.17,130.145,0,0.000885,0,0
0:8:57.469,1023.7,130.338,0,0.000885,0,0
0:8:57.965,1024.75,130.476,0,0.000885,0,0
0:8:58.467,1025.52,130.573,0,0.000885,0,0
0:8:58.973,1026.51,130.697,0,0.000885,0,0
0:8:59.476,1027.63,130.842,0,0.000885,0,0
0:8:59.984,1028.22,130.918,0,0.000885,0,0
0:9:0.482,1030.03,131.145,0,0.000885,0,0
0:9:0.977,1030.68,131.228,0,0.000885,0,0
0:9:1.474,1031.8,131.373,0,0.000885,0,0
0:9:1.971,1032.61,131.476,0,0.000885,0,0
0:9:2.468,1033.91,131.642,0,0.000885,0,0
0:9:2.963,1034.55,131.724,0,0.000885,0,0
0:9:3.462,1035.43,131.835,0,0.000885,0,0
0:9:3.967,1036.49,131.973,0,0.000885,0,0
0:9:4.471,1037.14,132.055,0,0.000885,0,0
0:9:4.974,1038.25,132.193,0,0.000885,0,0
0:9:5.471,1039.37,132.338,0,0.000885,0,0
0:9:5.979,1040.36,132.462,0,0.000885,0,0
0:9:6.483,1041.13,132.559,0,0.000885,0,0
0:9:6.993,1042.25,132.703,0,0.000885,0,0
0:9:7.486,1043.71,132.89,0,0.000885,0,0
0:9:7.983,1044.36,132.972,0,0.000885,0,0
0:9:8.477,1045.71,133.145,0,0.000885,0,0
0:9:8.982,1045.65,133.138,0,0.000885,0,0
0:9:9.486,1046.94,133.303,0,0.000885,0,0
0:9:9.990,1048.29,133.476,0,0.000885,0,0
0:9:10.495,1049.05,133.572,0,0.000885,0,0
0:9:10.991,1050.23,133.717,0,0.000885,0,0
0:9:11.486,1051.28,133.855,0,0.000885,0,0
0:9:11.979,1051.64,133.896,0,0.000885,0,0
0:9:12.498,1052.99,134.069,0,0.000885,0,0
0:9:12.994,1054.1,134.213,0,0.000885,0,0
0:9:13.499,1054.81,134.303,0,0.000885,0,0
0:9:14.003,1055.8,134.427,0,0.000885,0,0
0:9:14.507,1057.04,134.586,0,0.000885,0,0
0:9:15.002,1058.03,134.71,0,0.000885,0,0
0:9:15.498,1059.33,134.875,0,0.000885,0,0
0:9:15.993,1060.26,134.999,0,0.000885,0,0
0:9:16.490,1059.79,134.937,0,0.000885,0,0
0:9:16.993,1058.39,134.758,0,0.000885,0,0
0:9:17.487,1058.21,134.737,0,0.000885,0,0
0:9:17.993,1059.56,134.91,0,0.000885,0,0
0:9:18.496,1062.91,135.33,0,0.000885,0,0
0:9:19.003,1038.54,132.235,0,0.000885,0,0
0:9:19.503,1045,133.055,0,0.000885,0,0
0:9:20.001,1053.45,134.131,0,0.000885,0,0
0:9:20.497,1059.44,134.889,0,0.000885,0,0
0:9:20.994,1066.37,135.772,0,0.000885,0,0
0:9:21.491,1071.89,136.475,0,0.000885,0,0
0:9:21.995,1041.89,132.655,0,0.000885,0,0
0:9:22.262,978.32,124.561,0,0.000885,0,0