File: DataFile2021-06-08_070835.csv
Test ID:,Date Tested:,Time:,Test Type:,Diameter Avg. (mm):,Cyl. Corr. Factor:,Height (mm):,Age (days):,Weight (kN):,Break Type:,Ramp Rate (MPa/s):,Load at Break (kN):,Stress at Break (MPa):
12,6/8/2021,07:08,Cylinder,100,1,200,0,3.6,3,0.23,213.14,27.14
Sample Time,Load (kN),Stress (MPa),Long. Strain,Trans. Strain,Chan1 Deflection (mm),Chan2 Deflection (mm)
0:0:17.172,5.21776,0.661897,0,0.000885,0,0
0:0:17.269,7.21502,0.917003,0,0.000885,0,0
0:0:17.366,8.85641,1.13074,0,0.000885,0,0
0:0:17.464,8.85641,1.13074,0,0.000885,0,0
0:0:17.566,10.4978,1.33758,0,0.000885,0,0
0:0:17.666,10.3243,1.3169,0,0.000885,0,0
0:0:17.766,10.3243,1.3169,0,0.000885,0,0
0:0:17.862,10.0886,1.28242,0,0.000885,0,0
0:0:17.961,10.0307,1.27553,0,0.000885,0,0
0:0:18.062,9.73716,1.24106,0,0.000885,0,0
0:0:18.163,9.73716,1.24106,0,0.000885,0,0
0:0:18.261,9.38575,1.19279,0,0.000885,0,0
0:0:18.358,9.20782,1.17211,0,0.000885,0,0
0:0:18.454,9.20782,1.17211,0,0.000885,0,0
0:0:18.556,9.20782,1.17211,0,0.000885,0,0
0:0:18.656,9.14999,1.16521,0,0.000885,0,0
0:0:18.756,8.91424,1.13763,0,0.000885,0,0
0:0:18.853,9.20782,1.17211,0,0.000885,0,0
0:0:18.951,9.20782,1.17211,0,0.000885,0,0
0:0:19.052,9.20782,1.17211,0,0.000885,0,0
0:0:19.153,9.44357,1.19969,0,0.000885,0,0
0:0:19.252,9.44357,1.19969,0,0.000885,0,0
0:0:19.348,9.09216,1.15832,0,0.000885,0,0
0:0:19.447,9.14999,1.16521,0,0.000885,0,0
0:0:19.547,8.67848,1.10316,0,0.000885,0,0
0:0:19.648,8.67848,1.10316,0,0.000885,0,0
0:0:19.747,9.44357,1.19969,0,0.000885,0,0
0:0:19.845,9.09216,1.15832,0,0.000885,0,0
0:0:19.942,9.32347,1.1859,0,0.000885,0,0
0:0:20.044,9.32347,1.1859,0,0.000885,0,0
0:0:20.144,9.14999,1.16521,0,0.000885,0,0
0:0:20.245,9.73716,1.24106,0,0.000885,0,0
0:0:20.341,9.73716,1.24106,0,0.000885,0,0
0:0:20.438,9.96846,1.26864,0,0.000885,0,0
0:0:20.538,10.262,1.31,0,0.000885,0,0
0:0:20.639,11.2006,1.42721,0,0.000885,0,0
0:0:20.740,11.2006,1.42721,0,0.000885,0,0
0:0:20.838,11.6143,1.47548,0,0.000885,0,0
0:0:20.936,11.4942,1.46169,0,0.000885,0,0
0:0:21.036,12.0235,1.53064,0,0.000885,0,0
0:0:21.137,12.0235,1.53064,0,0.000885,0,0
0:0:21.237,12.9621,1.64785,0,0.000885,0,0
0:0:21.334,12.9621,1.64785,0,0.000885,0,0
0:0:21.432,12.9043,1.64095,0,0.000885,0,0
0:0:21.532,12.9043,1.64095,0,0.000885,0,0
0:0:21.633,13.0199,1.65474,0,0.000885,0,0
0:0:21.734,13.8429,1.76506,0,0.000885,0,0
0:0:21.833,14.0163,1.78574,0,0.000885,0,0
0:0:21.930,14.0163,1.78574,0,0.000885,0,0
0:0:22.028,14.1364,1.79953,0,0.000885,0,0
0:0:22.130,14.2521,1.81332,0,0.000885,0,0
0:0:22.230,14.2521,1.81332,0,0.000885,0,0
0:0:22.330,15.1907,1.93743,0,0.000885,0,0
0:0:22.426,14.6613,1.86848,0,0.000885,0,0
0:0:22.525,15.1328,1.92364,0,0.000885,0,0
0:0:22.625,15.1328,1.92364,0,0.000885,0,0
0:0:22.727,15.3063,1.95122,0,0.000885,0,0
0:0:22.827,15.72,1.99948,0,0.000885,0,0
0:0:22.928,15.4264,1.96501,0,0.000885,0,0
0:0:23.030,15.4264,1.96501,0,0.000885,0,0
0:0:23.131,15.6577,1.99258,0,0.000885,0,0
0:0:23.233,16.1871,2.06153,0,0.000885,0,0
0:0:23.334,16.7164,2.13048,0,0.000885,0,0
0:0:23.435,16.7164,2.13048,0,0.000885,0,0
0:0:23.536,17.0678,2.17185,0,0.000885,0,0
0:0:23.637,17.4771,2.22701,0,0.000885,0,0
0:0:23.739,17.7706,2.26148,0,0.000885,0,0
0:0:23.838,17.7706,2.26148,0,0.000885,0,0
0:0:23.938,18.0064,2.29595,0,0.000885,0,0
0:0:24.039,18.5936,2.3649,0,0.000885,0,0
0:0:24.139,18.8871,2.40627,0,0.000885,0,0
0:0:24.241,18.8871,2.40627,0,0.000885,0,0
0:0:24.342,19.1185,2.43385,0,0.000885,0,0
0:0:24.442,19.59,2.4959,0,0.000885,0,0
0:0:24.540,19.4699,2.48211,0,0.000885,0,0
0:0:24.639,19.4699,2.48211,0,0.000885,0,0
0:0:24.741,19.7056,2.50969,0,0.000885,0,0
0:0:24.840,20.1193,2.55795,0,0.000885,0,0
0:0:24.938,20.4707,2.60622,0,0.000885,0,0
0:0:25.037,20.4707,2.60622,0,0.000885,0,0
0:0:25.137,20.88,2.66138,0,0.000885,0,0
0:0:25.238,20.9378,2.66827,0,0.000885,0,0
0:0:25.339,20.9378,2.66827,0,0.000885,0,0
0:0:25.437,21.1735,2.69585,0,0.000885,0,0
0:0:25.534,21.347,2.71653,0,0.000885,0,0
0:0:25.634,21.5249,2.73722,0,0.000885,0,0
0:0:25.736,21.5249,2.73722,0,0.000885,0,0
0:0:25.836,21.7607,2.77169,0,0.000885,0,0
0:0:25.934,21.992,2.79927,0,0.000885,0,0
0:0:26.033,22.4635,2.86132,0,0.000885,0,0
0:0:26.134,22.4635,2.86132,0,0.000885,0,0
0:0:26.235,22.8149,2.90269,0,0.000885,0,0
0:0:26.335,23.0507,2.93717,0,0.000885,0,0
0:0:26.433,23.2242,2.95785,0,0.000885,0,0
0:0:26.531,23.2242,2.95785,0,0.000885,0,0
0:0:26.632,23.5177,2.99232,0,0.000885,0,0
0:0:26.733,23.9314,3.04748,0,0.000885,0,0
0:0:26.834,24.3407,3.09575,0,0.000885,0,0
0:0:26.932,24.3407,3.09575,0,0.000885,0,0
0:0:27.028,24.5141,3.12333,0,0.000885,0,0
0:0:27.129,24.87,3.16469,0,0.000885,0,0
0:0:27.230,24.87,3.16469,0,0.000885,0,0
0:0:27.331,24.9857,3.17848,0,0.000885,0,0
0:0:27.432,25.2792,3.21985,0,0.000885,0,0
0:0:27.533,25.9821,3.30948,0,0.000885,0,0
0:0:27.634,25.9821,3.30948,0,0.000885,0,0
0:0:27.737,26.5114,3.37843,0,0.000885,0,0
0:0:27.838,26.6849,3.39912,0,0.000885,0,0
0:0:27.939,26.8628,3.4198,0,0.000885,0,0
0:0:28.038,26.8628,3.4198,0,0.000885,0,0
0:0:28.141,27.3299,3.48185,0,0.000885,0,0
0:0:28.241,28.095,3.57838,0,0.000885,0,0
0:0:28.343,28.2684,3.59906,0,0.000885,0,0
0:0:28.443,28.2684,3.59906,0,0.000885,0,0
0:0:28.544,28.3263,3.60596,0,0.000885,0,0
0:0:28.645,28.6199,3.64733,0,0.000885,0,0
0:0:28.746,28.9134,3.6818,0,0.000885,0,0
0:0:28.846,28.9134,3.6818,0,0.000885,0,0
0:0:28.946,29.2648,3.72317,0,0.000885,0,0
0:0:29.044,29.385,3.74385,0,0.000885,0,0
0:0:29.144,29.9098,3.80591,0,0.000885,0,0
0:0:29.246,29.9098,3.80591,0,0.000885,0,0
0:0:29.344,29.852,3.79901,0,0.000885,0,0
0:0:29.444,30.3814,3.86796,0,0.000885,0,0
0:0:29.543,30.6171,3.89554,0,0.000885,0,0
0:0:29.642,30.6171,3.89554,0,0.000885,0,0
0:0:29.744,30.5548,3.88864,0,0.000885,0,0
0:0:29.844,30.6749,3.90243,0,0.000885,0,0
0:0:29.941,30.6749,3.90243,0,0.000885,0,0
0:0:30.039,31.142,3.96449,0,0.000885,0,0
0:0:30.138,31.0842,3.95759,0,0.000885,0,0
0:0:30.239,31.3778,3.99206,0,0.000885,0,0
0:0:30.341,31.3778,3.99206,0,0.000885,0,0
0:0:30.439,31.1998,3.97138,0,0.000885,0,0
0:0:30.536,31.3778,3.99206,0,0.000885,0,0
0:0:30.637,31.6135,4.02654,0,0.000885,0,0
0:0:30.737,31.6135,4.02654,0,0.000885,0,0
0:0:30.838,31.9649,4.06791,0,0.000885,0,0
0:0:30.936,31.7292,4.04033,0,0.000885,0,0
0:0:31.034,32.3163,4.11617,0,0.000885,0,0
0:0:31.132,32.3163,4.11617,0,0.000885,0,0
0:0:31.234,32.1384,4.09549,0,0.000885,0,0
0:0:31.334,32.7834,4.17133,0,0.000885,0,0
0:0:31.435,32.7256,4.16443,0,0.000885,0,0
0:0:31.532,32.7256,4.16443,0,0.000885,0,0
0:0:31.630,33.0191,4.2058,0,0.000885,0,0
0:0:31.732,33.2549,4.23338,0,0.000885,0,0
0:0:31.832,33.2549,4.23338,0,0.000885,0,0
0:0:31.933,33.4907,4.26096,0,0.000885,0,0
0:0:32.030,34.0156,4.32991,0,0.000885,0,0
0:0:32.128,34.6027,4.40575,0,0.000885,0,0
0:0:32.228,34.6027,4.40575,0,0.000885,0,0
0:0:32.329,34.8963,4.44022,0,0.000885,0,0
0:0:32.431,35.4256,4.50917,0,0.000885,0,0
0:0:32.530,35.6614,4.54365,0,0.000885,0,0
0:0:32.633,35.6614,4.54365,0,0.000885,0,0
0:0:32.735,36.1285,4.5988,0,0.000885,0,0
0:0:32.835,36.2441,4.61259,0,0.000885,0,0
0:0:32.937,36.3064,4.61949,0,0.000885,0,0
0:0:33.037,36.3064,4.61949,0,0.000885,0,0
0:0:33.138,36.3064,4.61949,0,0.000885,0,0
0:0:33.239,36.7156,4.67465,0,0.000885,0,0
0:0:33.340,37.1249,4.7298,0,0.000885,0,0
0:0:33.441,37.1249,4.7298,0,0.000885,0,0
0:0:33.541,37.3028,4.75049,0,0.000885,0,0
0:0:33.641,37.3028,4.75049,0,0.000885,0,0
0:0:33.742,37.5964,4.78496,0,0.000885,0,0
0:0:33.843,37.5964,4.78496,0,0.000885,0,0
0:0:33.945,37.89,4.82633,0,0.000885,0,0
0:0:34.044,37.9478,4.83322,0,0.000885,0,0
0:0:34.142,38.357,4.88149,0,0.000885,0,0
0:0:34.241,38.357,4.88149,0,0.000885,0,0
0:0:34.342,38.2414,4.8677,0,0.000885,0,0
0:0:34.443,38.6506,4.92286,0,0.000885,0,0
0:0:34.541,38.6506,4.92286,0,0.000885,0,0
0:0:34.640,39.1799,4.9918,0,0.000885,0,0
0:0:34.741,39.7048,5.05386,0,0.000885,0,0
0:0:34.842,39.8249,5.06765,0,0.000885,0,0
0:0:34.943,39.8249,5.06765,0,0.000885,0,0
0:0:35.040,40.292,5.1297,0,0.000885,0,0
0:0:35.138,40.7012,5.18486,0,0.000885,0,0
0:0:35.237,40.6434,5.17796,0,0.000885,0,0
0:0:35.338,40.6434,5.17796,0,0.000885,0,0
0:0:35.439,41.0571,5.22623,0,0.000885,0,0
0:0:35.537,40.8792,5.20554,0,0.000885,0,0
0:0:35.635,41.2884,5.25381,0,0.000885,0,0
0:0:35.735,41.2884,5.25381,0,0.000885,0,0
0:0:35.837,41.582,5.29517,0,0.000885,0,0
0:0:35.938,41.8756,5.32965,0,0.000885,0,0
0:0:36.036,42.1691,5.37102,0,0.000885,0,0
0:0:36.132,42.1691,5.37102,0,0.000885,0,0
0:0:36.232,42.3471,5.3917,0,0.000885,0,0
0:0:36.333,43.0499,5.48133,0,0.000885,0,0
0:0:36.434,43.0499,5.48133,0,0.000885,0,0
0:0:36.533,43.4013,5.5227,0,0.000885,0,0
0:0:36.631,43.4591,5.53649,0,0.000885,0,0
0:0:36.731,43.5792,5.55028,0,0.000885,0,0
0:0:36.832,43.5792,5.55028,0,0.000885,0,0
0:0:36.934,44.1041,5.61233,0,0.000885,0,0
0:0:37.033,44.5178,5.66749,0,0.000885,0,0
0:0:37.131,44.8069,5.70196,0,0.000885,0,0
0:0:37.230,44.8069,5.70196,0,0.000885,0,0
0:0:37.329,44.7491,5.69507,0,0.000885,0,0
0:0:37.429,45.2784,5.76402,0,0.000885,0,0
0:0:37.530,45.3941,5.77781,0,0.000885,0,0
0:0:37.632,45.3941,5.77781,0,0.000885,0,0
0:0:37.735,45.4519,5.7847,0,0.000885,0,0
0:0:37.835,45.8078,5.83296,0,0.000885,0,0
0:0:37.936,45.9813,5.85365,0,0.000885,0,0
0:0:38.038,45.9813,5.85365,0,0.000885,0,0
0:0:38.138,46.5684,5.92949,0,0.000885,0,0
0:0:38.240,46.7464,5.95018,0,0.000885,0,0
0:0:38.340,46.8042,5.95707,0,0.000885,0,0
0:0:38.441,46.8042,5.95707,0,0.000885,0,0
0:0:38.542,47.2134,6.01223,0,0.000885,0,0
0:0:38.643,47.3914,6.03291,0,0.000885,0,0
0:0:38.744,47.4492,6.03981,0,0.000885,0,0
0:0:38.845,47.4492,6.03981,0,0.000885,0,0
0:0:38.946,47.8584,6.09497,0,0.000885,0,0
0:0:39.047,48.0363,6.11565,0,0.000885,0,0
0:0:39.145,48.2098,6.13633,0,0.000885,0,0
0:0:39.243,48.2098,6.13633,0,0.000885,0,0
0:0:39.345,48.2677,6.14323,0,0.000885,0,0
0:0:39.445,48.6191,6.19149,0,0.000885,0,0
0:0:39.545,48.6191,6.19149,0,0.000885,0,0
0:0:39.641,48.9749,6.23286,0,0.000885,0,0
0:0:39.740,48.9749,6.23286,0,0.000885,0,0
0:0:39.841,49.2685,6.27423,0,0.000885,0,0
0:0:39.942,49.2685,6.27423,0,0.000885,0,0
0:0:40.043,49.9713,6.36386,0,0.000885,0,0
0:0:40.140,50.1448,6.38455,0,0.000885,0,0
0:0:40.238,50.7898,6.46728,0,0.000885,0,0
0:0:40.339,50.7898,6.46728,0,0.000885,0,0
0:0:40.439,50.6741,6.45349,0,0.000885,0,0
0:0:40.539,50.6741,6.45349,0,0.000885,0,0
0:0:40.637,50.9099,6.48107,0,0.000885,0,0
0:0:40.734,50.9099,6.48107,0,0.000885,0,0
0:0:40.835,51.3191,6.53623,0,0.000885,0,0
0:0:40.937,51.6127,6.5707,0,0.000885,0,0
0:0:41.037,52.3155,6.66034,0,0.000885,0,0
0:0:41.135,52.3155,6.66034,0,0.000885,0,0
0:0:41.232,52.2577,6.65344,0,0.000885,0,0
0:0:41.332,52.4935,6.68102,0,0.000885,0,0
0:0:41.433,52.4935,6.68102,0,0.000885,0,0
0:0:41.534,52.8449,6.72928,0,0.000885,0,0
0:0:41.631,52.9605,6.74307,0,0.000885,0,0
0:0:41.728,53.432,6.80513,0,0.000885,0,0
0:0:41.828,53.432,6.80513,0,0.000885,0,0
0:0:41.930,53.7834,6.84649,0,0.000885,0,0
0:0:42.032,54.2505,6.90855,0,0.000885,0,0
0:0:42.130,54.4284,6.92923,0,0.000885,0,0
0:0:42.226,54.4284,6.92923,0,0.000885,0,0
0:0:42.327,54.6642,6.95681,0,0.000885,0,0
0:0:42.428,54.6019,6.94992,0,0.000885,0,0
0:0:42.528,54.9533,6.99818,0,0.000885,0,0
0:0:42.629,54.9533,6.99818,0,0.000885,0,0
0:0:42.731,55.1313,7.01886,0,0.000885,0,0
0:0:42.834,55.6606,7.08781,0,0.000885,0,0
0:0:42.935,55.7763,7.1016,0,0.000885,0,0
0:0:43.038,55.7763,7.1016,0,0.000885,0,0
0:0:43.139,56.1277,7.14986,0,0.000885,0,0
0:0:43.240,56.4212,7.18434,0,0.000885,0,0
0:0:43.339,56.657,7.21192,0,0.000885,0,0
0:0:43.440,56.657,7.21192,0,0.000885,0,0
0:0:43.541,56.5369,7.19813,0,0.000885,0,0
0:0:43.642,57.2442,7.28776,0,0.000885,0,0
0:0:43.743,57.3598,7.30155,0,0.000885,0,0
0:0:43.844,57.3598,7.30155,0,0.000885,0,0
0:0:43.945,57.5956,7.33602,0,0.000885,0,0
0:0:44.047,57.7691,7.35671,0,0.000885,0,0
0:0:44.145,58.2984,7.42565,0,0.000885,0,0
0:0:44.243,58.2984,7.42565,0,0.000885,0,0
0:0:44.343,58.6498,7.46702,0,0.000885,0,0
0:0:44.445,59.1213,7.52907,0,0.000885,0,0
0:0:44.546,59.1213,7.52907,0,0.000885,0,0
0:0:44.643,59.0012,7.51529,0,0.000885,0,0
0:0:44.741,59.3526,7.55665,0,0.000885,0,0
0:0:44.840,59.882,7.6256,0,0.000885,0,0
0:0:44.941,59.882,7.6256,0,0.000885,0,0
0:0:45.043,59.7663,7.61181,0,0.000885,0,0
0:0:45.140,60.2912,7.67386,0,0.000885,0,0
0:0:45.238,60.2334,7.66697,0,0.000885,0,0
0:0:45.337,60.2334,7.66697,0,0.000885,0,0
0:0:45.439,60.6426,7.72213,0,0.000885,0,0
0:0:45.539,60.6426,7.72213,0,0.000885,0,0
0:0:45.638,60.9362,7.7566,0,0.000885,0,0
0:0:45.736,60.9362,7.7566,0,0.000885,0,0
0:0:45.834,61.1141,7.78418,0,0.000885,0,0
0:0:45.936,61.1141,7.78418,0,0.000885,0,0
0:0:46.036,61.1141,7.78418,0,0.000885,0,0
0:0:46.136,61.937,7.8876,0,0.000885,0,0
0:0:46.234,62.5198,7.96344,0,0.000885,0,0
0:0:46.333,62.3463,7.93587,0,0.000885,0,0
0:0:46.433,62.3463,7.93587,0,0.000885,0,0
0:0:46.535,62.8712,8.00481,0,0.000885,0,0
0:0:46.634,62.7555,7.99102,0,0.000885,0,0
0:0:46.732,63.1647,8.03929,0,0.000885,0,0
0:0:46.831,63.1647,8.03929,0,0.000885,0,0
0:0:46.932,63.872,8.12892,0,0.000885,0,0
0:0:47.033,63.8097,8.12202,0,0.000885,0,0
0:0:47.133,64.3391,8.19097,0,0.000885,0,0
0:0:47.230,64.3391,8.19097,0,0.000885,0,0
0:0:47.328,64.3391,8.19097,0,0.000885,0,0
0:0:47.429,64.8684,8.25992,0,0.000885,0,0
0:0:47.531,64.6905,8.23923,0,0.000885,0,0
0:0:47.631,64.6905,8.23923,0,0.000885,0,0
0:0:47.732,65.0419,8.2806,0,0.000885,0,0
0:0:47.834,65.5134,8.34266,0,0.000885,0,0
0:0:47.935,65.5134,8.34266,0,0.000885,0,0
0:0:48.037,65.5134,8.34266,0,0.000885,0,0
0:0:48.138,65.9226,8.39092,0,0.000885,0,0
0:0:48.239,66.5676,8.47366,0,0.000885,0,0
0:0:48.340,66.5676,8.47366,0,0.000885,0,0
0:0:48.441,66.452,8.45987,0,0.000885,0,0
0:0:48.541,66.6255,8.48055,0,0.000885,0,0
0:0:48.641,67.3327,8.57018,0,0.000885,0,0
0:0:48.742,67.3327,8.57018,0,0.000885,0,0
0:0:48.843,67.5062,8.59776,0,0.000885,0,0
0:0:48.944,67.6841,8.61845,0,0.000885,0,0
0:0:49.046,67.9154,8.64603,0,0.000885,0,0
0:0:49.147,67.9154,8.64603,0,0.000885,0,0
0:0:49.244,68.0934,8.66671,0,0.000885,0,0
0:0:49.342,68.5604,8.72876,0,0.000885,0,0
0:0:49.443,68.6805,8.74255,0,0.000885,0,0
0:0:49.544,68.6805,8.74255,0,0.000885,0,0
0:0:49.645,68.7962,8.75634,0,0.000885,0,0
0:0:49.744,68.854,8.77013,0,0.000885,0,0
0:0:49.841,68.7962,8.75634,0,0.000885,0,0
0:0:49.941,68.7962,8.75634,0,0.000885,0,0
0:0:50.043,69.2677,8.81839,0,0.000885,0,0
0:0:50.143,69.6191,8.86666,0,0.000885,0,0
0:0:50.242,70.0284,8.91492,0,0.000885,0,0
0:0:50.339,70.0284,8.91492,0,0.000885,0,0
0:0:50.438,70.0862,8.92182,0,0.000885,0,0
0:0:50.539,70.3798,8.96318,0,0.000885,0,0
0:0:50.639,70.3798,8.96318,0,0.000885,0,0
0:0:50.739,71.0248,9.04592,0,0.000885,0,0
0:0:50.837,71.3762,9.08729,0,0.000885,0,0
0:0:50.935,71.3762,9.08729,0,0.000885,0,0
0:0:51.036,71.3762,9.08729,0,0.000885,0,0
0:0:51.137,71.6119,9.11487,0,0.000885,0,0
0:0:51.237,72.0834,9.17692,0,0.000885,0,0
0:0:51.335,72.3726,9.21829,0,0.000885,0,0
0:0:51.433,72.3726,9.21829,0,0.000885,0,0
0:0:51.533,72.7284,9.25966,0,0.000885,0,0
0:0:51.635,73.1377,9.31482,0,0.000885,0,0
0:0:51.735,73.022,9.29413,0,0.000885,0,0
0:0:51.833,73.022,9.29413,0,0.000885,0,0
0:0:51.932,73.3734,9.3424,0,0.000885,0,0
0:0:52.033,73.4312,9.34929,0,0.000885,0,0
0:0:52.135,73.7248,9.38376,0,0.000885,0,0
0:0:52.234,73.7248,9.38376,0,0.000885,0,0
0:0:52.332,73.8983,9.41134,0,0.000885,0,0
0:0:52.430,74.1919,9.44582,0,0.000885,0,0
0:0:52.529,74.1919,9.44582,0,0.000885,0,0
0:0:52.631,74.6056,9.50098,0,0.000885,0,0
0:0:52.733,75.0148,9.54924,0,0.000885,0,0
0:0:52.832,75.1305,9.56303,0,0.000885,0,0
0:0:52.934,75.1305,9.56303,0,0.000885,0,0
0:0:53.036,75.6598,9.63198,0,0.000885,0,0
0:0:53.138,76.1891,9.70092,0,0.000885,0,0
0:0:53.239,76.1269,9.69403,0,0.000885,0,0
0:0:53.339,76.1269,9.69403,0,0.000885,0,0
0:0:53.439,76.1891,9.70092,0,0.000885,0,0
0:0:53.540,76.247,9.70782,0,0.000885,0,0
0:0:53.641,76.5984,9.75608,0,0.000885,0,0
0:0:53.743,76.5984,9.75608,0,0.000885,0,0
0:0:53.843,76.9498,9.79745,0,0.000885,0,0
0:0:53.944,77.4791,9.8664,0,0.000885,0,0
0:0:54.044,77.4168,9.8595,0,0.000885,0,0
0:0:54.146,77.4168,9.8595,0,0.000885,0,0
0:0:54.246,77.4168,9.8595,0,0.000885,0,0
0:0:54.346,77.5948,9.88019,0,0.000885,0,0
0:0:54.444,78.2398,9.96292,0,0.000885,0,0
0:0:54.542,78.2398,9.96292,0,0.000885,0,0
0:0:54.644,78.5334,9.9974,0,0.000885,0,0
0:0:54.744,78.5334,9.9974,0,0.000885,0,0
0:0:54.844,78.8848,10.0457,0,0.000885,0,0
0:0:54.941,78.8848,10.0457,0,0.000885,0,0
0:0:55.040,79.3563,10.1008,0,0.000885,0,0
0:0:55.142,79.5876,10.1353,0,0.000885,0,0
0:0:55.243,79.8233,10.1629,0,0.000885,0,0
0:0:55.343,79.8233,10.1629,0,0.000885,0,0
0:0:55.441,80.2904,10.2249,0,0.000885,0,0
0:0:55.539,80.4683,10.2456,0,0.000885,0,0
0:0:55.638,80.4683,10.2456,0,0.000885,0,0
0:0:55.740,80.6463,10.2663,0,0.000885,0,0
0:0:55.840,80.9398,10.3077,0,0.000885,0,0
0:0:55.939,81.4647,10.3697,0,0.000885,0,0
0:0:56.037,81.4647,10.3697,0,0.000885,0,0
0:0:56.137,81.6427,10.3973,0,0.000885,0,0
0:0:56.239,81.9362,10.4318,0,0.000885,0,0
0:0:56.338,82.2298,10.4662,0,0.000885,0,0
0:0:56.436,82.2298,10.4662,0,0.000885,0,0
0:0:56.534,82.5812,10.5145,0,0.000885,0,0
0:0:56.634,82.5812,10.5145,0,0.000885,0,0
0:0:56.735,82.9905,10.5697,0,0.000885,0,0
0:0:56.834,82.9905,10.5697,0,0.000885,0,0
0:0:56.933,82.9905,10.5697,0,0.000885,0,0
0:0:57.032,83.5198,10.6317,0,0.000885,0,0
0:0:57.131,83.5198,10.6317,0,0.000885,0,0
0:0:57.234,83.7511,10.6662,0,0.000885,0,0
0:0:57.334,83.9869,10.6938,0,0.000885,0,0
0:0:57.436,84.2226,10.7213,0,0.000885,0,0
0:0:57.537,84.2226,10.7213,0,0.000885,0,0
0:0:57.639,84.3383,10.7351,0,0.000885,0,0
0:0:57.740,84.8676,10.8041,0,0.000885,0,0
0:0:57.841,85.219,10.8523,0,0.000885,0,0
0:0:57.942,85.219,10.8523,0,0.000885,0,0
0:0:58.044,85.5704,10.8937,0,0.000885,0,0
0:0:58.144,85.6283,10.9006,0,0.000885,0,0
0:0:58.246,85.6905,10.9075,0,0.000885,0,0
0:0:58.346,85.864,10.9351,0,0.000885,0,0
0:0:58.447,85.864,10.9351,0,0.000885,0,0
0:0:58.548,85.9218,10.942,0,0.000885,0,0
0:0:58.649,86.6869,11.0385,0,0.000885,0,0
0:0:58.751,86.6869,11.0385,0,0.000885,0,0
0:0:58.852,86.9183,11.0661,0,0.000885,0,0
0:0:58.950,87.7412,11.1695,0,0.000885,0,0
0:0:59.047,87.6255,11.1557,0,0.000885,0,0
0:0:59.147,87.6255,11.1557,0,0.000885,0,0
0:0:59.248,87.6833,11.1626,0,0.000885,0,0
0:0:59.348,87.5054,11.1419,0,0.000885,0,0
0:0:59.447,88.2082,11.2316,0,0.000885,0,0
0:0:59.544,88.2082,11.2316,0,0.000885,0,0
0:0:59.643,88.6219,11.2867,0,0.000885,0,0
0:0:59.743,89.089,11.3419,0,0.000885,0,0
0:0:59.845,89.1468,11.3488,0,0.000885,0,0
0:0:59.944,89.1468,11.3488,0,0.000885,0,0
0:1:0.042,89.734,11.4246,0,0.000885,0,0
0:1:0.140,89.734,11.4246,0,0.000885,0,0
0:1:0.240,89.734,11.4246,0,0.000885,0,0
0:1:0.342,90.0276,11.466,0,0.000885,0,0
0:1:0.443,90.4412,11.5142,0,0.000885,0,0
0:1:0.540,90.6725,11.5418,0,0.000885,0,0
0:1:0.637,90.6725,11.5418,0,0.000885,0,0
0:1:0.737,90.379,11.5073,0,0.000885,0,0
0:1:0.838,91.024,11.5901,0,0.000885,0,0
0:1:0.939,90.7304,11.5556,0,0.000885,0,0
0:1:1.037,90.7304,11.5556,0,0.000885,0,0
0:1:1.134,90.9083,11.5763,0,0.000885,0,0
0:1:1.235,91.3175,11.6246,0,0.000885,0,0
0:1:1.336,91.8469,11.6935,0,0.000885,0,0
0:1:1.437,91.8469,11.6935,0,0.000885,0,0
0:1:1.536,92.2561,11.7487,0,0.000885,0,0
0:1:1.634,92.6075,11.79,0,0.000885,0,0
0:1:1.731,92.6075,11.79,0,0.000885,0,0
0:1:1.833,92.8433,11.8245,0,0.000885,0,0
0:1:1.934,93.1947,11.8659,0,0.000885,0,0
0:1:2.033,93.1947,11.8659,0,0.000885,0,0
0:1:2.130,93.1947,11.8659,0,0.000885,0,0
0:1:2.229,93.2525,11.8728,0,0.000885,0,0
0:1:2.330,93.5461,11.9141,0,0.000885,0,0
0:1:2.432,93.724,11.9348,0,0.000885,0,0
0:1:2.532,93.724,11.9348,0,0.000885,0,0
0:1:2.634,93.9598,11.9624,0,0.000885,0,0
0:1:2.736,94.4847,12.0314,0,0.000885,0,0
0:1:2.838,94.7204,12.0589,0,0.000885,0,0
0:1:2.938,94.7204,12.0589,0,0.000885,0,0
0:1:3.039,95.014,12.1003,0,0.000885,0,0
0:1:3.141,95.6012,12.1692,0,0.000885,0,0
0:1:3.243,95.7168,12.1899,0,0.000885,0,0
0:1:3.343,95.7168,12.1899,0,0.000885,0,0
0:1:3.444,95.6012,12.1692,0,0.000885,0,0
0:1:3.544,95.8369,12.2037,0,0.000885,0,0
0:1:3.646,96.0104,12.2244,0,0.000885,0,0
0:1:3.747,96.0104,12.2244,0,0.000885,0,0
0:1:3.848,96.4819,12.2865,0,0.000885,0,0
0:1:3.949,97.0068,12.3485,0,0.000885,0,0
0:1:4.050,97.2426,12.383,0,0.000885,0,0
0:1:4.146,97.2426,12.383,0,0.000885,0,0
0:1:4.244,97.3582,12.3968,0,0.000885,0,0
0:1:4.345,97.7096,12.4381,0,0.000885,0,0
0:1:4.446,97.9454,12.4726,0,0.000885,0,0
0:1:4.547,97.9454,12.4726,0,0.000885,0,0
0:1:4.645,98.0032,12.4795,0,0.000885,0,0
0:1:4.743,98.239,12.5071,0,0.000885,0,0
0:1:4.843,98.4747,12.5416,0,0.000885,0,0
0:1:4.944,98.4747,12.5416,0,0.000885,0,0
0:1:5.045,99.0041,12.6036,0,0.000885,0,0
0:1:5.143,99.0619,12.6105,0,0.000885,0,0
0:1:5.240,99.0619,12.6105,0,0.000885,0,0
0:1:5.339,99.4133,12.6588,0,0.000885,0,0
0:1:5.441,99.8225,12.707,0,0.000885,0,0
0:1:5.542,99.9426,12.7277,0,0.000885,0,0
0:1:5.641,99.9426,12.7277,0,0.000885,0,0
0:1:5.739,100.174,12.7553,0,0.000885,0,0
0:1:5.837,100.588,12.8036,0,0.000885,0,0
0:1:5.939,101.055,12.8656,0,0.000885,0,0
0:1:6.039,101.055,12.8656,0,0.000885,0,0
0:1:6.139,101.113,12.8725,0,0.000885,0,0
0:1:6.237,101.29,12.8932,0,0.000885,0,0
0:1:6.334,101.935,12.9759,0,0.000885,0,0
0:1:6.435,101.935,12.9759,0,0.000885,0,0
0:1:6.537,102.403,13.038,0,0.000885,0,0
0:1:6.637,102.638,13.0656,0,0.000885,0,0
0:1:6.736,102.638,13.0656,0,0.000885,0,0
0:1:6.834,102.932,13.1069,0,0.000885,0,0
0:1:6.935,103.048,13.1207,0,0.000885,0,0
0:1:7.036,103.813,13.2172,0,0.000885,0,0
0:1:7.136,103.813,13.2172,0,0.000885,0,0
0:1:7.234,103.87,13.2241,0,0.000885,0,0
0:1:7.331,103.577,13.1897,0,0.000885,0,0
0:1:7.432,104.044,13.2448,0,0.000885,0,0
0:1:7.533,104.044,13.2448,0,0.000885,0,0
0:1:7.633,103.986,13.2379,0,0.000885,0,0
0:1:7.734,104.573,13.3138,0,0.000885,0,0
0:1:7.836,104.573,13.3138,0,0.000885,0,0
0:1:7.937,104.573,13.3138,0,0.000885,0,0
0:1:8.039,104.925,13.362,0,0.000885,0,0
0:1:8.139,105.276,13.4034,0,0.000885,0,0
0:1:8.239,105.57,13.4448,0,0.000885,0,0
0:1:8.341,105.57,13.4448,0,0.000885,0,0
0:1:8.442,105.454,13.4241,0,0.000885,0,0
0:1:8.543,106.157,13.5137,0,0.000885,0,0
0:1:8.645,106.335,13.5413,0,0.000885,0,0
0:1:8.744,106.335,13.5413,0,0.000885,0,0
0:1:8.846,106.099,13.5068,0,0.000885,0,0
0:1:8.947,106.393,13.5482,0,0.000885,0,0
0:1:9.049,106.566,13.5689,0,0.000885,0,0
0:1:9.148,106.566,13.5689,0,0.000885,0,0
0:1:9.248,106.922,13.6103,0,0.000885,0,0
0:1:9.346,107.211,13.6516,0,0.000885,0,0
0:1:9.444,107.505,13.6861,0,0.000885,0,0
0:1:9.545,107.505,13.6861,0,0.000885,0,0
0:1:9.646,107.74,13.7206,0,0.000885,0,0
0:1:9.747,107.976,13.7481,0,0.000885,0,0
0:1:9.843,107.976,13.7481,0,0.000885,0,0
0:1:9.942,108.385,13.8033,0,0.000885,0,0
0:1:10.044,108.737,13.8447,0,0.000885,0,0
0:1:10.145,109.15,13.8998,0,0.000885,0,0
0:1:10.244,109.15,13.8998,0,0.000885,0,0
0:1:10.343,109.382,13.9274,0,0.000885,0,0
0:1:10.441,109.969,14.0033,0,0.000885,0,0
0:1:10.542,110.378,14.0515,0,0.000885,0,0
0:1:10.642,110.378,14.0515,0,0.000885,0,0
0:1:10.743,110.378,14.0515,0,0.000885,0,0
0:1:10.841,110.44,14.0584,0,0.000885,0,0
0:1:10.939,110.792,14.1067,0,0.000885,0,0
0:1:11.039,110.792,14.1067,0,0.000885,0,0
0:1:11.141,110.965,14.1274,0,0.000885,0,0
0:1:11.242,111.317,14.1756,0,0.000885,0,0
0:1:11.338,111.788,14.2308,0,0.000885,0,0
0:1:11.436,111.788,14.2308,0,0.000885,0,0
0:1:11.536,112.14,14.279,0,0.000885,0,0
0:1:11.638,112.549,14.3273,0,0.000885,0,0
0:1:11.738,112.549,14.3273,0,0.000885,0,0
0:1:11.837,112.785,14.3618,0,0.000885,0,0
0:1:11.934,112.433,14.3135,0,0.000885,0,0
0:1:12.034,112.549,14.3273,0,0.000885,0,0
0:1:12.134,112.549,14.3273,0,0.000885,0,0
0:1:12.236,113.078,14.3963,0,0.000885,0,0
0:1:12.334,113.608,14.4652,0,0.000885,0,0
0:1:12.431,113.665,14.4721,0,0.000885,0,0
0:1:12.530,113.665,14.4721,0,0.000885,0,0
0:1:12.631,113.723,14.479,0,0.000885,0,0
0:1:12.732,114.132,14.5341,0,0.000885,0,0
0:1:12.832,114.426,14.5686,0,0.000885,0,0
0:1:12.932,114.426,14.5686,0,0.000885,0,0
0:1:13.036,114.662,14.5962,0,0.000885,0,0
0:1:13.137,115.013,14.6445,0,0.000885,0,0
0:1:13.239,115.543,14.7134,0,0.000885,0,0
0:1:13.339,115.543,14.7134,0,0.000885,0,0
0:1:13.441,115.485,14.7065,0,0.000885,0,0
0:1:13.542,115.894,14.7548,0,0.000885,0,0
0:1:13.642,115.952,14.7617,0,0.000885,0,0
0:1:13.743,115.952,14.7617,0,0.000885,0,0
0:1:13.844,116.423,14.8237,0,0.000885,0,0
0:1:13.945,116.655,14.8513,0,0.000885,0,0
0:1:14.046,117.068,14.9065,0,0.000885,0,0
0:1:14.147,117.068,14.9065,0,0.000885,0,0
0:1:14.249,117.184,14.9203,0,0.000885,0,0
0:1:14.349,117.713,14.9892,0,0.000885,0,0
0:1:14.446,117.713,14.9892,0,0.000885,0,0
0:1:14.544,117.651,14.9823,0,0.000885,0,0
0:1:14.645,118.123,15.0375,0,0.000885,0,0
0:1:14.746,118.474,15.0857,0,0.000885,0,0
0:1:14.847,118.474,15.0857,0,0.000885,0,0
0:1:14.945,118.474,15.0857,0,0.000885,0,0
0:1:15.043,118.768,15.1202,0,0.000885,0,0
0:1:15.143,119.119,15.1685,0,0.000885,0,0
0:1:15.245,119.119,15.1685,0,0.000885,0,0
0:1:15.345,119.061,15.1616,0,0.000885,0,0
0:1:15.443,119.177,15.1754,0,0.000885,0,0
0:1:15.541,119.528,15.2167,0,0.000885,0,0
0:1:15.639,119.528,15.2167,0,0.000885,0,0
0:1:15.740,120.293,15.3133,0,0.000885,0,0
0:1:15.841,120.525,15.3477,0,0.000885,0,0
0:1:15.940,120.996,15.4029,0,0.000885,0,0
0:1:16.039,120.996,15.4029,0,0.000885,0,0
0:1:16.138,120.996,15.4029,0,0.000885,0,0
0:1:16.239,121.29,15.4443,0,0.000885,0,0
0:1:16.340,121.405,15.458,0,0.000885,0,0
0:1:16.439,121.405,15.458,0,0.000885,0,0
0:1:16.537,121.757,15.4994,0,0.000885,0,0
0:1:16.636,122.344,15.5753,0,0.000885,0,0
0:1:16.737,122.344,15.5753,0,0.000885,0,0
0:1:16.837,122.402,15.5822,0,0.000885,0,0
0:1:16.936,122.286,15.5684,0,0.000885,0,0
0:1:17.035,122.286,15.5684,0,0.000885,0,0
0:1:17.133,122.286,15.5684,0,0.000885,0,0
0:1:17.234,122.815,15.6373,0,0.000885,0,0
0:1:17.335,123.167,15.6787,0,0.000885,0,0
0:1:17.436,123.46,15.72,0,0.000885,0,0
0:1:17.537,123.46,15.72,0,0.000885,0,0
0:1:17.639,123.754,15.7545,0,0.000885,0,0
0:1:17.741,124.341,15.8304,0,0.000885,0,0
0:1:17.843,124.515,15.851,0,0.000885,0,0
0:1:17.945,124.515,15.851,0,0.000885,0,0
0:1:18.045,124.457,15.8442,0,0.000885,0,0
0:1:18.146,124.693,15.8786,0,0.000885,0,0
0:1:18.246,124.866,15.8993,0,0.000885,0,0
0:1:18.348,124.866,15.8993,0,0.000885,0,0
0:1:18.448,125.338,15.9614,0,0.000885,0,0
0:1:18.549,125.631,15.9958,0,0.000885,0,0
0:1:18.649,125.747,16.0096,0,0.000885,0,0
0:1:18.749,125.747,16.0096,0,0.000885,0,0
0:1:18.851,126.04,16.051,0,0.000885,0,0
0:1:18.952,126.214,16.0717,0,0.000885,0,0
0:1:19.048,126.57,16.113,0,0.000885,0,0
0:1:19.146,126.57,16.113,0,0.000885,0,0
0:1:19.247,126.57,16.113,0,0.000885,0,0
0:1:19.349,126.921,16.1613,0,0.000885,0,0
0:1:19.448,126.921,16.1613,0,0.000885,0,0
0:1:19.546,127.388,16.2165,0,0.000885,0,0
0:1:19.644,127.624,16.2509,0,0.000885,0,0
0:1:19.744,127.975,16.2923,0,0.000885,0,0
0:1:19.845,127.975,16.2923,0,0.000885,0,0
0:1:19.946,128.153,16.3199,0,0.000885,0,0
0:1:20.044,128.736,16.3888,0,0.000885,0,0
0:1:20.142,128.914,16.4164,0,0.000885,0,0
0:1:20.241,128.914,16.4164,0,0.000885,0,0
0:1:20.342,128.972,16.4233,0,0.000885,0,0
0:1:20.444,129.501,16.4854,0,0.000885,0,0
0:1:20.544,129.617,16.506,0,0.000885,0,0
0:1:20.641,129.617,16.506,0,0.000885,0,0
0:1:20.739,129.675,16.5129,0,0.000885,0,0
0:1:20.840,129.968,16.5474,0,0.000885,0,0
0:1:20.941,130.262,16.5888,0,0.000885,0,0
0:1:21.041,130.262,16.5888,0,0.000885,0,0
0:1:21.138,130.497,16.6164,0,0.000885,0,0
0:1:21.235,130.907,16.6646,0,0.000885,0,0
0:1:21.336,130.907,16.6646,0,0.000885,0,0
0:1:21.437,131.027,16.6853,0,0.000885,0,0
0:1:21.538,131.142,16.6991,0,0.000885,0,0
0:1:21.635,131.085,16.6922,0,0.000885,0,0
0:1:21.733,131.085,16.6922,0,0.000885,0,0
0:1:21.833,131.845,16.7887,0,0.000885,0,0
0:1:21.935,132.259,16.837,0,0.000885,0,0
0:1:22.036,132.61,16.8853,0,0.000885,0,0
0:1:22.134,132.61,16.8853,0,0.000885,0,0
0:1:22.231,132.61,16.8853,0,0.000885,0,0
0:1:22.329,133.193,16.9611,0,0.000885,0,0
0:1:22.431,133.255,16.968,0,0.000885,0,0
0:1:22.532,133.255,16.968,0,0.000885,0,0
0:1:22.633,134.132,17.0783,0,0.000885,0,0
0:1:22.734,134.31,17.099,0,0.000885,0,0
0:1:22.836,134.661,17.1473,0,0.000885,0,0
0:1:22.938,134.661,17.1473,0,0.000885,0,0
0:1:23.039,134.545,17.1335,0,0.000885,0,0
0:1:23.141,134.777,17.1611,0,0.000885,0,0
0:1:23.242,135.012,17.1886,0,0.000885,0,0
0:1:23.341,135.012,17.1886,0,0.000885,0,0
0:1:23.443,135.248,17.2231,0,0.000885,0,0
0:1:23.544,135.306,17.23,0,0.000885,0,0
0:1:23.645,135.778,17.2852,0,0.000885,0,0
0:1:23.746,135.778,17.2852,0,0.000885,0,0
0:1:23.846,136.302,17.3541,0,0.000885,0,0
0:1:23.949,136.538,17.3817,0,0.000885,0,0
0:1:24.050,136.774,17.4162,0,0.000885,0,0
0:1:24.151,136.774,17.4162,0,0.000885,0,0
0:1:24.247,136.89,17.4299,0,0.000885,0,0
0:1:24.346,137.241,17.4713,0,0.000885,0,0
0:1:24.446,137.241,17.4713,0,0.000885,0,0
0:1:24.548,137.125,17.4575,0,0.000885,0,0
0:1:24.648,137.712,17.5334,0,0.000885,0,0
0:1:24.745,138.122,17.5885,0,0.000885,0,0
0:1:24.843,138.122,17.5885,0,0.000885,0,0
0:1:24.944,138.006,17.5747,0,0.000885,0,0
0:1:25.045,138.122,17.5885,0,0.000885,0,0
0:1:25.146,138.237,17.6023,0,0.000885,0,0
0:1:25.242,138.237,17.6023,0,0.000885,0,0
0:1:25.340,138.767,17.6713,0,0.000885,0,0
0:1:25.440,138.882,17.6851,0,0.000885,0,0
0:1:25.541,139.47,17.7609,0,0.000885,0,0
0:1:25.642,139.47,17.7609,0,0.000885,0,0
0:1:25.740,139.59,17.7747,0,0.000885,0,0
0:1:25.838,139.941,17.8161,0,0.000885,0,0
0:1:25.938,139.941,17.8161,0,0.000885,0,0
0:1:26.039,140.057,17.8298,0,0.000885,0,0
0:1:26.140,140.115,17.8367,0,0.000885,0,0
0:1:26.238,140.235,17.8574,0,0.000885,0,0
0:1:26.335,140.235,17.8574,0,0.000885,0,0
0:1:26.435,140.586,17.8988,0,0.000885,0,0
0:1:26.536,140.528,17.8919,0,0.000885,0,0
0:1:26.637,140.995,17.9539,0,0.000885,0,0
0:1:26.737,140.995,17.9539,0,0.000885,0,0
0:1:26.835,141.698,18.0436,0,0.000885,0,0
0:1:26.934,142.227,18.1056,0,0.000885,0,0
0:1:27.035,142.637,18.1608,0,0.000885,0,0
0:1:27.135,142.637,18.1608,0,0.000885,0,0
0:1:27.235,142.757,18.1746,0,0.000885,0,0
0:1:27.333,143.224,18.2366,0,0.000885,0,0
0:1:27.430,143.224,18.2366,0,0.000885,0,0
0:1:27.530,143.402,18.2573,0,0.000885,0,0
0:1:27.632,143.753,18.3056,0,0.000885,0,0
0:1:27.733,143.927,18.3263,0,0.000885,0,0
0:1:27.834,143.927,18.3263,0,0.000885,0,0
0:1:27.936,144.162,18.3538,0,0.000885,0,0
0:1:28.039,144.865,18.4435,0,0.000885,0,0
0:1:28.139,144.634,18.4159,0,0.000885,0,0
0:1:28.241,144.634,18.4159,0,0.000885,0,0
0:1:28.340,144.572,18.409,0,0.000885,0,0
0:1:28.441,144.865,18.4435,0,0.000885,0,0
0:1:28.542,144.985,18.4573,0,0.000885,0,0
0:1:28.643,144.985,18.4573,0,0.000885,0,0
0:1:28.744,145.217,18.4917,0,0.000885,0,0
0:1:28.845,145.51,18.5262,0,0.000885,0,0
0:1:28.944,145.688,18.5469,0,0.000885,0,0
0:1:29.046,145.688,18.5469,0,0.000885,0,0
0:1:29.147,145.982,18.5883,0,0.000885,0,0
0:1:29.248,146.217,18.6158,0,0.000885,0,0
0:1:29.346,146.862,18.6986,0,0.000885,0,0
0:1:29.443,146.862,18.6986,0,0.000885,0,0
0:1:29.543,147.094,18.7262,0,0.000885,0,0
0:1:29.645,147.33,18.7606,0,0.000885,0,0
0:1:29.745,148.152,18.8641,0,0.000885,0,0
0:1:29.844,148.152,18.8641,0,0.000885,0,0
0:1:29.942,148.095,18.8572,0,0.000885,0,0
0:1:30.041,148.446,18.8985,0,0.000885,0,0
0:1:30.143,148.855,18.9537,0,0.000885,0,0
0:1:30.244,148.855,18.9537,0,0.000885,0,0
0:1:30.342,148.797,18.9468,0,0.000885,0,0
0:1:30.439,149.207,18.9951,0,0.000885,0,0
0:1:30.538,149.207,18.9951,0,0.000885,0,0
0:1:30.639,149.616,19.0502,0,0.000885,0,0
0:1:30.740,149.852,19.0778,0,0.000885,0,0
0:1:30.839,149.852,19.0778,0,0.000885,0,0
0:1:30.936,149.852,19.0778,0,0.000885,0,0
0:1:31.035,149.852,19.0778,0,0.000885,0,0
0:1:31.136,150.261,19.133,0,0.000885,0,0
0:1:31.238,150.439,19.1536,0,0.000885,0,0
0:1:31.337,150.439,19.1536,0,0.000885,0,0
0:1:31.435,151.084,19.2364,0,0.000885,0,0
0:1:31.532,151.377,19.2708,0,0.000885,0,0
0:1:31.632,151.262,19.2571,0,0.000885,0,0
0:1:31.733,151.262,19.2571,0,0.000885,0,0
0:1:31.834,151.2,19.2502,0,0.000885,0,0
0:1:31.932,151.844,19.3329,0,0.000885,0,0
0:1:32.029,151.844,19.3329,0,0.000885,0,0
0:1:32.129,152.08,19.3605,0,0.000885,0,0
0:1:32.231,152.432,19.4087,0,0.000885,0,0
0:1:32.332,152.845,19.4639,0,0.000885,0,0
0:1:32.433,152.845,19.4639,0,0.000885,0,0
0:1:32.535,153.255,19.5122,0,0.000885,0,0
0:1:32.638,153.37,19.526,0,0.000885,0,0
0:1:32.739,153.548,19.5535,0,0.000885,0,0
0:1:32.840,153.548,19.5535,0,0.000885,0,0
0:1:32.942,153.842,19.588,0,0.000885,0,0
0:1:33.042,154.015,19.6087,0,0.000885,0,0
0:1:33.144,154.309,19.6501,0,0.000885,0,0
0:1:33.244,154.309,19.6501,0,0.000885,0,0
0:1:33.345,154.545,19.6776,0,0.000885,0,0
0:1:33.447,154.602,19.6845,0,0.000885,0,0
0:1:33.547,155.012,19.7397,0,0.000885,0,0
0:1:33.648,155.012,19.7397,0,0.000885,0,0
0:1:33.749,155.247,19.7673,0,0.000885,0,0
0:1:33.850,155.425,19.788,0,0.000885,0,0
0:1:33.950,156.128,19.8776,0,0.000885,0,0
0:1:34.047,156.128,19.8776,0,0.000885,0,0
0:1:34.146,156.302,19.8983,0,0.000885,0,0
0:1:34.247,156.657,19.9465,0,0.000885,0,0
0:1:34.348,157.125,20.0086,0,0.000885,0,0
0:1:34.448,157.125,20.0086,0,0.000885,0,0
0:1:34.546,157.182,20.0155,0,0.000885,0,0
0:1:34.644,157.418,20.0431,0,0.000885,0,0
0:1:34.745,157.77,20.0844,0,0.000885,0,0
0:1:34.846,157.77,20.0844,0,0.000885,0,0
0:1:34.946,158.179,20.1396,0,0.000885,0,0
0:1:35.044,158.299,20.1534,0,0.000885,0,0
0:1:35.141,158.65,20.2016,0,0.000885,0,0
0:1:35.241,158.65,20.2016,0,0.000885,0,0
0:1:35.343,158.944,20.2361,0,0.000885,0,0
0:1:35.444,158.766,20.2154,0,0.000885,0,0
0:1:35.542,158.766,20.2154,0,0.000885,0,0
0:1:35.640,159.117,20.2568,0,0.000885,0,0
0:1:35.740,159.411,20.2982,0,0.000885,0,0
0:1:35.841,159.589,20.3188,0,0.000885,0,0
0:1:35.942,159.589,20.3188,0,0.000885,0,0
0:1:36.039,159.589,20.3188,0,0.000885,0,0
0:1:36.137,159.762,20.3395,0,0.000885,0,0
0:1:36.237,160.114,20.3878,0,0.000885,0,0
0:1:36.339,160.114,20.3878,0,0.000885,0,0
0:1:36.440,160.292,20.4085,0,0.000885,0,0
0:1:36.539,160.234,20.4016,0,0.000885,0,0
0:1:36.637,160.879,20.4843,0,0.000885,0,0
0:1:36.735,160.879,20.4843,0,0.000885,0,0
0:1:36.836,161.408,20.5533,0,0.000885,0,0
0:1:36.938,161.76,20.5946,0,0.000885,0,0
0:1:37.037,161.76,20.5946,0,0.000885,0,0
0:1:37.134,162.111,20.6429,0,0.000885,0,0
0:1:37.232,162.169,20.6498,0,0.000885,0,0
0:1:37.334,162.636,20.705,0,0.000885,0,0
0:1:37.435,162.636,20.705,0,0.000885,0,0
0:1:37.536,162.756,20.7256,0,0.000885,0,0
0:1:37.636,162.992,20.7532,0,0.000885,0,0
0:1:37.739,163.107,20.767,0,0.000885,0,0
0:1:37.840,163.107,20.767,0,0.000885,0,0
0:1:37.942,163.637,20.836,0,0.000885,0,0
0:1:38.043,163.81,20.8566,0,0.000885,0,0
0:1:38.145,164.046,20.8842,0,0.000885,0,0
0:1:38.246,164.046,20.8842,0,0.000885,0,0
0:1:38.347,164.282,20.9187,0,0.000885,0,0
0:1:38.448,164.807,20.9807,0,0.000885,0,0
0:1:38.549,164.513,20.9463,0,0.000885,0,0
0:1:38.647,164.513,20.9463,0,0.000885,0,0
0:1:38.748,164.864,20.9945,0,0.000885,0,0
0:1:38.850,165.278,21.0428,0,0.000885,0,0
0:1:38.951,165.452,21.0635,0,0.000885,0,0
0:1:39.052,165.452,21.0635,0,0.000885,0,0
0:1:39.149,165.687,21.098,0,0.000885,0,0
0:1:39.247,165.865,21.1186,0,0.000885,0,0
0:1:39.348,166.39,21.1876,0,0.000885,0,0
0:1:39.449,166.39,21.1876,0,0.000885,0,0
0:1:39.550,166.862,21.2427,0,0.000885,0,0
0:1:39.649,167.213,21.291,0,0.000885,0,0
0:1:39.746,167.271,21.2979,0,0.000885,0,0
0:1:39.845,167.271,21.2979,0,0.000885,0,0
0:1:39.948,167.742,21.36,0,0.000885,0,0
0:1:40.048,167.974,21.3875,0,0.000885,0,0
0:1:40.145,167.974,21.3875,0,0.000885,0,0
0:1:40.243,168.032,21.3944,0,0.000885,0,0
0:1:40.343,168.677,21.4772,0,0.000885,0,0
0:1:40.444,168.561,21.4634,0,0.000885,0,0
0:1:40.545,168.561,21.4634,0,0.000885,0,0
0:1:40.645,169.148,21.5392,0,0.000885,0,0
0:1:40.742,169.384,21.5668,0,0.000885,0,0
0:1:40.840,169.442,21.5737,0,0.000885,0,0
0:1:40.942,169.442,21.5737,0,0.000885,0,0
0:1:41.043,169.909,21.6357,0,0.000885,0,0
0:1:41.143,170.029,21.6495,0,0.000885,0,0
0:1:41.241,170.322,21.684,0,0.000885,0,0
0:1:41.339,170.322,21.684,0,0.000885,0,0
0:1:41.439,170.496,21.7116,0,0.000885,0,0
0:1:41.541,171.141,21.7874,0,0.000885,0,0
0:1:41.640,171.199,21.8012,0,0.000885,0,0
0:1:41.739,171.199,21.8012,0,0.000885,0,0
0:1:41.837,171.492,21.8357,0,0.000885,0,0
0:1:41.937,171.377,21.8219,0,0.000885,0,0
0:1:42.039,171.377,21.8219,0,0.000885,0,0
0:1:42.138,171.844,21.8771,0,0.000885,0,0
0:1:42.236,172.257,21.9322,0,0.000885,0,0
0:1:42.334,172.257,21.9322,0,0.000885,0,0
0:1:42.433,172.257,21.9322,0,0.000885,0,0
0:1:42.534,172.667,21.9874,0,0.000885,0,0
0:1:42.636,173.018,22.0287,0,0.000885,0,0
0:1:42.737,173.138,22.0425,0,0.000885,0,0
0:1:42.838,173.138,22.0425,0,0.000885,0,0
0:1:42.940,173.254,22.0563,0,0.000885,0,0
0:1:43.042,173.547,22.0977,0,0.000885,0,0
0:1:43.142,173.783,22.1253,0,0.000885,0,0
0:1:43.244,173.783,22.1253,0,0.000885,0,0
0:1:43.345,174.014,22.1597,0,0.000885,0,0
0:1:43.446,174.192,22.1804,0,0.000885,0,0
0:1:43.547,174.659,22.2356,0,0.000885,0,0
0:1:43.648,174.659,22.2356,0,0.000885,0,0
0:1:43.747,174.895,22.2701,0,0.000885,0,0
0:1:43.849,174.953,22.277,0,0.000885,0,0
0:1:43.949,175.598,22.3597,0,0.000885,0,0
0:1:44.051,175.598,22.3597,0,0.000885,0,0
0:1:44.152,175.776,22.3804,0,0.000885,0,0
0:1:44.252,176.07,22.4149,0,0.000885,0,0
0:1:44.349,176.537,22.4769,0,0.000885,0,0
0:1:44.447,176.537,22.4769,0,0.000885,0,0
0:1:44.549,176.772,22.5045,0,0.000885,0,0
0:1:44.648,177.008,22.539,0,0.000885,0,0
0:1:44.748,177.244,22.5665,0,0.000885,0,0
0:1:44.845,177.244,22.5665,0,0.000885,0,0
0:1:44.946,177.359,22.5803,0,0.000885,0,0
0:1:45.048,177.653,22.6217,0,0.000885,0,0
0:1:45.148,177.653,22.6217,0,0.000885,0,0
0:1:45.246,177.475,22.5941,0,0.000885,0,0
0:1:45.344,177.889,22.6493,0,0.000885,0,0
0:1:45.442,178.182,22.6838,0,0.000885,0,0
0:1:45.543,178.182,22.6838,0,0.000885,0,0
0:1:45.645,178.414,22.7182,0,0.000885,0,0
0:1:45.745,179.179,22.8148,0,0.000885,0,0
0:1:45.842,179.41,22.8423,0,0.000885,0,0
0:1:45.941,179.41,22.8423,0,0.000885,0,0
0:1:46.042,179.704,22.8837,0,0.000885,0,0
0:1:46.144,179.766,22.8906,0,0.000885,0,0
0:1:46.245,179.939,22.9113,0,0.000885,0,0
0:1:46.342,179.939,22.9113,0,0.000885,0,0
0:1:46.438,180.175,22.9389,0,0.000885,0,0
0:1:46.539,180.469,22.9802,0,0.000885,0,0
0:1:46.639,180.469,22.9802,0,0.000885,0,0
0:1:46.741,180.584,22.994,0,0.000885,0,0
0:1:46.839,180.936,23.0354,0,0.000885,0,0
0:1:46.938,181.345,23.0905,0,0.000885,0,0
0:1:47.037,181.345,23.0905,0,0.000885,0,0
0:1:47.138,181.407,23.0974,0,0.000885,0,0
0:1:47.239,181.874,23.1595,0,0.000885,0,0
0:1:47.338,181.995,23.1733,0,0.000885,0,0
0:1:47.435,181.995,23.1733,0,0.000885,0,0
0:1:47.533,182.64,23.256,0,0.000885,0,0
0:1:47.635,182.519,23.2422,0,0.000885,0,0
0:1:47.735,182.871,23.2836,0,0.000885,0,0
0:1:47.837,182.871,23.2836,0,0.000885,0,0
0:1:47.937,182.871,23.2836,0,0.000885,0,0
0:1:48.040,183.222,23.3319,0,0.000885,0,0
0:1:48.141,183.285,23.3388,0,0.000885,0,0
0:1:48.243,183.285,23.3388,0,0.000885,0,0
0:1:48.344,183.867,23.4077,0,0.000885,0,0
0:1:48.446,184.512,23.4904,0,0.000885,0,0
0:1:48.547,184.806,23.5318,0,0.000885,0,0
0:1:48.648,184.806,23.5318,0,0.000885,0,0
0:1:48.748,185.099,23.5663,0,0.000885,0,0
0:1:48.849,185.513,23.6214,0,0.000885,0,0
0:1:48.950,185.451,23.6145,0,0.000885,0,0
0:1:49.050,185.451,23.6145,0,0.000885,0,0
0:1:49.152,185.629,23.6352,0,0.000885,0,0
0:1:49.253,186.1,23.6973,0,0.000885,0,0
0:1:49.354,186.389,23.7318,0,0.000885,0,0
0:1:49.451,186.389,23.7318,0,0.000885,0,0
0:1:49.549,186.745,23.78,0,0.000885,0,0
0:1:49.649,186.977,23.8076,0,0.000885,0,0
0:1:49.751,186.977,23.8076,0,0.000885,0,0
0:1:49.851,186.919,23.8007,0,0.000885,0,0
0:1:49.949,187.034,23.8145,0,0.000885,0,0
0:1:50.046,187.39,23.8559,0,0.000885,0,0
0:1:50.146,187.39,23.8559,0,0.000885,0,0
0:1:50.248,187.448,23.8696,0,0.000885,0,0
0:1:50.348,187.742,23.9041,0,0.000885,0,0
0:1:50.448,188.035,23.9386,0,0.000885,0,0
0:1:50.544,188.035,23.9386,0,0.000885,0,0
0:1:50.643,187.973,23.9317,0,0.000885,0,0
0:1:50.744,188.329,23.98,0,0.000885,0,0
0:1:50.846,188.618,24.0144,0,0.000885,0,0
0:1:50.944,188.618,24.0144,0,0.000885,0,0
0:1:51.041,188.974,24.0627,0,0.000885,0,0
0:1:51.140,189.383,24.111,0,0.000885,0,0
0:1:51.241,189.325,24.1041,0,0.000885,0,0
0:1:51.342,189.325,24.1041,0,0.000885,0,0
0:1:51.443,189.677,24.1523,0,0.000885,0,0
0:1:51.541,189.85,24.173,0,0.000885,0,0
0:1:51.638,189.85,24.173,0,0.000885,0,0
0:1:51.739,190.202,24.2144,0,0.000885,0,0
0:1:51.841,190.264,24.2282,0,0.000885,0,0
0:1:51.941,191.082,24.3316,0,0.000885,0,0
0:1:52.038,191.082,24.3316,0,0.000885,0,0
0:1:52.136,191.202,24.3454,0,0.000885,0,0
0:1:52.237,191.024,24.3247,0,0.000885,0,0
0:1:52.338,191.26,24.3523,0,0.000885,0,0
0:1:52.438,191.26,24.3523,0,0.000885,0,0
0:1:52.539,191.963,24.4419,0,0.000885,0,0
0:1:52.641,191.905,24.435,0,0.000885,0,0
0:1:52.743,192.257,24.4764,0,0.000885,0,0
0:1:52.844,192.257,24.4764,0,0.000885,0,0
0:1:52.946,192.55,24.5178,0,0.000885,0,0
0:1:53.045,192.902,24.5591,0,0.000885,0,0
0:1:53.146,193.08,24.5867,0,0.000885,0,0
0:1:53.246,193.08,24.5867,0,0.000885,0,0
0:1:53.348,193.604,24.6488,0,0.000885,0,0
0:1:53.447,193.898,24.6901,0,0.000885,0,0
0:1:53.547,194.427,24.7522,0,0.000885,0,0
0:1:53.646,194.427,24.7522,0,0.000885,0,0
0:1:53.746,194.307,24.7384,0,0.000885,0,0
0:1:53.846,194.427,24.7522,0,0.000885,0,0
0:1:53.947,194.721,24.7935,0,0.000885,0,0
0:1:54.045,194.721,24.7935,0,0.000885,0,0
0:1:54.142,195.188,24.8556,0,0.000885,0,0
0:1:54.239,195.13,24.8418,0,0.000885,0,0
0:1:54.340,195.13,24.8418,0,0.000885,0,0
0:1:54.441,195.659,24.9108,0,0.000885,0,0
0:1:54.540,195.717,24.9177,0,0.000885,0,0
0:1:54.637,195.953,24.9521,0,0.000885,0,0
0:1:54.734,195.953,24.9521,0,0.000885,0,0
0:1:54.836,196.362,25.0004,0,0.000885,0,0
0:1:54.935,196.304,24.9935,0,0.000885,0,0
0:1:55.034,196.714,25.0487,0,0.000885,0,0
0:1:55.132,196.714,25.0487,0,0.000885,0,0
0:1:55.228,197.123,25.0969,0,0.000885,0,0
0:1:55.330,197.243,25.1107,0,0.000885,0,0
0:1:55.429,197.243,25.1107,0,0.000885,0,0
0:1:55.529,197.71,25.1728,0,0.000885,0,0
0:1:55.626,198.119,25.2279,0,0.000885,0,0
0:1:55.723,198.239,25.2417,0,0.000885,0,0
0:1:55.823,198.239,25.2417,0,0.000885,0,0
0:1:55.924,198.297,25.2486,0,0.000885,0,0
0:1:56.024,198.707,25.2969,0,0.000885,0,0
0:1:56.119,199.178,25.3589,0,0.000885,0,0
0:1:56.227,199.178,25.3589,0,0.000885,0,0
0:1:56.327,199.351,25.3796,0,0.000885,0,0
0:1:56.428,199.823,25.4417,0,0.000885,0,0
0:1:56.528,200.174,25.4899,0,0.000885,0,0
0:1:56.625,200.174,25.4899,0,0.000885,0,0
0:1:56.722,200.29,25.5037,0,0.000885,0,0
0:1:56.822,200.526,25.5313,0,0.000885,0,0
0:1:56.923,200.762,25.5589,0,0.000885,0,0
0:1:57.023,200.762,25.5589,0,0.000885,0,0
0:1:57.118,201.171,25.614,0,0.000885,0,0
0:1:57.226,200.762,25.5589,0,0.000885,0,0
0:1:57.324,200.762,25.5589,0,0.000885,0,0
0:1:57.425,201.171,25.614,0,0.000885,0,0
0:1:57.525,201.464,25.6485,0,0.000885,0,0
0:1:57.626,201.642,25.6761,0,0.000885,0,0
0:1:57.726,201.642,25.6761,0,0.000885,0,0
0:1:57.829,202.052,25.7243,0,0.000885,0,0
0:1:57.929,202.519,25.7864,0,0.000885,0,0
0:1:58.031,202.639,25.8002,0,0.000885,0,0
0:1:58.130,202.639,25.8002,0,0.000885,0,0
0:1:58.231,203.164,25.8691,0,0.000885,0,0
0:1:58.331,203.515,25.9105,0,0.000885,0,0
0:1:58.432,204.044,25.9794,0,0.000885,0,0
0:1:58.532,204.044,25.9794,0,0.000885,0,0
0:1:58.633,204.102,25.9863,0,0.000885,0,0
0:1:58.732,204.516,26.0415,0,0.000885,0,0
0:1:58.833,204.454,26.0346,0,0.000885,0,0
0:1:58.932,204.454,26.0346,0,0.000885,0,0
0:1:59.033,204.809,26.076,0,0.000885,0,0
0:1:59.132,204.809,26.076,0,0.000885,0,0
0:1:59.229,205.277,26.138,0,0.000885,0,0
0:1:59.326,205.277,26.138,0,0.000885,0,0
0:1:59.427,205.628,26.1794,0,0.000885,0,0
0:1:59.528,205.864,26.2139,0,0.000885,0,0
0:1:59.626,205.864,26.2139,0,0.000885,0,0
0:1:59.724,206.273,26.2621,0,0.000885,0,0
0:1:59.822,206.624,26.3104,0,0.000885,0,0
0:1:59.922,206.976,26.3518,0,0.000885,0,0
0:2:0.023,206.976,26.3518,0,0.000885,0,0
0:2:0.123,206.976,26.3518,0,0.000885,0,0
0:2:0.228,206.976,26.3518,0,0.000885,0,0
0:2:0.325,207.096,26.3656,0,0.000885,0,0
0:2:0.424,207.096,26.3656,0,0.000885,0,0
0:2:0.525,207.621,26.4345,0,0.000885,0,0
0:2:0.625,207.621,26.4345,0,0.000885,0,0
0:2:0.722,207.977,26.4828,0,0.000885,0,0
0:2:0.829,207.977,26.4828,0,0.000885,0,0
0:2:0.928,208.328,26.5241,0,0.000885,0,0
0:2:1.029,208.266,26.5172,0,0.000885,0,0
0:2:1.128,208.386,26.531,0,0.000885,0,0
0:2:1.226,208.386,26.531,0,0.000885,0,0
0:2:1.323,208.737,26.5793,0,0.000885,0,0
0:2:1.419,209.031,26.6138,0,0.000885,0,0
0:2:1.522,209.146,26.6276,0,0.000885,0,0
0:2:1.622,209.146,26.6276,0,0.000885,0,0
0:2:1.718,209.734,26.7034,0,0.000885,0,0
0:2:1.817,209.849,26.7172,0,0.000885,0,0
0:2:1.914,209.849,26.7172,0,0.000885,0,0
0:2:2.015,209.734,26.7034,0,0.000885,0,0
0:2:2.115,210.027,26.7448,0,0.000885,0,0
0:2:2.214,210.73,26.8344,0,0.000885,0,0
0:2:2.322,210.73,26.8344,0,0.000885,0,0
0:2:2.416,210.73,26.8344,0,0.000885,0,0
0:2:2.516,210.672,26.8206,0,0.000885,0,0
0:2:2.617,210.908,26.8551,0,0.000885,0,0
0:2:2.717,210.908,26.8551,0,0.000885,0,0
0:2:2.818,210.966,26.862,0,0.000885,0,0
0:2:2.918,211.495,26.9309,0,0.000885,0,0
0:2:3.019,211.259,26.8964,0,0.000885,0,0
0:2:3.119,211.259,26.8964,0,0.000885,0,0
0:2:3.223,211.789,26.9654,0,0.000885,0,0
0:2:3.323,211.847,26.9723,0,0.000885,0,0
0:2:3.424,212.082,26.9999,0,0.000885,0,0
0:2:3.523,212.082,26.9999,0,0.000885,0,0
0:2:3.623,212.02,26.993,0,0.000885,0,0
0:2:3.724,212.314,27.0343,0,0.000885,0,0
0:2:3.824,212.607,27.0688,0,0.000885,0,0
0:2:3.924,212.607,27.0688,0,0.000885,0,0
0:2:4.025,213.137,27.1378,0,0.000885,0,0
0:2:4.125,213.488,27.1791,0,0.000885,0,0
0:2:4.226,213.488,27.1791,0,0.000885,0,0
0:2:4.323,212.843,27.1033,0,0.000885,0,0
0:2:4.429,212.901,27.1102,0,0.000885,0,0
0:2:4.528,212.901,27.1102,0,0.000885,0,0
0:2:4.628,212.901,27.1102,0,0.000885,0,0
0:2:4.728,212.959,27.1171,0,0.000885,0,0
0:2:4.825,213.016,27.124,0,0.000885,0,0
0:2:4.919,212.607,27.0688,0,0.000885,0,0
0:2:5.020,212.607,27.0688,0,0.000885,0,0
0:2:5.122,212.843,27.1033,0,0.000885,0,0
0:2:5.223,212.665,27.0757,0,0.000885,0,0
0:2:5.318,212.549,27.0619,0,0.000885,0,0
0:2:5.425,212.549,27.0619,0,0.000885,0,0
0:2:5.524,212.434,27.0481,0,0.000885,0,0
0:2:5.624,212.314,27.0343,0,0.000885,0,0
0:2:5.724,211.962,26.9861,0,0.000885,0,0
0:2:5.819,211.962,26.9861,0,0.000885,0,0
0:2:5.927,211.553,26.9378,0,0.000885,0,0
0:2:6.025,211.144,26.8827,0,0.000885,0,0
0:2:6.126,211.259,26.8964,0,0.000885,0,0
0:2:6.226,211.259,26.8964,0,0.000885,0,0
0:2:6.325,210.379,26.7861,0,0.000885,0,0
0:2:6.420,209.969,26.731,0,0.000885,0,0
0:2:6.516,209.969,26.731,0,0.000885,0,0
0:2:6.617,209.734,26.7034,0,0.000885,0,0
0:2:6.716,209.031,26.6138,0,0.000885,0,0
0:2:6.815,208.915,26.6,0,0.000885,0,0
0:2:6.911,208.915,26.6,0,0.000885,0,0
0:2:7.009,208.501,26.5448,0,0.000885,0,0
0:2:7.109,207.856,26.4621,0,0.000885,0,0
0:2:7.208,207.154,26.3724,0,0.000885,0,0
0:2:7.309,207.154,26.3724,0,0.000885,0,0
0:2:7.409,206.099,26.2414,0,0.000885,0,0
0:2:7.511,204.925,26.0898,0,0.000885,0,0
0:2:7.609,203.635,25.9243,0,0.000885,0,0
0:2:7.710,203.635,25.9243,0,0.000885,0,0
0:2:7.811,202.345,25.7657,0,0.000885,0,0
0:2:7.911,201.055,25.6002,0,0.000885,0,0
0:2:8.011,201.055,25.6002,0,0.000885,0,0
0:2:8.112,199.529,25.4072,0,0.000885,0,0
0:2:8.210,197.537,25.1521,0,0.000885,0,0
0:2:8.310,195.833,24.9314,0,0.000885,0,0
0:2:8.410,195.833,24.9314,0,0.000885,0,0
0:2:8.510,194.076,24.7108,0,0.000885,0,0
0:2:8.611,192.608,24.5247,0,0.000885,0,0
0:2:8.711,191.554,24.3868,0,0.000885,0,0
0:2:8.811,191.554,24.3868,0,0.000885,0,0
0:2:8.918,190.322,24.2351,0,0.000885,0,0
0:2:9.028,189.325,24.1041,0,0.000885,0,0
0:2:9.128,188.035,23.9386,0,0.000885,0,0
0:2:9.229,188.035,23.9386,0,0.000885,0,0
0:2:9.329,186.977,23.8076,0,0.000885,0,0
0:2:9.427,185.922,23.6697,0,0.000885,0,0
0:2:9.525,185.277,23.587,0,0.000885,0,0
0:2:9.624,185.277,23.587,0,0.000885,0,0
0:2:9.726,184.103,23.4422,0,0.000885,0,0
0:2:9.825,183.516,23.3663,0,0.000885,0,0
0:2:9.924,182.871,23.2836,0,0.000885,0,0
0:2:10.018,182.871,23.2836,0,0.000885,0,0
0:2:10.117,181.817,23.1526,0,0.000885,0,0
0:2:10.217,181.172,23.0699,0,0.000885,0,0
0:2:10.318,180.762,23.0147,0,0.000885,0,0
0:2:10.416,180.762,23.0147,0,0.000885,0,0
0:2:10.514,179.766,22.8906,0,0.000885,0,0
0:2:10.612,179.117,22.8079,0,0.000885,0,0
0:2:10.714,179.117,22.8079,0,0.000885,0,0
0:2:10.814,178.414,22.7182,0,0.000885,0,0
0:2:10.913,177.827,22.6424,0,0.000885,0,0
0:2:11.010,177.182,22.5596,0,0.000885,0,0
0:2:11.109,177.182,22.5596,0,0.000885,0,0
0:2:11.210,176.185,22.4355,0,0.000885,0,0
0:2:11.311,175.54,22.3528,0,0.000885,0,0
0:2:11.410,174.602,22.2287,0,0.000885,0,0
0:2:11.516,174.602,22.2287,0,0.000885,0,0
0:2:11.616,174.014,22.1597,0,0.000885,0,0
0:2:11.716,172.902,22.015,0,0.000885,0,0
0:2:11.817,172.137,21.9184,0,0.000885,0,0
0:2:11.915,172.137,21.9184,0,0.000885,0,0
0:2:12.012,171.199,21.8012,0,0.000885,0,0
0:2:12.112,170.029,21.6495,0,0.000885,0,0
0:2:12.212,169.032,21.5185,0,0.000885,0,0
0:2:12.313,169.032,21.5185,0,0.000885,0,0
0:2:12.413,167.858,21.3737,0,0.000885,0,0
0:2:12.513,166.39,21.1876,0,0.000885,0,0
0:2:12.616,165.042,21.0152,0,0.000885,0,0
0:2:12.717,165.042,21.0152,0,0.000885,0,0
0:2:12.817,163.281,20.7877,0,0.000885,0,0
0:2:12.919,161.288,20.5326,0,0.000885,0,0
0:2:13.020,161.288,20.5326,0,0.000885,0,0
0:2:13.124,158.824,20.2223,0,0.000885,0,0
0:2:13.220,156.657,19.9465,0,0.000885,0,0
0:2:13.324,153.779,19.5811,0,0.000885,0,0
0:2:13.425,153.779,19.5811,0,0.000885,0,0
0:2:13.525,151.026,19.2295,0,0.000885,0,0
0:2:13.556,151.026,19.2295,0,0.000885,0,0