File: DataFile2021-06-07_073918.csv
Test ID:,Date Tested:,Time:,Test Type:,Diameter Avg. (mm):,Cyl. Corr. Factor:,Height (mm):,Age (days):,Weight (kN):,Break Type:,Ramp Rate (MPa/s):,Load at Break (kN):,Stress at Break (MPa):
12,6/7/2021,07:39,Cylinder,100,1,200,0,3.6,3,0.24,460.7,58.66
Sample Time,Load (kN),Stress (MPa),Long. Strain,Trans. Strain,Chan1 Deflection (mm),Chan2 Deflection (mm)
0:0:18.056,6.44992,0.820476,0,0.000885,0,0
0:0:18.358,12.2015,1.55132,0,0.000885,0,0
0:0:18.656,12.9621,1.64785,0,0.000885,0,0
0:0:18.951,12.2015,1.55132,0,0.000885,0,0
0:0:19.250,11.8456,1.50995,0,0.000885,0,0
0:0:19.545,11.4942,1.46169,0,0.000885,0,0
0:0:19.847,11.4942,1.46169,0,0.000885,0,0
0:0:20.141,11.085,1.41343,0,0.000885,0,0
0:0:20.440,10.9693,1.39964,0,0.000885,0,0
0:0:20.738,11.085,1.41343,0,0.000885,0,0
0:0:21.034,10.7336,1.36516,0,0.000885,0,0
0:0:21.334,11.085,1.41343,0,0.000885,0,0
0:0:21.629,11.4942,1.46169,0,0.000885,0,0
0:0:21.929,11.7878,1.50306,0,0.000885,0,0
0:0:22.227,12.7842,1.62716,0,0.000885,0,0
0:0:22.522,12.6685,1.61337,0,0.000885,0,0
0:0:22.823,13.8429,1.76506,0,0.000885,0,0
0:0:23.118,13.9585,1.77885,0,0.000885,0,0
0:0:23.421,14.8971,1.89606,0,0.000885,0,0
0:0:23.723,15.2485,1.94432,0,0.000885,0,0
0:0:24.028,16.4807,2.09601,0,0.000885,0,0
0:0:24.331,17.3614,2.21322,0,0.000885,0,0
0:0:24.633,18.5357,2.35801,0,0.000885,0,0
0:0:24.935,19.2386,2.44764,0,0.000885,0,0
0:0:25.232,19.6478,2.5028,0,0.000885,0,0
0:0:25.531,20.235,2.57864,0,0.000885,0,0
0:0:25.830,20.88,2.66138,0,0.000885,0,0
0:0:26.128,21.5828,2.75101,0,0.000885,0,0
0:0:26.427,21.992,2.79927,0,0.000885,0,0
0:0:26.724,22.7571,2.8958,0,0.000885,0,0
0:0:27.025,22.6993,2.8889,0,0.000885,0,0
0:0:27.321,23.2242,2.95785,0,0.000885,0,0
0:0:27.621,23.8692,3.04059,0,0.000885,0,0
0:0:27.921,24.3985,3.10954,0,0.000885,0,0
0:0:28.217,25.1591,3.20606,0,0.000885,0,0
0:0:28.520,25.9821,3.30948,0,0.000885,0,0
0:0:28.824,26.3335,3.35085,0,0.000885,0,0
0:0:29.129,26.805,3.4129,0,0.000885,0,0
0:0:29.430,27.3877,3.48875,0,0.000885,0,0
0:0:29.733,28.2106,3.59217,0,0.000885,0,0
0:0:30.034,28.74,3.66112,0,0.000885,0,0
0:0:30.331,29.2648,3.72317,0,0.000885,0,0
0:0:30.633,29.852,3.79901,0,0.000885,0,0
0:0:30.928,30.6749,3.90243,0,0.000885,0,0
0:0:31.229,31.142,3.96449,0,0.000885,0,0
0:0:31.529,31.3778,3.99206,0,0.000885,0,0
0:0:31.824,32.3742,4.12306,0,0.000885,0,0
0:0:32.125,32.7256,4.16443,0,0.000885,0,0
0:0:32.421,33.722,4.29543,0,0.000885,0,0
0:0:32.722,34.1935,4.35059,0,0.000885,0,0
0:0:33.020,34.7806,4.42643,0,0.000885,0,0
0:0:33.321,35.1899,4.48159,0,0.000885,0,0
0:0:33.626,35.8349,4.56433,0,0.000885,0,0
0:0:33.929,36.0128,4.58501,0,0.000885,0,0
0:0:34.231,36.8313,4.68843,0,0.000885,0,0
0:0:34.534,37.5341,4.77807,0,0.000885,0,0
0:0:34.835,37.9478,4.83322,0,0.000885,0,0
0:0:35.134,38.5349,4.90907,0,0.000885,0,0
0:0:35.431,39.002,4.96423,0,0.000885,0,0
0:0:35.733,40.0562,5.10212,0,0.000885,0,0
0:0:36.027,40.292,5.1297,0,0.000885,0,0
0:0:36.328,41.1149,5.23312,0,0.000885,0,0
0:0:36.626,41.582,5.29517,0,0.000885,0,0
0:0:36.924,42.3471,5.3917,0,0.000885,0,0
0:0:37.224,42.9921,5.47444,0,0.000885,0,0
0:0:37.520,43.7527,5.57096,0,0.000885,0,0
0:0:37.823,44.1619,5.62612,0,0.000885,0,0
0:0:38.117,44.5756,5.67439,0,0.000885,0,0
0:0:38.420,44.927,5.72265,0,0.000885,0,0
0:0:38.725,45.7455,5.82607,0,0.000885,0,0
0:0:39.028,46.5684,5.92949,0,0.000885,0,0
0:0:39.332,46.862,5.96397,0,0.000885,0,0
0:0:39.633,47.1556,6.00533,0,0.000885,0,0
0:0:39.936,47.8006,6.08807,0,0.000885,0,0
0:0:40.231,48.7392,6.20528,0,0.000885,0,0
0:0:40.532,49.3842,6.28802,0,0.000885,0,0
0:0:40.832,49.8512,6.35007,0,0.000885,0,0
0:0:41.128,51.0834,6.50176,0,0.000885,0,0
0:0:41.430,51.0255,6.49486,0,0.000885,0,0
0:0:41.726,51.4971,6.55691,0,0.000885,0,0
0:0:42.026,52.1421,6.63965,0,0.000885,0,0
0:0:42.324,52.787,6.72239,0,0.000885,0,0
0:0:42.620,53.432,6.80513,0,0.000885,0,0
0:0:42.921,53.8991,6.86028,0,0.000885,0,0
0:0:43.216,54.3706,6.92234,0,0.000885,0,0
0:0:43.519,55.0734,7.01197,0,0.000885,0,0
0:0:43.823,56.012,7.12918,0,0.000885,0,0
0:0:44.127,56.9506,7.25328,0,0.000885,0,0
0:0:44.430,57.302,7.29465,0,0.000885,0,0
0:0:44.731,57.302,7.29465,0,0.000885,0,0
0:0:45.035,57.6534,7.34292,0,0.000885,0,0
0:0:45.330,58.6498,7.46702,0,0.000885,0,0
0:0:45.629,58.7076,7.47392,0,0.000885,0,0
0:0:45.927,59.7663,7.61181,0,0.000885,0,0
0:0:46.225,60.527,7.70834,0,0.000885,0,0
0:0:46.525,61.2298,7.79797,0,0.000885,0,0
0:0:46.821,62.1105,7.90829,0,0.000885,0,0
0:0:47.123,62.5198,7.96344,0,0.000885,0,0
0:0:47.420,62.582,7.97034,0,0.000885,0,0
0:0:47.718,63.4583,8.08066,0,0.000885,0,0
0:0:48.016,63.872,8.12892,0,0.000885,0,0
0:0:48.314,64.4547,8.20476,0,0.000885,0,0
0:0:48.616,64.9262,8.26681,0,0.000885,0,0
0:0:48.920,65.7492,8.37024,0,0.000885,0,0
0:0:49.224,66.2162,8.43229,0,0.000885,0,0
0:0:49.528,67.2705,8.56329,0,0.000885,0,0
0:0:49.831,67.742,8.62534,0,0.000885,0,0
0:0:50.132,68.4448,8.71497,0,0.000885,0,0
0:0:50.430,69.1476,8.80461,0,0.000885,0,0
0:0:50.731,69.6769,8.87355,0,0.000885,0,0
0:0:51.026,69.7926,8.88734,0,0.000885,0,0
0:0:51.327,69.7926,8.88734,0,0.000885,0,0
0:0:51.625,70.6733,8.99766,0,0.000885,0,0
0:0:51.921,71.3183,9.0804,0,0.000885,0,0
0:0:52.224,72.3147,9.2045,0,0.000885,0,0
0:0:52.520,72.6083,9.24587,0,0.000885,0,0
0:0:52.820,73.4891,9.35619,0,0.000885,0,0
0:0:53.119,74.1341,9.43892,0,0.000885,0,0
0:0:53.421,74.3698,9.4665,0,0.000885,0,0
0:0:53.727,75.0726,9.55613,0,0.000885,0,0
0:0:54.029,75.8333,9.65266,0,0.000885,0,0
0:0:54.333,76.1891,9.70092,0,0.000885,0,0
0:0:54.635,76.9498,9.79745,0,0.000885,0,0
0:0:54.935,77.359,9.85261,0,0.000885,0,0
0:0:55.235,77.8884,9.91466,0,0.000885,0,0
0:0:55.531,78.5334,9.9974,0,0.000885,0,0
0:0:55.832,79.4719,10.1215,0,0.000885,0,0
0:0:56.128,80.1747,10.2111,0,0.000885,0,0
0:0:56.428,80.6463,10.2663,0,0.000885,0,0
0:0:56.727,80.8197,10.287,0,0.000885,0,0
0:0:57.024,81.6427,10.3973,0,0.000885,0,0
0:0:57.325,82.2877,10.48,0,0.000885,0,0
0:0:57.619,82.6391,10.5214,0,0.000885,0,0
0:0:57.922,83.5776,10.6386,0,0.000885,0,0
0:0:58.217,84.1648,10.7145,0,0.000885,0,0
0:0:58.520,85.1034,10.8386,0,0.000885,0,0
0:0:58.825,85.3347,10.8661,0,0.000885,0,0
0:0:59.129,85.6905,10.9075,0,0.000885,0,0
0:0:59.432,86.2733,10.9833,0,0.000885,0,0
0:0:59.734,87.2741,11.1143,0,0.000885,0,0
0:1:0.036,87.7412,11.1695,0,0.000885,0,0
0:1:0.333,88.2082,11.2316,0,0.000885,0,0
0:1:0.630,88.8577,11.3143,0,0.000885,0,0
0:1:0.932,89.3826,11.3832,0,0.000885,0,0
0:1:1.227,89.9119,11.4453,0,0.000885,0,0
0:1:1.528,90.4412,11.5142,0,0.000885,0,0
0:1:1.826,91.4376,11.6452,0,0.000885,0,0
0:1:2.124,91.4955,11.6521,0,0.000885,0,0
0:1:2.424,92.3762,11.7625,0,0.000885,0,0
0:1:2.720,92.9589,11.8383,0,0.000885,0,0
0:1:3.022,93.3726,11.8866,0,0.000885,0,0
0:1:3.318,94.0754,11.9762,0,0.000885,0,0
0:1:3.621,94.8361,12.0727,0,0.000885,0,0
0:1:3.927,95.5434,12.1624,0,0.000885,0,0
0:1:4.229,95.8369,12.2037,0,0.000885,0,0
0:1:4.533,96.7132,12.314,0,0.000885,0,0
0:1:4.835,96.8912,12.3347,0,0.000885,0,0
0:1:5.138,97.594,12.4244,0,0.000885,0,0
0:1:5.433,98.4169,12.5278,0,0.000885,0,0
0:1:5.732,98.8261,12.5829,0,0.000885,0,0
0:1:6.030,99.2354,12.6381,0,0.000885,0,0
0:1:6.328,100,12.7346,0,0.000885,0,0
0:1:6.630,100.116,12.7484,0,0.000885,0,0
0:1:6.924,100.997,12.8587,0,0.000885,0,0
0:1:7.224,101.642,12.9415,0,0.000885,0,0
0:1:7.521,102.345,13.0311,0,0.000885,0,0
0:1:7.819,102.754,13.0862,0,0.000885,0,0
0:1:8.120,103.635,13.1966,0,0.000885,0,0
0:1:8.422,104.337,13.2862,0,0.000885,0,0
0:1:8.727,104.515,13.3069,0,0.000885,0,0
0:1:9.029,105.276,13.4034,0,0.000885,0,0
0:1:9.332,105.338,13.4103,0,0.000885,0,0
0:1:9.635,105.983,13.493,0,0.000885,0,0
0:1:9.931,106.566,13.5689,0,0.000885,0,0
0:1:10.234,107.918,13.7413,0,0.000885,0,0
0:1:10.529,108.15,13.7688,0,0.000885,0,0
0:1:10.829,108.505,13.8171,0,0.000885,0,0
0:1:11.126,109.382,13.9274,0,0.000885,0,0
0:1:11.425,109.853,13.9895,0,0.000885,0,0
0:1:11.726,110.85,14.1136,0,0.000885,0,0
0:1:12.020,111.437,14.1894,0,0.000885,0,0
0:1:12.322,111.904,14.2515,0,0.000885,0,0
0:1:12.618,112.082,14.2721,0,0.000885,0,0
0:1:12.917,113.02,14.3894,0,0.000885,0,0
0:1:13.216,113.839,14.4928,0,0.000885,0,0
0:1:13.519,114.017,14.5204,0,0.000885,0,0
0:1:13.825,114.484,14.5755,0,0.000885,0,0
0:1:14.127,115.365,14.6858,0,0.000885,0,0
0:1:14.430,115.836,14.7479,0,0.000885,0,0
0:1:14.733,116.655,14.8513,0,0.000885,0,0
0:1:15.030,117.184,14.9203,0,0.000885,0,0
0:1:15.331,117.651,14.9823,0,0.000885,0,0
0:1:15.627,118.416,15.0788,0,0.000885,0,0
0:1:15.930,118.941,15.1409,0,0.000885,0,0
0:1:16.225,118.941,15.1409,0,0.000885,0,0
0:1:16.523,119.177,15.1754,0,0.000885,0,0
0:1:16.824,120.467,15.3408,0,0.000885,0,0
0:1:17.119,121.347,15.4512,0,0.000885,0,0
0:1:17.421,121.819,15.5132,0,0.000885,0,0
0:1:17.717,122.344,15.5753,0,0.000885,0,0
0:1:18.018,123.047,15.6649,0,0.000885,0,0
0:1:18.314,123.403,15.7132,0,0.000885,0,0
0:1:18.617,124.279,15.8235,0,0.000885,0,0
0:1:18.921,124.163,15.8097,0,0.000885,0,0
0:1:19.225,124.866,15.8993,0,0.000885,0,0
0:1:19.529,126.214,16.0717,0,0.000885,0,0
0:1:19.831,126.214,16.0717,0,0.000885,0,0
0:1:20.130,126.921,16.1613,0,0.000885,0,0
0:1:20.430,127.86,16.2785,0,0.000885,0,0
0:1:20.725,128.385,16.3475,0,0.000885,0,0
0:1:21.027,128.972,16.4233,0,0.000885,0,0
0:1:21.322,129.617,16.506,0,0.000885,0,0
0:1:21.623,130.088,16.5612,0,0.000885,0,0
0:1:21.921,130.555,16.6233,0,0.000885,0,0
0:1:22.220,131.027,16.6853,0,0.000885,0,0
0:1:22.520,131.258,16.7129,0,0.000885,0,0
0:1:22.814,132.432,16.8646,0,0.000885,0,0
0:1:23.116,133.02,16.9335,0,0.000885,0,0
0:1:23.412,133.371,16.9818,0,0.000885,0,0
0:1:23.715,133.255,16.968,0,0.000885,0,0
0:1:24.019,134.488,17.1266,0,0.000885,0,0
0:1:24.323,135.542,17.2576,0,0.000885,0,0
0:1:24.626,135.951,17.3127,0,0.000885,0,0
0:1:24.928,136.596,17.3955,0,0.000885,0,0
0:1:25.230,137.361,17.492,0,0.000885,0,0
0:1:25.528,137.886,17.5541,0,0.000885,0,0
0:1:25.824,138.18,17.5954,0,0.000885,0,0
0:1:26.123,138.825,17.6782,0,0.000885,0,0
0:1:26.419,139.06,17.7057,0,0.000885,0,0
0:1:26.721,140.292,17.8643,0,0.000885,0,0
0:1:27.017,140.702,17.9126,0,0.000885,0,0
0:1:27.317,141.053,17.9608,0,0.000885,0,0
0:1:27.617,141.525,18.016,0,0.000885,0,0
0:1:27.911,142.112,18.0918,0,0.000885,0,0
0:1:28.213,143.517,18.2711,0,0.000885,0,0
0:1:28.517,143.575,18.278,0,0.000885,0,0
0:1:28.822,143.927,18.3263,0,0.000885,0,0
0:1:29.123,144.34,18.3745,0,0.000885,0,0
0:1:29.425,145.159,18.4848,0,0.000885,0,0
0:1:29.728,145.688,18.5469,0,0.000885,0,0
0:1:30.025,146.8,18.6917,0,0.000885,0,0
0:1:30.325,147.565,18.7882,0,0.000885,0,0
0:1:30.625,148.384,18.8916,0,0.000885,0,0
0:1:30.921,148.095,18.8572,0,0.000885,0,0
0:1:31.221,148.562,18.9123,0,0.000885,0,0
0:1:31.518,148.913,18.9606,0,0.000885,0,0
0:1:31.819,149.558,19.0433,0,0.000885,0,0
0:1:32.115,150.087,19.1123,0,0.000885,0,0
0:1:32.413,150.906,19.2157,0,0.000885,0,0
0:1:32.715,151.435,19.2846,0,0.000885,0,0
0:1:33.010,153.428,19.5328,0,0.000885,0,0
0:1:33.312,153.49,19.5397,0,0.000885,0,0
0:1:33.617,154.073,19.6156,0,0.000885,0,0
0:1:33.922,154.896,19.719,0,0.000885,0,0
0:1:34.224,155.541,19.8017,0,0.000885,0,0
0:1:34.524,154.78,19.7052,0,0.000885,0,0
0:1:34.828,155.657,19.8224,0,0.000885,0,0
0:1:35.124,155.719,19.8293,0,0.000885,0,0
0:1:35.424,156.07,19.8707,0,0.000885,0,0
0:1:35.721,156.831,19.9672,0,0.000885,0,0
0:1:36.019,157.712,20.0775,0,0.000885,0,0
0:1:36.320,158.415,20.1672,0,0.000885,0,0
0:1:36.616,159.531,20.312,0,0.000885,0,0
0:1:36.916,160.114,20.3878,0,0.000885,0,0
0:1:37.213,160.234,20.4016,0,0.000885,0,0
0:1:37.510,160.821,20.4774,0,0.000885,0,0
0:1:37.810,162.284,20.6636,0,0.000885,0,0
0:1:38.106,162.992,20.7532,0,0.000885,0,0
0:1:38.408,163.574,20.8291,0,0.000885,0,0
0:1:38.713,163.574,20.8291,0,0.000885,0,0
0:1:39.017,164.046,20.8842,0,0.000885,0,0
0:1:39.320,164.633,20.9601,0,0.000885,0,0
0:1:39.622,165.514,21.0704,0,0.000885,0,0
0:1:39.924,165.981,21.1324,0,0.000885,0,0
0:1:40.221,166.097,21.1462,0,0.000885,0,0
0:1:40.521,167.329,21.3048,0,0.000885,0,0
0:1:40.821,167.68,21.3531,0,0.000885,0,0
0:1:41.117,167.974,21.3875,0,0.000885,0,0
0:1:41.419,168.445,21.4496,0,0.000885,0,0
0:1:41.715,169.032,21.5185,0,0.000885,0,0
0:1:42.014,170.674,21.7323,0,0.000885,0,0
0:1:42.314,170.789,21.7461,0,0.000885,0,0
0:1:42.610,171.261,21.8081,0,0.000885,0,0
0:1:42.911,171.555,21.8426,0,0.000885,0,0
0:1:43.207,171.728,21.8633,0,0.000885,0,0
0:1:43.510,173.721,22.1184,0,0.000885,0,0
0:1:43.816,174.25,22.1873,0,0.000885,0,0
0:1:44.118,174.077,22.1666,0,0.000885,0,0
0:1:44.421,174.544,22.2218,0,0.000885,0,0
0:1:44.723,175.834,22.3873,0,0.000885,0,0
0:1:45.023,176.479,22.47,0,0.000885,0,0
0:1:45.320,175.718,22.3735,0,0.000885,0,0
0:1:45.619,176.479,22.47,0,0.000885,0,0
0:1:45.919,177.417,22.5872,0,0.000885,0,0
0:1:46.213,177.947,22.6562,0,0.000885,0,0
0:1:46.516,178.885,22.7734,0,0.000885,0,0
0:1:46.811,179.059,22.801,0,0.000885,0,0
0:1:47.110,179.766,22.8906,0,0.000885,0,0
0:1:47.410,180.878,23.0285,0,0.000885,0,0
0:1:47.707,180.994,23.0423,0,0.000885,0,0
0:1:48.010,181.995,23.1733,0,0.000885,0,0
0:1:48.304,182.697,23.2629,0,0.000885,0,0
0:1:48.607,183.107,23.3112,0,0.000885,0,0
0:1:48.911,182.871,23.2836,0,0.000885,0,0
0:1:49.215,183.4,23.3525,0,0.000885,0,0
0:1:49.517,184.339,23.4698,0,0.000885,0,0
0:1:49.819,185.451,23.6145,0,0.000885,0,0
0:1:50.122,185.864,23.6628,0,0.000885,0,0
0:1:50.419,186.509,23.7455,0,0.000885,0,0
0:1:50.717,187.034,23.8145,0,0.000885,0,0
0:1:51.018,187.448,23.8696,0,0.000885,0,0
0:1:51.313,188.035,23.9386,0,0.000885,0,0
0:1:51.614,189.147,24.0834,0,0.000885,0,0
0:1:51.912,189.85,24.173,0,0.000885,0,0
0:1:52.209,189.619,24.1454,0,0.000885,0,0
0:1:52.509,190.264,24.2282,0,0.000885,0,0
0:1:52.803,190.495,24.2558,0,0.000885,0,0
0:1:53.106,191.847,24.4281,0,0.000885,0,0
0:1:53.400,192.257,24.4764,0,0.000885,0,0
0:1:53.703,192.959,24.566,0,0.000885,0,0
0:1:54.005,193.489,24.635,0,0.000885,0,0
0:1:54.307,194.014,24.7039,0,0.000885,0,0
0:1:54.608,194.369,24.7453,0,0.000885,0,0
0:1:54.907,195.072,24.8349,0,0.000885,0,0
0:1:55.208,195.539,24.897,0,0.000885,0,0
0:1:55.500,196.127,24.9728,0,0.000885,0,0
0:1:55.796,197.359,25.1314,0,0.000885,0,0
0:1:56.095,197.83,25.1865,0,0.000885,0,0
0:1:56.389,198.119,25.2279,0,0.000885,0,0
0:1:56.689,198.591,25.2831,0,0.000885,0,0
0:1:56.981,199.058,25.3451,0,0.000885,0,0
0:1:57.280,200.935,25.5864,0,0.000885,0,0
0:1:57.585,201.286,25.6278,0,0.000885,0,0
0:1:57.879,200.762,25.5589,0,0.000885,0,0
0:1:58.186,201.7,25.683,0,0.000885,0,0
0:1:58.487,202.581,25.7933,0,0.000885,0,0
0:1:58.789,203.048,25.8553,0,0.000885,0,0
0:1:59.091,203.577,25.9174,0,0.000885,0,0
0:1:59.391,204.102,25.9863,0,0.000885,0,0
0:1:59.692,204.867,26.0829,0,0.000885,0,0
0:1:59.985,205.161,26.1242,0,0.000885,0,0
0:2:0.285,205.922,26.2208,0,0.000885,0,0
0:2:0.575,206.215,26.2552,0,0.000885,0,0
0:2:0.875,207.096,26.3656,0,0.000885,0,0
0:2:1.168,206.976,26.3518,0,0.000885,0,0
0:2:1.467,207.741,26.4483,0,0.000885,0,0
0:2:1.763,208.973,26.6069,0,0.000885,0,0
0:2:2.066,209.498,26.6758,0,0.000885,0,0
0:2:2.365,210.205,26.7654,0,0.000885,0,0
0:2:2.660,210.614,26.8137,0,0.000885,0,0
0:2:2.967,211.081,26.8758,0,0.000885,0,0
0:2:3.273,211.669,26.9516,0,0.000885,0,0
0:2:3.572,212.198,27.0206,0,0.000885,0,0
0:2:3.876,212.492,27.055,0,0.000885,0,0
0:2:4.176,213.31,27.1584,0,0.000885,0,0
0:2:4.480,214.075,27.255,0,0.000885,0,0
0:2:4.777,215.365,27.4204,0,0.000885,0,0
0:2:5.084,215.365,27.4204,0,0.000885,0,0
0:2:5.382,215.659,27.4618,0,0.000885,0,0
0:2:5.674,216.419,27.5583,0,0.000885,0,0
0:2:5.974,216.771,27.5997,0,0.000885,0,0
0:2:6.268,217.3,27.6687,0,0.000885,0,0
0:2:6.565,217.945,27.7514,0,0.000885,0,0
0:2:6.862,218.474,27.8135,0,0.000885,0,0
0:2:7.165,219.293,27.9238,0,0.000885,0,0
0:2:7.464,220.289,28.0479,0,0.000885,0,0
0:2:7.756,220.174,28.0341,0,0.000885,0,0
0:2:8.056,221.17,28.1582,0,0.000885,0,0
0:2:8.350,221.757,28.234,0,0.000885,0,0
0:2:8.650,222.109,28.2823,0,0.000885,0,0
0:2:8.953,222.932,28.3857,0,0.000885,0,0
0:2:9.255,223.812,28.496,0,0.000885,0,0
0:2:9.556,224.101,28.5305,0,0.000885,0,0
0:2:9.856,224.866,28.6339,0,0.000885,0,0
0:2:10.155,225.334,28.6891,0,0.000885,0,0
0:2:10.451,225.979,28.7718,0,0.000885,0,0
0:2:10.746,226.45,28.8339,0,0.000885,0,0
0:2:11.045,226.45,28.8339,0,0.000885,0,0
0:2:11.336,227.095,28.9166,0,0.000885,0,0
0:2:11.638,228.621,29.1097,0,0.000885,0,0
0:2:11.932,229.208,29.1855,0,0.000885,0,0
0:2:12.231,229.617,29.2338,0,0.000885,0,0
0:2:12.527,229.266,29.1924,0,0.000885,0,0
0:2:12.821,229.791,29.2613,0,0.000885,0,0
0:2:13.122,231.085,29.4199,0,0.000885,0,0
0:2:13.423,231.788,29.5096,0,0.000885,0,0
0:2:13.724,232.313,29.5785,0,0.000885,0,0
0:2:14.025,232.958,29.6612,0,0.000885,0,0
0:2:14.325,233.429,29.7233,0,0.000885,0,0
0:2:14.625,234.132,29.8129,0,0.000885,0,0
0:2:14.918,234.541,29.8612,0,0.000885,0,0
0:2:15.218,234.897,29.9095,0,0.000885,0,0
0:2:15.513,235.364,29.9646,0,0.000885,0,0
0:2:15.811,237.126,30.1921,0,0.000885,0,0
0:2:16.105,237.593,30.2542,0,0.000885,0,0
0:2:16.401,237.006,30.1784,0,0.000885,0,0
0:2:16.699,238.064,30.3094,0,0.000885,0,0
0:2:16.991,238.416,30.3576,0,0.000885,0,0
0:2:17.292,238.941,30.4197,0,0.000885,0,0
0:2:17.586,239.528,30.4955,0,0.000885,0,0
0:2:17.882,240.057,30.5645,0,0.000885,0,0
0:2:18.188,240.466,30.6196,0,0.000885,0,0
0:2:18.489,241.232,30.7161,0,0.000885,0,0
0:2:18.794,242.286,30.8471,0,0.000885,0,0
0:2:19.093,243.166,30.9575,0,0.000885,0,0
0:2:19.394,243.927,31.0609,0,0.000885,0,0
0:2:19.695,244.163,31.0885,0,0.000885,0,0
0:2:19.991,244.688,31.1574,0,0.000885,0,0
0:2:20.290,244.808,31.1712,0,0.000885,0,0
0:2:20.583,245.689,31.2815,0,0.000885,0,0
0:2:20.884,245.626,31.2746,0,0.000885,0,0
0:2:21.184,246.214,31.3505,0,0.000885,0,0
0:2:21.483,247.797,31.5504,0,0.000885,0,0
0:2:21.788,248.5,31.64,0,0.000885,0,0
0:2:22.083,249.207,31.7297,0,0.000885,0,0
0:2:22.390,249.501,31.7641,0,0.000885,0,0
0:2:22.684,250.026,31.8331,0,0.000885,0,0
0:2:22.984,250.377,31.8814,0,0.000885,0,0
0:2:23.285,250.319,31.8745,0,0.000885,0,0
0:2:23.587,251.022,31.9641,0,0.000885,0,0
0:2:23.890,251.609,32.033,0,0.000885,0,0
0:2:24.192,252.668,32.1709,0,0.000885,0,0
0:2:24.493,253.371,32.2606,0,0.000885,0,0
0:2:24.793,254.074,32.3502,0,0.000885,0,0
0:2:25.092,254.309,32.3778,0,0.000885,0,0
0:2:25.387,255.421,32.5226,0,0.000885,0,0
0:2:25.683,256.538,32.6605,0,0.000885,0,0
0:2:25.991,256.774,32.6949,0,0.000885,0,0
0:2:26.283,257.419,32.7777,0,0.000885,0,0
0:2:26.583,257.592,32.7984,0,0.000885,0,0
0:2:26.888,258.064,32.8604,0,0.000885,0,0
0:2:27.184,258.588,32.9225,0,0.000885,0,0
0:2:27.491,259.176,32.9983,0,0.000885,0,0
0:2:27.785,259.821,33.081,0,0.000885,0,0
0:2:28.085,260.056,33.1086,0,0.000885,0,0
0:2:28.389,261.289,33.2672,0,0.000885,0,0
0:2:28.690,261.524,33.2948,0,0.000885,0,0
0:2:28.991,262.285,33.3982,0,0.000885,0,0
0:2:29.290,262.93,33.474,0,0.000885,0,0
0:2:29.591,263.517,33.5499,0,0.000885,0,0
0:2:29.885,264.278,33.6464,0,0.000885,0,0
0:2:30.185,264.691,33.7016,0,0.000885,0,0
0:2:30.488,265.216,33.7705,0,0.000885,0,0
0:2:30.785,265.688,33.8257,0,0.000885,0,0
0:2:31.092,266.213,33.8946,0,0.000885,0,0
0:2:31.385,266.742,33.9636,0,0.000885,0,0
0:2:31.686,267.565,34.067,0,0.000885,0,0
0:2:31.988,268.21,34.1497,0,0.000885,0,0
0:2:32.288,268.855,34.2325,0,0.000885,0,0
0:2:32.583,269.5,34.3152,0,0.000885,0,0
0:2:32.877,270.261,34.4117,0,0.000885,0,0
0:2:33.185,270.79,34.4807,0,0.000885,0,0
0:2:33.488,270.963,34.5014,0,0.000885,0,0
0:2:33.789,271.319,34.5427,0,0.000885,0,0
0:2:34.090,271.729,34.5979,0,0.000885,0,0
0:2:34.389,272.489,34.6944,0,0.000885,0,0
0:2:34.689,273.37,34.8047,0,0.000885,0,0
0:2:34.984,274.131,34.9013,0,0.000885,0,0
0:2:35.284,274.602,34.9633,0,0.000885,0,0
0:2:35.590,275.421,35.0667,0,0.000885,0,0
0:2:35.885,275.776,35.115,0,0.000885,0,0
0:2:36.193,276.653,35.2253,0,0.000885,0,0
0:2:36.486,277.298,35.3081,0,0.000885,0,0
0:2:36.785,277.298,35.3081,0,0.000885,0,0
0:2:37.088,277.769,35.3632,0,0.000885,0,0
0:2:37.385,278.299,35.4322,0,0.000885,0,0
0:2:37.691,278.472,35.4528,0,0.000885,0,0
0:2:37.984,279.468,35.5838,0,0.000885,0,0
0:2:38.285,280.758,35.7493,0,0.000885,0,0
0:2:38.587,280.879,35.7631,0,0.000885,0,0
0:2:38.888,281.875,35.8872,0,0.000885,0,0
0:2:39.189,282.342,35.9493,0,0.000885,0,0
0:2:39.490,283.338,36.0734,0,0.000885,0,0
0:2:39.790,283.868,36.1423,0,0.000885,0,0
0:2:40.093,284.397,36.2113,0,0.000885,0,0
0:2:40.391,284.984,36.2871,0,0.000885,0,0
0:2:40.689,285.451,36.3423,0,0.000885,0,0
0:2:40.983,285.687,36.3767,0,0.000885,0,0
0:2:41.280,285.981,36.4112,0,0.000885,0,0
0:2:41.585,286.799,36.5146,0,0.000885,0,0
0:2:41.885,286.919,36.5284,0,0.000885,0,0
0:2:42.188,288.325,36.7077,0,0.000885,0,0
0:2:42.492,288.796,36.7697,0,0.000885,0,0
0:2:42.791,289.321,36.8387,0,0.000885,0,0
0:2:43.084,289.735,36.887,0,0.000885,0,0
0:2:43.385,290.202,36.949,0,0.000885,0,0
0:2:43.687,291.256,37.0869,0,0.000885,0,0
0:2:43.989,291.728,37.1421,0,0.000885,0,0
0:2:44.290,292.137,37.1972,0,0.000885,0,0
0:2:44.589,292.315,37.2179,0,0.000885,0,0
0:2:44.889,293.253,37.3351,0,0.000885,0,0
0:2:45.185,294.423,37.4868,0,0.000885,0,0
0:2:45.491,294.717,37.5282,0,0.000885,0,0
0:2:45.788,295.304,37.5971,0,0.000885,0,0
0:2:46.092,295.833,37.6661,0,0.000885,0,0
0:2:46.392,296.714,37.7764,0,0.000885,0,0
0:2:46.685,297.417,37.866,0,0.000885,0,0
0:2:46.981,298.004,37.9418,0,0.000885,0,0
0:2:47.289,298.471,38.0039,0,0.000885,0,0
0:2:47.593,298.471,38.0039,0,0.000885,0,0
0:2:47.892,299.294,38.1073,0,0.000885,0,0
0:2:48.185,299.939,38.1901,0,0.000885,0,0
0:2:48.487,300.175,38.2176,0,0.000885,0,0
0:2:48.789,300.526,38.2659,0,0.000885,0,0
0:2:49.092,301.696,38.4107,0,0.000885,0,0
0:2:49.391,302.226,38.4796,0,0.000885,0,0
0:2:49.692,302.519,38.521,0,0.000885,0,0
0:2:49.991,302.697,38.5417,0,0.000885,0,0
0:2:50.285,303.106,38.59,0,0.000885,0,0
0:2:50.580,304.454,38.7623,0,0.000885,0,0
0:2:50.876,305.041,38.8382,0,0.000885,0,0
0:2:51.171,305.864,38.9416,0,0.000885,0,0
0:2:51.471,306.389,39.0105,0,0.000885,0,0
0:2:51.764,307.385,39.1346,0,0.000885,0,0
0:2:52.071,307.621,39.1691,0,0.000885,0,0
0:2:52.367,308.444,39.2725,0,0.000885,0,0
0:2:52.664,308.853,39.3277,0,0.000885,0,0
0:2:52.963,309.498,39.4035,0,0.000885,0,0
0:2:53.255,309.734,39.438,0,0.000885,0,0
0:2:53.556,310.321,39.5139,0,0.000885,0,0
0:2:53.859,310.673,39.5552,0,0.000885,0,0
0:2:54.160,311.491,39.6586,0,0.000885,0,0
0:2:54.460,312.198,39.7483,0,0.000885,0,0
0:2:54.761,312.843,39.831,0,0.000885,0,0
0:2:55.061,313.368,39.9,0,0.000885,0,0
0:2:55.356,313.782,39.9551,0,0.000885,0,0
0:2:55.654,314.658,40.0654,0,0.000885,0,0
0:2:55.952,315.303,40.1482,0,0.000885,0,0
0:2:56.244,315.948,40.2309,0,0.000885,0,0
0:2:56.545,316.42,40.2861,0,0.000885,0,0
0:2:56.837,316.949,40.355,0,0.000885,0,0
0:2:57.136,317.768,40.4584,0,0.000885,0,0
0:2:57.432,318.533,40.555,0,0.000885,0,0
0:2:57.727,318.884,40.6032,0,0.000885,0,0
0:2:58.026,319.178,40.6377,0,0.000885,0,0
0:2:58.328,319.823,40.7204,0,0.000885,0,0
0:2:58.631,320.468,40.8032,0,0.000885,0,0
0:2:58.932,321.17,40.8928,0,0.000885,0,0
0:2:59.230,321.286,40.9066,0,0.000885,0,0
0:2:59.531,321.758,40.9686,0,0.000885,0,0
0:2:59.825,322.403,41.0514,0,0.000885,0,0
0:3:0.124,322.928,41.1134,0,0.000885,0,0
0:3:0.417,323.221,41.1548,0,0.000885,0,0
0:3:0.715,324.16,41.272,0,0.000885,0,0
0:3:1.011,324.631,41.3341,0,0.000885,0,0
0:3:1.306,325.45,41.4375,0,0.000885,0,0
0:3:1.604,326.273,41.5409,0,0.000885,0,0
0:3:1.896,327.096,41.6443,0,0.000885,0,0
0:3:2.196,327.563,41.7064,0,0.000885,0,0
0:3:2.489,328.15,41.7822,0,0.000885,0,0
0:3:2.787,328.617,41.8443,0,0.000885,0,0
0:3:3.082,328.91,41.8788,0,0.000885,0,0
0:3:3.383,329.498,41.9546,0,0.000885,0,0
0:3:3.688,330.378,42.0649,0,0.000885,0,0
0:3:3.990,330.965,42.1408,0,0.000885,0,0
0:3:4.289,331.49,42.2097,0,0.000885,0,0
0:3:4.590,332.665,42.3545,0,0.000885,0,0
0:3:4.894,332.785,42.3683,0,0.000885,0,0
0:3:5.192,332.958,42.3959,0,0.000885,0,0
0:3:5.486,334.248,42.5613,0,0.000885,0,0
0:3:5.783,334.72,42.6165,0,0.000885,0,0
0:3:6.087,334.835,42.6303,0,0.000885,0,0
0:3:6.384,335.013,42.6579,0,0.000885,0,0
0:3:6.690,336.01,42.782,0,0.000885,0,0
0:3:6.984,336.828,42.8854,0,0.000885,0,0
0:3:7.282,337.536,42.975,0,0.000885,0,0
0:3:7.588,338.003,43.0371,0,0.000885,0,0
0:3:7.887,339.528,43.2301,0,0.000885,0,0
0:3:8.190,339.47,43.2232,0,0.000885,0,0
0:3:8.489,339.822,43.2646,0,0.000885,0,0
0:3:8.792,340.289,43.3267,0,0.000885,0,0
0:3:9.092,340.818,43.3956,0,0.000885,0,0
0:3:9.394,341.993,43.5404,0,0.000885,0,0
0:3:9.695,342.224,43.5749,0,0.000885,0,0
0:3:9.993,342.286,43.5818,0,0.000885,0,0
0:3:10.290,342.811,43.6507,0,0.000885,0,0
0:3:10.595,343.87,43.7817,0,0.000885,0,0
0:3:10.894,344.159,43.8231,0,0.000885,0,0
0:3:11.195,344.573,43.8713,0,0.000885,0,0
0:3:11.495,345.04,43.9334,0,0.000885,0,0
0:3:11.789,345.863,44.0368,0,0.000885,0,0
0:3:12.087,347.037,44.1885,0,0.000885,0,0
0:3:12.392,347.62,44.2574,0,0.000885,0,0
0:3:12.688,347.562,44.2506,0,0.000885,0,0
0:3:12.987,348.678,44.3953,0,0.000885,0,0
0:3:13.291,349.323,44.4781,0,0.000885,0,0
0:3:13.593,349.559,44.5057,0,0.000885,0,0
0:3:13.895,350.787,44.6642,0,0.000885,0,0
0:3:14.193,351.023,44.6918,0,0.000885,0,0
0:3:14.494,351.725,44.7814,0,0.000885,0,0
0:3:14.787,352.606,44.8987,0,0.000885,0,0
0:3:15.084,352.606,44.8987,0,0.000885,0,0
0:3:15.389,353.135,44.9607,0,0.000885,0,0
0:3:15.695,353.193,44.9676,0,0.000885,0,0
0:3:15.994,354.31,45.1124,0,0.000885,0,0
0:3:16.295,355.07,45.2089,0,0.000885,0,0
0:3:16.595,355.658,45.2848,0,0.000885,0,0
0:3:16.888,356.245,45.3606,0,0.000885,0,0
0:3:17.188,356.596,45.402,0,0.000885,0,0
0:3:17.493,357.477,45.5123,0,0.000885,0,0
0:3:17.789,358.18,45.6019,0,0.000885,0,0
0:3:18.096,359.234,45.7398,0,0.000885,0,0
0:3:18.399,359.35,45.7536,0,0.000885,0,0
0:3:18.701,359.879,45.8226,0,0.000885,0,0
0:3:19.001,360.35,45.8777,0,0.000885,0,0
0:3:19.302,360.702,45.926,0,0.000885,0,0
0:3:19.602,361.169,45.988,0,0.000885,0,0
0:3:19.894,362.228,46.119,0,0.000885,0,0
0:3:20.195,363.046,46.2225,0,0.000885,0,0
0:3:20.488,363.282,46.2569,0,0.000885,0,0
0:3:20.796,363.575,46.2914,0,0.000885,0,0
0:3:21.091,364.456,46.4017,0,0.000885,0,0
0:3:21.396,365.159,46.4913,0,0.000885,0,0
0:3:21.695,366.155,46.6223,0,0.000885,0,0
0:3:21.996,365.977,46.5948,0,0.000885,0,0
0:3:22.297,366.916,46.7189,0,0.000885,0,0
0:3:22.591,367.388,46.774,0,0.000885,0,0
0:3:22.897,368.206,46.8843,0,0.000885,0,0
0:3:23.193,368.384,46.905,0,0.000885,0,0
0:3:23.494,368.971,46.9809,0,0.000885,0,0
0:3:23.799,370.025,47.1119,0,0.000885,0,0
0:3:24.099,370.261,47.1464,0,0.000885,0,0
0:3:24.400,371.08,47.2498,0,0.000885,0,0
0:3:24.699,371.493,47.298,0,0.000885,0,0
0:3:24.994,372.312,47.4015,0,0.000885,0,0
0:3:25.291,373.019,47.4911,0,0.000885,0,0
0:3:25.584,373.544,47.56,0,0.000885,0,0
0:3:25.883,373.895,47.6083,0,0.000885,0,0
0:3:26.197,374.718,47.7117,0,0.000885,0,0
0:3:26.494,374.776,47.7186,0,0.000885,0,0
0:3:26.790,375.772,47.8427,0,0.000885,0,0
0:3:27.093,376.417,47.9255,0,0.000885,0,0
0:3:27.394,376.831,47.9806,0,0.000885,0,0
0:3:27.696,376.889,47.9875,0,0.000885,0,0
0:3:27.995,377.827,48.1047,0,0.000885,0,0
0:3:28.289,378.121,48.1461,0,0.000885,0,0
0:3:28.591,379.06,48.2633,0,0.000885,0,0
0:3:28.895,379.936,48.3736,0,0.000885,0,0
0:3:29.196,380.292,48.4219,0,0.000885,0,0
0:3:29.499,381.052,48.5184,0,0.000885,0,0
0:3:29.799,382.049,48.6425,0,0.000885,0,0
0:3:30.096,382.227,48.6632,0,0.000885,0,0
0:3:30.392,382.987,48.7666,0,0.000885,0,0
0:3:30.696,382.987,48.7666,0,0.000885,0,0
0:3:30.996,383.926,48.8838,0,0.000885,0,0
0:3:31.287,384.807,48.9941,0,0.000885,0,0
0:3:31.586,384.98,49.0148,0,0.000885,0,0
0:3:31.893,385.981,49.1458,0,0.000885,0,0
0:3:32.190,386.506,49.2148,0,0.000885,0,0
0:3:32.497,387.093,49.2837,0,0.000885,0,0
0:3:32.792,387.974,49.4009,0,0.000885,0,0
0:3:33.091,387.796,49.3734,0,0.000885,0,0
0:3:33.393,388.735,49.4975,0,0.000885,0,0
0:3:33.695,388.912,49.5181,0,0.000885,0,0
0:3:33.995,390.025,49.6629,0,0.000885,0,0
0:3:34.295,390.79,49.7595,0,0.000885,0,0
0:3:34.595,390.438,49.7112,0,0.000885,0,0
0:3:34.899,391.377,49.8284,0,0.000885,0,0
0:3:35.197,391.315,49.8215,0,0.000885,0,0
0:3:35.493,392.898,50.0284,0,0.000885,0,0
0:3:35.797,393.37,50.0835,0,0.000885,0,0
0:3:36.097,394.13,50.18,0,0.000885,0,0
0:3:36.398,393.957,50.1594,0,0.000885,0,0
0:3:36.699,395.011,50.2973,0,0.000885,0,0
0:3:36.992,395.772,50.3938,0,0.000885,0,0
0:3:37.291,396.243,50.4489,0,0.000885,0,0
0:3:37.596,396.537,50.4903,0,0.000885,0,0
0:3:37.891,397.475,50.6075,0,0.000885,0,0
0:3:38.190,398.294,50.7109,0,0.000885,0,0
0:3:38.494,399.001,50.8006,0,0.000885,0,0
0:3:38.796,399.468,50.8626,0,0.000885,0,0
0:3:39.096,399.468,50.8626,0,0.000885,0,0
0:3:39.396,400.7,51.0212,0,0.000885,0,0
0:3:39.699,401.23,51.0833,0,0.000885,0,0
0:3:39.999,401.812,51.1591,0,0.000885,0,0
0:3:40.300,402.168,51.2074,0,0.000885,0,0
0:3:40.593,402.577,51.2556,0,0.000885,0,0
0:3:40.891,403.28,51.3453,0,0.000885,0,0
0:3:41.199,403.867,51.4211,0,0.000885,0,0
0:3:41.493,403.925,51.428,0,0.000885,0,0
0:3:41.792,404.806,51.5383,0,0.000885,0,0
0:3:42.093,405.509,51.6279,0,0.000885,0,0
0:3:42.393,406.447,51.752,0,0.000885,0,0
0:3:42.699,406.625,51.7727,0,0.000885,0,0
0:3:42.994,407.444,51.8762,0,0.000885,0,0
0:3:43.292,408.147,51.9658,0,0.000885,0,0
0:3:43.593,408.56,52.0209,0,0.000885,0,0
0:3:43.896,409.379,52.1244,0,0.000885,0,0
0:3:44.196,409.792,52.1795,0,0.000885,0,0
0:3:44.496,410.202,52.2278,0,0.000885,0,0
0:3:44.796,410.962,52.3243,0,0.000885,0,0
0:3:45.091,411.549,52.4002,0,0.000885,0,0
0:3:45.401,412.079,52.4691,0,0.000885,0,0
0:3:45.694,413.133,52.6001,0,0.000885,0,0
0:3:45.993,413.311,52.6277,0,0.000885,0,0
0:3:46.285,413.778,52.6828,0,0.000885,0,0
0:3:46.583,414.717,52.8001,0,0.000885,0,0
0:3:46.893,415.01,52.8414,0,0.000885,0,0
0:3:47.195,415.655,52.9242,0,0.000885,0,0
0:3:47.495,416.007,52.9655,0,0.000885,0,0
0:3:47.800,416.42,53.0207,0,0.000885,0,0
0:3:48.100,416.945,53.0896,0,0.000885,0,0
0:3:48.403,417.942,53.2137,0,0.000885,0,0
0:3:48.705,418.297,53.262,0,0.000885,0,0
0:3:49.005,419.232,53.3792,0,0.000885,0,0
0:3:49.305,420.29,53.5102,0,0.000885,0,0
0:3:49.603,420.526,53.5447,0,0.000885,0,0
0:3:49.900,421.051,53.6067,0,0.000885,0,0
0:3:50.194,421.402,53.655,0,0.000885,0,0
0:3:50.493,422.461,53.786,0,0.000885,0,0
0:3:50.796,423.164,53.8756,0,0.000885,0,0
0:3:51.097,423.222,53.8894,0,0.000885,0,0
0:3:51.400,423.515,53.9239,0,0.000885,0,0
0:3:51.696,424.512,54.048,0,0.000885,0,0
0:3:51.993,424.69,54.0756,0,0.000885,0,0
0:3:52.298,425.922,54.2273,0,0.000885,0,0
0:3:52.596,425.802,54.2135,0,0.000885,0,0
0:3:52.886,426.567,54.31,0,0.000885,0,0
0:3:53.188,427.212,54.3927,0,0.000885,0,0
0:3:53.493,427.737,54.4617,0,0.000885,0,0
0:3:53.795,428.324,54.5375,0,0.000885,0,0
0:3:54.095,428.795,54.5927,0,0.000885,0,0
0:3:54.394,429.382,54.6685,0,0.000885,0,0
0:3:54.695,430.494,54.8133,0,0.000885,0,0
0:3:54.999,430.672,54.834,0,0.000885,0,0
0:3:55.297,431.024,54.8823,0,0.000885,0,0
0:3:55.593,431.842,54.9857,0,0.000885,0,0
0:3:55.897,432.487,55.0684,0,0.000885,0,0
0:3:56.195,433.074,55.1443,0,0.000885,0,0
0:3:56.500,433.662,55.2132,0,0.000885,0,0
0:3:56.797,434.307,55.296,0,0.000885,0,0
0:3:57.092,434.778,55.358,0,0.000885,0,0
0:3:57.401,435.948,55.5097,0,0.000885,0,0
0:3:57.697,436.362,55.558,0,0.000885,0,0
0:3:58.002,436.593,55.5855,0,0.000885,0,0
0:3:58.301,437.358,55.689,0,0.000885,0,0
0:3:58.603,437.652,55.7234,0,0.000885,0,0
0:3:58.905,438.648,55.8475,0,0.000885,0,0
0:3:59.205,438.822,55.8751,0,0.000885,0,0
0:3:59.506,439.702,55.9854,0,0.000885,0,0
0:3:59.807,440.405,56.0751,0,0.000885,0,0
0:4:0.100,440.819,56.1233,0,0.000885,0,0
0:4:0.400,441.579,56.2267,0,0.000885,0,0
0:4:0.695,441.873,56.2612,0,0.000885,0,0
0:4:1.000,442.576,56.3509,0,0.000885,0,0
0:4:1.299,442.696,56.3646,0,0.000885,0,0
0:4:1.593,443.692,56.4956,0,0.000885,0,0
0:4:1.892,444.395,56.5853,0,0.000885,0,0
0:4:2.196,445.098,56.6749,0,0.000885,0,0
0:4:2.493,445.863,56.7714,0,0.000885,0,0
0:4:2.802,446.388,56.8335,0,0.000885,0,0
0:4:3.093,446.624,56.868,0,0.000885,0,0
0:4:3.393,447.269,56.9507,0,0.000885,0,0
0:4:3.696,447.798,57.0127,0,0.000885,0,0
0:4:3.999,448.443,57.0955,0,0.000885,0,0
0:4:4.299,449.088,57.1782,0,0.000885,0,0
0:4:4.601,449.439,57.2265,0,0.000885,0,0
0:4:4.900,450.027,57.3023,0,0.000885,0,0
0:4:5.193,450.614,57.3713,0,0.000885,0,0
0:4:5.502,451.081,57.4333,0,0.000885,0,0
0:4:5.797,452.019,57.5505,0,0.000885,0,0
0:4:6.103,452.429,57.6057,0,0.000885,0,0
0:4:6.400,452.429,57.6057,0,0.000885,0,0
0:4:6.694,453.545,57.7436,0,0.000885,0,0
0:4:6.990,452.78,57.6471,0,0.000885,0,0
0:4:7.297,453.252,57.7091,0,0.000885,0,0
0:4:7.601,454.012,57.8056,0,0.000885,0,0
0:4:7.900,454.484,57.8677,0,0.000885,0,0
0:4:8.194,455.009,57.9366,0,0.000885,0,0
0:4:8.494,455.889,58.047,0,0.000885,0,0
0:4:8.799,456.361,58.1021,0,0.000885,0,0
0:4:9.100,457.179,58.2124,0,0.000885,0,0
0:4:9.401,457.709,58.2745,0,0.000885,0,0
0:4:9.700,456.534,58.1297,0,0.000885,0,0
0:4:10.000,457.179,58.2124,0,0.000885,0,0
0:4:10.303,458.002,58.3159,0,0.000885,0,0
0:4:10.600,459.292,58.4813,0,0.000885,0,0
0:4:10.897,460.346,58.6123,0,0.000885,0,0
0:4:11.200,458.411,58.3641,0,0.000885,0,0
0:4:11.499,458.532,58.3848,0,0.000885,0,0
0:4:11.790,458.411,58.3641,0,0.000885,0,0
0:4:12.088,459.644,58.5227,0,0.000885,0,0
0:4:12.384,460.698,58.6606,0,0.000885,0,0
0:4:12.700,454.19,57.8263,0,0.000885,0,0
0:4:12.999,436.535,55.5786,0,0.000885,0,0
0:4:13.301,435.717,55.4752,0,0.000885,0,0
0:4:13.602,403.044,51.3177,0,0.000885,0,0
0:4:13.901,400.816,51.035,0,0.000885,0,0
0:4:14.200,400.642,51.0143,0,0.000885,0,0
0:4:14.501,401.812,51.1591,0,0.000885,0,0
0:4:14.803,402.462,51.2418,0,0.000885,0,0
0:4:15.101,403.396,51.359,0,0.000885,0,0
0:4:15.395,404.161,51.4625,0,0.000885,0,0
0:4:15.701,404.277,51.4763,0,0.000885,0,0
0:4:15.999,404.806,51.5383,0,0.000885,0,0
0:4:16.300,405.157,51.5866,0,0.000885,0,0
0:4:16.601,405.451,51.621,0,0.000885,0,0
0:4:16.903,406.625,51.7727,0,0.000885,0,0
0:4:17.199,406.505,51.7589,0,0.000885,0,0
0:4:17.494,407.035,51.8279,0,0.000885,0,0
0:4:17.799,407.857,51.9313,0,0.000885,0,0
0:4:18.097,408.734,52.0416,0,0.000885,0,0
0:4:18.401,409.321,52.1175,0,0.000885,0,0
0:4:18.701,409.966,52.2002,0,0.000885,0,0
0:4:19.002,410.669,52.2898,0,0.000885,0,0
0:4:19.301,411.727,52.4208,0,0.000885,0,0
0:4:19.600,412.782,52.5587,0,0.000885,0,0
0:4:19.891,413.484,52.6484,0,0.000885,0,0
0:4:20.200,414.014,52.7173,0,0.000885,0,0
0:4:20.495,414.837,52.8207,0,0.000885,0,0
0:4:20.800,416.007,52.9655,0,0.000885,0,0
0:4:21.100,416.42,53.0207,0,0.000885,0,0
0:4:21.401,417.123,53.1103,0,0.000885,0,0
0:4:21.700,411.434,52.3864,0,0.000885,0,0
0:4:21.995,409.379,52.1244,0,0.000885,0,0
0:4:22.299,409.73,52.1657,0,0.000885,0,0
0:4:22.595,410.259,52.2347,0,0.000885,0,0
0:4:22.900,410.669,52.2898,0,0.000885,0,0
0:4:23.201,411.256,52.3657,0,0.000885,0,0
0:4:23.502,411.727,52.4208,0,0.000885,0,0
0:4:23.804,412.194,52.4829,0,0.000885,0,0
0:4:24.103,412.43,52.5105,0,0.000885,0,0
0:4:24.402,412.897,52.5725,0,0.000885,0,0
0:4:24.702,413.253,52.6139,0,0.000885,0,0
0:4:24.992,413.605,52.6622,0,0.000885,0,0
0:4:25.302,413.898,52.6966,0,0.000885,0,0
0:4:25.596,414.192,52.738,0,0.000885,0,0
0:4:25.900,414.601,52.7863,0,0.000885,0,0
0:4:26.199,414.601,52.7863,0,0.000885,0,0
0:4:26.490,415.13,52.8552,0,0.000885,0,0
0:4:26.797,415.188,52.8621,0,0.000885,0,0
0:4:27.104,415.655,52.9242,0,0.000885,0,0
0:4:27.397,415.54,52.9104,0,0.000885,0,0
0:4:27.696,411.727,52.4208,0,0.000885,0,0
0:4:27.997,410.847,52.3105,0,0.000885,0,0
0:4:28.299,410.731,52.2967,0,0.000885,0,0
0:4:28.600,410.904,52.3174,0,0.000885,0,0
0:4:28.901,411.082,52.3381,0,0.000885,0,0
0:4:29.200,410.847,52.3105,0,0.000885,0,0
0:4:29.500,410.669,52.2898,0,0.000885,0,0
0:4:29.799,410.437,52.2554,0,0.000885,0,0
0:4:30.103,410.317,52.2416,0,0.000885,0,0
0:4:30.397,409.85,52.1864,0,0.000885,0,0
0:4:30.696,409.321,52.1175,0,0.000885,0,0
0:4:30.996,408.734,52.0416,0,0.000885,0,0
0:4:31.296,406.683,51.7796,0,0.000885,0,0
0:4:31.600,405.567,51.6417,0,0.000885,0,0
0:4:31.895,403.044,51.3177,0,0.000885,0,0
0:4:32.201,401.052,51.0626,0,0.000885,0,0
0:4:32.496,398.765,50.773,0,0.000885,0,0
0:4:32.792,396.946,50.5386,0,0.000885,0,0
0:4:33.093,394.188,50.1869,0,0.000885,0,0
0:4:33.393,393.312,50.0766,0,0.000885,0,0
0:4:33.697,391.786,49.8836,0,0.000885,0,0
0:4:34.000,390.496,49.7181,0,0.000885,0,0
0:4:34.298,388.855,49.5113,0,0.000885,0,0
0:4:34.598,386.742,49.2424,0,0.000885,0,0
0:4:34.897,385.803,49.1251,0,0.000885,0,0
0:4:35.187,384.277,48.9252,0,0.000885,0,0
0:4:35.496,382.4,48.6908,0,0.000885,0,0
0:4:35.790,378.882,48.2426,0,0.000885,0,0
0:4:36.096,374.309,47.6566,0,0.000885,0,0
0:4:36.392,369.91,47.0981,0,0.000885,0,0
0:4:36.698,366.507,46.6637,0,0.000885,0,0
0:4:37.006,359.47,45.7674,0,0.000885,0,0
0:4:37.300,353.193,44.9676,0,0.000885,0,0
0:4:37.603,350.378,44.6091,0,0.000885,0,0
0:4:37.903,347.798,44.285,0,0.000885,0,0
0:4:38.205,342.695,43.63,0,0.000885,0,0
0:4:38.506,336.655,42.8647,0,0.000885,0,0
0:4:38.806,333.136,42.4165,0,0.000885,0,0
0:4:39.104,329.849,41.996,0,0.000885,0,0
0:4:39.403,325.57,41.4513,0,0.000885,0,0
0:4:39.569,323.75,41.2238,0,0.000885,0,0