File: DataFile2021-07-15_063533.csv
Test ID:,Date Tested:,Time:,Test Type:,Diameter Avg. (mm):,Cyl. Corr. Factor:,Height (mm):,Age (days):,Weight (kN):,Break Type:,Ramp Rate (MPa/s):,Load at Break (kN):,Stress at Break (MPa):
12,7/15/2021,06:35,Cylinder,150,1,300,0,3.6,3,0.25,899.37,50.9
Sample Time,Load (kN),Stress (MPa),Long. Strain,Trans. Strain,Chan1 Deflection (mm),Chan2 Deflection (mm)
0:0:12.432,5.68928,0.324054,0,0.000885,0,0
0:0:12.633,5.98286,0.337843,0,0.000885,0,0
0:0:12.830,7.3885,0.42058,0,0.000885,0,0
0:0:13.030,8.62065,0.489528,0,0.000885,0,0
0:0:13.230,10.3821,0.586054,0,0.000885,0,0
0:0:13.426,11.4942,0.648107,0,0.000885,0,0
0:0:13.629,12.6107,0.71016,0,0.000885,0,0
0:0:13.824,12.4906,0.71016,0,0.000885,0,0
0:0:14.023,12.9621,0.730844,0,0.000885,0,0
0:0:14.223,13.3714,0.758423,0,0.000885,0,0
0:0:14.417,14.0742,0.799792,0,0.000885,0,0
0:0:14.622,14.0742,0.799792,0,0.000885,0,0
0:0:14.816,15.3063,0.868739,0,0.000885,0,0
0:0:15.015,15.8935,0.896318,0,0.000885,0,0
0:0:15.215,17.2413,0.979056,0,0.000885,0,0
0:0:15.411,17.8285,1.00663,0,0.000885,0,0
0:0:15.614,19.0028,1.07558,0,0.000885,0,0
0:0:15.811,19.6478,1.11006,0,0.000885,0,0
0:0:16.021,20.3506,1.15142,0,0.000885,0,0
0:0:16.222,20.9378,1.1859,0,0.000885,0,0
0:0:16.416,22.1699,1.25485,0,0.000885,0,0
0:0:16.617,22.8149,1.28932,0,0.000885,0,0
0:0:16.815,23.1663,1.31,0,0.000885,0,0
0:0:17.012,24.5141,1.38585,0,0.000885,0,0
0:0:17.214,24.7499,1.39964,0,0.000885,0,0
0:0:17.412,26.3335,1.48927,0,0.000885,0,0
0:0:17.611,26.5692,1.50306,0,0.000885,0,0
0:0:17.813,28.095,1.59269,0,0.000885,0,0
0:0:18.018,29.1492,1.64785,0,0.000885,0,0
0:0:18.223,30.1456,1.70301,0,0.000885,0,0
0:0:18.425,30.7328,1.73748,0,0.000885,0,0
0:0:18.627,31.6713,1.79264,0,0.000885,0,0
0:0:18.828,32.5521,1.8409,0,0.000885,0,0
0:0:19.029,34.1935,1.93743,0,0.000885,0,0
0:0:19.231,34.8385,1.9719,0,0.000885,0,0
0:0:19.429,36.422,2.06153,0,0.000885,0,0
0:0:19.629,37.5341,2.12359,0,0.000885,0,0
0:0:19.830,38.9442,2.20632,0,0.000885,0,0
0:0:20.025,39.1799,2.22011,0,0.000885,0,0
0:0:20.227,40.9948,2.31664,0,0.000885,0,0
0:0:20.424,41.2306,2.33043,0,0.000885,0,0
0:0:20.622,42.5784,2.40627,0,0.000885,0,0
0:0:20.824,43.3435,2.45453,0,0.000885,0,0
0:0:21.030,44.5756,2.52348,0,0.000885,0,0
0:0:21.231,45.2784,2.56485,0,0.000885,0,0
0:0:21.431,46.9198,2.65448,0,0.000885,0,0
0:0:21.628,47.0978,2.66827,0,0.000885,0,0
0:0:21.829,47.8584,2.70964,0,0.000885,0,0
0:0:22.026,49.2062,2.78548,0,0.000885,0,0
0:0:22.227,49.442,2.79927,0,0.000885,0,0
0:0:22.427,50.4962,2.85443,0,0.000885,0,0
0:0:22.618,51.2035,2.8958,0,0.000885,0,0
0:0:22.824,52.1999,2.95096,0,0.000885,0,0
0:0:23.025,53.1963,3.01301,0,0.000885,0,0
0:0:23.229,53.9569,3.05438,0,0.000885,0,0
0:0:23.432,54.4863,3.08196,0,0.000885,0,0
0:0:23.633,55.7184,3.1509,0,0.000885,0,0
0:0:23.835,55.8919,3.16469,0,0.000885,0,0
0:0:24.037,56.7727,3.21296,0,0.000885,0,0
0:0:24.237,56.9506,3.21985,0,0.000885,0,0
0:0:24.440,57.6534,3.26122,0,0.000885,0,0
0:0:24.634,58.8277,3.33017,0,0.000885,0,0
0:0:24.835,60.2912,3.4129,0,0.000885,0,0
0:0:25.036,60.3535,3.4129,0,0.000885,0,0
0:0:25.233,61.2876,3.46806,0,0.000885,0,0
0:0:25.435,61.8169,3.49564,0,0.000885,0,0
0:0:25.632,63.6363,3.59906,0,0.000885,0,0
0:0:25.830,64.2813,3.64043,0,0.000885,0,0
0:0:26.033,66.1584,3.74385,0,0.000885,0,0
0:0:26.227,66.6877,3.77143,0,0.000885,0,0
0:0:26.428,66.9769,3.79212,0,0.000885,0,0
0:0:26.626,68.4448,3.87485,0,0.000885,0,0
0:0:26.823,69.2054,3.91622,0,0.000885,0,0
0:0:27.025,70.5577,3.99206,0,0.000885,0,0
0:0:27.231,70.8513,4.00585,0,0.000885,0,0
0:0:27.432,72.0834,4.0817,0,0.000885,0,0
0:0:27.630,72.9019,4.12306,0,0.000885,0,0
0:0:27.827,73.8405,4.17822,0,0.000885,0,0
0:0:28.029,74.4276,4.2127,0,0.000885,0,0
0:0:28.231,75.7755,4.28854,0,0.000885,0,0
0:0:28.434,76.1269,4.30922,0,0.000885,0,0
0:0:28.636,76.892,4.35059,0,0.000885,0,0
0:0:28.838,77.8884,4.40575,0,0.000885,0,0
0:0:29.041,79.1205,4.4747,0,0.000885,0,0
0:0:29.242,79.5298,4.50228,0,0.000885,0,0
0:0:29.444,81.229,4.5988,0,0.000885,0,0
0:0:29.645,81.8161,4.63328,0,0.000885,0,0
0:0:29.842,82.7547,4.68154,0,0.000885,0,0
0:0:30.043,83.3419,4.71601,0,0.000885,0,0
0:0:30.242,84.574,4.78496,0,0.000885,0,0
0:0:30.441,85.3347,4.82633,0,0.000885,0,0
0:0:30.641,86.2154,4.88149,0,0.000885,0,0
0:0:30.837,86.9183,4.91596,0,0.000885,0,0
0:0:31.037,87.799,4.97112,0,0.000885,0,0
0:0:31.236,88.2705,4.9918,0,0.000885,0,0
0:0:31.434,88.9155,5.03317,0,0.000885,0,0
0:0:31.636,89.7918,5.08144,0,0.000885,0,0
0:0:31.832,90.4412,5.11591,0,0.000885,0,0
0:0:32.032,92.0826,5.21244,0,0.000885,0,0
0:0:32.231,92.5497,5.24002,0,0.000885,0,0
0:0:32.428,94.1911,5.32965,0,0.000885,0,0
0:0:32.630,94.4268,5.34344,0,0.000885,0,0
0:0:32.833,95.8369,5.42617,0,0.000885,0,0
0:0:33.037,96.3618,5.45375,0,0.000885,0,0
0:0:33.238,97.4783,5.51581,0,0.000885,0,0
0:0:33.440,98.1811,5.55717,0,0.000885,0,0
0:0:33.642,99.2932,5.61923,0,0.000885,0,0
0:0:33.843,99.9426,5.6537,0,0.000885,0,0
0:0:34.046,100.997,5.71575,0,0.000885,0,0
0:0:34.248,101.815,5.76402,0,0.000885,0,0
0:0:34.442,102.754,5.81228,0,0.000885,0,0
0:0:34.645,103.048,5.83296,0,0.000885,0,0
0:0:34.844,104.28,5.90191,0,0.000885,0,0
0:0:35.041,104.867,5.93639,0,0.000885,0,0
0:0:35.243,106.628,6.03291,0,0.000885,0,0
0:0:35.439,107.095,6.06049,0,0.000885,0,0
0:0:35.639,108.15,6.12254,0,0.000885,0,0
0:0:35.840,109.208,6.1777,0,0.000885,0,0
0:0:36.035,109.502,6.19839,0,0.000885,0,0
0:0:36.237,110.734,6.26733,0,0.000885,0,0
0:0:36.434,111.553,6.3156,0,0.000885,0,0
0:0:36.633,112.785,6.38455,0,0.000885,0,0
0:0:36.835,113.194,6.40523,0,0.000885,0,0
0:0:37.030,114.777,6.49486,0,0.000885,0,0
0:0:37.231,114.898,6.50176,0,0.000885,0,0
0:0:37.430,115.774,6.55002,0,0.000885,0,0
0:0:37.627,116.712,6.60518,0,0.000885,0,0
0:0:37.828,117.887,6.67413,0,0.000885,0,0
0:0:38.030,118.652,6.71549,0,0.000885,0,0
0:0:38.234,119.59,6.77065,0,0.000885,0,0
0:0:38.437,120,6.79134,0,0.000885,0,0
0:0:38.638,121.877,6.89476,0,0.000885,0,0
0:0:38.840,122.228,6.91544,0,0.000885,0,0
0:0:39.042,123.518,6.99128,0,0.000885,0,0
0:0:39.244,123.927,7.01197,0,0.000885,0,0
0:0:39.445,125.275,7.08781,0,0.000885,0,0
0:0:39.641,125.631,7.10849,0,0.000885,0,0
0:0:39.844,126.979,7.18434,0,0.000885,0,0
0:0:40.042,127.86,7.2326,0,0.000885,0,0
0:0:40.240,129.03,7.30155,0,0.000885,0,0
0:0:40.441,129.501,7.32913,0,0.000885,0,0
0:0:40.635,129.91,7.34981,0,0.000885,0,0
0:0:40.837,131.085,7.41876,0,0.000885,0,0
0:0:41.037,131.378,7.43255,0,0.000885,0,0
0:0:41.234,133.135,7.53597,0,0.000885,0,0
0:0:41.436,133.549,7.55665,0,0.000885,0,0
0:0:41.631,134.661,7.61871,0,0.000885,0,0
0:0:41.832,135.306,7.66008,0,0.000885,0,0
0:0:42.034,136.538,7.72902,0,0.000885,0,0
0:0:42.230,137.125,7.7566,0,0.000885,0,0
0:0:42.433,138.531,7.83934,0,0.000885,0,0
0:0:42.627,138.651,7.84623,0,0.000885,0,0
0:0:42.828,139.763,7.90829,0,0.000885,0,0
0:0:43.030,140.115,7.92897,0,0.000885,0,0
0:0:43.232,141.64,8.0186,0,0.000885,0,0
0:0:43.435,141.934,8.03239,0,0.000885,0,0
0:0:43.638,143.108,8.10134,0,0.000885,0,0
0:0:43.838,143.869,8.14271,0,0.000885,0,0
0:0:44.041,145.159,8.21166,0,0.000885,0,0
0:0:44.242,145.452,8.23234,0,0.000885,0,0
0:0:44.444,147.094,8.32197,0,0.000885,0,0
0:0:44.643,147.445,8.34266,0,0.000885,0,0
0:0:44.841,148.913,8.42539,0,0.000885,0,0
0:0:45.042,149.442,8.45987,0,0.000885,0,0
0:0:45.240,150.555,8.52192,0,0.000885,0,0
0:0:45.442,151.613,8.57708,0,0.000885,0,0
0:0:45.639,151.965,8.59776,0,0.000885,0,0
0:0:45.837,153.077,8.65982,0,0.000885,0,0
0:0:46.038,153.606,8.69429,0,0.000885,0,0
0:0:46.234,155.074,8.77703,0,0.000885,0,0
0:0:46.435,155.599,8.80461,0,0.000885,0,0
0:0:46.634,156.831,8.87355,0,0.000885,0,0
0:0:46.830,157.476,8.90803,0,0.000885,0,0
0:0:47.033,158.824,8.99076,0,0.000885,0,0
0:0:47.230,159.469,9.02524,0,0.000885,0,0
0:0:47.430,160.292,9.0735,0,0.000885,0,0
0:0:47.632,160.879,9.10108,0,0.000885,0,0
0:0:47.834,161.991,9.17003,0,0.000885,0,0
0:0:48.038,162.814,9.2114,0,0.000885,0,0
0:0:48.240,163.81,9.26655,0,0.000885,0,0
0:0:48.441,164.575,9.31482,0,0.000885,0,0
0:0:48.643,165.865,9.38376,0,0.000885,0,0
0:0:48.846,166.159,9.40445,0,0.000885,0,0
0:0:49.047,167.155,9.45961,0,0.000885,0,0
0:0:49.245,167.622,9.48719,0,0.000885,0,0
0:0:49.444,169.032,9.56303,0,0.000885,0,0
0:0:49.644,169.264,9.57682,0,0.000885,0,0
0:0:49.842,170.322,9.63887,0,0.000885,0,0
0:0:50.043,171.377,9.70092,0,0.000885,0,0
0:0:50.241,171.906,9.7285,0,0.000885,0,0
0:0:50.438,173.196,9.79745,0,0.000885,0,0
0:0:50.639,173.721,9.83192,0,0.000885,0,0
0:0:50.838,175.015,9.90087,0,0.000885,0,0
0:0:51.037,175.304,9.92156,0,0.000885,0,0
0:0:51.237,176.599,9.9905,0,0.000885,0,0
0:0:51.432,177.359,10.0388,0,0.000885,0,0
0:0:51.633,178.707,10.1146,0,0.000885,0,0
0:0:51.833,179.294,10.1491,0,0.000885,0,0
0:0:52.031,180.527,10.218,0,0.000885,0,0
0:0:52.233,181.172,10.2525,0,0.000885,0,0
0:0:52.428,182.871,10.349,0,0.000885,0,0
0:0:52.629,183.285,10.3697,0,0.000885,0,0
0:0:52.830,184.454,10.4387,0,0.000885,0,0
0:0:53.034,185.277,10.4869,0,0.000885,0,0
0:0:53.237,186.274,10.5421,0,0.000885,0,0
0:0:53.438,186.919,10.5766,0,0.000885,0,0
0:0:53.641,187.973,10.6386,0,0.000885,0,0
0:0:53.843,188.68,10.68,0,0.000885,0,0
0:0:54.045,189.912,10.7489,0,0.000885,0,0
0:0:54.247,190.202,10.7627,0,0.000885,0,0
0:0:54.444,191.727,10.8523,0,0.000885,0,0
0:0:54.643,192.314,10.8799,0,0.000885,0,0
0:0:54.845,193.137,10.9282,0,0.000885,0,0
0:0:55.039,193.956,10.9765,0,0.000885,0,0
0:0:55.240,194.427,11.004,0,0.000885,0,0
0:0:55.436,195.717,11.073,0,0.000885,0,0
0:0:55.632,195.775,11.0799,0,0.000885,0,0
0:0:55.833,196.829,11.135,0,0.000885,0,0
0:0:56.028,197.474,11.1764,0,0.000885,0,0
0:0:56.228,198.591,11.2385,0,0.000885,0,0
0:0:56.425,199.058,11.266,0,0.000885,0,0
0:0:56.629,200.29,11.335,0,0.000885,0,0
0:0:56.830,200.935,11.3695,0,0.000885,0,0
0:0:57.028,202.581,11.466,0,0.000885,0,0
0:0:57.222,203.399,11.5073,0,0.000885,0,0
0:0:57.424,204.396,11.5694,0,0.000885,0,0
0:0:57.617,204.689,11.5832,0,0.000885,0,0
0:0:57.816,205.277,11.6177,0,0.000885,0,0
0:0:58.017,206.86,11.7073,0,0.000885,0,0
0:0:58.219,207.269,11.728,0,0.000885,0,0
0:0:58.422,208.679,11.8107,0,0.000885,0,0
0:0:58.621,209.146,11.8383,0,0.000885,0,0
0:0:58.825,210.672,11.921,0,0.000885,0,0
0:0:59.022,211.144,11.9486,0,0.000885,0,0
0:0:59.222,212.14,12.0038,0,0.000885,0,0
0:0:59.425,213.137,12.0589,0,0.000885,0,0
0:0:59.630,214.249,12.121,0,0.000885,0,0
0:0:59.828,214.662,12.1486,0,0.000885,0,0
0:1:0.027,216.246,12.2382,0,0.000885,0,0
0:1:0.220,216.833,12.2727,0,0.000885,0,0
0:1:0.422,217.945,12.3347,0,0.000885,0,0
0:1:0.629,218.706,12.3761,0,0.000885,0,0
0:1:0.826,219.707,12.4312,0,0.000885,0,0
0:1:1.026,220.174,12.4588,0,0.000885,0,0
0:1:1.218,221.406,12.5278,0,0.000885,0,0
0:1:1.419,221.757,12.5485,0,0.000885,0,0
0:1:1.616,222.932,12.6174,0,0.000885,0,0
0:1:1.821,223.225,12.6312,0,0.000885,0,0
0:1:2.022,224.573,12.707,0,0.000885,0,0
0:1:2.228,225.218,12.7415,0,0.000885,0,0
0:1:2.428,226.392,12.8105,0,0.000885,0,0
0:1:2.626,227.562,12.8794,0,0.000885,0,0
0:1:2.819,227.918,12.9001,0,0.000885,0,0
0:1:3.021,229.439,12.9828,0,0.000885,0,0
0:1:3.221,229.733,13.0035,0,0.000885,0,0
0:1:3.426,231.316,13.0931,0,0.000885,0,0
0:1:3.627,231.61,13.1069,0,0.000885,0,0
0:1:3.828,232.727,13.169,0,0.000885,0,0
0:1:4.028,233.251,13.1966,0,0.000885,0,0
0:1:4.227,234.252,13.2586,0,0.000885,0,0
0:1:4.426,234.777,13.2862,0,0.000885,0,0
0:1:4.628,235.836,13.3483,0,0.000885,0,0
0:1:4.819,236.712,13.3965,0,0.000885,0,0
0:1:5.020,237.886,13.4586,0,0.000885,0,0
0:1:5.228,238.474,13.493,0,0.000885,0,0
0:1:5.434,239.412,13.5482,0,0.000885,0,0
0:1:5.634,240.115,13.5896,0,0.000885,0,0
0:1:5.829,241.405,13.6585,0,0.000885,0,0
0:1:6.028,241.699,13.6792,0,0.000885,0,0
0:1:6.226,242.873,13.7413,0,0.000885,0,0
0:1:6.430,242.989,13.7481,0,0.000885,0,0
0:1:6.632,244.866,13.8585,0,0.000885,0,0
0:1:6.828,245.337,13.886,0,0.000885,0,0
0:1:7.026,246.271,13.9343,0,0.000885,0,0
0:1:7.222,247.036,13.9826,0,0.000885,0,0
0:1:7.416,247.739,14.017,0,0.000885,0,0
0:1:7.617,249.381,14.1136,0,0.000885,0,0
0:1:7.816,249.794,14.1343,0,0.000885,0,0
0:1:8.019,251.258,14.217,0,0.000885,0,0
0:1:8.221,251.609,14.2377,0,0.000885,0,0
0:1:8.421,253.135,14.3273,0,0.000885,0,0
0:1:8.622,253.838,14.3618,0,0.000885,0,0
0:1:8.822,255.012,14.4307,0,0.000885,0,0
0:1:9.022,255.541,14.4583,0,0.000885,0,0
0:1:9.223,256.302,14.5066,0,0.000885,0,0
0:1:9.429,256.947,14.541,0,0.000885,0,0
0:1:9.628,257.943,14.5962,0,0.000885,0,0
0:1:9.828,258.766,14.6445,0,0.000885,0,0
0:1:10.023,259.941,14.7065,0,0.000885,0,0
0:1:10.223,260.586,14.7479,0,0.000885,0,0
0:1:10.417,261.934,14.8237,0,0.000885,0,0
0:1:10.616,262.401,14.8513,0,0.000885,0,0
0:1:10.814,263.046,14.8858,0,0.000885,0,0
0:1:11.019,263.691,14.9203,0,0.000885,0,0
0:1:11.220,264.749,14.9823,0,0.000885,0,0
0:1:11.428,265.158,15.003,0,0.000885,0,0
0:1:11.622,266.275,15.065,0,0.000885,0,0
0:1:11.823,266.684,15.0926,0,0.000885,0,0
0:1:12.017,267.214,15.1202,0,0.000885,0,0
0:1:12.218,268.383,15.1892,0,0.000885,0,0
0:1:12.423,268.913,15.2167,0,0.000885,0,0
0:1:12.621,270.087,15.2857,0,0.000885,0,0
0:1:12.821,270.439,15.3064,0,0.000885,0,0
0:1:13.022,272.08,15.396,0,0.000885,0,0
0:1:13.226,272.725,15.4305,0,0.000885,0,0
0:1:13.428,274.193,15.5132,0,0.000885,0,0
0:1:13.627,274.953,15.5615,0,0.000885,0,0
0:1:13.829,275.776,15.6028,0,0.000885,0,0
0:1:14.029,276.537,15.6511,0,0.000885,0,0
0:1:14.229,277.943,15.7269,0,0.000885,0,0
0:1:14.428,278.356,15.7545,0,0.000885,0,0
0:1:14.621,280.291,15.8579,0,0.000885,0,0
0:1:14.822,280.994,15.8993,0,0.000885,0,0
0:1:15.028,282.111,15.9614,0,0.000885,0,0
0:1:15.227,282.929,16.0096,0,0.000885,0,0
0:1:15.424,284.103,16.0786,0,0.000885,0,0
0:1:15.629,285.158,16.1337,0,0.000885,0,0
0:1:15.830,286.799,16.2303,0,0.000885,0,0
0:1:16.023,287.564,16.2716,0,0.000885,0,0
0:1:16.220,288.445,16.3199,0,0.000885,0,0
0:1:16.421,289.148,16.3613,0,0.000885,0,0
0:1:16.627,289.851,16.4026,0,0.000885,0,0
0:1:16.828,290.673,16.4509,0,0.000885,0,0
0:1:17.022,292.195,16.5336,0,0.000885,0,0
0:1:17.218,292.96,16.575,0,0.000885,0,0
0:1:17.418,293.133,16.5888,0,0.000885,0,0
0:1:17.622,294.308,16.6577,0,0.000885,0,0
0:1:17.821,295.362,16.7129,0,0.000885,0,0
0:1:18.022,296.363,16.768,0,0.000885,0,0
0:1:18.227,297.066,16.8094,0,0.000885,0,0
0:1:18.429,298.413,16.8853,0,0.000885,0,0
0:1:18.628,298.356,16.8853,0,0.000885,0,0
0:1:18.829,299.646,16.9542,0,0.000885,0,0
0:1:19.028,300.291,16.9956,0,0.000885,0,0
0:1:19.229,301.345,17.0507,0,0.000885,0,0
0:1:19.430,301.696,17.0714,0,0.000885,0,0
0:1:19.624,302.991,17.1473,0,0.000885,0,0
0:1:19.822,303.573,17.1817,0,0.000885,0,0
0:1:20.021,304.338,17.2231,0,0.000885,0,0
0:1:20.235,304.338,17.2231,0,0.000885,0,0
0:1:20.437,305.393,17.2852,0,0.000885,0,0
0:1:20.634,306.095,17.3196,0,0.000885,0,0
0:1:20.831,307.563,17.4024,0,0.000885,0,0
0:1:21.031,307.915,17.4231,0,0.000885,0,0
0:1:21.223,309.031,17.4851,0,0.000885,0,0
0:1:21.423,309.556,17.5196,0,0.000885,0,0
0:1:21.622,310.788,17.5885,0,0.000885,0,0
0:1:21.829,311.491,17.6299,0,0.000885,0,0
0:1:22.030,312.843,17.7057,0,0.000885,0,0
0:1:22.221,313.488,17.7402,0,0.000885,0,0
0:1:22.420,313.84,17.7609,0,0.000885,0,0
0:1:22.619,315.423,17.8505,0,0.000885,0,0
0:1:22.815,315.833,17.8712,0,0.000885,0,0
0:1:23.016,317.123,17.9471,0,0.000885,0,0
0:1:23.217,317.416,17.9608,0,0.000885,0,0
0:1:23.420,318.826,18.0436,0,0.000885,0,0
0:1:23.622,319.293,18.0712,0,0.000885,0,0
0:1:23.821,320.348,18.1263,0,0.000885,0,0
0:1:24.023,320.761,18.1539,0,0.000885,0,0
0:1:24.222,321.286,18.1815,0,0.000885,0,0
0:1:24.423,321.873,18.2159,0,0.000885,0,0
0:1:24.622,323.457,18.3056,0,0.000885,0,0
0:1:24.818,323.986,18.3332,0,0.000885,0,0
0:1:25.019,325.628,18.4297,0,0.000885,0,0
0:1:25.223,326.388,18.4711,0,0.000885,0,0
0:1:25.421,327.856,18.5538,0,0.000885,0,0
0:1:25.620,328.679,18.6021,0,0.000885,0,0
0:1:25.815,330.263,18.6917,0,0.000885,0,0
0:1:26.017,331.201,18.74,0,0.000885,0,0
0:1:26.212,332.02,18.7882,0,0.000885,0,0
0:1:26.410,332.958,18.8434,0,0.000885,0,0
0:1:26.609,333.723,18.8847,0,0.000885,0,0
0:1:26.815,335.129,18.9675,0,0.000885,0,0
0:1:27.016,335.952,19.0088,0,0.000885,0,0
0:1:27.220,337.651,19.1054,0,0.000885,0,0
0:1:27.418,337.825,19.1192,0,0.000885,0,0
0:1:27.618,339.057,19.1881,0,0.000885,0,0
0:1:27.820,340.058,19.2433,0,0.000885,0,0
0:1:28.022,340.818,19.2846,0,0.000885,0,0
0:1:28.223,341.285,19.3122,0,0.000885,0,0
0:1:28.423,342.166,19.3605,0,0.000885,0,0
0:1:28.623,342.931,19.4087,0,0.000885,0,0
0:1:28.824,344.221,19.4777,0,0.000885,0,0
0:1:29.024,344.924,19.5191,0,0.000885,0,0
0:1:29.222,345.685,19.5604,0,0.000885,0,0
0:1:29.418,346.098,19.588,0,0.000885,0,0
0:1:29.619,346.917,19.6294,0,0.000885,0,0
0:1:29.813,347.388,19.657,0,0.000885,0,0
0:1:30.014,348.265,19.7052,0,0.000885,0,0
0:1:30.211,348.794,19.7397,0,0.000885,0,0
0:1:30.407,349.088,19.7535,0,0.000885,0,0
0:1:30.608,350.378,19.8293,0,0.000885,0,0
0:1:30.821,351.668,19.8983,0,0.000885,0,0
0:1:31.022,352.312,19.9396,0,0.000885,0,0
0:1:31.221,352.49,19.9465,0,0.000885,0,0
0:1:31.425,354.016,20.0362,0,0.000885,0,0
0:1:31.629,354.892,20.0844,0,0.000885,0,0
0:1:31.820,355.6,20.1258,0,0.000885,0,0
0:1:32.019,356.418,20.1672,0,0.000885,0,0
0:1:32.219,357.535,20.2292,0,0.000885,0,0
0:1:32.423,358.353,20.2775,0,0.000885,0,0
0:1:32.624,359.118,20.3188,0,0.000885,0,0
0:1:32.825,359.995,20.374,0,0.000885,0,0
0:1:33.030,361.227,20.443,0,0.000885,0,0
0:1:33.232,361.756,20.4705,0,0.000885,0,0
0:1:33.432,363.046,20.5464,0,0.000885,0,0
0:1:33.632,363.927,20.5946,0,0.000885,0,0
0:1:33.833,365.332,20.6705,0,0.000885,0,0
0:1:34.033,365.862,20.705,0,0.000885,0,0
0:1:34.233,367.503,20.7946,0,0.000885,0,0
0:1:34.425,368.148,20.836,0,0.000885,0,0
0:1:34.626,368.442,20.8497,0,0.000885,0,0
0:1:34.822,369.38,20.9049,0,0.000885,0,0
0:1:35.019,370.261,20.9532,0,0.000885,0,0
0:1:35.219,371.08,21.0014,0,0.000885,0,0
0:1:35.414,371.551,21.0221,0,0.000885,0,0
0:1:35.615,373.019,21.1117,0,0.000885,0,0
0:1:35.821,374.015,21.1669,0,0.000885,0,0
0:1:36.019,374.309,21.1807,0,0.000885,0,0
0:1:36.218,374.834,21.2083,0,0.000885,0,0
0:1:36.423,376.186,21.291,0,0.000885,0,0
0:1:36.623,376.595,21.3117,0,0.000885,0,0
0:1:36.832,378.121,21.3944,0,0.000885,0,0
0:1:37.036,378.94,21.4427,0,0.000885,0,0
0:1:37.237,380.23,21.5185,0,0.000885,0,0
0:1:37.431,380.937,21.5599,0,0.000885,0,0
0:1:37.632,382.227,21.6289,0,0.000885,0,0
0:1:37.832,382.93,21.6702,0,0.000885,0,0
0:1:38.035,384.629,21.7667,0,0.000885,0,0
0:1:38.237,384.865,21.7805,0,0.000885,0,0
0:1:38.437,386.564,21.8771,0,0.000885,0,0
0:1:38.637,387.151,21.9115,0,0.000885,0,0
0:1:38.838,387.974,21.9529,0,0.000885,0,0
0:1:39.038,388.499,21.9874,0,0.000885,0,0
0:1:39.238,389.793,22.0563,0,0.000885,0,0
0:1:39.434,390.438,22.0908,0,0.000885,0,0
0:1:39.631,391.666,22.1666,0,0.000885,0,0
0:1:39.831,391.902,22.1804,0,0.000885,0,0
0:1:40.024,392.667,22.2218,0,0.000885,0,0
0:1:40.223,393.134,22.2494,0,0.000885,0,0
0:1:40.421,393.837,22.2839,0,0.000885,0,0
0:1:40.616,395.011,22.3528,0,0.000885,0,0
0:1:40.816,395.598,22.3873,0,0.000885,0,0
0:1:41.013,396.537,22.4424,0,0.000885,0,0
0:1:41.212,397.182,22.4769,0,0.000885,0,0
0:1:41.410,398,22.5252,0,0.000885,0,0
0:1:41.614,398.707,22.5596,0,0.000885,0,0
0:1:41.815,399.762,22.6217,0,0.000885,0,0
0:1:42.021,400.936,22.6906,0,0.000885,0,0
0:1:42.219,401.875,22.7389,0,0.000885,0,0
0:1:42.418,402.342,22.7665,0,0.000885,0,0
0:1:42.633,404.103,22.8699,0,0.000885,0,0
0:1:42.835,404.57,22.8975,0,0.000885,0,0
0:1:43.034,405.393,22.9389,0,0.000885,0,0
0:1:43.236,405.98,22.9733,0,0.000885,0,0
0:1:43.438,407.564,23.063,0,0.000885,0,0
0:1:43.638,408.267,23.1043,0,0.000885,0,0
0:1:43.839,409.441,23.1664,0,0.000885,0,0
0:1:44.040,410.024,23.2009,0,0.000885,0,0
0:1:44.239,410.611,23.2353,0,0.000885,0,0
0:1:44.440,411.549,23.2905,0,0.000885,0,0
0:1:44.635,413.133,23.3801,0,0.000885,0,0
0:1:44.834,413.484,23.4008,0,0.000885,0,0
0:1:45.034,414.601,23.4629,0,0.000885,0,0
0:1:45.226,415.304,23.5042,0,0.000885,0,0
0:1:45.429,416.652,23.5801,0,0.000885,0,0
0:1:45.622,416.887,23.5939,0,0.000885,0,0
0:1:45.820,417.417,23.6214,0,0.000885,0,0
0:1:46.019,418.942,23.7042,0,0.000885,0,0
0:1:46.214,419.467,23.7386,0,0.000885,0,0
0:1:46.415,420.642,23.8007,0,0.000885,0,0
0:1:46.612,421.171,23.8352,0,0.000885,0,0
0:1:46.809,422.283,23.8972,0,0.000885,0,0
0:1:47.009,422.87,23.9317,0,0.000885,0,0
0:1:47.223,424.102,24.0007,0,0.000885,0,0
0:1:47.424,424.747,24.0351,0,0.000885,0,0
0:1:47.632,426.504,24.1385,0,0.000885,0,0
0:1:47.837,426.86,24.1523,0,0.000885,0,0
0:1:48.038,428.324,24.2351,0,0.000885,0,0
0:1:48.238,428.675,24.2558,0,0.000885,0,0
0:1:48.441,429.907,24.3247,0,0.000885,0,0
0:1:48.642,430.73,24.373,0,0.000885,0,0
0:1:48.842,431.784,24.435,0,0.000885,0,0
0:1:49.043,432.078,24.4488,0,0.000885,0,0
0:1:49.244,433.31,24.5178,0,0.000885,0,0
0:1:49.444,433.84,24.5522,0,0.000885,0,0
0:1:49.643,435.303,24.635,0,0.000885,0,0
0:1:49.837,435.948,24.6694,0,0.000885,0,0
0:1:50.038,436.829,24.7177,0,0.000885,0,0
0:1:50.233,437.3,24.7453,0,0.000885,0,0
0:1:50.432,438.003,24.7867,0,0.000885,0,0
0:1:50.631,439.235,24.8556,0,0.000885,0,0
0:1:50.835,439.818,24.8901,0,0.000885,0,0
0:1:51.036,440.583,24.9314,0,0.000885,0,0
0:1:51.232,441.17,24.9659,0,0.000885,0,0
0:1:51.428,442.167,25.0211,0,0.000885,0,0
0:1:51.628,442.402,25.0349,0,0.000885,0,0
0:1:51.823,443.514,25.0969,0,0.000885,0,0
0:1:52.021,444.337,25.1452,0,0.000885,0,0
0:1:52.220,445.507,25.2072,0,0.000885,0,0
0:1:52.415,446.152,25.2486,0,0.000885,0,0
0:1:52.615,447.62,25.3313,0,0.000885,0,0
0:1:52.816,448.149,25.3589,0,0.000885,0,0
0:1:53.019,449.555,25.4417,0,0.000885,0,0
0:1:53.222,450.551,25.4968,0,0.000885,0,0
0:1:53.422,451.668,25.5589,0,0.000885,0,0
0:1:53.622,452.486,25.6071,0,0.000885,0,0
0:1:53.822,454.012,25.6899,0,0.000885,0,0
0:1:54.023,454.426,25.7174,0,0.000885,0,0
0:1:54.224,455.832,25.7933,0,0.000885,0,0
0:1:54.437,456.534,25.8347,0,0.000885,0,0
0:1:54.637,458.06,25.9243,0,0.000885,0,0
0:1:54.836,458.589,25.9519,0,0.000885,0,0
0:1:55.031,459.292,25.9932,0,0.000885,0,0
0:1:55.233,460.818,26.076,0,0.000885,0,0
0:1:55.425,461.049,26.0898,0,0.000885,0,0
0:1:55.624,461.988,26.1449,0,0.000885,0,0
0:1:55.823,462.575,26.1794,0,0.000885,0,0
0:1:56.017,463.807,26.2483,0,0.000885,0,0
0:1:56.218,464.043,26.2621,0,0.000885,0,0
0:1:56.413,464.982,26.3104,0,0.000885,0,0
0:1:56.611,465.449,26.338,0,0.000885,0,0
0:1:56.812,466.739,26.4138,0,0.000885,0,0
0:1:57.025,467.739,26.469,0,0.000885,0,0
0:1:57.225,468.736,26.5241,0,0.000885,0,0
0:1:57.421,469.261,26.5517,0,0.000885,0,0
0:1:57.617,470.493,26.6276,0,0.000885,0,0
0:1:57.817,471.08,26.6551,0,0.000885,0,0
0:1:58.019,471.725,26.6965,0,0.000885,0,0
0:1:58.220,472.312,26.7241,0,0.000885,0,0
0:1:58.422,473.722,26.8068,0,0.000885,0,0
0:1:58.622,474.367,26.8413,0,0.000885,0,0
0:1:58.824,475.479,26.9033,0,0.000885,0,0
0:1:59.023,476.009,26.9378,0,0.000885,0,0
0:1:59.224,476.418,26.9585,0,0.000885,0,0
0:1:59.422,477.944,27.0481,0,0.000885,0,0
0:1:59.618,478.704,27.0895,0,0.000885,0,0
0:1:59.817,479.821,27.1516,0,0.000885,0,0
0:2:0.024,480.524,27.1929,0,0.000885,0,0
0:2:0.222,481.462,27.2481,0,0.000885,0,0
0:2:0.421,481.814,27.2619,0,0.000885,0,0
0:2:0.637,483.691,27.3722,0,0.000885,0,0
0:2:0.836,484.158,27.3998,0,0.000885,0,0
0:2:1.034,485.452,27.4687,0,0.000885,0,0
0:2:1.228,486.155,27.5101,0,0.000885,0,0
0:2:1.429,487.503,27.5859,0,0.000885,0,0
0:2:1.623,488.032,27.6135,0,0.000885,0,0
0:2:1.822,489.029,27.6756,0,0.000885,0,0
0:2:2.022,489.616,27.7031,0,0.000885,0,0
0:2:2.216,490.612,27.7652,0,0.000885,0,0
0:2:2.416,491.199,27.7928,0,0.000885,0,0
0:2:2.621,492.076,27.8479,0,0.000885,0,0
0:2:2.820,492.956,27.8962,0,0.000885,0,0
0:2:3.022,494.304,27.972,0,0.000885,0,0
0:2:3.223,495.069,28.0134,0,0.000885,0,0
0:2:3.425,496.008,28.0686,0,0.000885,0,0
0:2:3.626,496.653,28.103,0,0.000885,0,0
0:2:3.826,497.827,28.172,0,0.000885,0,0
0:2:4.025,498.41,28.2065,0,0.000885,0,0
0:2:4.224,498.824,28.2271,0,0.000885,0,0
0:2:4.426,500.114,28.303,0,0.000885,0,0
0:2:4.622,500.932,28.3443,0,0.000885,0,0
0:2:4.828,501.871,28.3995,0,0.000885,0,0
0:2:5.028,502.458,28.434,0,0.000885,0,0
0:2:5.235,503.281,28.4822,0,0.000885,0,0
0:2:5.434,503.926,28.5167,0,0.000885,0,0
0:2:5.632,504.393,28.5443,0,0.000885,0,0
0:2:5.825,505.038,28.5788,0,0.000885,0,0
0:2:6.026,506.621,28.6684,0,0.000885,0,0
0:2:6.221,507.329,28.7098,0,0.000885,0,0
0:2:6.420,508.498,28.7718,0,0.000885,0,0
0:2:6.628,509.206,28.8132,0,0.000885,0,0
0:2:6.834,510.963,28.9166,0,0.000885,0,0
0:2:7.035,511.723,28.958,0,0.000885,0,0
0:2:7.240,513.018,29.0338,0,0.000885,0,0
0:2:7.439,513.663,29.0683,0,0.000885,0,0
0:2:7.640,514.953,29.1372,0,0.000885,0,0
0:2:7.841,515.598,29.1786,0,0.000885,0,0
0:2:8.043,516.888,29.2476,0,0.000885,0,0
0:2:8.244,517.769,29.3027,0,0.000885,0,0
0:2:8.445,518.996,29.3717,0,0.000885,0,0
0:2:8.645,519.29,29.3855,0,0.000885,0,0
0:2:8.845,520.58,29.4613,0,0.000885,0,0
0:2:9.046,521.287,29.4958,0,0.000885,0,0
0:2:9.243,522.399,29.5647,0,0.000885,0,0
0:2:9.438,522.808,29.5854,0,0.000885,0,0
0:2:9.639,523.044,29.5992,0,0.000885,0,0
0:2:9.834,524.392,29.675,0,0.000885,0,0
0:2:10.034,525.037,29.7095,0,0.000885,0,0
0:2:10.233,526.038,29.7647,0,0.000885,0,0
0:2:10.436,526.505,29.7922,0,0.000885,0,0
0:2:10.637,527.679,29.8612,0,0.000885,0,0
0:2:10.834,528.44,29.9026,0,0.000885,0,0
0:2:11.029,529.614,29.9715,0,0.000885,0,0
0:2:11.229,529.966,29.9922,0,0.000885,0,0
0:2:11.435,531.02,30.0474,0,0.000885,0,0
0:2:11.634,531.901,30.1025,0,0.000885,0,0
0:2:11.832,533.017,30.1646,0,0.000885,0,0
0:2:12.025,533.604,30.199,0,0.000885,0,0
0:2:12.225,535.126,30.2818,0,0.000885,0,0
0:2:12.420,535.419,30.2956,0,0.000885,0,0
0:2:12.618,535.948,30.33,0,0.000885,0,0
0:2:12.819,537.06,30.3921,0,0.000885,0,0
0:2:13.020,537.59,30.4197,0,0.000885,0,0
0:2:13.222,538.822,30.4886,0,0.000885,0,0
0:2:13.423,539.351,30.5231,0,0.000885,0,0
0:2:13.624,540.699,30.5989,0,0.000885,0,0
0:2:13.824,541.228,30.6265,0,0.000885,0,0
0:2:14.025,542.398,30.6955,0,0.000885,0,0
0:2:14.225,543.221,30.7368,0,0.000885,0,0
0:2:14.422,544.16,30.792,0,0.000885,0,0
0:2:14.619,545.041,30.8402,0,0.000885,0,0
0:2:14.820,546.74,30.9368,0,0.000885,0,0
0:2:15.035,547.269,30.9712,0,0.000885,0,0
0:2:15.236,548.266,31.0264,0,0.000885,0,0
0:2:15.441,548.853,31.0609,0,0.000885,0,0
0:2:15.636,549.907,31.116,0,0.000885,0,0
0:2:15.838,550.552,31.1574,0,0.000885,0,0
0:2:16.033,551.255,31.1919,0,0.000885,0,0
0:2:16.230,552.02,31.2401,0,0.000885,0,0
0:2:16.430,552.896,31.2884,0,0.000885,0,0
0:2:16.635,553.603,31.3298,0,0.000885,0,0
0:2:16.836,555.245,31.4194,0,0.000885,0,0
0:2:17.041,555.36,31.4263,0,0.000885,0,0
0:2:17.239,556.828,31.509,0,0.000885,0,0
0:2:17.438,557.473,31.5435,0,0.000885,0,0
0:2:17.630,558.528,31.6056,0,0.000885,0,0
0:2:17.834,559.351,31.6538,0,0.000885,0,0
0:2:18.035,560.934,31.7435,0,0.000885,0,0
0:2:18.237,561.285,31.7641,0,0.000885,0,0
0:2:18.437,561.753,31.7917,0,0.000885,0,0
0:2:18.639,563.105,31.8676,0,0.000885,0,0
0:2:18.839,563.981,31.9158,0,0.000885,0,0
0:2:19.040,565.098,31.9779,0,0.000885,0,0
0:2:19.239,565.565,32.0055,0,0.000885,0,0
0:2:19.441,566.21,32.0399,0,0.000885,0,0
0:2:19.634,567.326,32.102,0,0.000885,0,0
0:2:19.834,568.029,32.1434,0,0.000885,0,0
0:2:20.030,568.38,32.164,0,0.000885,0,0
0:2:20.236,569.613,32.233,0,0.000885,0,0
0:2:20.437,570.2,32.2675,0,0.000885,0,0
0:2:20.633,571.61,32.3433,0,0.000885,0,0
0:2:20.828,571.841,32.3571,0,0.000885,0,0
0:2:21.029,573.367,32.4467,0,0.000885,0,0
0:2:21.235,573.776,32.4674,0,0.000885,0,0
0:2:21.436,575.066,32.5433,0,0.000885,0,0
0:2:21.630,576.005,32.5984,0,0.000885,0,0
0:2:21.826,577.357,32.6743,0,0.000885,0,0
0:2:22.027,578.295,32.7225,0,0.000885,0,0
0:2:22.231,579.701,32.8053,0,0.000885,0,0
0:2:22.430,580.053,32.8259,0,0.000885,0,0
0:2:22.628,580.524,32.8535,0,0.000885,0,0
0:2:22.823,582.223,32.95,0,0.000885,0,0
0:2:23.024,582.868,32.9845,0,0.000885,0,0
0:2:23.225,583.34,33.0121,0,0.000885,0,0
0:2:23.427,584.216,33.0604,0,0.000885,0,0
0:2:23.629,585.333,33.1224,0,0.000885,0,0
0:2:23.829,586.093,33.1638,0,0.000885,0,0
0:2:24.030,587.383,33.2396,0,0.000885,0,0
0:2:24.231,588.148,33.281,0,0.000885,0,0
0:2:24.434,589.26,33.343,0,0.000885,0,0
0:2:24.635,589.438,33.3568,0,0.000885,0,0
0:2:24.828,590.791,33.4327,0,0.000885,0,0
0:2:25.029,591.258,33.4603,0,0.000885,0,0
0:2:25.226,592.254,33.5154,0,0.000885,0,0
0:2:25.435,592.841,33.5499,0,0.000885,0,0
0:2:25.638,593.606,33.5913,0,0.000885,0,0
0:2:25.842,594.309,33.6326,0,0.000885,0,0
0:2:26.042,595.835,33.7154,0,0.000885,0,0
0:2:26.241,596.364,33.7498,0,0.000885,0,0
0:2:26.437,597.596,33.8188,0,0.000885,0,0
0:2:26.638,598.597,33.8739,0,0.000885,0,0
0:2:26.835,599.064,33.9015,0,0.000885,0,0
0:2:27.034,599.594,33.9291,0,0.000885,0,0
0:2:27.234,600.239,33.9636,0,0.000885,0,0
0:2:27.426,601.884,34.0601,0,0.000885,0,0
0:2:27.628,602.765,34.1084,0,0.000885,0,0
0:2:27.830,603.641,34.1566,0,0.000885,0,0
0:2:28.036,603.997,34.1773,0,0.000885,0,0
0:2:28.238,605.403,34.26,0,0.000885,0,0
0:2:28.439,605.759,34.2807,0,0.000885,0,0
0:2:28.641,606.697,34.329,0,0.000885,0,0
0:2:28.841,607.694,34.391,0,0.000885,0,0
0:2:29.043,608.69,34.4462,0,0.000885,0,0
0:2:29.244,609.455,34.4876,0,0.000885,0,0
0:2:29.440,610.63,34.5565,0,0.000885,0,0
0:2:29.641,611.217,34.591,0,0.000885,0,0
0:2:29.840,612.449,34.6599,0,0.000885,0,0
0:2:30.037,613.388,34.7082,0,0.000885,0,0
0:2:30.239,614.562,34.7772,0,0.000885,0,0
0:2:30.431,614.913,34.7978,0,0.000885,0,0
0:2:30.631,616.03,34.8599,0,0.000885,0,0
0:2:30.832,616.968,34.9151,0,0.000885,0,0
0:2:31.026,618.143,34.9771,0,0.000885,0,0
0:2:31.228,618.903,35.0254,0,0.000885,0,0
0:2:31.436,619.962,35.0805,0,0.000885,0,0
0:2:31.631,620.958,35.1426,0,0.000885,0,0
0:2:31.835,621.603,35.1771,0,0.000885,0,0
0:2:32.029,622.311,35.2184,0,0.000885,0,0
0:2:32.231,622.778,35.2391,0,0.000885,0,0
0:2:32.428,623.427,35.2805,0,0.000885,0,0
0:2:32.625,623.894,35.3081,0,0.000885,0,0
0:2:32.826,625.304,35.3839,0,0.000885,0,0
0:2:33.026,625.949,35.4184,0,0.000885,0,0
0:2:33.230,627.066,35.4873,0,0.000885,0,0
0:2:33.434,627.947,35.5356,0,0.000885,0,0
0:2:33.635,629.53,35.6252,0,0.000885,0,0
0:2:33.836,629.708,35.6321,0,0.000885,0,0
0:2:34.038,630.704,35.6873,0,0.000885,0,0
0:2:34.240,631.292,35.7217,0,0.000885,0,0
0:2:34.441,632.172,35.7769,0,0.000885,0,0
0:2:34.635,632.639,35.7976,0,0.000885,0,0
0:2:34.837,633.405,35.8458,0,0.000885,0,0
0:2:35.032,634.05,35.8803,0,0.000885,0,0
0:2:35.231,634.694,35.9148,0,0.000885,0,0
0:2:35.432,635.402,35.9562,0,0.000885,0,0
0:2:35.626,636.807,36.0389,0,0.000885,0,0
0:2:35.827,638.217,36.1147,0,0.000885,0,0
0:2:36.024,638.689,36.1423,0,0.000885,0,0
0:2:36.222,639.921,36.2113,0,0.000885,0,0
0:2:36.424,641.269,36.2871,0,0.000885,0,0
0:2:36.619,642.443,36.3561,0,0.000885,0,0
0:2:36.819,643.969,36.4388,0,0.000885,0,0
0:2:37.019,644.734,36.4871,0,0.000885,0,0
0:2:37.214,645.553,36.5284,0,0.000885,0,0
0:2:37.416,646.789,36.5974,0,0.000885,0,0
0:2:37.621,647.256,36.625,0,0.000885,0,0
0:2:37.820,648.315,36.687,0,0.000885,0,0
0:2:38.022,648.666,36.7077,0,0.000885,0,0
0:2:38.224,649.956,36.7766,0,0.000885,0,0
0:2:38.426,650.428,36.8042,0,0.000885,0,0
0:2:38.627,652.127,36.9007,0,0.000885,0,0
0:2:38.829,652.656,36.9352,0,0.000885,0,0
0:2:39.032,653.479,36.9766,0,0.000885,0,0
0:2:39.235,654.182,37.018,0,0.000885,0,0
0:2:39.435,655.063,37.0662,0,0.000885,0,0
0:2:39.633,655.592,37.1007,0,0.000885,0,0
0:2:39.830,656.882,37.1696,0,0.000885,0,0
0:2:40.032,657.763,37.2248,0,0.000885,0,0
0:2:40.226,658.702,37.2731,0,0.000885,0,0
0:2:40.428,659.351,37.3144,0,0.000885,0,0
0:2:40.627,659.645,37.3282,0,0.000885,0,0
0:2:40.822,660.935,37.4041,0,0.000885,0,0
0:2:41.024,661.402,37.4247,0,0.000885,0,0
0:2:41.221,662.225,37.473,0,0.000885,0,0
0:2:41.417,663.047,37.5213,0,0.000885,0,0
0:2:41.619,664.222,37.5902,0,0.000885,0,0
0:2:41.813,665.103,37.6385,0,0.000885,0,0
0:2:42.015,666.041,37.6936,0,0.000885,0,0
0:2:42.222,666.57,37.7212,0,0.000885,0,0
0:2:42.421,667.918,37.7971,0,0.000885,0,0
0:2:42.622,668.038,37.804,0,0.000885,0,0
0:2:42.825,669.622,37.8936,0,0.000885,0,0
0:2:43.028,669.738,37.9005,0,0.000885,0,0
0:2:43.230,671.557,38.0039,0,0.000885,0,0
0:2:43.430,671.971,38.0246,0,0.000885,0,0
0:2:43.633,673.439,38.1073,0,0.000885,0,0
0:2:43.835,673.439,38.1073,0,0.000885,0,0
0:2:44.038,674.671,38.1763,0,0.000885,0,0
0:2:44.236,675.373,38.2176,0,0.000885,0,0
0:2:44.431,676.663,38.2935,0,0.000885,0,0
0:2:44.632,677.371,38.328,0,0.000885,0,0
0:2:44.830,678.603,38.4038,0,0.000885,0,0
0:2:45.029,679.306,38.4383,0,0.000885,0,0
0:2:45.227,679.951,38.4796,0,0.000885,0,0
0:2:45.432,680.422,38.5072,0,0.000885,0,0
0:2:45.636,681.303,38.5555,0,0.000885,0,0
0:2:45.831,682.299,38.6106,0,0.000885,0,0
0:2:46.029,682.242,38.6037,0,0.000885,0,0
0:2:46.230,683.709,38.6934,0,0.000885,0,0
0:2:46.424,683.945,38.7003,0,0.000885,0,0
0:2:46.626,685.177,38.7761,0,0.000885,0,0
0:2:46.824,685.413,38.783,0,0.000885,0,0
0:2:47.021,687.757,38.9209,0,0.000885,0,0
0:2:47.223,688.407,38.9554,0,0.000885,0,0
0:2:47.428,689.288,39.0036,0,0.000885,0,0
0:2:47.627,689.933,39.045,0,0.000885,0,0
0:2:47.829,691.28,39.1209,0,0.000885,0,0
0:2:48.033,691.988,39.1553,0,0.000885,0,0
0:2:48.238,692.339,39.176,0,0.000885,0,0
0:2:48.439,692.748,39.2036,0,0.000885,0,0
0:2:48.640,693.807,39.2587,0,0.000885,0,0
0:2:48.842,694.568,39.307,0,0.000885,0,0
0:2:49.043,695.8,39.376,0,0.000885,0,0
0:2:49.245,696.801,39.4311,0,0.000885,0,0
0:2:49.441,697.388,39.4656,0,0.000885,0,0
0:2:49.639,697.388,39.4656,0,0.000885,0,0
0:2:49.841,698.678,39.5345,0,0.000885,0,0
0:2:50.036,698.793,39.5414,0,0.000885,0,0
0:2:50.237,699.852,39.6035,0,0.000885,0,0
0:2:50.433,700.613,39.6449,0,0.000885,0,0
0:2:50.629,700.906,39.6655,0,0.000885,0,0
0:2:50.831,701.787,39.7138,0,0.000885,0,0
0:2:51.026,702.143,39.7345,0,0.000885,0,0
0:2:51.227,702.668,39.7621,0,0.000885,0,0
0:2:51.425,703.139,39.7896,0,0.000885,0,0
0:2:51.631,703.9,39.831,0,0.000885,0,0
0:2:51.833,704.194,39.8517,0,0.000885,0,0
0:2:52.030,704.843,39.8862,0,0.000885,0,0
0:2:52.229,705.661,39.9344,0,0.000885,0,0
0:2:52.429,706.836,39.9965,0,0.000885,0,0
0:2:52.624,707.543,40.0379,0,0.000885,0,0
0:2:52.826,709.42,40.1482,0,0.000885,0,0
0:2:53.028,710.301,40.1964,0,0.000885,0,0
0:2:53.231,712.356,40.3136,0,0.000885,0,0
0:2:53.433,713.059,40.3481,0,0.000885,0,0
0:2:53.637,715.23,40.4722,0,0.000885,0,0
0:2:53.837,716.23,40.5274,0,0.000885,0,0
0:2:54.039,717.636,40.6101,0,0.000885,0,0
0:2:54.240,719.046,40.6929,0,0.000885,0,0
0:2:54.442,720.63,40.7825,0,0.000885,0,0
0:2:54.646,721.688,40.8376,0,0.000885,0,0
0:2:54.847,723.566,40.948,0,0.000885,0,0
0:2:55.045,724.562,41.0031,0,0.000885,0,0
0:2:55.242,725.914,41.079,0,0.000885,0,0
0:2:55.444,726.15,41.0928,0,0.000885,0,0
0:2:55.640,726.968,41.141,0,0.000885,0,0
0:2:55.839,728.672,41.2375,0,0.000885,0,0
0:2:56.039,729.846,41.2996,0,0.000885,0,0
0:2:56.233,731.43,41.3892,0,0.000885,0,0
0:2:56.434,732.195,41.4306,0,0.000885,0,0
0:2:56.632,733.369,41.4995,0,0.000885,0,0
0:2:56.830,734.366,41.5547,0,0.000885,0,0
0:2:57.031,735.949,41.6443,0,0.000885,0,0
0:2:57.226,736.421,41.6719,0,0.000885,0,0
0:2:57.426,737.244,41.7202,0,0.000885,0,0
0:2:57.625,737.831,41.7547,0,0.000885,0,0
0:2:57.821,738.182,41.7753,0,0.000885,0,0
0:2:58.023,738.36,41.7822,0,0.000885,0,0
0:2:58.225,739.299,41.8374,0,0.000885,0,0
0:2:58.428,739.472,41.8443,0,0.000885,0,0
0:2:58.630,740.473,41.8994,0,0.000885,0,0
0:2:58.832,741.234,41.9477,0,0.000885,0,0
0:2:59.033,742.115,41.996,0,0.000885,0,0
0:2:59.233,742.466,42.0167,0,0.000885,0,0
0:2:59.438,743.053,42.0511,0,0.000885,0,0
0:2:59.634,742.88,42.0373,0,0.000885,0,0
0:2:59.830,743.289,42.0649,0,0.000885,0,0
0:3:0.033,744.228,42.1132,0,0.000885,0,0
0:3:0.229,744.348,42.1201,0,0.000885,0,0
0:3:0.427,745.402,42.1821,0,0.000885,0,0
0:3:0.629,745.46,42.1821,0,0.000885,0,0
0:3:0.825,745.989,42.2166,0,0.000885,0,0
0:3:1.026,746.167,42.2235,0,0.000885,0,0
0:3:1.232,746.225,42.2304,0,0.000885,0,0
0:3:1.439,746.398,42.2373,0,0.000885,0,0
0:3:1.640,746.105,42.2235,0,0.000885,0,0
0:3:1.835,746.105,42.2235,0,0.000885,0,0
0:3:2.033,745.811,42.2028,0,0.000885,0,0
0:3:2.232,745.753,42.2028,0,0.000885,0,0
0:3:2.427,745.286,42.1752,0,0.000885,0,0
0:3:2.628,744.93,42.1545,0,0.000885,0,0
0:3:2.829,743.405,42.0649,0,0.000885,0,0
0:3:3.032,742.586,42.0235,0,0.000885,0,0
0:3:3.233,741.879,41.9822,0,0.000885,0,0
0:3:3.434,741.585,41.9684,0,0.000885,0,0
0:3:3.635,740.94,41.927,0,0.000885,0,0
0:3:3.838,740.589,41.9063,0,0.000885,0,0
0:3:4.039,740.473,41.8994,0,0.000885,0,0
0:3:4.239,740.647,41.9132,0,0.000885,0,0
0:3:4.443,740.705,41.9132,0,0.000885,0,0
0:3:4.643,740.998,41.9339,0,0.000885,0,0
0:3:4.842,740.94,41.927,0,0.000885,0,0
0:3:5.038,741.234,41.9477,0,0.000885,0,0
0:3:5.239,740.767,41.9201,0,0.000885,0,0
0:3:5.442,740.411,41.8994,0,0.000885,0,0
0:3:5.641,740.767,41.9201,0,0.000885,0,0
0:3:5.840,741.06,41.9339,0,0.000885,0,0
0:3:6.034,740.94,41.927,0,0.000885,0,0
0:3:6.235,741.937,41.9822,0,0.000885,0,0
0:3:6.432,742.057,41.9891,0,0.000885,0,0
0:3:6.629,743.173,42.058,0,0.000885,0,0
0:3:6.829,743.64,42.0787,0,0.000885,0,0
0:3:7.024,744.641,42.1408,0,0.000885,0,0
0:3:7.225,745.05,42.1614,0,0.000885,0,0
0:3:7.432,746.398,42.2373,0,0.000885,0,0
0:3:7.641,746.398,42.2373,0,0.000885,0,0
0:3:7.843,747.106,42.2787,0,0.000885,0,0
0:3:8.044,747.573,42.3062,0,0.000885,0,0
0:3:8.247,748.338,42.3476,0,0.000885,0,0
0:3:8.450,749.04,42.389,0,0.000885,0,0
0:3:8.651,749.979,42.4372,0,0.000885,0,0
0:3:8.852,750.451,42.4648,0,0.000885,0,0
0:3:9.053,751.096,42.5062,0,0.000885,0,0
0:3:9.255,751.273,42.5131,0,0.000885,0,0
0:3:9.455,752.212,42.5682,0,0.000885,0,0
0:3:9.650,752.915,42.6096,0,0.000885,0,0
0:3:9.852,753.502,42.6372,0,0.000885,0,0
0:3:10.047,753.974,42.6648,0,0.000885,0,0
0:3:10.246,754.383,42.6923,0,0.000885,0,0
0:3:10.447,755.851,42.7751,0,0.000885,0,0
0:3:10.643,756.438,42.8027,0,0.000885,0,0
0:3:10.844,757.848,42.8854,0,0.000885,0,0
0:3:11.041,758.551,42.9268,0,0.000885,0,0
0:3:11.239,760.019,43.0095,0,0.000885,0,0
0:3:11.440,760.664,43.044,0,0.000885,0,0
0:3:11.632,761.722,43.106,0,0.000885,0,0
0:3:11.833,762.016,43.1198,0,0.000885,0,0
0:3:12.032,763.657,43.2163,0,0.000885,0,0
0:3:12.227,764.245,43.2508,0,0.000885,0,0
0:3:12.429,766.179,43.3542,0,0.000885,0,0
0:3:12.627,766.709,43.3887,0,0.000885,0,0
0:3:12.826,768.59,43.4921,0,0.000885,0,0
0:3:13.027,769.235,43.5266,0,0.000885,0,0
0:3:13.230,770.877,43.6231,0,0.000885,0,0
0:3:13.433,771.642,43.6645,0,0.000885,0,0
0:3:13.635,773.168,43.7541,0,0.000885,0,0
0:3:13.836,774.106,43.8024,0,0.000885,0,0
0:3:14.039,774.693,43.8369,0,0.000885,0,0
0:3:14.236,776.748,43.9541,0,0.000885,0,0
0:3:14.440,777.861,44.0161,0,0.000885,0,0
0:3:14.635,779.506,44.1127,0,0.000885,0,0
0:3:14.834,780.209,44.154,0,0.000885,0,0
0:3:15.035,781.735,44.2368,0,0.000885,0,0
0:3:15.242,782.616,44.285,0,0.000885,0,0
0:3:15.442,784.377,44.3884,0,0.000885,0,0
0:3:15.641,785.258,44.4367,0,0.000885,0,0
0:3:15.836,787.255,44.547,0,0.000885,0,0
0:3:16.040,787.664,44.5746,0,0.000885,0,0
0:3:16.233,789.426,44.6711,0,0.000885,0,0
0:3:16.434,790.542,44.7332,0,0.000885,0,0
0:3:16.633,792.184,44.8297,0,0.000885,0,0
0:3:16.830,793.065,44.878,0,0.000885,0,0
0:3:17.032,794.003,44.9331,0,0.000885,0,0
0:3:17.240,794.475,44.9607,0,0.000885,0,0
0:3:17.435,796.116,45.0503,0,0.000885,0,0
0:3:17.637,797.059,45.1055,0,0.000885,0,0
0:3:17.841,798.758,45.202,0,0.000885,0,0
0:3:18.045,799.581,45.2503,0,0.000885,0,0
0:3:18.246,801.458,45.3537,0,0.000885,0,0
0:3:18.448,802.339,45.402,0,0.000885,0,0
0:3:18.649,804.278,45.5123,0,0.000885,0,0
0:3:18.847,804.923,45.5468,0,0.000885,0,0
0:3:19.049,806.801,45.6571,0,0.000885,0,0
0:3:19.248,807.801,45.7122,0,0.000885,0,0
0:3:19.445,808.74,45.7674,0,0.000885,0,0
0:3:19.647,810.03,45.8363,0,0.000885,0,0
0:3:19.844,810.795,45.8846,0,0.000885,0,0
0:3:20.044,811.671,45.9329,0,0.000885,0,0
0:3:20.243,812.672,45.988,0,0.000885,0,0
0:3:20.436,814.256,46.0777,0,0.000885,0,0
0:3:20.637,815.021,46.119,0,0.000885,0,0
0:3:20.834,816.898,46.2293,0,0.000885,0,0
0:3:21.033,817.895,46.2845,0,0.000885,0,0
0:3:21.235,820.128,46.4086,0,0.000885,0,0
0:3:21.429,821.182,46.4707,0,0.000885,0,0
0:3:21.631,823.179,46.581,0,0.000885,0,0
0:3:21.828,824.233,46.643,0,0.000885,0,0
0:3:22.025,826.23,46.7533,0,0.000885,0,0
0:3:22.227,827.405,46.8223,0,0.000885,0,0
0:3:22.422,828.401,46.8775,0,0.000885,0,0
0:3:22.622,830.514,46.9947,0,0.000885,0,0
0:3:22.823,831.573,47.0567,0,0.000885,0,0
0:3:23.027,833.864,47.1877,0,0.000885,0,0
0:3:23.228,834.624,47.2291,0,0.000885,0,0
0:3:23.431,836.795,47.3532,0,0.000885,0,0
0:3:23.632,838.032,47.4221,0,0.000885,0,0
0:3:23.834,839.967,47.5325,0,0.000885,0,0
0:3:24.035,840.905,47.5876,0,0.000885,0,0
0:3:24.236,843.018,47.7048,0,0.000885,0,0
0:3:24.434,843.783,47.7462,0,0.000885,0,0
0:3:24.633,845.838,47.8634,0,0.000885,0,0
0:3:24.833,846.541,47.9048,0,0.000885,0,0
0:3:25.029,848.303,48.0013,0,0.000885,0,0
0:3:25.230,848.832,48.0358,0,0.000885,0,0
0:3:25.437,851.412,48.1806,0,0.000885,0,0
0:3:25.647,852.471,48.2426,0,0.000885,0,0
0:3:25.848,854.463,48.3529,0,0.000885,0,0
0:3:26.041,855.873,48.4357,0,0.000885,0,0
0:3:26.243,857.928,48.546,0,0.000885,0,0
0:3:26.442,858.631,48.5874,0,0.000885,0,0
0:3:26.636,861.038,48.7252,0,0.000885,0,0
0:3:26.837,861.981,48.7804,0,0.000885,0,0
0:3:27.033,863.738,48.8769,0,0.000885,0,0
0:3:27.233,864.681,48.9321,0,0.000885,0,0
0:3:27.434,865.557,48.9804,0,0.000885,0,0
0:3:27.638,867.087,49.07,0,0.000885,0,0
0:3:27.842,868.32,49.1389,0,0.000885,0,0
0:3:28.044,870.197,49.2424,0,0.000885,0,0
0:3:28.248,870.842,49.2768,0,0.000885,0,0
0:3:28.448,871.722,49.332,0,0.000885,0,0
0:3:28.650,871.78,49.332,0,0.000885,0,0
0:3:28.851,871.487,49.3182,0,0.000885,0,0
0:3:29.050,871.429,49.3113,0,0.000885,0,0
0:3:29.250,872.31,49.3596,0,0.000885,0,0
0:3:29.451,872.132,49.3527,0,0.000885,0,0
0:3:29.646,850.473,48.1254,0,0.000885,0,0
0:3:29.846,850.358,48.1185,0,0.000885,0,0
0:3:30.044,848.832,48.0358,0,0.000885,0,0
0:3:30.238,849.357,48.0634,0,0.000885,0,0
0:3:30.442,850.709,48.1392,0,0.000885,0,0
0:3:30.648,851.999,48.215,0,0.000885,0,0
0:3:30.846,854.232,48.3391,0,0.000885,0,0
0:3:31.046,855.344,48.4012,0,0.000885,0,0
0:3:31.238,856.812,48.4839,0,0.000885,0,0
0:3:31.441,857.693,48.5322,0,0.000885,0,0
0:3:31.637,858.338,48.5736,0,0.000885,0,0
0:3:31.846,857.751,48.5391,0,0.000885,0,0
0:3:32.045,858.694,48.5942,0,0.000885,0,0
0:3:32.238,859.512,48.6356,0,0.000885,0,0
0:3:32.437,860.393,48.6908,0,0.000885,0,0
0:3:32.635,862.626,48.8149,0,0.000885,0,0
0:3:32.831,863.329,48.8563,0,0.000885,0,0
0:3:33.032,865.032,48.9528,0,0.000885,0,0
0:3:33.234,866.087,49.0079,0,0.000885,0,0
0:3:33.436,867.732,49.1045,0,0.000885,0,0
0:3:33.641,867.261,49.0769,0,0.000885,0,0
0:3:33.841,866.616,49.0424,0,0.000885,0,0
0:3:34.042,867.087,49.07,0,0.000885,0,0
0:3:34.242,868.551,49.1527,0,0.000885,0,0
0:3:34.443,869.374,49.1941,0,0.000885,0,0
0:3:34.643,870.312,49.2493,0,0.000885,0,0
0:3:34.847,870.726,49.2699,0,0.000885,0,0
0:3:35.049,872.194,49.3527,0,0.000885,0,0
0:3:35.244,872.781,49.3871,0,0.000885,0,0
0:3:35.442,874.187,49.4699,0,0.000885,0,0
0:3:35.643,875.245,49.5319,0,0.000885,0,0
0:3:35.838,877.18,49.6354,0,0.000885,0,0
0:3:36.042,878.003,49.6836,0,0.000885,0,0
0:3:36.238,879.707,49.7801,0,0.000885,0,0
0:3:36.445,880.232,49.8077,0,0.000885,0,0
0:3:36.647,882.523,49.9387,0,0.000885,0,0
0:3:36.843,883.461,49.9939,0,0.000885,0,0
0:3:37.043,885.459,50.1042,0,0.000885,0,0
0:3:37.242,886.104,50.1456,0,0.000885,0,0
0:3:37.435,886.806,50.18,0,0.000885,0,0
0:3:37.636,887.629,50.2283,0,0.000885,0,0
0:3:37.838,888.394,50.2697,0,0.000885,0,0
0:3:38.043,889.862,50.3524,0,0.000885,0,0
0:3:38.245,891.037,50.4214,0,0.000885,0,0
0:3:38.446,892.972,50.5317,0,0.000885,0,0
0:3:38.647,893.674,50.573,0,0.000885,0,0
0:3:38.848,895.32,50.6627,0,0.000885,0,0
0:3:39.049,895.729,50.6903,0,0.000885,0,0
0:3:39.250,897.905,50.8075,0,0.000885,0,0
0:3:39.445,898.607,50.8488,0,0.000885,0,0
0:3:39.646,898.194,50.8282,0,0.000885,0,0
0:3:39.843,894.44,50.6144,0,0.000885,0,0
0:3:40.038,891.739,50.4627,0,0.000885,0,0
0:3:40.237,891.855,50.4696,0,0.000885,0,0
0:3:40.432,892.562,50.511,0,0.000885,0,0
0:3:40.632,893.323,50.5524,0,0.000885,0,0
0:3:40.831,895.556,50.6765,0,0.000885,0,0
0:3:41.025,896.437,50.7247,0,0.000885,0,0
0:3:41.226,896.846,50.7523,0,0.000885,0,0
0:3:41.424,895.142,50.6558,0,0.000885,0,0
0:3:41.621,895.32,50.6627,0,0.000885,0,0
0:3:41.822,896.495,50.7316,0,0.000885,0,0
0:3:42.035,897.14,50.7661,0,0.000885,0,0
0:3:42.235,898.372,50.835,0,0.000885,0,0
0:3:42.434,898.959,50.8695,0,0.000885,0,0
0:3:42.643,899.488,50.904,0,0.000885,0,0
0:3:42.843,898.843,50.8626,0,0.000885,0,0
0:3:43.046,897.842,50.8075,0,0.000885,0,0
0:3:43.249,897.962,50.8144,0,0.000885,0,0
0:3:43.448,897.197,50.773,0,0.000885,0,0
0:3:43.649,893.207,50.5455,0,0.000885,0,0
0:3:43.849,856.461,48.4632,0,0.000885,0,0
0:3:44.051,854.463,48.3529,0,0.000885,0,0
0:3:44.252,852.471,48.2426,0,0.000885,0,0
0:3:44.450,852.644,48.2495,0,0.000885,0,0
0:3:44.648,853.058,48.2702,0,0.000885,0,0
0:3:44.849,853.351,48.2909,0,0.000885,0,0
0:3:45.042,853.467,48.2978,0,0.000885,0,0
0:3:45.243,853.058,48.2702,0,0.000885,0,0
0:3:45.442,837.912,47.4152,0,0.000885,0,0
0:3:45.647,835.327,47.2705,0,0.000885,0,0
0:3:45.849,833.744,47.1808,0,0.000885,0,0
0:3:46.043,832.983,47.1395,0,0.000885,0,0
0:3:46.240,832.454,47.105,0,0.000885,0,0
0:3:46.439,831.631,47.0636,0,0.000885,0,0
0:3:46.634,830.576,47.0016,0,0.000885,0,0
0:3:46.835,827.934,46.8499,0,0.000885,0,0
0:3:47.032,827.405,46.8223,0,0.000885,0,0
0:3:47.229,827.405,46.8223,0,0.000885,0,0
0:3:47.429,822.005,46.5189,0,0.000885,0,0
0:3:47.625,808.504,45.7536,0,0.000885,0,0
0:3:47.825,806.743,45.6502,0,0.000885,0,0
0:3:48.026,806.743,45.6502,0,0.000885,0,0
0:3:48.229,807.272,45.6847,0,0.000885,0,0
0:3:48.429,807.917,45.7191,0,0.000885,0,0
0:3:48.630,808.562,45.7536,0,0.000885,0,0
0:3:48.831,808.269,45.7398,0,0.000885,0,0
0:3:49.032,806.743,45.6502,0,0.000885,0,0
0:3:49.232,801.988,45.3813,0,0.000885,0,0
0:3:49.433,793.007,44.878,0,0.000885,0,0
0:3:49.636,781.148,44.2023,0,0.000885,0,0
0:3:49.837,780.974,44.1954,0,0.000885,0,0
0:3:50.046,765.828,43.3404,0,0.000885,0,0
0:3:50.244,728.378,41.2169,0,0.000885,0,0
0:3:50.445,708.13,40.0723,0,0.000885,0,0
0:3:50.561,708.13,40.0723,0,0.000885,0,0