File: DataFile2021-07-25_063232.csv
Test ID:,Date Tested:,Time:,Test Type:,Diameter Avg. (mm):,Cyl. Corr. Factor:,Height (mm):,Age (days):,Weight (kN):,Break Type:,Ramp Rate (MPa/s):,Load at Break (kN):,Stress at Break (MPa):
12,7/25/2021,06:32,Cylinder,150,1,300,0,3.89,3,0.35,490.67,27.77
Sample Time,Load (kN),Stress (MPa),Long. Strain,Trans. Strain,Chan1 Deflection (mm),Chan2 Deflection (mm)
0:0:3.202,5.39569,0.303369,0,0.000885,0,0
0:0:3.302,6.44992,0.365422,0,0.000885,0,0
0:0:3.400,7.03709,0.399896,0,0.000885,0,0
0:0:3.497,7.03709,0.399896,0,0.000885,0,0
0:0:3.597,7.09491,0.399896,0,0.000885,0,0
0:0:3.697,7.03709,0.399896,0,0.000885,0,0
0:0:3.798,7.03709,0.399896,0,0.000885,0,0
0:0:3.896,7.15719,0.406791,0,0.000885,0,0
0:0:3.994,8.03349,0.455054,0,0.000885,0,0
0:0:4.094,9.32347,0.530896,0,0.000885,0,0
0:0:4.195,9.32347,0.530896,0,0.000885,0,0
0:0:4.296,10.6757,0.606739,0,0.000885,0,0
0:0:4.394,12.6685,0.717055,0,0.000885,0,0
0:0:4.492,13.2557,0.751529,0,0.000885,0,0
0:0:4.591,13.2557,0.751529,0,0.000885,0,0
0:0:4.692,13.8429,0.786002,0,0.000885,0,0
0:0:4.793,14.6613,0.827371,0,0.000885,0,0
0:0:4.892,15.1328,0.85495,0,0.000885,0,0
0:0:4.991,15.1328,0.85495,0,0.000885,0,0
0:0:5.090,15.4264,0.875634,0,0.000885,0,0
0:0:5.190,16.7164,0.944582,0,0.000885,0,0
0:0:5.291,17.4192,0.98595,0,0.000885,0,0
0:0:5.390,17.4192,0.98595,0,0.000885,0,0
0:0:5.488,18.3,1.03421,0,0.000885,0,0
0:0:5.587,19.4699,1.10316,0,0.000885,0,0
0:0:5.686,19.4699,1.10316,0,0.000885,0,0
0:0:5.787,20.235,1.14453,0,0.000885,0,0
0:0:5.887,20.7643,1.17211,0,0.000885,0,0
0:0:5.985,21.4093,1.21348,0,0.000885,0,0
0:0:6.083,21.4093,1.21348,0,0.000885,0,0
0:0:6.185,21.8185,1.23416,0,0.000885,0,0
0:0:6.286,22.8149,1.28932,0,0.000885,0,0
0:0:6.386,23.5177,1.33069,0,0.000885,0,0
0:0:6.482,23.5177,1.33069,0,0.000885,0,0
0:0:6.580,24.1627,1.36516,0,0.000885,0,0
0:0:6.682,25.5728,1.4479,0,0.000885,0,0
0:0:6.783,26.8628,1.51685,0,0.000885,0,0
0:0:6.883,26.8628,1.51685,0,0.000885,0,0
0:0:6.981,27.3877,1.55132,0,0.000885,0,0
0:0:7.081,28.6199,1.62027,0,0.000885,0,0
0:0:7.179,28.6199,1.62027,0,0.000885,0,0
0:0:7.281,29.5584,1.67543,0,0.000885,0,0
0:0:7.382,30.6171,1.73058,0,0.000885,0,0
0:0:7.481,31.7292,1.79264,0,0.000885,0,0
0:0:7.578,31.7292,1.79264,0,0.000885,0,0
0:0:7.678,32.7878,1.85469,0,0.000885,0,0
0:0:7.778,33.7842,1.90985,0,0.000885,0,0
0:0:7.880,34.8385,1.9719,0,0.000885,0,0
0:0:7.978,34.8385,1.9719,0,0.000885,0,0
0:0:8.076,35.777,2.02706,0,0.000885,0,0
0:0:8.176,37.1249,2.1029,0,0.000885,0,0
0:0:8.276,37.8277,2.13737,0,0.000885,0,0
0:0:8.377,37.8277,2.13737,0,0.000885,0,0
0:0:8.478,39.1177,2.21322,0,0.000885,0,0
0:0:8.579,39.8828,2.25459,0,0.000885,0,0
0:0:8.683,40.937,2.31664,0,0.000885,0,0
0:0:8.783,40.937,2.31664,0,0.000885,0,0
0:0:8.885,41.6398,2.35801,0,0.000885,0,0
0:0:8.985,42.6407,2.41317,0,0.000885,0,0
0:0:9.086,43.6371,2.46832,0,0.000885,0,0
0:0:9.187,43.6371,2.46832,0,0.000885,0,0
0:0:9.288,44.4555,2.51659,0,0.000885,0,0
0:0:9.389,45.0427,2.55106,0,0.000885,0,0
0:0:9.490,45.5142,2.57864,0,0.000885,0,0
0:0:9.589,45.5142,2.57864,0,0.000885,0,0
0:0:9.691,46.5106,2.6338,0,0.000885,0,0
0:0:9.792,47.3914,2.68206,0,0.000885,0,0
0:0:9.893,47.9741,2.71653,0,0.000885,0,0
0:0:9.993,47.9741,2.71653,0,0.000885,0,0
0:0:10.091,48.3878,2.73722,0,0.000885,0,0
0:0:10.188,49.3263,2.79238,0,0.000885,0,0
0:0:10.288,49.3263,2.79238,0,0.000885,0,0
0:0:10.389,49.7934,2.81996,0,0.000885,0,0
0:0:10.490,50.5585,2.86132,0,0.000885,0,0
0:0:10.589,51.0255,2.8889,0,0.000885,0,0
0:0:10.687,51.0255,2.8889,0,0.000885,0,0
0:0:10.786,51.9063,2.93717,0,0.000885,0,0
0:0:10.888,52.4356,2.96475,0,0.000885,0,0
0:0:10.988,53.2541,3.01301,0,0.000885,0,0
0:0:11.086,53.2541,3.01301,0,0.000885,0,0
0:0:11.183,54.3083,3.07506,0,0.000885,0,0
0:0:11.283,55.3092,3.13022,0,0.000885,0,0
0:0:11.385,56.2478,3.18538,0,0.000885,0,0
0:0:11.485,56.2478,3.18538,0,0.000885,0,0
0:0:11.585,57.0662,3.22675,0,0.000885,0,0
0:0:11.683,58.0048,3.2819,0,0.000885,0,0
0:0:11.781,58.0048,3.2819,0,0.000885,0,0
0:0:11.882,58.8277,3.33017,0,0.000885,0,0
0:0:11.983,59.5305,3.37154,0,0.000885,0,0
0:0:12.083,60.7049,3.43359,0,0.000885,0,0
0:0:12.180,60.7049,3.43359,0,0.000885,0,0
0:0:12.278,61.5812,3.48185,0,0.000885,0,0
0:0:12.378,62.3463,3.53012,0,0.000885,0,0
0:0:12.480,62.9913,3.56459,0,0.000885,0,0
0:0:12.580,62.9913,3.56459,0,0.000885,0,0
0:0:12.678,63.9298,3.61975,0,0.000885,0,0
0:0:12.776,65.0419,3.6818,0,0.000885,0,0
0:0:12.876,65.7492,3.72317,0,0.000885,0,0
0:0:12.977,65.7492,3.72317,0,0.000885,0,0
0:0:13.078,66.6255,3.77143,0,0.000885,0,0
0:0:13.175,67.2705,3.80591,0,0.000885,0,0
0:0:13.273,68.4448,3.87485,0,0.000885,0,0
0:0:13.374,68.4448,3.87485,0,0.000885,0,0
0:0:13.474,69.2054,3.91622,0,0.000885,0,0
0:0:13.575,70.144,3.97138,0,0.000885,0,0
0:0:13.676,70.789,4.00585,0,0.000885,0,0
0:0:13.778,70.789,4.00585,0,0.000885,0,0
0:0:13.880,71.4384,4.04033,0,0.000885,0,0
0:0:13.982,72.4348,4.09549,0,0.000885,0,0
0:0:14.083,73.3111,4.15064,0,0.000885,0,0
0:0:14.185,73.3111,4.15064,0,0.000885,0,0
0:0:14.285,73.8983,4.18512,0,0.000885,0,0
0:0:14.386,74.7791,4.23338,0,0.000885,0,0
0:0:14.487,75.5397,4.27475,0,0.000885,0,0
0:0:14.589,75.5397,4.27475,0,0.000885,0,0
0:0:14.688,76.1269,4.30922,0,0.000885,0,0
0:0:14.790,77.2434,4.37128,0,0.000885,0,0
0:0:14.891,78.1241,4.41954,0,0.000885,0,0
0:0:14.992,78.1241,4.41954,0,0.000885,0,0
0:0:15.092,79.1205,4.4747,0,0.000885,0,0
0:0:15.192,80.0591,4.52986,0,0.000885,0,0
0:0:15.289,80.0591,4.52986,0,0.000885,0,0
0:0:15.388,80.8776,4.57812,0,0.000885,0,0
0:0:15.490,81.5226,4.61259,0,0.000885,0,0
0:0:15.589,82.3455,4.66086,0,0.000885,0,0
0:0:15.690,82.3455,4.66086,0,0.000885,0,0
0:0:15.788,83.5776,4.7298,0,0.000885,0,0
0:0:15.887,84.2805,4.77117,0,0.000885,0,0
0:0:15.989,85.1034,4.81254,0,0.000885,0,0
0:0:16.088,85.1034,4.81254,0,0.000885,0,0
0:0:16.188,85.9797,4.8677,0,0.000885,0,0
0:0:16.284,86.8604,4.91596,0,0.000885,0,0
0:0:16.383,87.3898,4.94354,0,0.000885,0,0
0:0:16.484,87.3898,4.94354,0,0.000885,0,0
0:0:16.585,87.9191,4.97801,0,0.000885,0,0
0:0:16.685,88.7376,5.01938,0,0.000885,0,0
0:0:16.783,88.7376,5.01938,0,0.000885,0,0
0:0:16.881,89.9119,5.08833,0,0.000885,0,0
0:0:16.983,90.5569,5.1228,0,0.000885,0,0
0:0:17.083,91.6111,5.18486,0,0.000885,0,0
0:0:17.184,91.6111,5.18486,0,0.000885,0,0
0:0:17.282,92.3139,5.22623,0,0.000885,0,0
0:0:17.380,93.1369,5.26759,0,0.000885,0,0
0:0:17.479,93.8975,5.31586,0,0.000885,0,0
0:0:17.581,93.8975,5.31586,0,0.000885,0,0
0:0:17.681,94.4268,5.34344,0,0.000885,0,0
0:0:17.781,95.4232,5.39859,0,0.000885,0,0
0:0:17.879,96.4819,5.46065,0,0.000885,0,0
0:0:17.978,96.4819,5.46065,0,0.000885,0,0
0:0:18.079,97.7096,5.5296,0,0.000885,0,0
0:0:18.180,98.1233,5.55028,0,0.000885,0,0
0:0:18.279,99.1775,5.61233,0,0.000885,0,0
0:0:18.376,99.1775,5.61233,0,0.000885,0,0
0:0:18.474,100.174,5.66749,0,0.000885,0,0
0:0:18.576,100.877,5.70886,0,0.000885,0,0
0:0:18.676,100.877,5.70886,0,0.000885,0,0
0:0:18.778,101.878,5.76402,0,0.000885,0,0
0:0:18.879,102.345,5.7916,0,0.000885,0,0
0:0:18.982,103.168,5.83986,0,0.000885,0,0
0:0:19.082,103.168,5.83986,0,0.000885,0,0
0:0:19.184,104.164,5.89502,0,0.000885,0,0
0:0:19.285,104.631,5.9226,0,0.000885,0,0
0:0:19.386,105.69,5.97775,0,0.000885,0,0
0:0:19.487,106.277,6.01223,0,0.000885,0,0
0:0:19.588,106.277,6.01223,0,0.000885,0,0
0:0:19.689,107.038,6.06049,0,0.000885,0,0
0:0:19.790,108.212,6.12254,0,0.000885,0,0
0:0:19.890,108.857,6.15702,0,0.000885,0,0
0:0:19.991,108.857,6.15702,0,0.000885,0,0
0:0:20.092,109.853,6.21907,0,0.000885,0,0
0:0:20.193,110.734,6.26733,0,0.000885,0,0
0:0:20.294,111.085,6.28802,0,0.000885,0,0
0:0:20.392,111.085,6.28802,0,0.000885,0,0
0:0:20.490,112.491,6.36386,0,0.000885,0,0
0:0:20.591,113.545,6.42591,0,0.000885,0,0
0:0:20.691,113.545,6.42591,0,0.000885,0,0
0:0:20.792,114.368,6.47418,0,0.000885,0,0
0:0:20.890,115.249,6.52244,0,0.000885,0,0
0:0:20.989,115.894,6.55691,0,0.000885,0,0
0:0:21.089,115.894,6.55691,0,0.000885,0,0
0:0:21.191,116.655,6.59828,0,0.000885,0,0
0:0:21.291,117.535,6.65344,0,0.000885,0,0
0:0:21.389,118.358,6.69481,0,0.000885,0,0
0:0:21.487,118.358,6.69481,0,0.000885,0,0
0:0:21.587,119.297,6.74997,0,0.000885,0,0
0:0:21.688,119.942,6.78444,0,0.000885,0,0
0:0:21.788,121.054,6.85339,0,0.000885,0,0
0:0:21.886,121.054,6.85339,0,0.000885,0,0
0:0:21.984,121.583,6.88097,0,0.000885,0,0
0:0:22.084,122.344,6.92234,0,0.000885,0,0
0:0:22.186,122.344,6.92234,0,0.000885,0,0
0:0:22.287,123.109,6.9637,0,0.000885,0,0
0:0:22.385,123.576,6.99128,0,0.000885,0,0
0:0:22.483,124.572,7.04644,0,0.000885,0,0
0:0:22.582,124.572,7.04644,0,0.000885,0,0
0:0:22.683,125.275,7.08781,0,0.000885,0,0
0:0:22.784,126.334,7.14986,0,0.000885,0,0
0:0:22.883,127.624,7.21881,0,0.000885,0,0
0:0:22.981,127.624,7.21881,0,0.000885,0,0
0:0:23.081,128.385,7.26707,0,0.000885,0,0
0:0:23.182,129.617,7.33602,0,0.000885,0,0
0:0:23.284,130.262,7.3705,0,0.000885,0,0
0:0:23.383,130.262,7.3705,0,0.000885,0,0
0:0:23.485,131.552,7.44634,0,0.000885,0,0
0:0:23.587,131.965,7.46702,0,0.000885,0,0
0:0:23.689,132.904,7.52218,0,0.000885,0,0
0:0:23.790,132.904,7.52218,0,0.000885,0,0
0:0:23.892,133.429,7.54976,0,0.000885,0,0
0:0:23.993,134.661,7.61871,0,0.000885,0,0
0:0:24.095,135.426,7.66008,0,0.000885,0,0
0:0:24.193,135.426,7.66008,0,0.000885,0,0
0:0:24.295,136.36,7.71523,0,0.000885,0,0
0:0:24.395,137.125,7.7566,0,0.000885,0,0
0:0:24.497,138.415,7.83244,0,0.000885,0,0
0:0:24.597,138.415,7.83244,0,0.000885,0,0
0:0:24.698,138.709,7.84623,0,0.000885,0,0
0:0:24.798,139.59,7.90139,0,0.000885,0,0
0:0:24.899,140.822,7.97034,0,0.000885,0,0
0:0:24.997,140.822,7.97034,0,0.000885,0,0
0:0:25.095,141.405,8.00481,0,0.000885,0,0
0:0:25.195,141.698,8.0186,0,0.000885,0,0
0:0:25.295,141.698,8.0186,0,0.000885,0,0
0:0:25.397,142.521,8.06687,0,0.000885,0,0
0:0:25.495,143.402,8.11513,0,0.000885,0,0
0:0:25.593,144.34,8.17029,0,0.000885,0,0
0:0:25.694,144.34,8.17029,0,0.000885,0,0
0:0:25.795,144.807,8.19787,0,0.000885,0,0
0:0:25.896,145.746,8.24613,0,0.000885,0,0
0:0:25.993,146.862,8.30818,0,0.000885,0,0
0:0:26.090,146.862,8.30818,0,0.000885,0,0
0:0:26.190,147.681,8.35645,0,0.000885,0,0
0:0:26.293,148.032,8.37713,0,0.000885,0,0
0:0:26.393,148.971,8.43229,0,0.000885,0,0
0:0:26.491,148.971,8.43229,0,0.000885,0,0
0:0:26.589,149.794,8.47366,0,0.000885,0,0
0:0:26.689,150.612,8.52192,0,0.000885,0,0
0:0:26.791,151.787,8.59087,0,0.000885,0,0
0:0:26.892,151.787,8.59087,0,0.000885,0,0
0:0:26.989,152.316,8.61845,0,0.000885,0,0
0:0:27.087,153.255,8.6736,0,0.000885,0,0
0:0:27.187,153.255,8.6736,0,0.000885,0,0
0:0:27.288,154.015,8.71497,0,0.000885,0,0
0:0:27.389,154.545,8.74255,0,0.000885,0,0
0:0:27.488,155.363,8.79082,0,0.000885,0,0
0:0:27.585,155.363,8.79082,0,0.000885,0,0
0:0:27.684,156.537,8.85976,0,0.000885,0,0
0:0:27.785,157.067,8.88734,0,0.000885,0,0
0:0:27.887,158.121,8.94939,0,0.000885,0,0
0:0:27.984,158.121,8.94939,0,0.000885,0,0
0:0:28.082,159.002,8.99766,0,0.000885,0,0
0:0:28.181,159.647,9.03213,0,0.000885,0,0
0:0:28.283,160.879,9.10108,0,0.000885,0,0
0:0:28.384,160.879,9.10108,0,0.000885,0,0
0:0:28.484,161.639,9.14934,0,0.000885,0,0
0:0:28.584,162.227,9.17692,0,0.000885,0,0
0:0:28.688,163.459,9.25276,0,0.000885,0,0
0:0:28.789,163.459,9.25276,0,0.000885,0,0
0:0:28.891,164.104,9.28724,0,0.000885,0,0
0:0:28.992,165.158,9.34929,0,0.000885,0,0
0:0:29.094,166.097,9.39755,0,0.000885,0,0
0:0:29.194,166.097,9.39755,0,0.000885,0,0
0:0:29.295,166.448,9.41824,0,0.000885,0,0
0:0:29.396,167.449,9.4734,0,0.000885,0,0
0:0:29.498,168.387,9.52855,0,0.000885,0,0
0:0:29.596,168.387,9.52855,0,0.000885,0,0
0:0:29.697,169.557,9.5975,0,0.000885,0,0
0:0:29.799,170.202,9.63198,0,0.000885,0,0
0:0:29.900,170.202,9.63198,0,0.000885,0,0
0:0:30.001,171.261,9.69403,0,0.000885,0,0
0:0:30.100,172.2,9.74229,0,0.000885,0,0
0:0:30.198,172.845,9.78366,0,0.000885,0,0
0:0:30.298,172.845,9.78366,0,0.000885,0,0
0:0:30.399,174.25,9.8595,0,0.000885,0,0
0:0:30.499,174.722,9.88708,0,0.000885,0,0
0:0:30.598,175.718,9.94224,0,0.000885,0,0
0:0:30.697,175.718,9.94224,0,0.000885,0,0
0:0:30.797,176.363,9.97671,0,0.000885,0,0
0:0:30.898,177.124,10.025,0,0.000885,0,0
0:0:30.998,178.178,10.0801,0,0.000885,0,0
0:0:31.095,178.178,10.0801,0,0.000885,0,0
0:0:31.194,178.885,10.1215,0,0.000885,0,0
0:0:31.294,179.237,10.1422,0,0.000885,0,0
0:0:31.395,180.469,10.2111,0,0.000885,0,0
0:0:31.494,180.469,10.2111,0,0.000885,0,0
0:0:31.592,180.936,10.2387,0,0.000885,0,0
0:0:31.692,181.874,10.2939,0,0.000885,0,0
0:0:31.791,181.874,10.2939,0,0.000885,0,0
0:0:31.893,182.813,10.3421,0,0.000885,0,0
0:0:31.993,183.578,10.3904,0,0.000885,0,0
0:0:32.091,184.575,10.4456,0,0.000885,0,0
0:0:32.189,184.575,10.4456,0,0.000885,0,0
0:0:32.290,185.513,10.5007,0,0.000885,0,0
0:0:32.391,186.567,10.5559,0,0.000885,0,0
0:0:32.492,187.154,10.5903,0,0.000885,0,0
0:0:32.589,187.154,10.5903,0,0.000885,0,0
0:0:32.688,187.742,10.6248,0,0.000885,0,0
0:0:32.789,188.738,10.68,0,0.000885,0,0
0:0:32.890,189.619,10.7282,0,0.000885,0,0
0:0:32.991,189.619,10.7282,0,0.000885,0,0
0:0:33.089,190.144,10.7627,0,0.000885,0,0
0:0:33.187,190.789,10.7972,0,0.000885,0,0
0:0:33.285,190.789,10.7972,0,0.000885,0,0
0:0:33.387,191.847,10.8592,0,0.000885,0,0
0:0:33.487,193.137,10.9282,0,0.000885,0,0
0:0:33.588,193.84,10.9696,0,0.000885,0,0
0:0:33.688,193.84,10.9696,0,0.000885,0,0
0:0:33.791,194.837,11.0247,0,0.000885,0,0
0:0:33.891,195.891,11.0868,0,0.000885,0,0
0:0:33.992,197.007,11.1488,0,0.000885,0,0
0:0:34.092,197.007,11.1488,0,0.000885,0,0
0:0:34.193,197.474,11.1764,0,0.000885,0,0
0:0:34.292,198.182,11.2178,0,0.000885,0,0
0:0:34.393,199.12,11.266,0,0.000885,0,0
0:0:34.492,199.12,11.266,0,0.000885,0,0
0:0:34.593,200.174,11.3281,0,0.000885,0,0
0:0:34.693,200.819,11.3626,0,0.000885,0,0
0:0:34.794,201.522,11.4039,0,0.000885,0,0
0:0:34.894,201.522,11.4039,0,0.000885,0,0
0:0:34.994,201.994,11.4315,0,0.000885,0,0
0:0:35.094,203.164,11.4936,0,0.000885,0,0
0:0:35.190,203.751,11.528,0,0.000885,0,0
0:0:35.289,203.751,11.528,0,0.000885,0,0
0:0:35.389,204.632,11.5832,0,0.000885,0,0
0:0:35.490,205.686,11.6384,0,0.000885,0,0
0:0:35.588,206.273,11.6728,0,0.000885,0,0
0:0:35.684,206.273,11.6728,0,0.000885,0,0
0:0:35.783,207.332,11.7349,0,0.000885,0,0
0:0:35.884,207.914,11.7625,0,0.000885,0,0
0:0:35.983,207.914,11.7625,0,0.000885,0,0
0:0:36.082,208.795,11.8176,0,0.000885,0,0
0:0:36.178,209.969,11.8797,0,0.000885,0,0
0:0:36.276,210.614,11.921,0,0.000885,0,0
0:0:36.376,210.614,11.921,0,0.000885,0,0
0:0:36.477,211.495,11.9693,0,0.000885,0,0
0:0:36.576,212.549,12.0245,0,0.000885,0,0
0:0:36.672,213.43,12.0796,0,0.000885,0,0
0:0:36.770,213.43,12.0796,0,0.000885,0,0
0:0:36.870,214.017,12.1141,0,0.000885,0,0
0:0:36.971,214.778,12.1555,0,0.000885,0,0
0:0:37.071,214.778,12.1555,0,0.000885,0,0
0:0:37.169,215.832,12.2106,0,0.000885,0,0
0:0:37.275,216.246,12.2382,0,0.000885,0,0
0:0:37.374,217.3,12.2934,0,0.000885,0,0
0:0:37.475,217.3,12.2934,0,0.000885,0,0
0:0:37.575,218.061,12.3416,0,0.000885,0,0
0:0:37.672,218.826,12.383,0,0.000885,0,0
0:0:37.769,219.529,12.4244,0,0.000885,0,0
0:0:37.869,219.529,12.4244,0,0.000885,0,0
0:0:37.970,220.116,12.4588,0,0.000885,0,0
0:0:38.069,220.934,12.5002,0,0.000885,0,0
0:0:38.164,221.815,12.5554,0,0.000885,0,0
0:0:38.272,221.815,12.5554,0,0.000885,0,0
0:0:38.373,222.518,12.5898,0,0.000885,0,0
0:0:38.473,223.225,12.6312,0,0.000885,0,0
0:0:38.574,224.631,12.7139,0,0.000885,0,0
0:0:38.674,224.631,12.7139,0,0.000885,0,0
0:0:38.776,225.747,12.776,0,0.000885,0,0
0:0:38.878,226.508,12.8174,0,0.000885,0,0
0:0:38.978,227.269,12.8587,0,0.000885,0,0
0:0:39.079,227.269,12.8587,0,0.000885,0,0
0:0:39.179,228.207,12.9139,0,0.000885,0,0
0:0:39.279,228.736,12.9415,0,0.000885,0,0
0:0:39.380,229.381,12.9828,0,0.000885,0,0
0:0:39.478,229.381,12.9828,0,0.000885,0,0
0:0:39.579,230.436,13.038,0,0.000885,0,0
0:0:39.679,231.374,13.0931,0,0.000885,0,0
0:0:39.780,231.374,13.0931,0,0.000885,0,0
0:0:39.880,232.139,13.1345,0,0.000885,0,0
0:0:39.981,232.9,13.1828,0,0.000885,0,0
0:0:40.080,233.487,13.2104,0,0.000885,0,0
0:0:40.177,233.487,13.2104,0,0.000885,0,0
0:0:40.275,234.252,13.2586,0,0.000885,0,0
0:0:40.374,235.186,13.3069,0,0.000885,0,0
0:0:40.475,236.125,13.362,0,0.000885,0,0
0:0:40.575,236.125,13.362,0,0.000885,0,0
0:0:40.671,236.89,13.4034,0,0.000885,0,0
0:0:40.769,237.709,13.4517,0,0.000885,0,0
0:0:40.866,238.767,13.5137,0,0.000885,0,0
0:0:40.966,238.767,13.5137,0,0.000885,0,0
0:0:41.069,239.47,13.5482,0,0.000885,0,0
0:0:41.163,240.466,13.6103,0,0.000885,0,0
0:0:41.262,240.466,13.6103,0,0.000885,0,0
0:0:41.360,241.232,13.6516,0,0.000885,0,0
0:0:41.461,242.108,13.6999,0,0.000885,0,0
0:0:41.562,242.873,13.7413,0,0.000885,0,0
0:0:41.660,242.873,13.7413,0,0.000885,0,0
0:0:41.757,244.043,13.8102,0,0.000885,0,0
0:0:41.854,244.808,13.8516,0,0.000885,0,0
0:0:41.954,245.569,13.8998,0,0.000885,0,0
0:0:42.054,245.569,13.8998,0,0.000885,0,0
0:0:42.153,246.098,13.9274,0,0.000885,0,0
0:0:42.250,246.979,13.9757,0,0.000885,0,0
0:0:42.348,246.979,13.9757,0,0.000885,0,0
0:0:42.448,248.033,14.0377,0,0.000885,0,0
0:0:42.550,248.736,14.0722,0,0.000885,0,0
0:0:42.649,249.501,14.1205,0,0.000885,0,0
0:0:42.755,249.501,14.1205,0,0.000885,0,0
0:0:42.852,250.733,14.1894,0,0.000885,0,0
0:0:42.954,251.667,14.2446,0,0.000885,0,0
0:0:43.053,252.726,14.2997,0,0.000885,0,0
0:0:43.152,252.726,14.2997,0,0.000885,0,0
0:0:43.249,253.486,14.3411,0,0.000885,0,0
0:0:43.347,254.189,14.3825,0,0.000885,0,0
0:0:43.446,255.128,14.4376,0,0.000885,0,0
0:0:43.557,255.128,14.4376,0,0.000885,0,0
0:0:43.656,256.066,14.4928,0,0.000885,0,0
0:0:43.758,256.889,14.5341,0,0.000885,0,0
0:0:43.859,257.419,14.5686,0,0.000885,0,0
0:0:43.960,257.419,14.5686,0,0.000885,0,0
0:0:44.060,258.357,14.6169,0,0.000885,0,0
0:0:44.162,258.94,14.6514,0,0.000885,0,0
0:0:44.261,259.821,14.6996,0,0.000885,0,0
0:0:44.362,259.821,14.6996,0,0.000885,0,0
0:0:44.461,261.053,14.7755,0,0.000885,0,0
0:0:44.562,261.64,14.803,0,0.000885,0,0
0:0:44.662,262.521,14.8582,0,0.000885,0,0
0:0:44.762,262.521,14.8582,0,0.000885,0,0
0:0:44.862,263.401,14.9065,0,0.000885,0,0
0:0:44.963,264.398,14.9616,0,0.000885,0,0
0:0:45.063,265.394,15.0168,0,0.000885,0,0
0:0:45.163,265.394,15.0168,0,0.000885,0,0
0:0:45.259,266.155,15.0581,0,0.000885,0,0
0:0:45.357,266.569,15.0857,0,0.000885,0,0
0:0:45.456,266.569,15.0857,0,0.000885,0,0
0:0:45.557,267.503,15.1409,0,0.000885,0,0
0:0:45.656,268.504,15.196,0,0.000885,0,0
0:0:45.754,269.264,15.2374,0,0.000885,0,0
0:0:45.860,269.264,15.2374,0,0.000885,0,0
0:0:45.961,270.025,15.2788,0,0.000885,0,0
0:0:46.061,271.141,15.3408,0,0.000885,0,0
0:0:46.161,271.608,15.3684,0,0.000885,0,0
0:0:46.258,271.608,15.3684,0,0.000885,0,0
0:0:46.364,272.489,15.4167,0,0.000885,0,0
0:0:46.462,273.076,15.4512,0,0.000885,0,0
0:0:46.564,274.131,15.5132,0,0.000885,0,0
0:0:46.663,274.131,15.5132,0,0.000885,0,0
0:0:46.762,275.131,15.5684,0,0.000885,0,0
0:0:46.859,276.008,15.6166,0,0.000885,0,0
0:0:46.958,276.301,15.6373,0,0.000885,0,0
0:0:47.058,276.301,15.6373,0,0.000885,0,0
0:0:47.158,277.124,15.6787,0,0.000885,0,0
0:0:47.256,278.121,15.7407,0,0.000885,0,0
0:0:47.353,278.121,15.7407,0,0.000885,0,0
0:0:47.452,279.001,15.789,0,0.000885,0,0
0:0:47.552,279.762,15.8304,0,0.000885,0,0
0:0:47.653,280.349,15.8648,0,0.000885,0,0
0:0:47.751,280.349,15.8648,0,0.000885,0,0
0:0:47.858,280.879,15.8924,0,0.000885,0,0
0:0:47.956,281.755,15.9476,0,0.000885,0,0
0:0:48.057,282.813,16.0027,0,0.000885,0,0
0:0:48.157,282.813,16.0027,0,0.000885,0,0
0:0:48.254,283.752,16.0579,0,0.000885,0,0
0:0:48.361,284.513,16.0993,0,0.000885,0,0
0:0:48.458,285.042,16.1268,0,0.000885,0,0
0:0:48.559,285.042,16.1268,0,0.000885,0,0
0:0:48.660,285.861,16.1751,0,0.000885,0,0
0:0:48.760,286.448,16.2096,0,0.000885,0,0
0:0:48.859,287.444,16.2647,0,0.000885,0,0
0:0:48.962,287.444,16.2647,0,0.000885,0,0
0:0:49.062,288.325,16.313,0,0.000885,0,0
0:0:49.163,289.263,16.3682,0,0.000885,0,0
0:0:49.264,290.202,16.4233,0,0.000885,0,0
0:0:49.363,290.202,16.4233,0,0.000885,0,0
0:0:49.463,290.847,16.4578,0,0.000885,0,0
0:0:49.563,291.55,16.4992,0,0.000885,0,0
0:0:49.663,292.431,16.5474,0,0.000885,0,0
0:0:49.764,292.431,16.5474,0,0.000885,0,0
0:0:49.863,293.311,16.5957,0,0.000885,0,0
0:0:49.963,294.014,16.637,0,0.000885,0,0
0:0:50.063,294.014,16.637,0,0.000885,0,0
0:0:50.164,295.011,16.6922,0,0.000885,0,0
0:0:50.264,296.127,16.7543,0,0.000885,0,0
0:0:50.373,296.127,16.7543,0,0.000885,0,0
0:0:50.470,296.127,16.7543,0,0.000885,0,0
0:0:50.570,296.945,16.8025,0,0.000885,0,0
0:0:50.671,297.884,16.8577,0,0.000885,0,0
0:0:50.770,298.823,16.9128,0,0.000885,0,0
0:0:50.866,298.823,16.9128,0,0.000885,0,0
0:0:50.963,299.823,16.968,0,0.000885,0,0
0:0:51.064,301.051,17.0369,0,0.000885,0,0
0:0:51.164,302.168,17.099,0,0.000885,0,0
0:0:51.262,302.168,17.099,0,0.000885,0,0
0:0:51.359,302.871,17.1404,0,0.000885,0,0
0:0:51.464,303.4,17.1679,0,0.000885,0,0
0:0:51.564,304.103,17.2093,0,0.000885,0,0
0:0:51.664,304.103,17.2093,0,0.000885,0,0
0:0:51.765,304.805,17.2507,0,0.000885,0,0
0:0:51.861,305.571,17.2921,0,0.000885,0,0
0:0:51.959,306.625,17.3541,0,0.000885,0,0
0:0:52.059,306.625,17.3541,0,0.000885,0,0
0:0:52.160,307.563,17.4024,0,0.000885,0,0
0:0:52.260,308.093,17.4368,0,0.000885,0,0
0:0:52.357,308.093,17.4368,0,0.000885,0,0
0:0:52.454,308.911,17.4782,0,0.000885,0,0
0:0:52.553,310.143,17.5472,0,0.000885,0,0
0:0:52.654,310.908,17.5954,0,0.000885,0,0
0:0:52.753,310.908,17.5954,0,0.000885,0,0
0:0:52.860,311.727,17.6368,0,0.000885,0,0
0:0:52.958,312.372,17.6782,0,0.000885,0,0
0:0:53.058,313.546,17.7402,0,0.000885,0,0
0:0:53.159,313.546,17.7402,0,0.000885,0,0
0:0:53.259,314.249,17.7816,0,0.000885,0,0
0:0:53.355,314.721,17.8092,0,0.000885,0,0
0:0:53.461,315.481,17.8505,0,0.000885,0,0
0:0:53.561,315.481,17.8505,0,0.000885,0,0
0:0:53.662,317.123,17.9471,0,0.000885,0,0
0:0:53.762,317.532,17.9677,0,0.000885,0,0
0:0:53.862,318.706,18.0367,0,0.000885,0,0
0:0:53.962,318.706,18.0367,0,0.000885,0,0
0:0:54.064,319.587,18.0849,0,0.000885,0,0
0:0:54.164,320.232,18.1194,0,0.000885,0,0
0:0:54.265,321.58,18.1953,0,0.000885,0,0
0:0:54.365,321.58,18.1953,0,0.000885,0,0
0:0:54.465,322.638,18.2573,0,0.000885,0,0
0:0:54.565,323.163,18.2849,0,0.000885,0,0
0:0:54.666,323.808,18.3263,0,0.000885,0,0
0:0:54.765,323.808,18.3263,0,0.000885,0,0
0:0:54.865,325.098,18.3952,0,0.000885,0,0
0:0:54.965,325.685,18.4297,0,0.000885,0,0
0:0:55.064,325.685,18.4297,0,0.000885,0,0
0:0:55.165,326.451,18.4711,0,0.000885,0,0
0:0:55.265,327.563,18.5331,0,0.000885,0,0
0:0:55.365,328.265,18.5745,0,0.000885,0,0
0:0:55.462,328.265,18.5745,0,0.000885,0,0
0:0:55.560,329.088,18.6227,0,0.000885,0,0
0:0:55.661,330.143,18.6848,0,0.000885,0,0
0:0:55.761,330.965,18.7262,0,0.000885,0,0
0:0:55.860,330.965,18.7262,0,0.000885,0,0
0:0:55.966,331.846,18.7813,0,0.000885,0,0
0:0:56.075,333.31,18.8641,0,0.000885,0,0
0:0:56.176,333.661,18.8847,0,0.000885,0,0
0:0:56.276,333.661,18.8847,0,0.000885,0,0
0:0:56.376,333.897,18.8916,0,0.000885,0,0
0:0:56.473,335.187,18.9675,0,0.000885,0,0
0:0:56.579,336.01,19.0157,0,0.000885,0,0
0:0:56.678,336.01,19.0157,0,0.000885,0,0
0:0:56.780,336.477,19.0433,0,0.000885,0,0
0:0:56.879,337.536,19.0985,0,0.000885,0,0
0:0:56.976,338.883,19.1743,0,0.000885,0,0
0:0:57.074,338.883,19.1743,0,0.000885,0,0
0:0:57.174,339.528,19.2157,0,0.000885,0,0
0:0:57.273,339.88,19.2364,0,0.000885,0,0
0:0:57.374,341.054,19.2984,0,0.000885,0,0
0:0:57.472,341.054,19.2984,0,0.000885,0,0
0:0:57.567,342.518,19.3812,0,0.000885,0,0
0:0:57.665,343.163,19.4225,0,0.000885,0,0
0:0:57.767,343.163,19.4225,0,0.000885,0,0
0:0:57.865,343.87,19.457,0,0.000885,0,0
0:0:57.974,344.982,19.5191,0,0.000885,0,0
0:0:58.071,345.92,19.5742,0,0.000885,0,0
0:0:58.168,345.92,19.5742,0,0.000885,0,0
0:0:58.271,346.743,19.6225,0,0.000885,0,0
0:0:58.371,347.504,19.6638,0,0.000885,0,0
0:0:58.468,348.265,19.7052,0,0.000885,0,0
0:0:58.571,348.265,19.7052,0,0.000885,0,0
0:0:58.673,348.678,19.7328,0,0.000885,0,0
0:0:58.774,349.733,19.788,0,0.000885,0,0
0:0:58.875,350.613,19.8431,0,0.000885,0,0
0:0:58.975,350.613,19.8431,0,0.000885,0,0
0:0:59.075,351.788,19.9052,0,0.000885,0,0
0:0:59.176,352.842,19.9672,0,0.000885,0,0
0:0:59.277,353.487,20.0017,0,0.000885,0,0
0:0:59.377,353.487,20.0017,0,0.000885,0,0
0:0:59.475,354.247,20.0431,0,0.000885,0,0
0:0:59.576,355.186,20.0982,0,0.000885,0,0
0:0:59.676,355.893,20.1396,0,0.000885,0,0
0:0:59.777,355.893,20.1396,0,0.000885,0,0
0:0:59.877,356.418,20.1672,0,0.000885,0,0
0:0:59.977,356.948,20.2016,0,0.000885,0,0
0:1:0.073,356.948,20.2016,0,0.000885,0,0
0:1:0.170,358.295,20.2775,0,0.000885,0,0
0:1:0.271,359.118,20.3188,0,0.000885,0,0
0:1:0.371,360.173,20.3809,0,0.000885,0,0
0:1:0.472,360.173,20.3809,0,0.000885,0,0
0:1:0.567,361.053,20.4292,0,0.000885,0,0
0:1:0.664,362.107,20.4912,0,0.000885,0,0
0:1:0.763,362.93,20.5395,0,0.000885,0,0
0:1:0.864,362.93,20.5395,0,0.000885,0,0
0:1:0.964,363.749,20.5809,0,0.000885,0,0
0:1:1.061,364.394,20.6222,0,0.000885,0,0
0:1:1.168,364.981,20.6567,0,0.000885,0,0
0:1:1.266,364.981,20.6567,0,0.000885,0,0
0:1:1.367,365.977,20.7119,0,0.000885,0,0
0:1:1.467,367.094,20.7739,0,0.000885,0,0
0:1:1.566,367.623,20.8015,0,0.000885,0,0
0:1:1.663,367.623,20.8015,0,0.000885,0,0
0:1:1.761,367.797,20.8153,0,0.000885,0,0
0:1:1.861,368.971,20.8773,0,0.000885,0,0
0:1:1.961,368.971,20.8773,0,0.000885,0,0
0:1:2.060,369.732,20.9256,0,0.000885,0,0
0:1:2.157,370.145,20.9463,0,0.000885,0,0
0:1:2.255,370.555,20.967,0,0.000885,0,0
0:1:2.354,370.555,20.967,0,0.000885,0,0
0:1:2.455,371.787,21.0359,0,0.000885,0,0
0:1:2.555,372.783,21.098,0,0.000885,0,0
0:1:2.653,373.486,21.1324,0,0.000885,0,0
0:1:2.750,373.486,21.1324,0,0.000885,0,0
0:1:2.851,373.895,21.16,0,0.000885,0,0
0:1:2.952,374.603,21.2014,0,0.000885,0,0
0:1:3.050,374.603,21.2014,0,0.000885,0,0
0:1:3.156,376.244,21.291,0,0.000885,0,0
0:1:3.263,377.24,21.3462,0,0.000885,0,0
0:1:3.363,378.001,21.3875,0,0.000885,0,0
0:1:3.462,378.063,21.3944,0,0.000885,0,0
0:1:3.562,378.063,21.3944,0,0.000885,0,0
0:1:3.662,378.94,21.4427,0,0.000885,0,0
0:1:3.764,380.23,21.5185,0,0.000885,0,0
0:1:3.865,380.23,21.5185,0,0.000885,0,0
0:1:3.967,380.995,21.5599,0,0.000885,0,0
0:1:4.066,381.462,21.5875,0,0.000885,0,0
0:1:4.167,381.755,21.6013,0,0.000885,0,0
0:1:4.266,381.755,21.6013,0,0.000885,0,0
0:1:4.367,382.93,21.6702,0,0.000885,0,0
0:1:4.467,383.984,21.7323,0,0.000885,0,0
0:1:4.567,384.807,21.7736,0,0.000885,0,0
0:1:4.667,384.807,21.7736,0,0.000885,0,0
0:1:4.767,385.625,21.8219,0,0.000885,0,0
0:1:4.867,385.981,21.8426,0,0.000885,0,0
0:1:4.968,386.564,21.8771,0,0.000885,0,0
0:1:5.067,386.564,21.8771,0,0.000885,0,0
0:1:5.165,387.622,21.9322,0,0.000885,0,0
0:1:5.263,388.561,21.9874,0,0.000885,0,0
0:1:5.361,389.437,22.0356,0,0.000885,0,0
0:1:5.462,389.437,22.0356,0,0.000885,0,0
0:1:5.561,390.318,22.0908,0,0.000885,0,0
0:1:5.660,391.083,22.1322,0,0.000885,0,0
0:1:5.759,391.083,22.1322,0,0.000885,0,0
0:1:5.857,392.253,22.1942,0,0.000885,0,0
0:1:5.957,393.076,22.2425,0,0.000885,0,0
0:1:6.056,394.015,22.2976,0,0.000885,0,0
0:1:6.155,394.015,22.2976,0,0.000885,0,0
0:1:6.262,394.775,22.339,0,0.000885,0,0
0:1:6.359,395.892,22.4011,0,0.000885,0,0
0:1:6.460,396.479,22.4355,0,0.000885,0,0
0:1:6.559,396.479,22.4355,0,0.000885,0,0
0:1:6.658,397.297,22.4838,0,0.000885,0,0
0:1:6.765,398.12,22.5321,0,0.000885,0,0
0:1:6.874,399.232,22.5941,0,0.000885,0,0
0:1:6.975,399.82,22.6286,0,0.000885,0,0
0:1:7.075,399.82,22.6286,0,0.000885,0,0
0:1:7.175,400.171,22.6424,0,0.000885,0,0
0:1:7.272,401.167,22.7044,0,0.000885,0,0
0:1:7.378,401.167,22.7044,0,0.000885,0,0
0:1:7.477,402.168,22.7596,0,0.000885,0,0
0:1:7.578,402.577,22.7803,0,0.000885,0,0
0:1:7.678,403.689,22.8423,0,0.000885,0,0
0:1:7.775,403.689,22.8423,0,0.000885,0,0
0:1:7.873,404.161,22.8699,0,0.000885,0,0
0:1:7.972,404.57,22.8975,0,0.000885,0,0
0:1:8.074,404.922,22.9113,0,0.000885,0,0
0:1:8.173,404.922,22.9113,0,0.000885,0,0
0:1:8.271,406.038,22.9802,0,0.000885,0,0
0:1:8.378,406.683,23.0147,0,0.000885,0,0
0:1:8.475,406.977,23.0285,0,0.000885,0,0
0:1:8.575,406.977,23.0285,0,0.000885,0,0
0:1:8.676,408.44,23.1112,0,0.000885,0,0
0:1:8.776,409.321,23.1595,0,0.000885,0,0
0:1:8.878,409.966,23.2009,0,0.000885,0,0
0:1:8.978,409.966,23.2009,0,0.000885,0,0
0:1:9.079,410.495,23.2284,0,0.000885,0,0
0:1:9.181,411.314,23.2767,0,0.000885,0,0
0:1:9.282,412.315,23.3319,0,0.000885,0,0
0:1:9.381,412.315,23.3319,0,0.000885,0,0
0:1:9.481,413.133,23.3801,0,0.000885,0,0
0:1:9.582,414.192,23.4353,0,0.000885,0,0
0:1:9.683,415.655,23.518,0,0.000885,0,0
0:1:9.782,415.655,23.518,0,0.000885,0,0
0:1:9.883,416.42,23.5663,0,0.000885,0,0
0:1:9.984,417.942,23.649,0,0.000885,0,0
0:1:10.082,417.942,23.649,0,0.000885,0,0
0:1:10.183,418.649,23.6904,0,0.000885,0,0
0:1:10.283,419.467,23.7386,0,0.000885,0,0
0:1:10.381,420.877,23.8145,0,0.000885,0,0
0:1:10.477,420.877,23.8145,0,0.000885,0,0
0:1:10.577,421.638,23.8628,0,0.000885,0,0
0:1:10.677,422.519,23.911,0,0.000885,0,0
0:1:10.777,423.982,23.9938,0,0.000885,0,0
0:1:10.874,423.982,23.9938,0,0.000885,0,0
0:1:10.969,424.632,24.0282,0,0.000885,0,0
0:1:11.068,426.153,24.1179,0,0.000885,0,0
0:1:11.171,427.149,24.173,0,0.000885,0,0
0:1:11.269,427.149,24.173,0,0.000885,0,0
0:1:11.367,428.208,24.2282,0,0.000885,0,0
0:1:11.476,429.44,24.304,0,0.000885,0,0
0:1:11.574,430.259,24.3454,0,0.000885,0,0
0:1:11.675,430.259,24.3454,0,0.000885,0,0
0:1:11.774,430.552,24.3661,0,0.000885,0,0
0:1:11.872,432.194,24.4557,0,0.000885,0,0
0:1:11.978,432.194,24.4557,0,0.000885,0,0
0:1:12.077,432.607,24.4833,0,0.000885,0,0
0:1:12.176,433.484,24.5315,0,0.000885,0,0
0:1:12.278,434.716,24.6005,0,0.000885,0,0
0:1:12.376,434.716,24.6005,0,0.000885,0,0
0:1:12.473,435.303,24.635,0,0.000885,0,0
0:1:12.568,435.597,24.6488,0,0.000885,0,0
0:1:12.669,436.829,24.7177,0,0.000885,0,0
0:1:12.769,436.829,24.7177,0,0.000885,0,0
0:1:12.868,437.589,24.766,0,0.000885,0,0
0:1:12.965,438.528,24.8142,0,0.000885,0,0
0:1:13.074,439.351,24.8625,0,0.000885,0,0
0:1:13.174,439.351,24.8625,0,0.000885,0,0
0:1:13.274,439.818,24.8901,0,0.000885,0,0
0:1:13.375,440.525,24.9314,0,0.000885,0,0
0:1:13.475,441.05,24.959,0,0.000885,0,0
0:1:13.578,441.05,24.959,0,0.000885,0,0
0:1:13.677,441.522,24.9866,0,0.000885,0,0
0:1:13.778,442.576,25.0418,0,0.000885,0,0
0:1:13.879,443.75,25.1107,0,0.000885,0,0
0:1:13.980,443.75,25.1107,0,0.000885,0,0
0:1:14.079,444.337,25.1452,0,0.000885,0,0
0:1:14.180,444.804,25.1728,0,0.000885,0,0
0:1:14.281,445.801,25.2279,0,0.000885,0,0
0:1:14.380,445.801,25.2279,0,0.000885,0,0
0:1:14.480,446.624,25.2762,0,0.000885,0,0
0:1:14.580,447.384,25.3175,0,0.000885,0,0
0:1:14.681,447.384,25.3175,0,0.000885,0,0
0:1:14.782,448.149,25.3589,0,0.000885,0,0
0:1:14.882,448.91,25.4003,0,0.000885,0,0
0:1:14.979,449.497,25.4348,0,0.000885,0,0
0:1:15.075,449.497,25.4348,0,0.000885,0,0
0:1:15.175,450.436,25.4899,0,0.000885,0,0
0:1:15.276,451.259,25.5382,0,0.000885,0,0
0:1:15.376,451.784,25.5658,0,0.000885,0,0
0:1:15.474,451.784,25.5658,0,0.000885,0,0
0:1:15.569,452.371,25.6002,0,0.000885,0,0
0:1:15.668,453.367,25.6554,0,0.000885,0,0
0:1:15.769,453.954,25.6899,0,0.000885,0,0
0:1:15.869,453.954,25.6899,0,0.000885,0,0
0:1:15.967,454.657,25.7312,0,0.000885,0,0
0:1:16.075,455.071,25.7519,0,0.000885,0,0
0:1:16.172,455.071,25.7519,0,0.000885,0,0
0:1:16.273,456.534,25.8347,0,0.000885,0,0
0:1:16.374,456.654,25.8416,0,0.000885,0,0
0:1:16.473,457.121,25.8691,0,0.000885,0,0
0:1:16.579,457.121,25.8691,0,0.000885,0,0
0:1:16.676,457.766,25.9036,0,0.000885,0,0
0:1:16.778,459.056,25.9794,0,0.000885,0,0
0:1:16.878,459.586,26.007,0,0.000885,0,0
0:1:16.976,459.586,26.007,0,0.000885,0,0
0:1:17.073,460.404,26.0553,0,0.000885,0,0
0:1:17.180,461.757,26.1311,0,0.000885,0,0
0:1:17.280,462.402,26.1656,0,0.000885,0,0
0:1:17.381,462.402,26.1656,0,0.000885,0,0
0:1:17.481,462.989,26.2001,0,0.000885,0,0
0:1:17.578,464.221,26.269,0,0.000885,0,0
0:1:17.675,464.746,26.2966,0,0.000885,0,0
0:1:17.775,464.746,26.2966,0,0.000885,0,0
0:1:17.876,465.978,26.3656,0,0.000885,0,0
0:1:17.976,466.387,26.3931,0,0.000885,0,0
0:1:18.072,467.855,26.4759,0,0.000885,0,0
0:1:18.167,467.855,26.4759,0,0.000885,0,0
0:1:18.267,468.616,26.5172,0,0.000885,0,0
0:1:18.368,469.554,26.5724,0,0.000885,0,0
0:1:18.467,469.554,26.5724,0,0.000885,0,0
0:1:18.568,470.262,26.6138,0,0.000885,0,0
0:1:18.669,471.489,26.6827,0,0.000885,0,0
0:1:18.774,472.312,26.7241,0,0.000885,0,0
0:1:18.874,472.312,26.7241,0,0.000885,0,0
0:1:18.975,472.899,26.7586,0,0.000885,0,0
0:1:19.074,474.189,26.8344,0,0.000885,0,0
0:1:19.175,474.95,26.8758,0,0.000885,0,0
0:1:19.274,474.95,26.8758,0,0.000885,0,0
0:1:19.375,475.773,26.924,0,0.000885,0,0
0:1:19.475,476.476,26.9654,0,0.000885,0,0
0:1:19.575,476.827,26.9861,0,0.000885,0,0
0:1:19.674,476.827,26.9861,0,0.000885,0,0
0:1:19.776,477.886,27.0412,0,0.000885,0,0
0:1:19.876,478.646,27.0826,0,0.000885,0,0
0:1:19.977,479.118,27.1102,0,0.000885,0,0
0:1:20.075,479.118,27.1102,0,0.000885,0,0
0:1:20.180,479.879,27.1584,0,0.000885,0,0
0:1:20.278,480.639,27.1998,0,0.000885,0,0
0:1:20.379,481.347,27.2412,0,0.000885,0,0
0:1:20.479,481.347,27.2412,0,0.000885,0,0
0:1:20.578,481.929,27.2688,0,0.000885,0,0
0:1:20.675,482.223,27.2894,0,0.000885,0,0
0:1:20.773,480.057,27.1653,0,0.000885,0,0
0:1:20.873,480.057,27.1653,0,0.000885,0,0
0:1:20.974,473.429,26.793,0,0.000885,0,0
0:1:21.073,471.258,26.6689,0,0.000885,0,0
0:1:21.178,470.964,26.6482,0,0.000885,0,0
0:1:21.274,470.964,26.6482,0,0.000885,0,0
0:1:21.374,472.49,26.7379,0,0.000885,0,0
0:1:21.474,473.838,26.8137,0,0.000885,0,0
0:1:21.574,473.838,26.8137,0,0.000885,0,0
0:1:21.681,476.009,26.9378,0,0.000885,0,0
0:1:21.778,477.356,27.0137,0,0.000885,0,0
0:1:21.876,478.998,27.1033,0,0.000885,0,0
0:1:21.977,478.998,27.1033,0,0.000885,0,0
0:1:22.076,480.524,27.1929,0,0.000885,0,0
0:1:22.173,481.462,27.2481,0,0.000885,0,0
0:1:22.279,483.104,27.3377,0,0.000885,0,0
0:1:22.377,483.104,27.3377,0,0.000885,0,0
0:1:22.477,483.869,27.3791,0,0.000885,0,0
0:1:22.577,484.981,27.4411,0,0.000885,0,0
0:1:22.675,485.977,27.5032,0,0.000885,0,0
0:1:22.773,485.977,27.5032,0,0.000885,0,0
0:1:22.868,486.742,27.5446,0,0.000885,0,0
0:1:22.970,488.032,27.6135,0,0.000885,0,0
0:1:23.070,489.144,27.6825,0,0.000885,0,0
0:1:23.168,489.144,27.6825,0,0.000885,0,0
0:1:23.277,489.674,27.71,0,0.000885,0,0
0:1:23.373,490.67,27.7652,0,0.000885,0,0
0:1:23.474,490.67,27.7652,0,0.000885,0,0
0:1:23.574,491.021,27.7859,0,0.000885,0,0
0:1:23.674,490.67,27.7652,0,0.000885,0,0
0:1:23.775,490.376,27.7514,0,0.000885,0,0
0:1:23.877,490.376,27.7514,0,0.000885,0,0
0:1:23.976,490.083,27.7307,0,0.000885,0,0
0:1:24.077,489.264,27.6893,0,0.000885,0,0
0:1:24.176,487.325,27.579,0,0.000885,0,0
0:1:24.277,487.325,27.579,0,0.000885,0,0
0:1:24.377,485.452,27.4687,0,0.000885,0,0
0:1:24.477,482.516,27.3032,0,0.000885,0,0
0:1:24.576,480.346,27.1791,0,0.000885,0,0
0:1:24.676,480.346,27.1791,0,0.000885,0,0
0:1:24.776,477.708,27.0343,0,0.000885,0,0
0:1:24.876,473.602,26.7999,0,0.000885,0,0
0:1:24.975,470.907,26.6482,0,0.000885,0,0
0:1:25.076,470.907,26.6482,0,0.000885,0,0
0:1:25.175,468.616,26.5172,0,0.000885,0,0
0:1:25.281,466.214,26.3793,0,0.000885,0,0
0:1:25.378,464.101,26.2621,0,0.000885,0,0
0:1:25.477,464.101,26.2621,0,0.000885,0,0
0:1:25.578,462.05,26.1449,0,0.000885,0,0
0:1:25.676,460.698,26.0691,0,0.000885,0,0
0:1:25.773,460.698,26.0691,0,0.000885,0,0
0:1:25.869,459.292,25.9932,0,0.000885,0,0
0:1:25.969,457.882,25.9105,0,0.000885,0,0
0:1:26.069,456.654,25.8416,0,0.000885,0,0
0:1:26.168,456.654,25.8416,0,0.000885,0,0
0:1:26.277,454.893,25.745,0,0.000885,0,0
0:1:26.374,453.545,25.6623,0,0.000885,0,0
0:1:26.470,451.904,25.5727,0,0.000885,0,0
0:1:26.570,451.904,25.5727,0,0.000885,0,0
0:1:26.670,449.613,25.4417,0,0.000885,0,0
0:1:26.768,447.269,25.3107,0,0.000885,0,0
0:1:26.876,444.569,25.159,0,0.000885,0,0
0:1:26.975,444.569,25.159,0,0.000885,0,0
0:1:27.074,441.757,25.0004,0,0.000885,0,0
0:1:27.175,438.354,24.8073,0,0.000885,0,0
0:1:27.274,434.658,24.5936,0,0.000885,0,0
0:1:27.380,434.658,24.5936,0,0.000885,0,0
0:1:27.476,429.556,24.3109,0,0.000885,0,0
0:1:27.575,422.87,23.9317,0,0.000885,0,0
0:1:27.676,415.655,23.518,0,0.000885,0,0
0:1:27.775,415.655,23.518,0,0.000885,0,0
0:1:27.870,406.919,23.0285,0,0.000885,0,0
0:1:27.968,397.004,22.4631,0,0.000885,0,0
0:1:28.067,397.004,22.4631,0,0.000885,0,0
0:1:28.167,384.98,21.7874,0,0.000885,0,0
0:1:28.268,372.138,21.0566,0,0.000885,0,0
0:1:28.364,357.299,20.2223,0,0.000885,0,0
0:1:28.470,357.299,20.2223,0,0.000885,0,0
0:1:28.482,357.299,20.2223,0,0.000885,0,0