File: DataFile2021-06-08_072457.csv
Test ID:,Date Tested:,Time:,Test Type:,Diameter Avg. (mm):,Cyl. Corr. Factor:,Height (mm):,Age (days):,Weight (kN):,Break Type:,Ramp Rate (MPa/s):,Load at Break (kN):,Stress at Break (MPa):
12,6/8/2021,07:24,Cylinder,100,1,200,0,3.6,3,0.19,160.23,20.4
Sample Time,Load (kN),Stress (MPa),Long. Strain,Trans. Strain,Chan1 Deflection (mm),Chan2 Deflection (mm)
0:0:12.412,5.98286,0.758423,0,0.000885,0,0
0:0:12.511,7.97566,1.01353,0,0.000885,0,0
0:0:12.609,7.97566,1.01353,0,0.000885,0,0
0:0:12.709,9.09216,1.15832,0,0.000885,0,0
0:0:12.811,10.0886,1.28242,0,0.000885,0,0
0:0:12.911,9.79498,1.24795,0,0.000885,0,0
0:0:13.008,9.79498,1.24795,0,0.000885,0,0
0:0:13.106,9.32347,1.1859,0,0.000885,0,0
0:0:13.205,9.61706,1.22727,0,0.000885,0,0
0:0:13.306,9.32347,1.1859,0,0.000885,0,0
0:0:13.405,9.32347,1.1859,0,0.000885,0,0
0:0:13.503,9.26565,1.179,0,0.000885,0,0
0:0:13.602,9.14999,1.16521,0,0.000885,0,0
0:0:13.702,9.38575,1.19279,0,0.000885,0,0
0:0:13.803,9.38575,1.19279,0,0.000885,0,0
0:0:13.902,8.79858,1.11695,0,0.000885,0,0
0:0:14.000,8.91424,1.13763,0,0.000885,0,0
0:0:14.098,8.91424,1.13763,0,0.000885,0,0
0:0:14.196,8.85641,1.13074,0,0.000885,0,0
0:0:14.297,8.26924,1.0549,0,0.000885,0,0
0:0:14.396,8.91424,1.13763,0,0.000885,0,0
0:0:14.495,8.91424,1.13763,0,0.000885,0,0
0:0:14.593,8.67848,1.10316,0,0.000885,0,0
0:0:14.692,9.44357,1.19969,0,0.000885,0,0
0:0:14.792,9.61706,1.22727,0,0.000885,0,0
0:0:14.894,9.61706,1.22727,0,0.000885,0,0
0:0:14.992,8.85641,1.13074,0,0.000885,0,0
0:0:15.089,9.32347,1.1859,0,0.000885,0,0
0:0:15.187,9.26565,1.179,0,0.000885,0,0
0:0:15.288,9.26565,1.179,0,0.000885,0,0
0:0:15.389,9.14999,1.16521,0,0.000885,0,0
0:0:15.487,10.1464,1.28932,0,0.000885,0,0
0:0:15.585,10.1464,1.28932,0,0.000885,0,0
0:0:15.684,10.907,1.38585,0,0.000885,0,0
0:0:15.785,11.085,1.41343,0,0.000885,0,0
0:0:15.886,10.8492,1.37895,0,0.000885,0,0
0:0:15.986,10.8492,1.37895,0,0.000885,0,0
0:0:16.082,10.7336,1.36516,0,0.000885,0,0
0:0:16.178,11.3786,1.4479,0,0.000885,0,0
0:0:16.278,12.4906,1.59269,0,0.000885,0,0
0:0:16.382,12.4906,1.59269,0,0.000885,0,0
0:0:16.482,12.2015,1.55132,0,0.000885,0,0
0:0:16.589,12.375,1.5789,0,0.000885,0,0
0:0:16.687,13.4292,1.7099,0,0.000885,0,0
0:0:16.786,13.4292,1.7099,0,0.000885,0,0
0:0:16.889,13.6071,1.73058,0,0.000885,0,0
0:0:16.989,14.0163,1.78574,0,0.000885,0,0
0:0:17.088,14.8393,1.88916,0,0.000885,0,0
0:0:17.185,14.8393,1.88916,0,0.000885,0,0
0:0:17.283,14.4879,1.84779,0,0.000885,0,0
0:0:17.384,14.4879,1.84779,0,0.000885,0,0
0:0:17.485,14.4879,1.84779,0,0.000885,0,0
0:0:17.583,14.4879,1.84779,0,0.000885,0,0
0:0:17.678,14.6613,1.86848,0,0.000885,0,0
0:0:17.777,15.8935,2.02706,0,0.000885,0,0
0:0:17.878,15.8935,2.02706,0,0.000885,0,0
0:0:17.981,15.72,1.99948,0,0.000885,0,0
0:0:18.083,16.0714,2.04774,0,0.000885,0,0
0:0:18.183,15.7778,2.00637,0,0.000885,0,0
0:0:18.286,15.7778,2.00637,0,0.000885,0,0
0:0:18.386,16.4228,2.08911,0,0.000885,0,0
0:0:18.487,16.9522,2.15806,0,0.000885,0,0
0:0:18.588,16.7742,2.13737,0,0.000885,0,0
0:0:18.689,16.7742,2.13737,0,0.000885,0,0
0:0:18.790,17.7706,2.26148,0,0.000885,0,0
0:0:18.890,17.4771,2.22701,0,0.000885,0,0
0:0:18.990,17.7128,2.25459,0,0.000885,0,0
0:0:19.092,17.7128,2.25459,0,0.000885,0,0
0:0:19.192,18.1221,2.30974,0,0.000885,0,0
0:0:19.293,18.7092,2.38559,0,0.000885,0,0
0:0:19.394,18.767,2.39248,0,0.000885,0,0
0:0:19.495,18.767,2.39248,0,0.000885,0,0
0:0:19.594,18.4735,2.35111,0,0.000885,0,0
0:0:19.693,18.945,2.41317,0,0.000885,0,0
0:0:19.791,19.0606,2.42695,0,0.000885,0,0
0:0:19.892,19.0606,2.42695,0,0.000885,0,0
0:0:19.992,19.59,2.4959,0,0.000885,0,0
0:0:20.093,19.7056,2.50969,0,0.000885,0,0
0:0:20.192,20.1771,2.57174,0,0.000885,0,0
0:0:20.289,20.1771,2.57174,0,0.000885,0,0
0:0:20.390,20.5285,2.61311,0,0.000885,0,0
0:0:20.490,20.9378,2.66827,0,0.000885,0,0
0:0:20.591,20.9378,2.66827,0,0.000885,0,0
0:0:20.689,20.9956,2.67517,0,0.000885,0,0
0:0:20.786,21.1157,2.68896,0,0.000885,0,0
0:0:20.886,21.4093,2.72343,0,0.000885,0,0
0:0:20.987,21.4093,2.72343,0,0.000885,0,0
0:0:21.088,21.8185,2.77859,0,0.000885,0,0
0:0:21.187,21.9342,2.79238,0,0.000885,0,0
0:0:21.284,22.2278,2.82685,0,0.000885,0,0
0:0:21.383,22.2278,2.82685,0,0.000885,0,0
0:0:21.484,22.7571,2.8958,0,0.000885,0,0
0:0:21.585,22.8149,2.90269,0,0.000885,0,0
0:0:21.684,23.4021,2.97854,0,0.000885,0,0
0:0:21.790,23.4021,2.97854,0,0.000885,0,0
0:0:21.888,23.3443,2.97164,0,0.000885,0,0
0:0:21.990,23.4599,2.98543,0,0.000885,0,0
0:0:22.090,24.0471,3.06127,0,0.000885,0,0
0:0:22.191,24.0471,3.06127,0,0.000885,0,0
0:0:22.289,24.4563,3.11643,0,0.000885,0,0
0:0:22.387,24.5764,3.13022,0,0.000885,0,0
0:0:22.488,24.9857,3.17848,0,0.000885,0,0
0:0:22.589,24.9857,3.17848,0,0.000885,0,0
0:0:22.689,25.2792,3.21985,0,0.000885,0,0
0:0:22.791,25.2214,3.21296,0,0.000885,0,0
0:0:22.893,25.2214,3.21296,0,0.000885,0,0
0:0:22.995,25.7463,3.27501,0,0.000885,0,0
0:0:23.096,25.8664,3.29569,0,0.000885,0,0
0:0:23.197,26.3335,3.35085,0,0.000885,0,0
0:0:23.298,26.8628,3.4198,0,0.000885,0,0
0:0:23.399,26.8628,3.4198,0,0.000885,0,0
0:0:23.499,26.8628,3.4198,0,0.000885,0,0
0:0:23.601,27.272,3.47496,0,0.000885,0,0
0:0:23.701,27.272,3.47496,0,0.000885,0,0
0:0:23.802,27.5078,3.50254,0,0.000885,0,0
0:0:23.902,28.095,3.57838,0,0.000885,0,0
0:0:24.003,28.3886,3.61285,0,0.000885,0,0
0:0:24.104,28.3886,3.61285,0,0.000885,0,0
0:0:24.205,28.6821,3.65422,0,0.000885,0,0
0:0:24.303,29.1492,3.70938,0,0.000885,0,0
0:0:24.401,29.5006,3.75764,0,0.000885,0,0
0:0:24.501,29.5006,3.75764,0,0.000885,0,0
0:0:24.602,29.6163,3.77143,0,0.000885,0,0
0:0:24.703,29.7942,3.79212,0,0.000885,0,0
0:0:24.802,30.497,3.88175,0,0.000885,0,0
0:0:24.899,30.497,3.88175,0,0.000885,0,0
0:0:24.999,30.9107,3.93691,0,0.000885,0,0
0:0:25.099,30.8484,3.93001,0,0.000885,0,0
0:0:25.200,30.9107,3.93691,0,0.000885,0,0
0:0:25.299,30.9107,3.93691,0,0.000885,0,0
0:0:25.397,31.2621,3.97827,0,0.000885,0,0
0:0:25.496,31.6135,4.02654,0,0.000885,0,0
0:0:25.598,31.6135,4.02654,0,0.000885,0,0
0:0:25.698,32.0227,4.0748,0,0.000885,0,0
0:0:25.798,32.1384,4.09549,0,0.000885,0,0
0:0:25.895,32.432,4.12996,0,0.000885,0,0
0:0:25.993,32.432,4.12996,0,0.000885,0,0
0:0:26.094,32.6677,4.15754,0,0.000885,0,0
0:0:26.195,32.7834,4.17133,0,0.000885,0,0
0:0:26.295,32.8457,4.18512,0,0.000885,0,0
0:0:26.394,32.8457,4.18512,0,0.000885,0,0
0:0:26.491,33.4328,4.25407,0,0.000885,0,0
0:0:26.592,33.0191,4.2058,0,0.000885,0,0
0:0:26.692,34.3091,4.37128,0,0.000885,0,0
0:0:26.793,34.3091,4.37128,0,0.000885,0,0
0:0:26.890,34.0778,4.3368,0,0.000885,0,0
0:0:26.987,33.8999,4.31612,0,0.000885,0,0
0:0:27.087,34.1935,4.35059,0,0.000885,0,0
0:0:27.188,34.1935,4.35059,0,0.000885,0,0
0:0:27.289,34.8963,4.44022,0,0.000885,0,0
0:0:27.388,34.8963,4.44022,0,0.000885,0,0
0:0:27.483,34.8963,4.44022,0,0.000885,0,0
0:0:27.584,35.4835,4.51607,0,0.000885,0,0
0:0:27.684,35.777,4.55743,0,0.000885,0,0
0:0:27.786,36.0706,4.59191,0,0.000885,0,0
0:0:27.886,36.0706,4.59191,0,0.000885,0,0
0:0:27.988,36.0128,4.58501,0,0.000885,0,0
0:0:28.090,36.1863,4.6057,0,0.000885,0,0
0:0:28.192,36.7734,4.68154,0,0.000885,0,0
0:0:28.292,36.7734,4.68154,0,0.000885,0,0
0:0:28.394,36.5377,4.65396,0,0.000885,0,0
0:0:28.494,36.8891,4.69533,0,0.000885,0,0
0:0:28.596,37.3606,4.75738,0,0.000885,0,0
0:0:28.696,37.3606,4.75738,0,0.000885,0,0
0:0:28.797,37.3028,4.75049,0,0.000885,0,0
0:0:28.896,37.4763,4.77117,0,0.000885,0,0
0:0:28.997,38.0634,4.84701,0,0.000885,0,0
0:0:29.098,38.0634,4.84701,0,0.000885,0,0
0:0:29.199,37.9478,4.83322,0,0.000885,0,0
0:0:29.300,37.8277,4.81944,0,0.000885,0,0
0:0:29.399,38.2414,4.8677,0,0.000885,0,0
0:0:29.497,38.2414,4.8677,0,0.000885,0,0
0:0:29.596,38.5349,4.90907,0,0.000885,0,0
0:0:29.697,39.1177,4.97801,0,0.000885,0,0
0:0:29.798,39.1799,4.9918,0,0.000885,0,0
0:0:29.898,39.1799,4.9918,0,0.000885,0,0
0:0:29.994,39.2956,5.00559,0,0.000885,0,0
0:0:30.092,39.2956,5.00559,0,0.000885,0,0
0:0:30.193,39.2956,5.00559,0,0.000885,0,0
0:0:30.294,39.647,5.04696,0,0.000885,0,0
0:0:30.395,40.3498,5.13659,0,0.000885,0,0
0:0:30.491,40.4699,5.15038,0,0.000885,0,0
0:0:30.590,40.4699,5.15038,0,0.000885,0,0
0:0:30.691,41.1149,5.23312,0,0.000885,0,0
0:0:30.792,40.937,5.21244,0,0.000885,0,0
0:0:30.893,41.2884,5.25381,0,0.000885,0,0
0:0:30.990,41.2884,5.25381,0,0.000885,0,0
0:0:31.087,41.7599,5.31586,0,0.000885,0,0
0:0:31.187,41.9334,5.33654,0,0.000885,0,0
0:0:31.288,42.5206,5.41238,0,0.000885,0,0
0:0:31.389,42.5206,5.41238,0,0.000885,0,0
0:0:31.487,42.3471,5.3917,0,0.000885,0,0
0:0:31.584,42.6407,5.42617,0,0.000885,0,0
0:0:31.684,42.872,5.46065,0,0.000885,0,0
0:0:31.785,42.872,5.46065,0,0.000885,0,0
0:0:31.886,43.2856,5.50891,0,0.000885,0,0
0:0:31.985,43.3435,5.51581,0,0.000885,0,0
0:0:32.092,43.8105,5.57786,0,0.000885,0,0
0:0:32.189,43.8105,5.57786,0,0.000885,0,0
0:0:32.291,44.0463,5.60544,0,0.000885,0,0
0:0:32.392,44.927,5.72265,0,0.000885,0,0
0:0:32.491,44.927,5.72265,0,0.000885,0,0
0:0:32.589,44.5756,5.67439,0,0.000885,0,0
0:0:32.689,45.3941,5.77781,0,0.000885,0,0
0:0:32.789,45.2784,5.76402,0,0.000885,0,0
0:0:32.890,45.2784,5.76402,0,0.000885,0,0
0:0:32.991,45.8078,5.83296,0,0.000885,0,0
0:0:33.092,46.5106,5.9226,0,0.000885,0,0
0:0:33.194,46.3327,5.90191,0,0.000885,0,0
0:0:33.296,46.3327,5.90191,0,0.000885,0,0
0:0:33.397,46.3327,5.90191,0,0.000885,0,0
0:0:33.498,47.1556,6.00533,0,0.000885,0,0
0:0:33.599,47.0355,5.99154,0,0.000885,0,0
0:0:33.699,47.0355,5.99154,0,0.000885,0,0
0:0:33.799,47.3914,6.03291,0,0.000885,0,0
0:0:33.900,48.2677,6.14323,0,0.000885,0,0
0:0:34.001,48.8548,6.21907,0,0.000885,0,0
0:0:34.101,48.8548,6.21907,0,0.000885,0,0
0:0:34.203,48.9126,6.22597,0,0.000885,0,0
0:0:34.303,48.5034,6.1777,0,0.000885,0,0
0:0:34.404,48.6191,6.19149,0,0.000885,0,0
0:0:34.504,48.6191,6.19149,0,0.000885,0,0
0:0:34.601,48.9126,6.22597,0,0.000885,0,0
0:0:34.700,49.1484,6.26044,0,0.000885,0,0
0:0:34.800,49.5576,6.3087,0,0.000885,0,0
0:0:34.900,49.5576,6.3087,0,0.000885,0,0
0:0:35.001,50.0291,6.37076,0,0.000885,0,0
0:0:35.100,50.3227,6.40523,0,0.000885,0,0
0:0:35.197,50.3227,6.40523,0,0.000885,0,0
0:0:35.296,50.3227,6.40523,0,0.000885,0,0
0:0:35.397,50.8521,6.47418,0,0.000885,0,0
0:0:35.498,51.1412,6.50865,0,0.000885,0,0
0:0:35.596,51.1412,6.50865,0,0.000885,0,0
0:0:35.693,51.0255,6.49486,0,0.000885,0,0
0:0:35.792,51.4971,6.55691,0,0.000885,0,0
0:0:35.893,51.7284,6.58449,0,0.000885,0,0
0:0:35.994,51.7284,6.58449,0,0.000885,0,0
0:0:36.093,51.8485,6.59828,0,0.000885,0,0
0:0:36.192,52.2577,6.65344,0,0.000885,0,0
0:0:36.289,52.4356,6.67413,0,0.000885,0,0
0:0:36.391,52.4356,6.67413,0,0.000885,0,0
0:0:36.491,52.4356,6.67413,0,0.000885,0,0
0:0:36.591,52.787,6.72239,0,0.000885,0,0
0:0:36.689,53.0806,6.75686,0,0.000885,0,0
0:0:36.786,53.0806,6.75686,0,0.000885,0,0
0:0:36.887,53.1963,6.77065,0,0.000885,0,0
0:0:36.988,53.4899,6.81202,0,0.000885,0,0
0:0:37.088,53.4899,6.81202,0,0.000885,0,0
0:0:37.187,53.8413,6.85339,0,0.000885,0,0
0:0:37.284,54.1927,6.90165,0,0.000885,0,0
0:0:37.385,54.4284,6.92923,0,0.000885,0,0
0:0:37.487,54.4284,6.92923,0,0.000885,0,0
0:0:37.587,54.3706,6.92234,0,0.000885,0,0
0:0:37.688,54.6642,6.95681,0,0.000885,0,0
0:0:37.789,55.1313,7.01886,0,0.000885,0,0
0:0:37.891,55.1313,7.01886,0,0.000885,0,0
0:0:37.992,55.0734,7.01197,0,0.000885,0,0
0:0:38.094,55.367,7.04644,0,0.000885,0,0
0:0:38.193,55.3092,7.03955,0,0.000885,0,0
0:0:38.293,55.3092,7.03955,0,0.000885,0,0
0:0:38.394,55.9542,7.12228,0,0.000885,0,0
0:0:38.495,56.1855,7.15676,0,0.000885,0,0
0:0:38.595,56.1277,7.14986,0,0.000885,0,0
0:0:38.696,56.1277,7.14986,0,0.000885,0,0
0:0:38.797,56.1855,7.15676,0,0.000885,0,0
0:0:38.896,56.9506,7.25328,0,0.000885,0,0
0:0:38.998,56.9506,7.25328,0,0.000885,0,0
0:0:39.098,56.9506,7.25328,0,0.000885,0,0
0:0:39.198,57.0662,7.26707,0,0.000885,0,0
0:0:39.296,57.302,7.29465,0,0.000885,0,0
0:0:39.394,57.7691,7.35671,0,0.000885,0,0
0:0:39.495,57.7691,7.35671,0,0.000885,0,0
0:0:39.596,58.4763,7.44634,0,0.000885,0,0
0:0:39.695,58.8277,7.48771,0,0.000885,0,0
0:0:39.792,58.8277,7.48771,0,0.000885,0,0
0:0:39.890,58.9434,7.50839,0,0.000885,0,0
0:0:39.991,58.9434,7.50839,0,0.000885,0,0
0:0:40.092,59.3526,7.55665,0,0.000885,0,0
0:0:40.192,59.3526,7.55665,0,0.000885,0,0
0:0:40.290,60.2334,7.66697,0,0.000885,0,0
0:0:40.388,60.7627,7.73592,0,0.000885,0,0
0:0:40.489,60.9985,7.7635,0,0.000885,0,0
0:0:40.590,60.9985,7.7635,0,0.000885,0,0
0:0:40.690,60.6426,7.72213,0,0.000885,0,0
0:0:40.787,60.9985,7.7635,0,0.000885,0,0
0:0:40.884,61.7591,7.86002,0,0.000885,0,0
0:0:40.984,61.7591,7.86002,0,0.000885,0,0
0:0:41.087,62.2262,7.92208,0,0.000885,0,0
0:0:41.186,61.937,7.8876,0,0.000885,0,0
0:0:41.285,62.3463,7.93587,0,0.000885,0,0
0:0:41.379,62.3463,7.93587,0,0.000885,0,0
0:0:41.480,62.5198,7.96344,0,0.000885,0,0
0:0:41.581,62.9913,8.0186,0,0.000885,0,0
0:0:41.684,63.4583,8.08066,0,0.000885,0,0
0:0:41.779,63.4583,8.08066,0,0.000885,0,0
0:0:41.876,63.5206,8.08755,0,0.000885,0,0
0:0:41.976,63.6941,8.10823,0,0.000885,0,0
0:0:42.077,63.6941,8.10823,0,0.000885,0,0
0:0:42.178,64.2234,8.17718,0,0.000885,0,0
0:0:42.276,63.9877,8.1496,0,0.000885,0,0
0:0:42.386,64.1656,8.17029,0,0.000885,0,0
0:0:42.484,64.1656,8.17029,0,0.000885,0,0
0:0:42.585,64.7483,8.24613,0,0.000885,0,0
0:0:42.686,64.6905,8.23923,0,0.000885,0,0
0:0:42.786,65.162,8.29439,0,0.000885,0,0
0:0:42.888,65.162,8.29439,0,0.000885,0,0
0:0:42.990,65.5134,8.34266,0,0.000885,0,0
0:0:43.091,65.2198,8.30129,0,0.000885,0,0
0:0:43.191,65.4556,8.33576,0,0.000885,0,0
0:0:43.292,65.4556,8.33576,0,0.000885,0,0
0:0:43.393,65.9805,8.39781,0,0.000885,0,0
0:0:43.494,66.1006,8.4185,0,0.000885,0,0
0:0:43.594,66.6255,8.48055,0,0.000885,0,0
0:0:43.696,66.6255,8.48055,0,0.000885,0,0
0:0:43.794,66.5098,8.46676,0,0.000885,0,0
0:0:43.896,66.919,8.52192,0,0.000885,0,0
0:0:43.996,67.1548,8.5495,0,0.000885,0,0
0:0:44.096,67.1548,8.5495,0,0.000885,0,0
0:0:44.198,67.564,8.60466,0,0.000885,0,0
0:0:44.298,67.7998,8.63224,0,0.000885,0,0
0:0:44.394,67.7998,8.63224,0,0.000885,0,0
0:0:44.493,67.7998,8.63224,0,0.000885,0,0
0:0:44.594,68.4448,8.71497,0,0.000885,0,0
0:0:44.694,68.1512,8.6805,0,0.000885,0,0
0:0:44.795,68.854,8.77013,0,0.000885,0,0
0:0:44.891,68.854,8.77013,0,0.000885,0,0
0:0:44.989,69.1476,8.80461,0,0.000885,0,0
0:0:45.089,69.3834,8.83218,0,0.000885,0,0
0:0:45.190,69.3834,8.83218,0,0.000885,0,0
0:0:45.291,69.9705,8.90803,0,0.000885,0,0
0:0:45.388,70.2641,8.94939,0,0.000885,0,0
0:0:45.486,70.4376,8.97008,0,0.000885,0,0
0:0:45.586,70.4376,8.97008,0,0.000885,0,0
0:0:45.687,70.9669,9.03903,0,0.000885,0,0
0:0:45.788,70.789,9.01145,0,0.000885,0,0
0:0:45.886,71.2027,9.06661,0,0.000885,0,0
0:0:45.992,71.2027,9.06661,0,0.000885,0,0
0:0:46.092,71.6697,9.12866,0,0.000885,0,0
0:0:46.193,71.7276,9.13555,0,0.000885,0,0
0:0:46.294,71.8477,9.14934,0,0.000885,0,0
0:0:46.393,71.8477,9.14934,0,0.000885,0,0
0:0:46.489,72.0834,9.17692,0,0.000885,0,0
0:0:46.589,72.3147,9.2045,0,0.000885,0,0
0:0:46.691,72.2569,9.19761,0,0.000885,0,0
0:0:46.791,72.2569,9.19761,0,0.000885,0,0
0:0:46.891,72.7284,9.25966,0,0.000885,0,0
0:0:46.988,73.022,9.29413,0,0.000885,0,0
0:0:47.086,73.022,9.29413,0,0.000885,0,0
0:0:47.188,72.5505,9.23897,0,0.000885,0,0
0:0:47.288,73.6047,9.36998,0,0.000885,0,0
0:0:47.388,73.4312,9.34929,0,0.000885,0,0
0:0:47.494,73.4312,9.34929,0,0.000885,0,0
0:0:47.592,74.2497,9.45271,0,0.000885,0,0
0:0:47.692,74.3698,9.4665,0,0.000885,0,0
0:0:47.793,74.4855,9.48719,0,0.000885,0,0
0:0:47.894,74.4855,9.48719,0,0.000885,0,0
0:0:47.995,75.2506,9.58371,0,0.000885,0,0
0:0:48.097,75.6598,9.63198,0,0.000885,0,0
0:0:48.198,75.6598,9.63198,0,0.000885,0,0
0:0:48.299,75.6598,9.63198,0,0.000885,0,0
0:0:48.400,75.8956,9.66645,0,0.000885,0,0
0:0:48.501,76.069,9.68713,0,0.000885,0,0
0:0:48.603,76.5405,9.74229,0,0.000885,0,0
0:0:48.703,76.5405,9.74229,0,0.000885,0,0
0:0:48.804,76.7719,9.77677,0,0.000885,0,0
0:0:48.904,77.0076,9.80434,0,0.000885,0,0
0:0:49.005,77.4791,9.8664,0,0.000885,0,0
0:0:49.106,77.4791,9.8664,0,0.000885,0,0
0:0:49.207,77.5948,9.88019,0,0.000885,0,0
0:0:49.307,77.9462,9.92156,0,0.000885,0,0
0:0:49.408,78.1819,9.95603,0,0.000885,0,0
0:0:49.506,78.1819,9.95603,0,0.000885,0,0
0:0:49.603,78.1819,9.95603,0,0.000885,0,0
0:0:49.702,78.2398,9.96292,0,0.000885,0,0
0:0:49.803,79.0004,10.0595,0,0.000885,0,0
0:0:49.903,79.0004,10.0595,0,0.000885,0,0
0:0:50.002,78.7068,10.025,0,0.000885,0,0
0:0:50.100,79.2362,10.087,0,0.000885,0,0
0:0:50.198,79.2362,10.087,0,0.000885,0,0
0:0:50.300,80.1169,10.1973,0,0.000885,0,0
0:0:50.400,80.0013,10.1836,0,0.000885,0,0
0:0:50.499,80.2326,10.218,0,0.000885,0,0
0:0:50.597,80.2326,10.218,0,0.000885,0,0
0:0:50.694,80.1747,10.2111,0,0.000885,0,0
0:0:50.795,80.584,10.2594,0,0.000885,0,0
0:0:50.896,80.3527,10.2318,0,0.000885,0,0
0:0:50.996,80.3527,10.2318,0,0.000885,0,0
0:0:51.094,80.8197,10.287,0,0.000885,0,0
0:0:51.191,80.9977,10.3146,0,0.000885,0,0
0:0:51.292,81.3491,10.3559,0,0.000885,0,0
0:0:51.393,81.3491,10.3559,0,0.000885,0,0
0:0:51.493,81.874,10.4249,0,0.000885,0,0
0:0:51.591,82.1097,10.4525,0,0.000885,0,0
0:0:51.687,82.1097,10.4525,0,0.000885,0,0
0:0:51.788,82.4611,10.5007,0,0.000885,0,0
0:0:51.890,82.7547,10.5352,0,0.000885,0,0
0:0:51.990,83.2841,10.6041,0,0.000885,0,0
0:0:52.088,83.2841,10.6041,0,0.000885,0,0
0:0:52.195,83.3419,10.611,0,0.000885,0,0
0:0:52.294,83.2262,10.5972,0,0.000885,0,0
0:0:52.395,83.929,10.6869,0,0.000885,0,0
0:0:52.495,83.929,10.6869,0,0.000885,0,0
0:0:52.593,84.0447,10.7007,0,0.000885,0,0
0:0:52.691,84.0447,10.7007,0,0.000885,0,0
0:0:52.789,84.574,10.7696,0,0.000885,0,0
0:0:52.891,84.574,10.7696,0,0.000885,0,0
0:0:52.991,84.574,10.7696,0,0.000885,0,0
0:0:53.092,85.3347,10.8661,0,0.000885,0,0
0:0:53.193,85.6283,10.9006,0,0.000885,0,0
0:0:53.296,85.6283,10.9006,0,0.000885,0,0
0:0:53.397,85.5126,10.8868,0,0.000885,0,0
0:0:53.498,85.8062,10.9282,0,0.000885,0,0
0:0:53.599,86.3355,10.9902,0,0.000885,0,0
0:0:53.701,86.3355,10.9902,0,0.000885,0,0
0:0:53.801,86.0998,10.9627,0,0.000885,0,0
0:0:53.901,86.5668,11.0247,0,0.000885,0,0
0:0:54.003,86.7448,11.0454,0,0.000885,0,0
0:0:54.103,86.7448,11.0454,0,0.000885,0,0
0:0:54.204,86.8604,11.0592,0,0.000885,0,0
0:0:54.304,87.4476,11.135,0,0.000885,0,0
0:0:54.406,87.3898,11.1281,0,0.000885,0,0
0:0:54.507,87.3898,11.1281,0,0.000885,0,0
0:0:54.607,88.1504,11.2247,0,0.000885,0,0
0:0:54.704,88.2705,11.2385,0,0.000885,0,0
0:0:54.802,88.2705,11.2385,0,0.000885,0,0
0:0:54.902,88.5641,11.2729,0,0.000885,0,0
0:0:55.004,88.9155,11.3212,0,0.000885,0,0
0:0:55.104,89.3247,11.3763,0,0.000885,0,0
0:0:55.202,89.3247,11.3763,0,0.000885,0,0
0:0:55.300,89.2091,11.3557,0,0.000885,0,0
0:0:55.401,89.734,11.4246,0,0.000885,0,0
0:0:55.503,89.9119,11.4453,0,0.000885,0,0
0:0:55.602,89.9119,11.4453,0,0.000885,0,0
0:0:55.700,89.9697,11.4522,0,0.000885,0,0
0:0:55.797,90.2055,11.4867,0,0.000885,0,0
0:0:55.898,90.8505,11.5694,0,0.000885,0,0
0:0:55.999,90.8505,11.5694,0,0.000885,0,0
0:0:56.099,90.7304,11.5556,0,0.000885,0,0
0:0:56.197,91.1441,11.6039,0,0.000885,0,0
0:0:56.294,91.1441,11.6039,0,0.000885,0,0
0:0:56.394,91.4376,11.6452,0,0.000885,0,0
0:0:56.495,91.2597,11.6177,0,0.000885,0,0
0:0:56.596,92.0248,11.7142,0,0.000885,0,0
0:0:56.693,92.0248,11.7142,0,0.000885,0,0
0:0:56.789,92.0248,11.7142,0,0.000885,0,0
0:0:56.889,92.6075,11.79,0,0.000885,0,0
0:0:56.991,93.0212,11.8452,0,0.000885,0,0
0:0:57.091,93.0212,11.8452,0,0.000885,0,0
0:0:57.190,93.3726,11.8866,0,0.000885,0,0
0:0:57.289,93.5461,11.9141,0,0.000885,0,0
0:0:57.388,93.7819,11.9417,0,0.000885,0,0
0:0:57.490,93.7819,11.9417,0,0.000885,0,0
0:0:57.590,93.4883,11.9004,0,0.000885,0,0
0:0:57.691,94.0754,11.9762,0,0.000885,0,0
0:0:57.792,94.2534,12.0038,0,0.000885,0,0
0:0:57.895,94.2534,12.0038,0,0.000885,0,0
0:0:57.995,94.5425,12.0382,0,0.000885,0,0
0:0:58.097,94.6626,12.052,0,0.000885,0,0
0:0:58.198,94.4847,12.0314,0,0.000885,0,0
0:0:58.299,94.4847,12.0314,0,0.000885,0,0
0:0:58.399,95.3654,12.1417,0,0.000885,0,0
0:0:58.500,95.3654,12.1417,0,0.000885,0,0
0:0:58.601,95.9526,12.2175,0,0.000885,0,0
0:0:58.700,95.9526,12.2175,0,0.000885,0,0
0:0:58.801,96.3618,12.2727,0,0.000885,0,0
0:0:58.902,96.1261,12.2382,0,0.000885,0,0
0:0:59.003,96.4819,12.2865,0,0.000885,0,0
0:0:59.104,96.4819,12.2865,0,0.000885,0,0
0:0:59.203,96.7132,12.314,0,0.000885,0,0
0:0:59.299,97.4783,12.4106,0,0.000885,0,0
0:0:59.399,97.4783,12.4106,0,0.000885,0,0
0:0:59.499,97.7096,12.4381,0,0.000885,0,0
0:0:59.601,97.5362,12.4175,0,0.000885,0,0
0:0:59.701,98.4169,12.5278,0,0.000885,0,0
0:0:59.798,98.4169,12.5278,0,0.000885,0,0
0:0:59.895,98.3546,12.5209,0,0.000885,0,0
0:0:59.996,99.1197,12.6174,0,0.000885,0,0
0:1:0.097,98.7105,12.5691,0,0.000885,0,0
0:1:0.197,98.7105,12.5691,0,0.000885,0,0
0:1:0.294,99.8225,12.707,0,0.000885,0,0
0:1:0.392,99.6491,12.6864,0,0.000885,0,0
0:1:0.493,100.174,12.7553,0,0.000885,0,0
0:1:0.593,100.174,12.7553,0,0.000885,0,0
0:1:0.694,100.41,12.7829,0,0.000885,0,0
0:1:0.792,100.703,12.8242,0,0.000885,0,0
0:1:0.888,100.703,12.8242,0,0.000885,0,0
0:1:0.989,100.877,12.8449,0,0.000885,0,0
0:1:1.091,100.819,12.838,0,0.000885,0,0
0:1:1.191,101.464,12.9208,0,0.000885,0,0
0:1:1.289,101.464,12.9208,0,0.000885,0,0
0:1:1.396,101.522,12.9277,0,0.000885,0,0
0:1:1.497,101.584,12.9346,0,0.000885,0,0
0:1:1.596,101.584,12.9346,0,0.000885,0,0
0:1:1.697,101.584,12.9346,0,0.000885,0,0
0:1:1.796,101.993,12.9828,0,0.000885,0,0
0:1:1.894,102.58,13.0587,0,0.000885,0,0
0:1:1.994,102.696,13.0725,0,0.000885,0,0
0:1:2.095,102.696,13.0725,0,0.000885,0,0
0:1:2.196,102.874,13.1,0,0.000885,0,0
0:1:2.294,102.99,13.1138,0,0.000885,0,0
0:1:2.391,103.105,13.1276,0,0.000885,0,0
0:1:2.490,103.105,13.1276,0,0.000885,0,0
0:1:2.591,103.577,13.1897,0,0.000885,0,0
0:1:2.692,103.399,13.1621,0,0.000885,0,0
0:1:2.792,103.87,13.2241,0,0.000885,0,0
0:1:2.893,103.87,13.2241,0,0.000885,0,0
0:1:2.994,104.106,13.2517,0,0.000885,0,0
0:1:3.096,104.458,13.3,0,0.000885,0,0
0:1:3.197,104.573,13.3138,0,0.000885,0,0
0:1:3.299,104.573,13.3138,0,0.000885,0,0
0:1:3.399,105.103,13.3827,0,0.000885,0,0
0:1:3.499,104.867,13.3551,0,0.000885,0,0
0:1:3.600,105.512,13.431,0,0.000885,0,0
0:1:3.702,105.512,13.431,0,0.000885,0,0
0:1:3.802,105.805,13.4724,0,0.000885,0,0
0:1:3.903,105.57,13.4448,0,0.000885,0,0
0:1:4.002,106.157,13.5137,0,0.000885,0,0
0:1:4.104,106.157,13.5137,0,0.000885,0,0
0:1:4.205,106.744,13.5896,0,0.000885,0,0
0:1:4.306,107.153,13.6447,0,0.000885,0,0
0:1:4.403,107.153,13.6447,0,0.000885,0,0
0:1:4.502,107.389,13.6723,0,0.000885,0,0
0:1:4.602,107.153,13.6447,0,0.000885,0,0
0:1:4.703,107.798,13.7275,0,0.000885,0,0
0:1:4.804,107.798,13.7275,0,0.000885,0,0
0:1:4.901,108.092,13.7619,0,0.000885,0,0
0:1:5.000,108.621,13.8309,0,0.000885,0,0
0:1:5.101,108.505,13.8171,0,0.000885,0,0
0:1:5.201,108.505,13.8171,0,0.000885,0,0
0:1:5.302,109.088,13.8929,0,0.000885,0,0
0:1:5.399,109.853,13.9895,0,0.000885,0,0
0:1:5.497,109.444,13.9343,0,0.000885,0,0
0:1:5.596,109.444,13.9343,0,0.000885,0,0
0:1:5.698,109.795,13.9826,0,0.000885,0,0
0:1:5.798,110.378,14.0515,0,0.000885,0,0
0:1:5.896,110.263,14.0377,0,0.000885,0,0
0:1:5.994,110.263,14.0377,0,0.000885,0,0
0:1:6.094,111.143,14.148,0,0.000885,0,0
0:1:6.195,111.379,14.1825,0,0.000885,0,0
0:1:6.296,111.379,14.1825,0,0.000885,0,0
0:1:6.394,111.201,14.1618,0,0.000885,0,0
0:1:6.491,111.553,14.2032,0,0.000885,0,0
0:1:6.589,111.495,14.1963,0,0.000885,0,0
0:1:6.691,111.495,14.1963,0,0.000885,0,0
0:1:6.792,112.433,14.3135,0,0.000885,0,0
0:1:6.892,112.375,14.3066,0,0.000885,0,0
0:1:6.989,112.491,14.3204,0,0.000885,0,0
0:1:7.096,112.491,14.3204,0,0.000885,0,0
0:1:7.198,113.194,14.41,0,0.000885,0,0
0:1:7.299,113.256,14.4169,0,0.000885,0,0
0:1:7.399,114.017,14.5204,0,0.000885,0,0
0:1:7.496,114.017,14.5204,0,0.000885,0,0
0:1:7.593,113.901,14.4997,0,0.000885,0,0
0:1:7.693,114.253,14.5479,0,0.000885,0,0
0:1:7.795,114.132,14.5341,0,0.000885,0,0
0:1:7.895,114.132,14.5341,0,0.000885,0,0
0:1:7.997,114.484,14.5755,0,0.000885,0,0
0:1:8.097,114.84,14.6238,0,0.000885,0,0
0:1:8.200,115.071,14.6514,0,0.000885,0,0
0:1:8.300,115.071,14.6514,0,0.000885,0,0
0:1:8.403,115.543,14.7134,0,0.000885,0,0
0:1:8.503,115.365,14.6858,0,0.000885,0,0
0:1:8.605,115.894,14.7548,0,0.000885,0,0
0:1:8.704,115.894,14.7548,0,0.000885,0,0
0:1:8.805,116.303,14.8099,0,0.000885,0,0
0:1:8.906,116.188,14.7961,0,0.000885,0,0
0:1:9.007,116.948,14.8927,0,0.000885,0,0
0:1:9.107,116.948,14.8927,0,0.000885,0,0
0:1:9.209,117.242,14.9271,0,0.000885,0,0
0:1:9.309,117.242,14.9271,0,0.000885,0,0
0:1:9.410,117.3,14.934,0,0.000885,0,0
0:1:9.509,117.3,14.934,0,0.000885,0,0
0:1:9.607,117.713,14.9892,0,0.000885,0,0
0:1:9.705,118.007,15.0237,0,0.000885,0,0
0:1:9.807,118.007,15.0237,0,0.000885,0,0
0:1:9.907,118.007,15.0237,0,0.000885,0,0
0:1:10.006,118.296,15.065,0,0.000885,0,0
0:1:10.105,118.71,15.1133,0,0.000885,0,0
0:1:10.203,118.71,15.1133,0,0.000885,0,0
0:1:10.304,118.71,15.1133,0,0.000885,0,0
0:1:10.405,118.768,15.1202,0,0.000885,0,0
0:1:10.504,119.235,15.1823,0,0.000885,0,0
0:1:10.602,119.235,15.1823,0,0.000885,0,0
0:1:10.700,119.355,15.196,0,0.000885,0,0
0:1:10.802,119.47,15.2098,0,0.000885,0,0
0:1:10.903,119.822,15.2581,0,0.000885,0,0
0:1:11.001,119.822,15.2581,0,0.000885,0,0
0:1:11.101,120.173,15.2995,0,0.000885,0,0
0:1:11.199,120.587,15.3546,0,0.000885,0,0
0:1:11.299,120.587,15.3546,0,0.000885,0,0
0:1:11.401,121.054,15.4098,0,0.000885,0,0
0:1:11.500,120.818,15.3822,0,0.000885,0,0
0:1:11.598,121.232,15.4374,0,0.000885,0,0
0:1:11.696,121.232,15.4374,0,0.000885,0,0
0:1:11.798,121.463,15.4649,0,0.000885,0,0
0:1:11.900,121.699,15.4925,0,0.000885,0,0
0:1:11.998,121.992,15.5339,0,0.000885,0,0
0:1:12.096,121.992,15.5339,0,0.000885,0,0
0:1:12.195,121.992,15.5339,0,0.000885,0,0
0:1:12.296,122.815,15.6373,0,0.000885,0,0
0:1:12.397,122.637,15.6166,0,0.000885,0,0
0:1:12.497,122.637,15.6166,0,0.000885,0,0
0:1:12.595,123.225,15.6925,0,0.000885,0,0
0:1:12.692,123.34,15.7063,0,0.000885,0,0
0:1:12.792,123.34,15.7063,0,0.000885,0,0
0:1:12.894,123.754,15.7545,0,0.000885,0,0
0:1:12.994,124.221,15.8166,0,0.000885,0,0
0:1:13.096,124.163,15.8097,0,0.000885,0,0
0:1:13.196,124.163,15.8097,0,0.000885,0,0
0:1:13.297,125.16,15.9338,0,0.000885,0,0
0:1:13.398,124.924,15.9062,0,0.000885,0,0
0:1:13.501,125.805,16.0165,0,0.000885,0,0
0:1:13.601,125.805,16.0165,0,0.000885,0,0
0:1:13.703,125.925,16.0303,0,0.000885,0,0
0:1:13.802,126.507,16.1062,0,0.000885,0,0
0:1:13.904,126.156,16.0648,0,0.000885,0,0
0:1:14.004,126.156,16.0648,0,0.000885,0,0
0:1:14.104,126.507,16.1062,0,0.000885,0,0
0:1:14.205,126.921,16.1613,0,0.000885,0,0
0:1:14.305,126.921,16.1613,0,0.000885,0,0
0:1:14.404,126.921,16.1613,0,0.000885,0,0
0:1:14.505,127.152,16.1889,0,0.000885,0,0
0:1:14.606,127.508,16.2372,0,0.000885,0,0
0:1:14.704,127.273,16.2027,0,0.000885,0,0
0:1:14.803,127.273,16.2027,0,0.000885,0,0
0:1:14.904,127.74,16.2647,0,0.000885,0,0
0:1:15.006,128.269,16.3337,0,0.000885,0,0
0:1:15.103,128.442,16.3544,0,0.000885,0,0
0:1:15.201,128.442,16.3544,0,0.000885,0,0
0:1:15.301,128.856,16.4095,0,0.000885,0,0
0:1:15.402,128.62,16.375,0,0.000885,0,0
0:1:15.503,128.972,16.4233,0,0.000885,0,0
0:1:15.602,128.972,16.4233,0,0.000885,0,0
0:1:15.700,129.092,16.4371,0,0.000885,0,0
0:1:15.798,129.501,16.4854,0,0.000885,0,0
0:1:15.899,129.501,16.4854,0,0.000885,0,0
0:1:16.000,129.617,16.506,0,0.000885,0,0
0:1:16.100,130.146,16.5681,0,0.000885,0,0
0:1:16.198,130.088,16.5612,0,0.000885,0,0
0:1:16.295,130.088,16.5612,0,0.000885,0,0
0:1:16.397,130.44,16.6095,0,0.000885,0,0
0:1:16.497,130.497,16.6164,0,0.000885,0,0
0:1:16.598,131.027,16.6853,0,0.000885,0,0
0:1:16.696,131.027,16.6853,0,0.000885,0,0
0:1:16.792,131.027,16.6853,0,0.000885,0,0
0:1:16.893,131.378,16.7267,0,0.000885,0,0
0:1:16.995,132.081,16.8163,0,0.000885,0,0
0:1:17.094,132.081,16.8163,0,0.000885,0,0
0:1:17.192,131.61,16.7543,0,0.000885,0,0
0:1:17.289,132.904,16.9197,0,0.000885,0,0
0:1:17.390,132.668,16.8922,0,0.000885,0,0
0:1:17.492,132.668,16.8922,0,0.000885,0,0
0:1:17.592,132.904,16.9197,0,0.000885,0,0
0:1:17.693,133.665,17.0163,0,0.000885,0,0
0:1:17.793,133.665,17.0163,0,0.000885,0,0
0:1:17.896,133.665,17.0163,0,0.000885,0,0
0:1:17.996,133.958,17.0576,0,0.000885,0,0
0:1:18.099,134.252,17.0921,0,0.000885,0,0
0:1:18.199,134.194,17.0852,0,0.000885,0,0
0:1:18.301,134.194,17.0852,0,0.000885,0,0
0:1:18.401,134.661,17.1473,0,0.000885,0,0
0:1:18.503,134.603,17.1404,0,0.000885,0,0
0:1:18.604,134.603,17.1404,0,0.000885,0,0
0:1:18.704,135.133,17.2024,0,0.000885,0,0
0:1:18.803,135.835,17.2921,0,0.000885,0,0
0:1:18.904,135.6,17.2645,0,0.000885,0,0
0:1:19.005,135.6,17.2645,0,0.000885,0,0
0:1:19.106,136.009,17.3196,0,0.000885,0,0
0:1:19.206,136.423,17.3679,0,0.000885,0,0
0:1:19.303,136.009,17.3196,0,0.000885,0,0
0:1:19.403,136.009,17.3196,0,0.000885,0,0
0:1:19.504,136.716,17.4093,0,0.000885,0,0
0:1:19.604,137.183,17.4644,0,0.000885,0,0
0:1:19.703,136.947,17.4368,0,0.000885,0,0
0:1:19.801,136.947,17.4368,0,0.000885,0,0
0:1:19.900,137.419,17.4989,0,0.000885,0,0
0:1:20.002,138.122,17.5885,0,0.000885,0,0
0:1:20.103,138.237,17.6023,0,0.000885,0,0
0:1:20.201,138.237,17.6023,0,0.000885,0,0
0:1:20.299,138.064,17.5816,0,0.000885,0,0
0:1:20.398,138.531,17.6368,0,0.000885,0,0
0:1:20.500,138.531,17.6368,0,0.000885,0,0
0:1:20.600,139.412,17.7471,0,0.000885,0,0
0:1:20.698,139.59,17.7747,0,0.000885,0,0
0:1:20.797,139.238,17.7264,0,0.000885,0,0
0:1:20.895,139.238,17.7264,0,0.000885,0,0
0:1:20.996,140.35,17.8712,0,0.000885,0,0
0:1:21.098,140.466,17.885,0,0.000885,0,0
0:1:21.196,140.057,17.8298,0,0.000885,0,0
0:1:21.294,140.057,17.8298,0,0.000885,0,0
0:1:21.394,140.644,17.9057,0,0.000885,0,0
0:1:21.493,141.111,17.9677,0,0.000885,0,0
0:1:21.594,141.053,17.9608,0,0.000885,0,0
0:1:21.693,141.053,17.9608,0,0.000885,0,0
0:1:21.792,141.525,18.016,0,0.000885,0,0
0:1:21.891,141.876,18.0643,0,0.000885,0,0
0:1:21.992,141.876,18.0643,0,0.000885,0,0
0:1:22.092,141.876,18.0643,0,0.000885,0,0
0:1:22.191,141.876,18.0643,0,0.000885,0,0
0:1:22.289,142.463,18.1401,0,0.000885,0,0
0:1:22.385,142.463,18.1401,0,0.000885,0,0
0:1:22.490,142.815,18.1815,0,0.000885,0,0
0:1:22.590,142.637,18.1608,0,0.000885,0,0
0:1:22.690,142.815,18.1815,0,0.000885,0,0
0:1:22.791,142.815,18.1815,0,0.000885,0,0
0:1:22.894,143.344,18.2504,0,0.000885,0,0
0:1:22.994,144.105,18.3469,0,0.000885,0,0
0:1:23.097,144.456,18.3952,0,0.000885,0,0
0:1:23.198,144.456,18.3952,0,0.000885,0,0
0:1:23.299,144.047,18.3401,0,0.000885,0,0
0:1:23.398,144.22,18.3607,0,0.000885,0,0
0:1:23.500,144.807,18.4366,0,0.000885,0,0
0:1:23.600,144.807,18.4366,0,0.000885,0,0
0:1:23.702,145.337,18.5055,0,0.000885,0,0
0:1:23.802,145.51,18.5262,0,0.000885,0,0
0:1:23.903,145.395,18.5124,0,0.000885,0,0
0:1:24.003,145.395,18.5124,0,0.000885,0,0
0:1:24.104,145.982,18.5883,0,0.000885,0,0
0:1:24.206,146.685,18.6779,0,0.000885,0,0
0:1:24.304,146.627,18.671,0,0.000885,0,0
0:1:24.401,146.627,18.671,0,0.000885,0,0
0:1:24.503,146.742,18.6848,0,0.000885,0,0
0:1:24.603,147.623,18.7951,0,0.000885,0,0
0:1:24.702,147.507,18.7813,0,0.000885,0,0
0:1:24.800,147.507,18.7813,0,0.000885,0,0
0:1:24.897,147.387,18.7675,0,0.000885,0,0
0:1:24.997,148.326,18.8847,0,0.000885,0,0
0:1:25.099,148.504,18.9054,0,0.000885,0,0
0:1:25.200,148.504,18.9054,0,0.000885,0,0
0:1:25.299,148.62,18.9261,0,0.000885,0,0
0:1:25.396,149.149,18.9882,0,0.000885,0,0
0:1:25.496,148.855,18.9537,0,0.000885,0,0
0:1:25.597,148.855,18.9537,0,0.000885,0,0
0:1:25.697,149.852,19.0778,0,0.000885,0,0
0:1:25.795,149.442,19.0295,0,0.000885,0,0
0:1:25.892,149.442,19.0295,0,0.000885,0,0
0:1:25.992,149.736,19.064,0,0.000885,0,0
0:1:26.093,150.145,19.1192,0,0.000885,0,0
0:1:26.195,150.203,19.1261,0,0.000885,0,0
0:1:26.293,150.203,19.1261,0,0.000885,0,0
0:1:26.390,150.79,19.2019,0,0.000885,0,0
0:1:26.490,150.675,19.1812,0,0.000885,0,0
0:1:26.591,151.435,19.2846,0,0.000885,0,0
0:1:26.691,151.435,19.2846,0,0.000885,0,0
0:1:26.789,151.142,19.2433,0,0.000885,0,0
0:1:26.884,151.787,19.326,0,0.000885,0,0
0:1:26.983,151.551,19.2984,0,0.000885,0,0
0:1:27.084,151.551,19.2984,0,0.000885,0,0
0:1:27.185,152.432,19.4087,0,0.000885,0,0
0:1:27.284,152.022,19.3536,0,0.000885,0,0
0:1:27.382,152.022,19.3536,0,0.000885,0,0
0:1:27.481,152.783,19.4501,0,0.000885,0,0
0:1:27.581,152.552,19.4225,0,0.000885,0,0
0:1:27.683,153.134,19.4984,0,0.000885,0,0
0:1:27.782,153.134,19.4984,0,0.000885,0,0
0:1:27.884,152.961,19.4777,0,0.000885,0,0
0:1:27.985,153.255,19.5122,0,0.000885,0,0
0:1:28.090,153.312,19.5191,0,0.000885,0,0
0:1:28.190,153.312,19.5191,0,0.000885,0,0
0:1:28.292,153.842,19.588,0,0.000885,0,0
0:1:28.393,154.429,19.6638,0,0.000885,0,0
0:1:28.493,154.135,19.6225,0,0.000885,0,0
0:1:28.593,154.135,19.6225,0,0.000885,0,0
0:1:28.695,155.012,19.7397,0,0.000885,0,0
0:1:28.795,154.896,19.719,0,0.000885,0,0
0:1:28.896,154.718,19.6983,0,0.000885,0,0
0:1:28.995,154.718,19.6983,0,0.000885,0,0
0:1:29.096,155.541,19.8017,0,0.000885,0,0
0:1:29.198,155.599,19.8086,0,0.000885,0,0
0:1:29.298,155.483,19.7948,0,0.000885,0,0
0:1:29.396,155.483,19.7948,0,0.000885,0,0
0:1:29.493,155.777,19.8362,0,0.000885,0,0
0:1:29.594,156.012,19.8638,0,0.000885,0,0
0:1:29.695,156.364,19.9121,0,0.000885,0,0
0:1:29.796,156.364,19.9121,0,0.000885,0,0
0:1:29.893,156.302,19.8983,0,0.000885,0,0
0:1:29.989,156.244,19.8914,0,0.000885,0,0
0:1:30.086,156.244,19.8914,0,0.000885,0,0
0:1:30.191,156.48,19.9258,0,0.000885,0,0
0:1:30.292,156.657,19.9465,0,0.000885,0,0
0:1:30.391,157.36,20.0362,0,0.000885,0,0
0:1:30.486,157.36,20.0362,0,0.000885,0,0
0:1:30.585,158.179,20.1396,0,0.000885,0,0
0:1:30.690,158.472,20.1741,0,0.000885,0,0
0:1:30.790,158.415,20.1672,0,0.000885,0,0
0:1:30.897,158.415,20.1672,0,0.000885,0,0
0:1:30.994,158.472,20.1741,0,0.000885,0,0
0:1:31.094,158.65,20.2016,0,0.000885,0,0
0:1:31.194,158.415,20.1672,0,0.000885,0,0
0:1:31.295,158.415,20.1672,0,0.000885,0,0
0:1:31.394,158.592,20.1947,0,0.000885,0,0
0:1:31.492,159.237,20.2775,0,0.000885,0,0
0:1:31.591,159.411,20.2982,0,0.000885,0,0
0:1:31.692,159.411,20.2982,0,0.000885,0,0
0:1:31.793,159.589,20.3188,0,0.000885,0,0
0:1:31.892,159.705,20.3326,0,0.000885,0,0
0:1:31.990,160.056,20.3809,0,0.000885,0,0
0:1:32.085,160.056,20.3809,0,0.000885,0,0
0:1:32.190,160.234,20.4016,0,0.000885,0,0
0:1:32.291,160.821,20.4774,0,0.000885,0,0
0:1:32.392,160.821,20.4774,0,0.000885,0,0
0:1:32.499,159.998,20.374,0,0.000885,0,0
0:1:32.596,160.114,20.3878,0,0.000885,0,0
0:1:32.696,160.47,20.4292,0,0.000885,0,0
0:1:32.798,160.47,20.4292,0,0.000885,0,0
0:1:32.898,160.47,20.4292,0,0.000885,0,0
0:1:32.999,160.349,20.4154,0,0.000885,0,0
0:1:33.099,159.882,20.3533,0,0.000885,0,0
0:1:33.202,159.882,20.3533,0,0.000885,0,0
0:1:33.303,159.762,20.3395,0,0.000885,0,0
0:1:33.404,159.94,20.3671,0,0.000885,0,0
0:1:33.505,159.589,20.3188,0,0.000885,0,0
0:1:33.606,159.589,20.3188,0,0.000885,0,0
0:1:33.705,158.824,20.2223,0,0.000885,0,0
0:1:33.806,158.005,20.1189,0,0.000885,0,0
0:1:33.906,157.302,20.0293,0,0.000885,0,0
0:1:34.007,157.302,20.0293,0,0.000885,0,0
0:1:34.108,156.422,19.919,0,0.000885,0,0
0:1:34.207,155.363,19.7811,0,0.000885,0,0
0:1:34.308,155.363,19.7811,0,0.000885,0,0
0:1:34.408,155.363,19.7811,0,0.000885,0,0
0:1:34.506,155.19,19.7604,0,0.000885,0,0
0:1:34.605,155.074,19.7466,0,0.000885,0,0
0:1:34.704,155.483,19.7948,0,0.000885,0,0
0:1:34.804,155.483,19.7948,0,0.000885,0,0
0:1:34.905,155.657,19.8224,0,0.000885,0,0
0:1:35.003,156.364,19.9121,0,0.000885,0,0
0:1:35.101,156.364,19.9121,0,0.000885,0,0
0:1:35.200,157.125,20.0086,0,0.000885,0,0
0:1:35.301,157.712,20.0775,0,0.000885,0,0
0:1:35.402,158.063,20.1258,0,0.000885,0,0
0:1:35.499,158.063,20.1258,0,0.000885,0,0
0:1:35.598,158.65,20.2016,0,0.000885,0,0
0:1:35.696,159.117,20.2568,0,0.000885,0,0
0:1:35.798,159.469,20.3051,0,0.000885,0,0
0:1:35.898,159.469,20.3051,0,0.000885,0,0
0:1:35.997,159.825,20.3464,0,0.000885,0,0
0:1:36.094,159.531,20.312,0,0.000885,0,0
0:1:36.191,159.237,20.2775,0,0.000885,0,0
0:1:36.292,159.237,20.2775,0,0.000885,0,0
0:1:36.394,158.472,20.1741,0,0.000885,0,0
0:1:36.493,157.596,20.0637,0,0.000885,0,0
0:1:36.590,156.773,19.9603,0,0.000885,0,0
0:1:36.685,156.773,19.9603,0,0.000885,0,0
0:1:36.785,155.95,19.8569,0,0.000885,0,0
0:1:36.890,155.19,19.7604,0,0.000885,0,0
0:1:36.990,155.19,19.7604,0,0.000885,0,0
0:1:37.097,154.545,19.6776,0,0.000885,0,0
0:1:37.193,154.367,19.657,0,0.000885,0,0
0:1:37.293,153.957,19.6018,0,0.000885,0,0
0:1:37.394,153.957,19.6018,0,0.000885,0,0
0:1:37.494,153.722,19.5742,0,0.000885,0,0
0:1:37.592,153.664,19.5673,0,0.000885,0,0
0:1:37.690,153.722,19.5742,0,0.000885,0,0
0:1:37.790,153.722,19.5742,0,0.000885,0,0
0:1:37.891,153.312,19.5191,0,0.000885,0,0
0:1:37.992,153.842,19.588,0,0.000885,0,0
0:1:38.092,154.193,19.6294,0,0.000885,0,0
0:1:38.194,154.193,19.6294,0,0.000885,0,0
0:1:38.295,154.718,19.6983,0,0.000885,0,0
0:1:38.396,155.19,19.7604,0,0.000885,0,0
0:1:38.497,155.657,19.8224,0,0.000885,0,0
0:1:38.599,155.657,19.8224,0,0.000885,0,0
0:1:38.700,156.07,19.8707,0,0.000885,0,0
0:1:38.800,156.537,19.9327,0,0.000885,0,0
0:1:38.901,156.595,19.9396,0,0.000885,0,0
0:1:39.002,156.595,19.9396,0,0.000885,0,0
0:1:39.101,156.773,19.9603,0,0.000885,0,0
0:1:39.202,157.182,20.0155,0,0.000885,0,0
0:1:39.302,157.125,20.0086,0,0.000885,0,0
0:1:39.403,157.125,20.0086,0,0.000885,0,0
0:1:39.504,156.831,19.9672,0,0.000885,0,0
0:1:39.603,156.244,19.8914,0,0.000885,0,0
0:1:39.701,156.244,19.8914,0,0.000885,0,0
0:1:39.798,156.364,19.9121,0,0.000885,0,0
0:1:39.898,156.422,19.919,0,0.000885,0,0
0:1:39.999,155.657,19.8224,0,0.000885,0,0
0:1:40.100,155.657,19.8224,0,0.000885,0,0
0:1:40.199,155.247,19.7673,0,0.000885,0,0
0:1:40.296,155.19,19.7604,0,0.000885,0,0
0:1:40.396,155.599,19.8086,0,0.000885,0,0
0:1:40.496,155.599,19.8086,0,0.000885,0,0
0:1:40.597,156.012,19.8638,0,0.000885,0,0
0:1:40.694,156.364,19.9121,0,0.000885,0,0
0:1:40.792,156.48,19.9258,0,0.000885,0,0
0:1:40.891,156.48,19.9258,0,0.000885,0,0
0:1:40.990,156.537,19.9327,0,0.000885,0,0
0:1:41.092,156.422,19.919,0,0.000885,0,0
0:1:41.192,157.009,19.9879,0,0.000885,0,0
0:1:41.286,157.009,19.9879,0,0.000885,0,0
0:1:41.384,156.773,19.9603,0,0.000885,0,0
0:1:41.485,156.715,19.9534,0,0.000885,0,0
0:1:41.586,156.715,19.9534,0,0.000885,0,0
0:1:41.684,156.715,19.9534,0,0.000885,0,0
0:1:41.782,156.715,19.9534,0,0.000885,0,0
0:1:41.879,156.773,19.9603,0,0.000885,0,0
0:1:41.980,156.773,19.9603,0,0.000885,0,0
0:1:42.081,156.128,19.8776,0,0.000885,0,0
0:1:42.181,156.244,19.8914,0,0.000885,0,0
0:1:42.280,156.07,19.8707,0,0.000885,0,0
0:1:42.377,156.07,19.8707,0,0.000885,0,0
0:1:42.478,155.657,19.8224,0,0.000885,0,0
0:1:42.579,155.541,19.8017,0,0.000885,0,0
0:1:42.679,154.954,19.7328,0,0.000885,0,0
0:1:42.781,154.954,19.7328,0,0.000885,0,0
0:1:42.882,154.66,19.6914,0,0.000885,0,0
0:1:42.983,154.545,19.6776,0,0.000885,0,0
0:1:43.084,154.545,19.6776,0,0.000885,0,0
0:1:43.186,154.545,19.6776,0,0.000885,0,0
0:1:43.286,154.193,19.6294,0,0.000885,0,0
0:1:43.390,153.779,19.5811,0,0.000885,0,0
0:1:43.490,153.779,19.5811,0,0.000885,0,0
0:1:43.590,153.312,19.5191,0,0.000885,0,0
0:1:43.690,152.783,19.4501,0,0.000885,0,0
0:1:43.792,151.965,19.3467,0,0.000885,0,0
0:1:43.892,151.965,19.3467,0,0.000885,0,0
0:1:43.992,150.848,19.2088,0,0.000885,0,0
0:1:44.094,150.203,19.1261,0,0.000885,0,0
0:1:44.193,149.736,19.064,0,0.000885,0,0
0:1:44.292,149.736,19.064,0,0.000885,0,0
0:1:44.387,149.091,18.9813,0,0.000885,0,0
0:1:44.487,148.446,18.8985,0,0.000885,0,0
0:1:44.587,147.975,18.8434,0,0.000885,0,0
0:1:44.687,147.975,18.8434,0,0.000885,0,0
0:1:44.797,147.445,18.7744,0,0.000885,0,0
0:1:44.894,146.92,18.7055,0,0.000885,0,0
0:1:44.994,146.217,18.6158,0,0.000885,0,0
0:1:45.094,146.217,18.6158,0,0.000885,0,0
0:1:45.196,145.395,18.5124,0,0.000885,0,0
0:1:45.294,144.634,18.4159,0,0.000885,0,0
0:1:45.391,143.753,18.3056,0,0.000885,0,0
0:1:45.487,143.753,18.3056,0,0.000885,0,0
0:1:45.588,142.815,18.1815,0,0.000885,0,0
0:1:45.691,141.582,18.0298,0,0.000885,0,0
0:1:45.790,139.821,17.8023,0,0.000885,0,0
0:1:45.897,139.821,17.8023,0,0.000885,0,0
0:1:45.994,138.473,17.6299,0,0.000885,0,0
0:1:46.094,137.125,17.4575,0,0.000885,0,0
0:1:46.195,137.125,17.4575,0,0.000885,0,0
0:1:46.296,135.893,17.3058,0,0.000885,0,0
0:1:46.393,134.839,17.1679,0,0.000885,0,0
0:1:46.500,133.78,17.0369,0,0.000885,0,0
0:1:46.600,133.78,17.0369,0,0.000885,0,0
0:1:46.701,132.61,16.8853,0,0.000885,0,0
0:1:46.801,131.142,16.6991,0,0.000885,0,0
0:1:46.899,129.617,16.506,0,0.000885,0,0
0:1:46.996,129.617,16.506,0,0.000885,0,0
0:1:47.096,128.505,16.3613,0,0.000885,0,0
0:1:47.196,127.215,16.1958,0,0.000885,0,0
0:1:47.297,125.925,16.0303,0,0.000885,0,0
0:1:47.395,125.925,16.0303,0,0.000885,0,0
0:1:47.493,124.866,15.8993,0,0.000885,0,0
0:1:47.592,123.403,15.7132,0,0.000885,0,0
0:1:47.693,122.05,15.5408,0,0.000885,0,0
0:1:47.794,122.05,15.5408,0,0.000885,0,0
0:1:47.895,120.525,15.3477,0,0.000885,0,0
0:1:47.995,118.065,15.0306,0,0.000885,0,0
0:1:48.098,115.365,14.6858,0,0.000885,0,0
0:1:48.199,115.365,14.6858,0,0.000885,0,0
0:1:48.301,113.372,14.4376,0,0.000885,0,0
0:1:48.349,113.372,14.4376,0,0.000885,0,0