File: DataFile2021-06-29_054815.csv
Test ID:,Date Tested:,Time:,Test Type:,Diameter Avg. (mm):,Cyl. Corr. Factor:,Height (mm):,Age (days):,Weight (kN):,Break Type:,Ramp Rate (MPa/s):,Load at Break (kN):,Stress at Break (MPa):
12,6/29/2021,05:48,Cylinder,100,1,200,0,3.6,3,0.22,223.63,28.48
Sample Time,Load (kN),Stress (MPa),Long. Strain,Trans. Strain,Chan1 Deflection (mm),Chan2 Deflection (mm)
0:0:20.703,8.26924,1.0549,0,0.000885,0,0
0:0:20.802,11.6143,1.47548,0,0.000885,0,0
0:0:20.900,13.8429,1.76506,0,0.000885,0,0
0:0:21.007,13.8429,1.76506,0,0.000885,0,0
0:0:21.106,14.1943,1.80643,0,0.000885,0,0
0:0:21.206,14.0742,1.79264,0,0.000885,0,0
0:0:21.307,14.0163,1.78574,0,0.000885,0,0
0:0:21.416,14.0163,1.78574,0,0.000885,0,0
0:0:21.513,13.7228,1.74437,0,0.000885,0,0
0:0:21.615,13.6649,1.73748,0,0.000885,0,0
0:0:21.715,13.4292,1.7099,0,0.000885,0,0
0:0:21.815,13.4292,1.7099,0,0.000885,0,0
0:0:21.922,13.4292,1.7099,0,0.000885,0,0
0:0:22.030,13.3135,1.69611,0,0.000885,0,0
0:0:22.131,13.1356,1.67543,0,0.000885,0,0
0:0:22.231,13.1356,1.67543,0,0.000885,0,0
0:0:22.332,13.2557,1.68922,0,0.000885,0,0
0:0:22.428,12.9621,1.64785,0,0.000885,0,0
0:0:22.525,12.8465,1.63406,0,0.000885,0,0
0:0:22.625,12.8465,1.63406,0,0.000885,0,0
0:0:22.727,12.7842,1.62716,0,0.000885,0,0
0:0:22.826,12.9043,1.64095,0,0.000885,0,0
0:0:22.924,12.9043,1.64095,0,0.000885,0,0
0:0:23.031,12.7264,1.62027,0,0.000885,0,0
0:0:23.132,12.7264,1.62027,0,0.000885,0,0
0:0:23.231,12.7842,1.62716,0,0.000885,0,0
0:0:23.332,12.7842,1.62716,0,0.000885,0,0
0:0:23.430,12.9043,1.64095,0,0.000885,0,0
0:0:23.527,12.6685,1.61337,0,0.000885,0,0
0:0:23.627,12.9043,1.64095,0,0.000885,0,0
0:0:23.729,12.9043,1.64095,0,0.000885,0,0
0:0:23.828,12.6107,1.60648,0,0.000885,0,0
0:0:23.926,12.4328,1.58579,0,0.000885,0,0
0:0:24.023,12.5529,1.59958,0,0.000885,0,0
0:0:24.123,12.5529,1.59958,0,0.000885,0,0
0:0:24.224,12.6107,1.60648,0,0.000885,0,0
0:0:24.324,12.4906,1.59269,0,0.000885,0,0
0:0:24.420,12.6107,1.60648,0,0.000885,0,0
0:0:24.529,12.6107,1.60648,0,0.000885,0,0
0:0:24.628,12.8465,1.63406,0,0.000885,0,0
0:0:24.729,12.9043,1.64095,0,0.000885,0,0
0:0:24.830,12.9043,1.64095,0,0.000885,0,0
0:0:24.928,12.9043,1.64095,0,0.000885,0,0
0:0:25.025,13.3714,1.70301,0,0.000885,0,0
0:0:25.132,13.5493,1.72369,0,0.000885,0,0
0:0:25.234,13.1356,1.67543,0,0.000885,0,0
0:0:25.334,13.1356,1.67543,0,0.000885,0,0
0:0:25.434,13.5493,1.72369,0,0.000885,0,0
0:0:25.531,13.3135,1.69611,0,0.000885,0,0
0:0:25.628,13.3135,1.69611,0,0.000885,0,0
0:0:25.729,14.2521,1.81332,0,0.000885,0,0
0:0:25.830,13.9007,1.77195,0,0.000885,0,0
0:0:25.931,14.43,1.83401,0,0.000885,0,0
0:0:26.032,14.43,1.83401,0,0.000885,0,0
0:0:26.133,14.43,1.83401,0,0.000885,0,0
0:0:26.234,14.7814,1.88227,0,0.000885,0,0
0:0:26.336,14.8971,1.89606,0,0.000885,0,0
0:0:26.436,14.8971,1.89606,0,0.000885,0,0
0:0:26.537,15.1907,1.93743,0,0.000885,0,0
0:0:26.639,15.8935,2.02706,0,0.000885,0,0
0:0:26.740,16.1871,2.06153,0,0.000885,0,0
0:0:26.841,16.1871,2.06153,0,0.000885,0,0
0:0:26.942,16.7742,2.13737,0,0.000885,0,0
0:0:27.042,17.4192,2.22011,0,0.000885,0,0
0:0:27.142,17.3036,2.20632,0,0.000885,0,0
0:0:27.244,17.3036,2.20632,0,0.000885,0,0
0:0:27.345,17.9486,2.28216,0,0.000885,0,0
0:0:27.447,18.5936,2.3649,0,0.000885,0,0
0:0:27.546,18.7092,2.38559,0,0.000885,0,0
0:0:27.643,18.7092,2.38559,0,0.000885,0,0
0:0:27.744,18.945,2.41317,0,0.000885,0,0
0:0:27.845,19.2964,2.45453,0,0.000885,0,0
0:0:27.945,19.59,2.4959,0,0.000885,0,0
0:0:28.043,19.59,2.4959,0,0.000885,0,0
0:0:28.141,20.1193,2.55795,0,0.000885,0,0
0:0:28.241,20.2928,2.58553,0,0.000885,0,0
0:0:28.342,20.8221,2.64759,0,0.000885,0,0
0:0:28.442,20.8221,2.64759,0,0.000885,0,0
0:0:28.541,20.9956,2.67517,0,0.000885,0,0
0:0:28.639,21.4671,2.73032,0,0.000885,0,0
0:0:28.738,21.4671,2.73032,0,0.000885,0,0
0:0:28.839,21.7607,2.77169,0,0.000885,0,0
0:0:28.939,22.2856,2.84064,0,0.000885,0,0
0:0:29.038,22.5792,2.87511,0,0.000885,0,0
0:0:29.136,22.5792,2.87511,0,0.000885,0,0
0:0:29.234,22.5213,2.86822,0,0.000885,0,0
0:0:29.335,22.8149,2.90269,0,0.000885,0,0
0:0:29.436,23.4021,2.97854,0,0.000885,0,0
0:0:29.535,23.4021,2.97854,0,0.000885,0,0
0:0:29.633,23.9314,3.04748,0,0.000885,0,0
0:0:29.732,24.1049,3.06817,0,0.000885,0,0
0:0:29.834,24.1627,3.07506,0,0.000885,0,0
0:0:29.935,24.1627,3.07506,0,0.000885,0,0
0:0:30.035,24.2828,3.08885,0,0.000885,0,0
0:0:30.132,24.3407,3.09575,0,0.000885,0,0
0:0:30.229,24.5141,3.12333,0,0.000885,0,0
0:0:30.330,24.5141,3.12333,0,0.000885,0,0
0:0:30.431,24.6921,3.14401,0,0.000885,0,0
0:0:30.532,24.4563,3.11643,0,0.000885,0,0
0:0:30.630,24.87,3.16469,0,0.000885,0,0
0:0:30.727,24.87,3.16469,0,0.000885,0,0
0:0:30.827,25.0435,3.18538,0,0.000885,0,0
0:0:30.929,25.2214,3.21296,0,0.000885,0,0
0:0:31.029,25.2214,3.21296,0,0.000885,0,0
0:0:31.131,25.515,3.24743,0,0.000885,0,0
0:0:31.232,25.6885,3.26811,0,0.000885,0,0
0:0:31.335,25.9242,3.30259,0,0.000885,0,0
0:0:31.435,25.9242,3.30259,0,0.000885,0,0
0:0:31.537,26.0399,3.31638,0,0.000885,0,0
0:0:31.638,26.2756,3.34396,0,0.000885,0,0
0:0:31.740,26.805,3.4129,0,0.000885,0,0
0:0:31.839,26.805,3.4129,0,0.000885,0,0
0:0:31.940,26.6849,3.39912,0,0.000885,0,0
0:0:32.040,26.9785,3.43359,0,0.000885,0,0
0:0:32.141,27.1564,3.45427,0,0.000885,0,0
0:0:32.242,27.1564,3.45427,0,0.000885,0,0
0:0:32.342,27.3877,3.48875,0,0.000885,0,0
0:0:32.444,27.7436,3.53012,0,0.000885,0,0
0:0:32.544,28.2684,3.59906,0,0.000885,0,0
0:0:32.643,28.2684,3.59906,0,0.000885,0,0
0:0:32.741,28.5042,3.62664,0,0.000885,0,0
0:0:32.841,29.0914,3.70248,0,0.000885,0,0
0:0:32.941,29.2648,3.72317,0,0.000885,0,0
0:0:33.042,29.2648,3.72317,0,0.000885,0,0
0:0:33.141,29.6207,3.77143,0,0.000885,0,0
0:0:33.239,29.9721,3.8128,0,0.000885,0,0
0:0:33.338,30.2657,3.85417,0,0.000885,0,0
0:0:33.438,30.2657,3.85417,0,0.000885,0,0
0:0:33.540,30.8484,3.93001,0,0.000885,0,0
0:0:33.639,30.5548,3.88864,0,0.000885,0,0
0:0:33.736,31.0263,3.9507,0,0.000885,0,0
0:0:33.835,31.0263,3.9507,0,0.000885,0,0
0:0:33.937,31.6713,4.03343,0,0.000885,0,0
0:0:34.037,31.9649,4.06791,0,0.000885,0,0
0:0:34.138,31.9649,4.06791,0,0.000885,0,0
0:0:34.235,31.8493,4.05412,0,0.000885,0,0
0:0:34.333,32.0227,4.0748,0,0.000885,0,0
0:0:34.433,32.3163,4.11617,0,0.000885,0,0
0:0:34.535,32.3163,4.11617,0,0.000885,0,0
0:0:34.635,32.5521,4.14375,0,0.000885,0,0
0:0:34.734,33.0191,4.2058,0,0.000885,0,0
0:0:34.831,33.077,4.2127,0,0.000885,0,0
0:0:34.932,33.077,4.2127,0,0.000885,0,0
0:0:35.033,33.722,4.29543,0,0.000885,0,0
0:0:35.135,34.1935,4.35059,0,0.000885,0,0
0:0:35.232,34.1357,4.3437,0,0.000885,0,0
0:0:35.328,34.1357,4.3437,0,0.000885,0,0
0:0:35.427,34.2513,4.36438,0,0.000885,0,0
0:0:35.529,34.6605,4.41264,0,0.000885,0,0
0:0:35.629,34.6605,4.41264,0,0.000885,0,0
0:0:35.729,34.8385,4.43333,0,0.000885,0,0
0:0:35.826,34.8963,4.44022,0,0.000885,0,0
0:0:35.926,35.2477,4.48849,0,0.000885,0,0
0:0:36.026,35.2477,4.48849,0,0.000885,0,0
0:0:36.127,36.0128,4.58501,0,0.000885,0,0
0:0:36.229,36.1863,4.6057,0,0.000885,0,0
0:0:36.330,36.2441,4.61259,0,0.000885,0,0
0:0:36.433,36.2441,4.61259,0,0.000885,0,0
0:0:36.534,36.7156,4.67465,0,0.000885,0,0
0:0:36.635,36.6578,4.66775,0,0.000885,0,0
0:0:36.737,37.067,4.72291,0,0.000885,0,0
0:0:36.838,37.067,4.72291,0,0.000885,0,0
0:0:36.937,37.1827,4.7367,0,0.000885,0,0
0:0:37.038,37.067,4.72291,0,0.000885,0,0
0:0:37.139,37.4763,4.77117,0,0.000885,0,0
0:0:37.240,37.4763,4.77117,0,0.000885,0,0
0:0:37.341,38.0634,4.84701,0,0.000885,0,0
0:0:37.442,38.357,4.88149,0,0.000885,0,0
0:0:37.542,38.1213,4.85391,0,0.000885,0,0
0:0:37.643,38.1213,4.85391,0,0.000885,0,0
0:0:37.744,38.5928,4.91596,0,0.000885,0,0
0:0:37.842,38.8285,4.94354,0,0.000885,0,0
0:0:37.940,39.0598,4.97112,0,0.000885,0,0
0:0:38.039,39.0598,4.97112,0,0.000885,0,0
0:0:38.141,39.2378,4.9987,0,0.000885,0,0
0:0:38.241,39.4735,5.02628,0,0.000885,0,0
0:0:38.341,40.1185,5.10902,0,0.000885,0,0
0:0:38.439,40.1185,5.10902,0,0.000885,0,0
0:0:38.537,40.1185,5.10902,0,0.000885,0,0
0:0:38.638,40.4699,5.15038,0,0.000885,0,0
0:0:38.739,40.4699,5.15038,0,0.000885,0,0
0:0:38.837,41.0571,5.22623,0,0.000885,0,0
0:0:38.934,40.937,5.21244,0,0.000885,0,0
0:0:39.033,41.1727,5.24002,0,0.000885,0,0
0:0:39.135,41.1727,5.24002,0,0.000885,0,0
0:0:39.235,41.5241,5.28828,0,0.000885,0,0
0:0:39.335,41.7599,5.31586,0,0.000885,0,0
0:0:39.434,42.3471,5.3917,0,0.000885,0,0
0:0:39.532,42.3471,5.3917,0,0.000885,0,0
0:0:39.634,42.6407,5.42617,0,0.000885,0,0
0:0:39.734,42.9921,5.47444,0,0.000885,0,0
0:0:39.833,42.9342,5.46754,0,0.000885,0,0
0:0:39.930,42.9342,5.46754,0,0.000885,0,0
0:0:40.028,42.8141,5.45375,0,0.000885,0,0
0:0:40.129,43.0499,5.48133,0,0.000885,0,0
0:0:40.231,43.4013,5.5227,0,0.000885,0,0
0:0:40.330,43.4013,5.5227,0,0.000885,0,0
0:0:40.428,43.8105,5.57786,0,0.000885,0,0
0:0:40.527,44.1041,5.61233,0,0.000885,0,0
0:0:40.627,44.1041,5.61233,0,0.000885,0,0
0:0:40.729,44.3399,5.64681,0,0.000885,0,0
0:0:40.829,44.5756,5.67439,0,0.000885,0,0
0:0:40.926,44.927,5.72265,0,0.000885,0,0
0:0:41.033,44.927,5.72265,0,0.000885,0,0
0:0:41.134,45.2784,5.76402,0,0.000885,0,0
0:0:41.237,45.8078,5.83296,0,0.000885,0,0
0:0:41.336,45.8078,5.83296,0,0.000885,0,0
0:0:41.437,45.8078,5.83296,0,0.000885,0,0
0:0:41.538,46.1014,5.86744,0,0.000885,0,0
0:0:41.640,46.5684,5.92949,0,0.000885,0,0
0:0:41.742,46.6263,5.93639,0,0.000885,0,0
0:0:41.843,46.6263,5.93639,0,0.000885,0,0
0:0:41.944,46.8042,5.95707,0,0.000885,0,0
0:0:42.046,46.9777,5.98465,0,0.000885,0,0
0:0:42.146,47.2134,6.01223,0,0.000885,0,0
0:0:42.247,47.2134,6.01223,0,0.000885,0,0
0:0:42.348,47.7428,6.08118,0,0.000885,0,0
0:0:42.449,48.3299,6.15012,0,0.000885,0,0
0:0:42.549,48.2677,6.14323,0,0.000885,0,0
0:0:42.650,48.2677,6.14323,0,0.000885,0,0
0:0:42.750,48.6191,6.19149,0,0.000885,0,0
0:0:42.851,48.9126,6.22597,0,0.000885,0,0
0:0:42.950,48.9749,6.23286,0,0.000885,0,0
0:0:43.047,48.9749,6.23286,0,0.000885,0,0
0:0:43.147,49.2685,6.27423,0,0.000885,0,0
0:0:43.248,49.6777,6.32249,0,0.000885,0,0
0:0:43.348,49.6777,6.32249,0,0.000885,0,0
0:0:43.447,49.6777,6.32249,0,0.000885,0,0
0:0:43.545,49.9135,6.35697,0,0.000885,0,0
0:0:43.644,50.087,6.37765,0,0.000885,0,0
0:0:43.746,50.087,6.37765,0,0.000885,0,0
0:0:43.847,50.3227,6.40523,0,0.000885,0,0
0:0:43.945,50.732,6.46039,0,0.000885,0,0
0:0:44.043,51.1412,6.50865,0,0.000885,0,0
0:0:44.142,51.1412,6.50865,0,0.000885,0,0
0:0:44.243,51.5549,6.56381,0,0.000885,0,0
0:0:44.345,51.7862,6.59139,0,0.000885,0,0
0:0:44.444,51.9641,6.61897,0,0.000885,0,0
0:0:44.542,51.9641,6.61897,0,0.000885,0,0
0:0:44.640,52.3155,6.66034,0,0.000885,0,0
0:0:44.742,52.4935,6.68102,0,0.000885,0,0
0:0:44.843,52.787,6.72239,0,0.000885,0,0
0:0:44.943,52.787,6.72239,0,0.000885,0,0
0:0:45.040,53.1963,6.77065,0,0.000885,0,0
0:0:45.137,53.0184,6.74997,0,0.000885,0,0
0:0:45.239,53.4899,6.81202,0,0.000885,0,0
0:0:45.339,53.4899,6.81202,0,0.000885,0,0
0:0:45.440,53.7834,6.84649,0,0.000885,0,0
0:0:45.538,53.5477,6.81891,0,0.000885,0,0
0:0:45.635,53.5477,6.81891,0,0.000885,0,0
0:0:45.735,53.8991,6.86028,0,0.000885,0,0
0:0:45.837,54.4284,6.92923,0,0.000885,0,0
0:0:45.938,54.8377,6.98439,0,0.000885,0,0
0:0:46.039,54.8377,6.98439,0,0.000885,0,0
0:0:46.140,54.9533,6.99818,0,0.000885,0,0
0:0:46.243,55.367,7.04644,0,0.000885,0,0
0:0:46.344,55.367,7.04644,0,0.000885,0,0
0:0:46.446,55.367,7.04644,0,0.000885,0,0
0:0:46.547,55.8919,7.11539,0,0.000885,0,0
0:0:46.648,56.0698,7.13607,0,0.000885,0,0
0:0:46.748,56.4791,7.19123,0,0.000885,0,0
0:0:46.850,56.4791,7.19123,0,0.000885,0,0
0:0:46.950,57.0084,7.26018,0,0.000885,0,0
0:0:47.051,57.0662,7.26707,0,0.000885,0,0
0:0:47.152,57.4176,7.30844,0,0.000885,0,0
0:0:47.252,57.4176,7.30844,0,0.000885,0,0
0:0:47.354,57.7691,7.35671,0,0.000885,0,0
0:0:47.455,58.0626,7.39118,0,0.000885,0,0
0:0:47.553,57.947,7.37739,0,0.000885,0,0
0:0:47.652,57.947,7.37739,0,0.000885,0,0
0:0:47.751,58.5341,7.45323,0,0.000885,0,0
0:0:47.853,58.7699,7.48081,0,0.000885,0,0
0:0:47.954,59.059,7.52218,0,0.000885,0,0
0:0:48.053,59.059,7.52218,0,0.000885,0,0
0:0:48.150,59.4727,7.57044,0,0.000885,0,0
0:0:48.249,59.7663,7.61181,0,0.000885,0,0
0:0:48.349,59.9398,7.6325,0,0.000885,0,0
0:0:48.449,59.9398,7.6325,0,0.000885,0,0
0:0:48.549,59.9398,7.6325,0,0.000885,0,0
0:0:48.647,60.2912,7.67386,0,0.000885,0,0
0:0:48.746,60.2912,7.67386,0,0.000885,0,0
0:0:48.847,60.2912,7.67386,0,0.000885,0,0
0:0:48.948,60.4113,7.69455,0,0.000885,0,0
0:0:49.048,60.8784,7.74971,0,0.000885,0,0
0:0:49.145,60.8784,7.74971,0,0.000885,0,0
0:0:49.243,60.8784,7.74971,0,0.000885,0,0
0:0:49.343,61.2298,7.79797,0,0.000885,0,0
0:0:49.445,61.6435,7.84623,0,0.000885,0,0
0:0:49.545,61.6435,7.84623,0,0.000885,0,0
0:0:49.642,61.9949,7.8945,0,0.000885,0,0
0:0:49.742,62.1683,7.91518,0,0.000885,0,0
0:0:49.841,62.4041,7.94276,0,0.000885,0,0
0:0:49.943,62.4041,7.94276,0,0.000885,0,0
0:0:50.044,62.5198,7.96344,0,0.000885,0,0
0:0:50.143,63.1069,8.03239,0,0.000885,0,0
0:0:50.239,63.1069,8.03239,0,0.000885,0,0
0:0:50.338,63.227,8.05308,0,0.000885,0,0
0:0:50.439,63.5206,8.08755,0,0.000885,0,0
0:0:50.540,63.7519,8.11513,0,0.000885,0,0
0:0:50.639,63.7519,8.11513,0,0.000885,0,0
0:0:50.738,64.1033,8.16339,0,0.000885,0,0
0:0:50.836,64.517,8.21166,0,0.000885,0,0
0:0:50.938,65.162,8.29439,0,0.000885,0,0
0:0:51.039,65.162,8.29439,0,0.000885,0,0
0:0:51.140,65.1042,8.2875,0,0.000885,0,0
0:0:51.241,65.2777,8.30818,0,0.000885,0,0
0:0:51.344,65.6869,8.36334,0,0.000885,0,0
0:0:51.445,65.6869,8.36334,0,0.000885,0,0
0:0:51.547,65.6869,8.36334,0,0.000885,0,0
0:0:51.646,65.9805,8.39781,0,0.000885,0,0
0:0:51.748,66.3319,8.44608,0,0.000885,0,0
0:0:51.849,66.3319,8.44608,0,0.000885,0,0
0:0:51.950,66.3319,8.44608,0,0.000885,0,0
0:0:52.050,66.8034,8.50813,0,0.000885,0,0
0:0:52.152,66.9769,8.52881,0,0.000885,0,0
0:0:52.251,66.9769,8.52881,0,0.000885,0,0
0:0:52.352,67.5062,8.59776,0,0.000885,0,0
0:0:52.453,67.742,8.62534,0,0.000885,0,0
0:0:52.554,67.6841,8.61845,0,0.000885,0,0
0:0:52.654,67.6841,8.61845,0,0.000885,0,0
0:0:52.751,68.0934,8.66671,0,0.000885,0,0
0:0:52.848,68.2713,8.69429,0,0.000885,0,0
0:0:52.949,68.5026,8.72187,0,0.000885,0,0
0:0:53.050,68.5026,8.72187,0,0.000885,0,0
0:0:53.151,68.7962,8.75634,0,0.000885,0,0
0:0:53.249,69.032,8.79082,0,0.000885,0,0
0:0:53.347,69.032,8.79082,0,0.000885,0,0
0:0:53.447,69.7348,8.88045,0,0.000885,0,0
0:0:53.548,70.0862,8.92182,0,0.000885,0,0
0:0:53.649,70.0862,8.92182,0,0.000885,0,0
0:0:53.746,70.0862,8.92182,0,0.000885,0,0
0:0:53.844,70.3798,8.96318,0,0.000885,0,0
0:0:53.944,70.144,8.92871,0,0.000885,0,0
0:0:54.044,70.7312,9.00455,0,0.000885,0,0
0:0:54.146,70.7312,9.00455,0,0.000885,0,0
0:0:54.246,71.0826,9.05282,0,0.000885,0,0
0:0:54.342,71.0248,9.04592,0,0.000885,0,0
0:0:54.440,71.2605,9.0735,0,0.000885,0,0
0:0:54.541,71.2605,9.0735,0,0.000885,0,0
0:0:54.642,71.7898,9.14245,0,0.000885,0,0
0:0:54.742,72.1413,9.18382,0,0.000885,0,0
0:0:54.839,72.1413,9.18382,0,0.000885,0,0
0:0:54.937,72.2569,9.19761,0,0.000885,0,0
0:0:55.037,72.2569,9.19761,0,0.000885,0,0
0:0:55.139,72.6661,9.25276,0,0.000885,0,0
0:0:55.239,72.6661,9.25276,0,0.000885,0,0
0:0:55.338,73.4312,9.34929,0,0.000885,0,0
0:0:55.435,73.5469,9.36308,0,0.000885,0,0
0:0:55.536,74.1341,9.43892,0,0.000885,0,0
0:0:55.637,74.1341,9.43892,0,0.000885,0,0
0:0:55.738,74.4276,9.4734,0,0.000885,0,0
0:0:55.836,74.4855,9.48719,0,0.000885,0,0
0:0:55.933,74.957,9.54234,0,0.000885,0,0
0:0:56.033,74.957,9.54234,0,0.000885,0,0
0:0:56.134,75.1883,9.57682,0,0.000885,0,0
0:0:56.235,74.957,9.54234,0,0.000885,0,0
0:0:56.336,75.1883,9.57682,0,0.000885,0,0
0:0:56.437,75.1883,9.57682,0,0.000885,0,0
0:0:56.540,75.3662,9.5975,0,0.000885,0,0
0:0:56.640,75.7176,9.63887,0,0.000885,0,0
0:0:56.742,75.8956,9.66645,0,0.000885,0,0
0:0:56.843,75.8956,9.66645,0,0.000885,0,0
0:0:56.945,76.069,9.68713,0,0.000885,0,0
0:0:57.045,76.4783,9.7354,0,0.000885,0,0
0:0:57.147,77.1233,9.81813,0,0.000885,0,0
0:0:57.247,77.1233,9.81813,0,0.000885,0,0
0:0:57.348,77.3012,9.84571,0,0.000885,0,0
0:0:57.448,77.537,9.87329,0,0.000885,0,0
0:0:57.550,77.5948,9.88019,0,0.000885,0,0
0:0:57.649,77.5948,9.88019,0,0.000885,0,0
0:0:57.750,77.6526,9.88708,0,0.000885,0,0
0:0:57.852,77.7104,9.89398,0,0.000885,0,0
0:0:57.949,77.7104,9.89398,0,0.000885,0,0
0:0:58.048,78.2398,9.96292,0,0.000885,0,0
0:0:58.149,78.7068,10.025,0,0.000885,0,0
0:0:58.249,78.8269,10.0388,0,0.000885,0,0
0:0:58.349,78.8269,10.0388,0,0.000885,0,0
0:0:58.446,79.4141,10.1077,0,0.000885,0,0
0:0:58.543,79.7655,10.156,0,0.000885,0,0
0:0:58.645,80.0591,10.1905,0,0.000885,0,0
0:0:58.746,80.0591,10.1905,0,0.000885,0,0
0:0:58.846,80.3527,10.2318,0,0.000885,0,0
0:0:58.944,80.584,10.2594,0,0.000885,0,0
0:0:59.042,80.9398,10.3077,0,0.000885,0,0
0:0:59.141,80.9398,10.3077,0,0.000885,0,0
0:0:59.242,80.7619,10.2801,0,0.000885,0,0
0:0:59.344,80.9398,10.3077,0,0.000885,0,0
0:0:59.442,80.9398,10.3077,0,0.000885,0,0
0:0:59.540,81.229,10.3421,0,0.000885,0,0
0:0:59.639,81.2912,10.349,0,0.000885,0,0
0:0:59.741,81.5848,10.3904,0,0.000885,0,0
0:0:59.842,81.5848,10.3904,0,0.000885,0,0
0:0:59.940,81.5226,10.3766,0,0.000885,0,0
0:1:0.038,82.2298,10.4662,0,0.000885,0,0
0:1:0.137,82.1675,10.4593,0,0.000885,0,0
0:1:0.237,82.1675,10.4593,0,0.000885,0,0
0:1:0.339,82.8748,10.549,0,0.000885,0,0
0:1:0.439,83.2841,10.6041,0,0.000885,0,0
0:1:0.536,83.8712,10.68,0,0.000885,0,0
0:1:0.633,83.8712,10.68,0,0.000885,0,0
0:1:0.736,84.3383,10.7351,0,0.000885,0,0
0:1:0.836,84.107,10.7076,0,0.000885,0,0
0:1:0.937,84.2805,10.7282,0,0.000885,0,0
0:1:1.037,84.2805,10.7282,0,0.000885,0,0
0:1:1.140,84.6319,10.7765,0,0.000885,0,0
0:1:1.241,84.752,10.7903,0,0.000885,0,0
0:1:1.343,84.9254,10.811,0,0.000885,0,0
0:1:1.445,84.9254,10.811,0,0.000885,0,0
0:1:1.545,85.6283,10.9006,0,0.000885,0,0
0:1:1.645,85.6905,10.9075,0,0.000885,0,0
0:1:1.748,86.4512,11.004,0,0.000885,0,0
0:1:1.847,86.4512,11.004,0,0.000885,0,0
0:1:1.949,86.509,11.0178,0,0.000885,0,0
0:1:2.049,86.4512,11.004,0,0.000885,0,0
0:1:2.151,86.6869,11.0385,0,0.000885,0,0
0:1:2.250,86.6869,11.0385,0,0.000885,0,0
0:1:2.352,87.2118,11.1075,0,0.000885,0,0
0:1:2.452,87.5054,11.1419,0,0.000885,0,0
0:1:2.549,87.5054,11.1419,0,0.000885,0,0
0:1:2.647,86.9805,11.073,0,0.000885,0,0
0:1:2.748,87.3898,11.1281,0,0.000885,0,0
0:1:2.850,87.799,11.1764,0,0.000885,0,0
0:1:2.950,87.799,11.1764,0,0.000885,0,0
0:1:3.047,87.7412,11.1695,0,0.000885,0,0
0:1:3.144,88.7376,11.3005,0,0.000885,0,0
0:1:3.245,88.7954,11.3074,0,0.000885,0,0
0:1:3.346,88.7954,11.3074,0,0.000885,0,0
0:1:3.447,89.1468,11.3488,0,0.000885,0,0
0:1:3.545,89.3826,11.3832,0,0.000885,0,0
0:1:3.644,89.6183,11.4108,0,0.000885,0,0
0:1:3.742,89.6183,11.4108,0,0.000885,0,0
0:1:3.844,90.0276,11.466,0,0.000885,0,0
0:1:3.945,90.5569,11.528,0,0.000885,0,0
0:1:4.043,90.5569,11.528,0,0.000885,0,0
0:1:4.140,90.6725,11.5418,0,0.000885,0,0
0:1:4.239,91.2597,11.6177,0,0.000885,0,0
0:1:4.340,91.0862,11.597,0,0.000885,0,0
0:1:4.440,91.0862,11.597,0,0.000885,0,0
0:1:4.539,90.6725,11.5418,0,0.000885,0,0
0:1:4.638,91.3754,11.6315,0,0.000885,0,0
0:1:4.736,91.6111,11.6659,0,0.000885,0,0
0:1:4.838,91.6111,11.6659,0,0.000885,0,0
0:1:4.939,91.8469,11.6935,0,0.000885,0,0
0:1:5.038,91.9625,11.7073,0,0.000885,0,0
0:1:5.136,92.4919,11.7762,0,0.000885,0,0
0:1:5.234,92.4919,11.7762,0,0.000885,0,0
0:1:5.335,92.8433,11.8245,0,0.000885,0,0
0:1:5.436,93.3148,11.8797,0,0.000885,0,0
0:1:5.536,93.5461,11.9141,0,0.000885,0,0
0:1:5.634,93.5461,11.9141,0,0.000885,0,0
0:1:5.732,93.6662,11.9279,0,0.000885,0,0
0:1:5.834,94.0754,11.9762,0,0.000885,0,0
0:1:5.935,94.0754,11.9762,0,0.000885,0,0
0:1:6.036,94.369,12.0176,0,0.000885,0,0
0:1:6.137,94.3112,12.0107,0,0.000885,0,0
0:1:6.238,94.7783,12.0658,0,0.000885,0,0
0:1:6.340,94.7783,12.0658,0,0.000885,0,0
0:1:6.441,94.9562,12.0934,0,0.000885,0,0
0:1:6.543,95.0718,12.1072,0,0.000885,0,0
0:1:6.644,95.3076,12.1348,0,0.000885,0,0
0:1:6.745,95.3076,12.1348,0,0.000885,0,0
0:1:6.845,95.7168,12.1899,0,0.000885,0,0
0:1:6.947,96.2462,12.252,0,0.000885,0,0
0:1:7.047,96.7132,12.314,0,0.000885,0,0
0:1:7.149,96.7132,12.314,0,0.000885,0,0
0:1:7.248,96.949,12.3416,0,0.000885,0,0
0:1:7.348,97.0646,12.3623,0,0.000885,0,0
0:1:7.450,96.8912,12.3347,0,0.000885,0,0
0:1:7.549,96.8912,12.3347,0,0.000885,0,0
0:1:7.648,97.4783,12.4106,0,0.000885,0,0
0:1:7.744,97.8876,12.4657,0,0.000885,0,0
0:1:7.845,97.9454,12.4726,0,0.000885,0,0
0:1:7.945,97.9454,12.4726,0,0.000885,0,0
0:1:8.046,98.6482,12.5622,0,0.000885,0,0
0:1:8.146,98.6482,12.5622,0,0.000885,0,0
0:1:8.243,98.5326,12.5485,0,0.000885,0,0
0:1:8.341,98.5326,12.5485,0,0.000885,0,0
0:1:8.443,98.9418,12.5967,0,0.000885,0,0
0:1:8.544,98.9418,12.5967,0,0.000885,0,0
0:1:8.642,98.9418,12.5967,0,0.000885,0,0
0:1:8.739,99.3555,12.6519,0,0.000885,0,0
0:1:8.838,99.8804,12.7139,0,0.000885,0,0
0:1:8.939,99.9426,12.7277,0,0.000885,0,0
0:1:9.040,99.9426,12.7277,0,0.000885,0,0
0:1:9.140,100.352,12.776,0,0.000885,0,0
0:1:9.239,100.588,12.8036,0,0.000885,0,0
0:1:9.335,100.588,12.8036,0,0.000885,0,0
0:1:9.436,100.588,12.8036,0,0.000885,0,0
0:1:9.538,100.645,12.8174,0,0.000885,0,0
0:1:9.637,101.113,12.8725,0,0.000885,0,0
0:1:9.736,101.522,12.9277,0,0.000885,0,0
0:1:9.832,101.522,12.9277,0,0.000885,0,0
0:1:9.933,101.522,12.9277,0,0.000885,0,0
0:1:10.034,101.815,12.9621,0,0.000885,0,0
0:1:10.136,101.993,12.9828,0,0.000885,0,0
0:1:10.233,101.993,12.9828,0,0.000885,0,0
0:1:10.330,102.287,13.0242,0,0.000885,0,0
0:1:10.430,102.696,13.0725,0,0.000885,0,0
0:1:10.532,102.696,13.0725,0,0.000885,0,0
0:1:10.632,102.696,13.0725,0,0.000885,0,0
0:1:10.730,103.11,13.1276,0,0.000885,0,0
0:1:10.824,103.519,13.1828,0,0.000885,0,0
0:1:10.924,103.519,13.1828,0,0.000885,0,0
0:1:11.028,104.222,13.2724,0,0.000885,0,0
0:1:11.129,104.925,13.362,0,0.000885,0,0
0:1:11.229,104.982,13.3689,0,0.000885,0,0
0:1:11.331,104.982,13.3689,0,0.000885,0,0
0:1:11.433,104.982,13.3689,0,0.000885,0,0
0:1:11.533,105.396,13.4172,0,0.000885,0,0
0:1:11.635,105.57,13.4448,0,0.000885,0,0
0:1:11.737,105.57,13.4448,0,0.000885,0,0
0:1:11.837,105.748,13.4655,0,0.000885,0,0
0:1:11.938,105.748,13.4655,0,0.000885,0,0
0:1:12.039,105.983,13.493,0,0.000885,0,0
0:1:12.140,105.983,13.493,0,0.000885,0,0
0:1:12.241,106.215,13.5206,0,0.000885,0,0
0:1:12.341,106.508,13.562,0,0.000885,0,0
0:1:12.442,107.153,13.6447,0,0.000885,0,0
0:1:12.544,107.153,13.6447,0,0.000885,0,0
0:1:12.643,107.038,13.6309,0,0.000885,0,0
0:1:12.744,107.389,13.6723,0,0.000885,0,0
0:1:12.843,107.976,13.7481,0,0.000885,0,0
0:1:12.940,107.976,13.7481,0,0.000885,0,0
0:1:13.041,107.683,13.7137,0,0.000885,0,0
0:1:13.142,108.092,13.7619,0,0.000885,0,0
0:1:13.242,108.328,13.7895,0,0.000885,0,0
0:1:13.340,108.328,13.7895,0,0.000885,0,0
0:1:13.438,108.328,13.7895,0,0.000885,0,0
0:1:13.539,108.857,13.8585,0,0.000885,0,0
0:1:13.639,108.857,13.8585,0,0.000885,0,0
0:1:13.740,109.266,13.9136,0,0.000885,0,0
0:1:13.838,109.44,13.9343,0,0.000885,0,0
0:1:13.936,109.733,13.9688,0,0.000885,0,0
0:1:14.035,109.733,13.9688,0,0.000885,0,0
0:1:14.136,110.089,14.017,0,0.000885,0,0
0:1:14.237,110.792,14.1067,0,0.000885,0,0
0:1:14.335,110.672,14.0929,0,0.000885,0,0
0:1:14.433,110.672,14.0929,0,0.000885,0,0
0:1:14.533,110.614,14.086,0,0.000885,0,0
0:1:14.633,111.023,14.1343,0,0.000885,0,0
0:1:14.734,111.023,14.1343,0,0.000885,0,0
0:1:14.833,111.023,14.1343,0,0.000885,0,0
0:1:14.930,111.61,14.2101,0,0.000885,0,0
0:1:15.029,111.673,14.217,0,0.000885,0,0
0:1:15.130,111.673,14.217,0,0.000885,0,0
0:1:15.230,112.024,14.2653,0,0.000885,0,0
0:1:15.332,112.433,14.3135,0,0.000885,0,0
0:1:15.429,112.785,14.3618,0,0.000885,0,0
0:1:15.528,112.785,14.3618,0,0.000885,0,0
0:1:15.625,113.372,14.4376,0,0.000885,0,0
0:1:15.729,113.901,14.4997,0,0.000885,0,0
0:1:15.829,114.017,14.5204,0,0.000885,0,0
0:1:15.924,114.017,14.5204,0,0.000885,0,0
0:1:16.023,114.253,14.5479,0,0.000885,0,0
0:1:16.124,114.31,14.5548,0,0.000885,0,0
0:1:16.228,114.72,14.61,0,0.000885,0,0
0:1:16.325,114.72,14.61,0,0.000885,0,0
0:1:16.428,114.662,14.5962,0,0.000885,0,0
0:1:16.530,115.013,14.6445,0,0.000885,0,0
0:1:16.633,115.071,14.6514,0,0.000885,0,0
0:1:16.734,115.071,14.6514,0,0.000885,0,0
0:1:16.835,115.249,14.672,0,0.000885,0,0
0:1:16.936,115.894,14.7548,0,0.000885,0,0
0:1:17.038,116.067,14.7755,0,0.000885,0,0
0:1:17.138,116.067,14.7755,0,0.000885,0,0
0:1:17.239,116.01,14.7686,0,0.000885,0,0
0:1:17.339,116.597,14.8444,0,0.000885,0,0
0:1:17.440,116.539,14.8375,0,0.000885,0,0
0:1:17.539,116.539,14.8375,0,0.000885,0,0
0:1:17.641,116.597,14.8444,0,0.000885,0,0
0:1:17.742,116.833,14.8789,0,0.000885,0,0
0:1:17.843,117.068,14.9065,0,0.000885,0,0
0:1:17.940,117.068,14.9065,0,0.000885,0,0
0:1:18.038,117.126,14.9134,0,0.000885,0,0
0:1:18.138,117.651,14.9823,0,0.000885,0,0
0:1:18.239,117.651,14.9823,0,0.000885,0,0
0:1:18.340,118.18,15.0444,0,0.000885,0,0
0:1:18.440,118.474,15.0857,0,0.000885,0,0
0:1:18.538,118.652,15.1064,0,0.000885,0,0
0:1:18.636,118.652,15.1064,0,0.000885,0,0
0:1:18.738,119.003,15.1547,0,0.000885,0,0
0:1:18.839,119.59,15.2236,0,0.000885,0,0
0:1:18.938,120.115,15.2926,0,0.000885,0,0
0:1:19.036,120.115,15.2926,0,0.000885,0,0
0:1:19.134,120,15.2788,0,0.000885,0,0
0:1:19.234,120.293,15.3133,0,0.000885,0,0
0:1:19.335,120.467,15.3408,0,0.000885,0,0
0:1:19.435,120.467,15.3408,0,0.000885,0,0
0:1:19.534,120.587,15.3546,0,0.000885,0,0
0:1:19.632,121.054,15.4098,0,0.000885,0,0
0:1:19.733,121.405,15.458,0,0.000885,0,0
0:1:19.834,121.405,15.458,0,0.000885,0,0
0:1:19.934,121.463,15.4649,0,0.000885,0,0
0:1:20.032,121.757,15.4994,0,0.000885,0,0
0:1:20.129,121.757,15.4994,0,0.000885,0,0
0:1:20.230,122.05,15.5408,0,0.000885,0,0
0:1:20.331,122.344,15.5753,0,0.000885,0,0
0:1:20.430,122.58,15.6097,0,0.000885,0,0
0:1:20.529,122.58,15.6097,0,0.000885,0,0
0:1:20.624,122.522,15.6028,0,0.000885,0,0
0:1:20.725,123.518,15.7269,0,0.000885,0,0
0:1:20.829,123.34,15.7063,0,0.000885,0,0
0:1:20.925,123.34,15.7063,0,0.000885,0,0
0:1:21.029,123.403,15.7132,0,0.000885,0,0
0:1:21.130,124.048,15.7959,0,0.000885,0,0
0:1:21.233,123.985,15.789,0,0.000885,0,0
0:1:21.333,123.985,15.789,0,0.000885,0,0
0:1:21.435,124.048,15.7959,0,0.000885,0,0
0:1:21.536,124.75,15.8855,0,0.000885,0,0
0:1:21.638,124.924,15.9062,0,0.000885,0,0
0:1:21.737,124.924,15.9062,0,0.000885,0,0
0:1:21.838,124.808,15.8924,0,0.000885,0,0
0:1:21.939,125.217,15.9407,0,0.000885,0,0
0:1:22.040,125.862,16.0234,0,0.000885,0,0
0:1:22.141,125.862,16.0234,0,0.000885,0,0
0:1:22.241,126.156,16.0648,0,0.000885,0,0
0:1:22.342,126.334,16.0855,0,0.000885,0,0
0:1:22.444,126.57,16.113,0,0.000885,0,0
0:1:22.542,126.57,16.113,0,0.000885,0,0
0:1:22.640,126.628,16.1199,0,0.000885,0,0
0:1:22.740,126.743,16.1406,0,0.000885,0,0
0:1:22.840,126.743,16.1406,0,0.000885,0,0
0:1:22.942,127.215,16.1958,0,0.000885,0,0
0:1:23.042,127.682,16.2578,0,0.000885,0,0
0:1:23.138,127.86,16.2785,0,0.000885,0,0
0:1:23.236,127.86,16.2785,0,0.000885,0,0
0:1:23.337,127.975,16.2923,0,0.000885,0,0
0:1:23.439,127.86,16.2785,0,0.000885,0,0
0:1:23.539,128.678,16.3819,0,0.000885,0,0
0:1:23.635,128.678,16.3819,0,0.000885,0,0
0:1:23.734,129.03,16.4302,0,0.000885,0,0
0:1:23.835,129.559,16.4992,0,0.000885,0,0
0:1:23.937,130.026,16.5543,0,0.000885,0,0
0:1:24.037,130.026,16.5543,0,0.000885,0,0
0:1:24.135,130.32,16.5957,0,0.000885,0,0
0:1:24.232,130.555,16.6233,0,0.000885,0,0
0:1:24.332,130.555,16.6233,0,0.000885,0,0
0:1:24.433,130.555,16.6233,0,0.000885,0,0
0:1:24.533,130.733,16.6439,0,0.000885,0,0
0:1:24.630,131.142,16.6991,0,0.000885,0,0
0:1:24.737,131.258,16.7129,0,0.000885,0,0
0:1:24.837,131.258,16.7129,0,0.000885,0,0
0:1:24.938,131.73,16.7749,0,0.000885,0,0
0:1:25.039,131.61,16.7543,0,0.000885,0,0
0:1:25.139,131.903,16.7956,0,0.000885,0,0
0:1:25.237,131.903,16.7956,0,0.000885,0,0
0:1:25.335,132.259,16.837,0,0.000885,0,0
0:1:25.436,131.965,16.8025,0,0.000885,0,0
0:1:25.537,131.965,16.8025,0,0.000885,0,0
0:1:25.636,132.726,16.8991,0,0.000885,0,0
0:1:25.734,132.668,16.8922,0,0.000885,0,0
0:1:25.832,132.548,16.8784,0,0.000885,0,0
0:1:25.932,132.548,16.8784,0,0.000885,0,0
0:1:26.034,133.193,16.9611,0,0.000885,0,0
0:1:26.134,133.255,16.968,0,0.000885,0,0
0:1:26.236,133.549,17.0025,0,0.000885,0,0
0:1:26.338,133.549,17.0025,0,0.000885,0,0
0:1:26.438,133.549,17.0025,0,0.000885,0,0
0:1:26.539,134.488,17.1266,0,0.000885,0,0
0:1:26.641,135.012,17.1886,0,0.000885,0,0
0:1:26.742,135.012,17.1886,0,0.000885,0,0
0:1:26.843,135.426,17.2438,0,0.000885,0,0
0:1:26.944,135.778,17.2852,0,0.000885,0,0
0:1:27.045,136.009,17.3196,0,0.000885,0,0
0:1:27.145,136.009,17.3196,0,0.000885,0,0
0:1:27.246,136.187,17.3403,0,0.000885,0,0
0:1:27.346,135.893,17.3058,0,0.000885,0,0
0:1:27.448,136.423,17.3679,0,0.000885,0,0
0:1:27.547,136.423,17.3679,0,0.000885,0,0
0:1:27.648,136.36,17.361,0,0.000885,0,0
0:1:27.747,136.832,17.4231,0,0.000885,0,0
0:1:27.844,136.832,17.4231,0,0.000885,0,0
0:1:27.945,137.535,17.5127,0,0.000885,0,0
0:1:28.047,136.947,17.4368,0,0.000885,0,0
0:1:28.145,137.299,17.4851,0,0.000885,0,0
0:1:28.244,137.299,17.4851,0,0.000885,0,0
0:1:28.343,137.886,17.5541,0,0.000885,0,0
0:1:28.442,138.18,17.5954,0,0.000885,0,0
0:1:28.544,138.3,17.6092,0,0.000885,0,0
0:1:28.644,138.3,17.6092,0,0.000885,0,0
0:1:28.742,138.651,17.6506,0,0.000885,0,0
0:1:28.840,139.238,17.7264,0,0.000885,0,0
0:1:28.939,139.763,17.7954,0,0.000885,0,0
0:1:29.041,139.763,17.7954,0,0.000885,0,0
0:1:29.142,139.412,17.7471,0,0.000885,0,0
0:1:29.241,139.883,17.8092,0,0.000885,0,0
0:1:29.338,140.115,17.8367,0,0.000885,0,0
0:1:29.437,140.115,17.8367,0,0.000885,0,0
0:1:29.537,140.466,17.885,0,0.000885,0,0
0:1:29.639,140.937,17.9471,0,0.000885,0,0
0:1:29.737,140.937,17.9471,0,0.000885,0,0
0:1:29.834,141.173,17.9746,0,0.000885,0,0
0:1:29.933,141.173,17.9746,0,0.000885,0,0
0:1:30.034,141.525,18.016,0,0.000885,0,0
0:1:30.135,141.525,18.016,0,0.000885,0,0
0:1:30.236,141.876,18.0643,0,0.000885,0,0
0:1:30.333,141.992,18.0781,0,0.000885,0,0
0:1:30.431,142.695,18.1677,0,0.000885,0,0
0:1:30.532,142.695,18.1677,0,0.000885,0,0
0:1:30.633,142.988,18.2091,0,0.000885,0,0
0:1:30.734,142.695,18.1677,0,0.000885,0,0
0:1:30.830,143.108,18.2228,0,0.000885,0,0
0:1:30.926,143.108,18.2228,0,0.000885,0,0
0:1:31.025,142.872,18.1884,0,0.000885,0,0
0:1:31.129,143.108,18.2228,0,0.000885,0,0
0:1:31.230,143.344,18.2504,0,0.000885,0,0
0:1:31.331,143.344,18.2504,0,0.000885,0,0
0:1:31.431,143.575,18.278,0,0.000885,0,0
0:1:31.534,144.162,18.3538,0,0.000885,0,0
0:1:31.636,144.398,18.3883,0,0.000885,0,0
0:1:31.737,144.398,18.3883,0,0.000885,0,0
0:1:31.838,144.456,18.3952,0,0.000885,0,0
0:1:31.939,144.865,18.4435,0,0.000885,0,0
0:1:32.039,144.865,18.4435,0,0.000885,0,0
0:1:32.140,145.452,18.5193,0,0.000885,0,0
0:1:32.241,145.804,18.5676,0,0.000885,0,0
0:1:32.343,145.982,18.5883,0,0.000885,0,0
0:1:32.442,145.982,18.5883,0,0.000885,0,0
0:1:32.542,146.333,18.6296,0,0.000885,0,0
0:1:32.643,146.742,18.6848,0,0.000885,0,0
0:1:32.745,147.156,18.7331,0,0.000885,0,0
0:1:32.845,147.156,18.7331,0,0.000885,0,0
0:1:32.943,147.272,18.7537,0,0.000885,0,0
0:1:33.040,147.272,18.7537,0,0.000885,0,0
0:1:33.141,147.623,18.7951,0,0.000885,0,0
0:1:33.242,147.623,18.7951,0,0.000885,0,0
0:1:33.342,148.032,18.8503,0,0.000885,0,0
0:1:33.440,148.032,18.8503,0,0.000885,0,0
0:1:33.537,148.913,18.9606,0,0.000885,0,0
0:1:33.638,148.913,18.9606,0,0.000885,0,0
0:1:33.740,148.797,18.9468,0,0.000885,0,0
0:1:33.839,148.971,18.9675,0,0.000885,0,0
0:1:33.937,148.971,18.9675,0,0.000885,0,0
0:1:34.034,148.971,18.9675,0,0.000885,0,0
0:1:34.135,149.322,19.0157,0,0.000885,0,0
0:1:34.236,149.558,19.0433,0,0.000885,0,0
0:1:34.336,149.558,19.0433,0,0.000885,0,0
0:1:34.435,149.442,19.0295,0,0.000885,0,0
0:1:34.532,149.91,19.0847,0,0.000885,0,0
0:1:34.632,150.03,19.1054,0,0.000885,0,0
0:1:34.734,150.03,19.1054,0,0.000885,0,0
0:1:34.835,150.145,19.1192,0,0.000885,0,0
0:1:34.933,150.675,19.1812,0,0.000885,0,0
0:1:35.030,151.262,19.2571,0,0.000885,0,0
0:1:35.126,151.262,19.2571,0,0.000885,0,0
0:1:35.230,151.493,19.2915,0,0.000885,0,0
0:1:35.330,151.493,19.2915,0,0.000885,0,0
0:1:35.426,152.374,19.4018,0,0.000885,0,0
0:1:35.524,152.374,19.4018,0,0.000885,0,0
0:1:35.622,152.258,19.3881,0,0.000885,0,0
0:1:35.724,152.552,19.4225,0,0.000885,0,0
0:1:35.825,153.077,19.4915,0,0.000885,0,0
0:1:35.924,153.077,19.4915,0,0.000885,0,0
0:1:36.022,153.428,19.5328,0,0.000885,0,0
0:1:36.119,153.197,19.5053,0,0.000885,0,0
0:1:36.219,153.197,19.5053,0,0.000885,0,0
0:1:36.320,153.197,19.5053,0,0.000885,0,0
0:1:36.421,153.606,19.5604,0,0.000885,0,0
0:1:36.524,154.073,19.6156,0,0.000885,0,0
0:1:36.625,154.073,19.6156,0,0.000885,0,0
0:1:36.727,154.602,19.6845,0,0.000885,0,0
0:1:36.831,154.838,19.7121,0,0.000885,0,0
0:1:36.933,154.78,19.7052,0,0.000885,0,0
0:1:37.033,154.78,19.7052,0,0.000885,0,0
0:1:37.134,155.19,19.7604,0,0.000885,0,0
0:1:37.235,155.719,19.8293,0,0.000885,0,0
0:1:37.336,155.835,19.8431,0,0.000885,0,0
0:1:37.437,155.835,19.8431,0,0.000885,0,0
0:1:37.538,156.186,19.8845,0,0.000885,0,0
0:1:37.638,156.422,19.919,0,0.000885,0,0
0:1:37.740,156.48,19.9258,0,0.000885,0,0
0:1:37.840,156.48,19.9258,0,0.000885,0,0
0:1:37.941,156.657,19.9465,0,0.000885,0,0
0:1:38.040,156.831,19.9672,0,0.000885,0,0
0:1:38.138,157.067,20.0017,0,0.000885,0,0
0:1:38.238,157.067,20.0017,0,0.000885,0,0
0:1:38.338,156.889,19.9741,0,0.000885,0,0
0:1:38.439,157.476,20.05,0,0.000885,0,0
0:1:38.537,158.063,20.1258,0,0.000885,0,0
0:1:38.635,158.063,20.1258,0,0.000885,0,0
0:1:38.736,158.53,20.1878,0,0.000885,0,0
0:1:38.836,158.592,20.1947,0,0.000885,0,0
0:1:38.938,159.237,20.2775,0,0.000885,0,0
0:1:39.036,159.237,20.2775,0,0.000885,0,0
0:1:39.133,159.531,20.312,0,0.000885,0,0
0:1:39.232,160.114,20.3878,0,0.000885,0,0
0:1:39.334,160.114,20.3878,0,0.000885,0,0
0:1:39.433,159.94,20.3671,0,0.000885,0,0
0:1:39.532,159.882,20.3533,0,0.000885,0,0
0:1:39.639,160.292,20.4085,0,0.000885,0,0
0:1:39.738,160.292,20.4085,0,0.000885,0,0
0:1:39.840,160.114,20.3878,0,0.000885,0,0
0:1:39.941,160.821,20.4774,0,0.000885,0,0
0:1:40.039,161.172,20.5188,0,0.000885,0,0
0:1:40.137,161.172,20.5188,0,0.000885,0,0
0:1:40.235,161.115,20.5119,0,0.000885,0,0
0:1:40.336,161.582,20.574,0,0.000885,0,0
0:1:40.438,161.875,20.6084,0,0.000885,0,0
0:1:40.537,161.875,20.6084,0,0.000885,0,0
0:1:40.634,161.76,20.5946,0,0.000885,0,0
0:1:40.734,161.933,20.6153,0,0.000885,0,0
0:1:40.835,162.698,20.7119,0,0.000885,0,0
0:1:40.936,162.698,20.7119,0,0.000885,0,0
0:1:41.037,162.636,20.705,0,0.000885,0,0
0:1:41.137,163.107,20.767,0,0.000885,0,0
0:1:41.239,163.281,20.7877,0,0.000885,0,0
0:1:41.340,163.281,20.7877,0,0.000885,0,0
0:1:41.442,163.868,20.8635,0,0.000885,0,0
0:1:41.543,163.752,20.8497,0,0.000885,0,0
0:1:41.644,164.455,20.9394,0,0.000885,0,0
0:1:41.746,164.455,20.9394,0,0.000885,0,0
0:1:41.845,164.807,20.9807,0,0.000885,0,0
0:1:41.947,165.042,21.0152,0,0.000885,0,0
0:1:42.047,165.042,21.0152,0,0.000885,0,0
0:1:42.148,165.1,21.0221,0,0.000885,0,0
0:1:42.248,165.1,21.0221,0,0.000885,0,0
0:1:42.350,165.278,21.0428,0,0.000885,0,0
0:1:42.450,165.63,21.0911,0,0.000885,0,0
0:1:42.550,165.63,21.0911,0,0.000885,0,0
0:1:42.648,166.039,21.1393,0,0.000885,0,0
0:1:42.746,166.51,21.2014,0,0.000885,0,0
0:1:42.846,166.51,21.2014,0,0.000885,0,0
0:1:42.947,166.684,21.2221,0,0.000885,0,0
0:1:43.048,166.862,21.2427,0,0.000885,0,0
0:1:43.146,167.449,21.3186,0,0.000885,0,0
0:1:43.244,167.449,21.3186,0,0.000885,0,0
0:1:43.343,167.449,21.3186,0,0.000885,0,0
0:1:43.445,168.094,21.4013,0,0.000885,0,0
0:1:43.546,168.209,21.4151,0,0.000885,0,0
0:1:43.644,168.209,21.4151,0,0.000885,0,0
0:1:43.741,167.916,21.3806,0,0.000885,0,0
0:1:43.840,168.681,21.4772,0,0.000885,0,0
0:1:43.941,168.681,21.4772,0,0.000885,0,0
0:1:44.042,169.032,21.5185,0,0.000885,0,0
0:1:44.142,168.854,21.4979,0,0.000885,0,0
0:1:44.241,169.206,21.5461,0,0.000885,0,0
0:1:44.337,169.206,21.5461,0,0.000885,0,0
0:1:44.438,169.851,21.6289,0,0.000885,0,0
0:1:44.540,169.735,21.6082,0,0.000885,0,0
0:1:44.640,170.087,21.6564,0,0.000885,0,0
0:1:44.737,170.087,21.6564,0,0.000885,0,0
0:1:44.835,170.202,21.6702,0,0.000885,0,0
0:1:44.936,170.554,21.7185,0,0.000885,0,0
0:1:45.037,170.789,21.7461,0,0.000885,0,0
0:1:45.137,170.789,21.7461,0,0.000885,0,0
0:1:45.235,171.083,21.7805,0,0.000885,0,0
0:1:45.334,171.555,21.8426,0,0.000885,0,0
0:1:45.433,172.022,21.9046,0,0.000885,0,0
0:1:45.534,172.022,21.9046,0,0.000885,0,0
0:1:45.635,172.137,21.9184,0,0.000885,0,0
0:1:45.734,172.2,21.9253,0,0.000885,0,0
0:1:45.831,172.2,21.9253,0,0.000885,0,0
0:1:45.927,172.609,21.9805,0,0.000885,0,0
0:1:46.032,172.551,21.9667,0,0.000885,0,0
0:1:46.132,172.551,21.9667,0,0.000885,0,0
0:1:46.233,172.551,21.9667,0,0.000885,0,0
0:1:46.334,173.312,22.0701,0,0.000885,0,0
0:1:46.437,173.721,22.1184,0,0.000885,0,0
0:1:46.538,173.957,22.146,0,0.000885,0,0
0:1:46.639,173.957,22.146,0,0.000885,0,0
0:1:46.739,174.077,22.1666,0,0.000885,0,0
0:1:46.840,174.602,22.2287,0,0.000885,0,0
0:1:46.942,175.073,22.2908,0,0.000885,0,0
0:1:47.043,175.073,22.2908,0,0.000885,0,0
0:1:47.144,175.011,22.2839,0,0.000885,0,0
0:1:47.245,175.189,22.3045,0,0.000885,0,0
0:1:47.344,175.598,22.3597,0,0.000885,0,0
0:1:47.445,175.598,22.3597,0,0.000885,0,0
0:1:47.546,175.718,22.3735,0,0.000885,0,0
0:1:47.648,175.892,22.3942,0,0.000885,0,0
0:1:47.748,176.305,22.4493,0,0.000885,0,0
0:1:47.845,176.305,22.4493,0,0.000885,0,0
0:1:47.943,176.185,22.4355,0,0.000885,0,0
0:1:48.044,176.599,22.4838,0,0.000885,0,0
0:1:48.146,177.008,22.539,0,0.000885,0,0
0:1:48.245,177.008,22.539,0,0.000885,0,0
0:1:48.343,177.066,22.5459,0,0.000885,0,0
0:1:48.442,177.475,22.5941,0,0.000885,0,0
0:1:48.543,177.827,22.6424,0,0.000885,0,0
0:1:48.645,177.827,22.6424,0,0.000885,0,0
0:1:48.745,177.889,22.6493,0,0.000885,0,0
0:1:48.841,178.004,22.6631,0,0.000885,0,0
0:1:48.939,178.004,22.6631,0,0.000885,0,0
0:1:49.040,178.356,22.7113,0,0.000885,0,0
0:1:49.141,178.885,22.7734,0,0.000885,0,0
0:1:49.242,179.179,22.8148,0,0.000885,0,0
0:1:49.340,179.179,22.8148,0,0.000885,0,0
0:1:49.437,179.41,22.8423,0,0.000885,0,0
0:1:49.537,179.588,22.863,0,0.000885,0,0
0:1:49.639,179.997,22.9182,0,0.000885,0,0
0:1:49.739,179.997,22.9182,0,0.000885,0,0
0:1:49.837,179.824,22.8975,0,0.000885,0,0
0:1:49.934,180.117,22.932,0,0.000885,0,0
0:1:50.034,180.527,22.9871,0,0.000885,0,0
0:1:50.135,180.527,22.9871,0,0.000885,0,0
0:1:50.237,181.172,23.0699,0,0.000885,0,0
0:1:50.335,181.172,23.0699,0,0.000885,0,0
0:1:50.433,181.172,23.0699,0,0.000885,0,0
0:1:50.529,181.465,23.1043,0,0.000885,0,0
0:1:50.633,181.817,23.1526,0,0.000885,0,0
0:1:50.734,182.052,23.1802,0,0.000885,0,0
0:1:50.834,182.052,23.1802,0,0.000885,0,0
0:1:50.940,182.404,23.2215,0,0.000885,0,0
0:1:51.038,182.813,23.2767,0,0.000885,0,0
0:1:51.139,183.164,23.3181,0,0.000885,0,0
0:1:51.240,183.164,23.3181,0,0.000885,0,0
0:1:51.341,183.342,23.3456,0,0.000885,0,0
0:1:51.442,183.342,23.3456,0,0.000885,0,0
0:1:51.544,183.867,23.4077,0,0.000885,0,0
0:1:51.646,183.867,23.4077,0,0.000885,0,0
0:1:51.747,184.281,23.4629,0,0.000885,0,0
0:1:51.847,184.045,23.4353,0,0.000885,0,0
0:1:51.949,184.397,23.4766,0,0.000885,0,0
0:1:52.050,184.397,23.4766,0,0.000885,0,0
0:1:52.151,184.806,23.5318,0,0.000885,0,0
0:1:52.252,184.806,23.5318,0,0.000885,0,0
0:1:52.353,184.868,23.5387,0,0.000885,0,0
0:1:52.453,184.868,23.5387,0,0.000885,0,0
0:1:52.553,185.451,23.6145,0,0.000885,0,0
0:1:52.654,185.922,23.6697,0,0.000885,0,0
0:1:52.756,186.332,23.7249,0,0.000885,0,0
0:1:52.857,186.332,23.7249,0,0.000885,0,0
0:1:52.955,185.98,23.6766,0,0.000885,0,0
0:1:53.053,186.389,23.7318,0,0.000885,0,0
0:1:53.153,186.919,23.8007,0,0.000885,0,0
0:1:53.254,186.919,23.8007,0,0.000885,0,0
0:1:53.354,186.861,23.7938,0,0.000885,0,0
0:1:53.453,187.034,23.8145,0,0.000885,0,0
0:1:53.551,187.679,23.8972,0,0.000885,0,0
0:1:53.650,187.679,23.8972,0,0.000885,0,0
0:1:53.752,187.799,23.911,0,0.000885,0,0
0:1:53.853,187.857,23.9179,0,0.000885,0,0
0:1:53.951,187.857,23.9179,0,0.000885,0,0
0:1:54.048,188.151,23.9593,0,0.000885,0,0
0:1:54.147,188.854,24.0489,0,0.000885,0,0
0:1:54.249,188.974,24.0627,0,0.000885,0,0
0:1:54.349,188.974,24.0627,0,0.000885,0,0
0:1:54.449,189.147,24.0834,0,0.000885,0,0
0:1:54.547,189.263,24.0972,0,0.000885,0,0
0:1:54.646,189.792,24.1661,0,0.000885,0,0
0:1:54.747,189.792,24.1661,0,0.000885,0,0
0:1:54.849,189.912,24.1799,0,0.000885,0,0
0:1:54.949,190.028,24.1937,0,0.000885,0,0
0:1:55.046,190.028,24.1937,0,0.000885,0,0
0:1:55.144,190.028,24.1937,0,0.000885,0,0
0:1:55.245,190.615,24.2695,0,0.000885,0,0
0:1:55.346,190.731,24.2833,0,0.000885,0,0
0:1:55.446,191.318,24.3592,0,0.000885,0,0
0:1:55.543,191.318,24.3592,0,0.000885,0,0
0:1:55.641,191.26,24.3523,0,0.000885,0,0
0:1:55.742,191.847,24.4281,0,0.000885,0,0
0:1:55.843,191.847,24.4281,0,0.000885,0,0
0:1:55.944,192.199,24.4695,0,0.000885,0,0
0:1:56.045,192.314,24.4833,0,0.000885,0,0
0:1:56.147,192.372,24.4971,0,0.000885,0,0
0:1:56.249,192.372,24.4971,0,0.000885,0,0
0:1:56.350,192.902,24.5591,0,0.000885,0,0
0:1:56.449,192.902,24.5591,0,0.000885,0,0
0:1:56.550,193.311,24.6143,0,0.000885,0,0
0:1:56.650,193.311,24.6143,0,0.000885,0,0
0:1:56.750,194.192,24.7246,0,0.000885,0,0
0:1:56.850,194.076,24.7108,0,0.000885,0,0
0:1:56.951,194.307,24.7384,0,0.000885,0,0
0:1:57.050,194.307,24.7384,0,0.000885,0,0
0:1:57.151,194.369,24.7453,0,0.000885,0,0
0:1:57.251,194.721,24.7935,0,0.000885,0,0
0:1:57.351,195.246,24.8625,0,0.000885,0,0
0:1:57.451,195.246,24.8625,0,0.000885,0,0
0:1:57.548,195.833,24.9314,0,0.000885,0,0
0:1:57.645,195.659,24.9108,0,0.000885,0,0
0:1:57.745,196.011,24.959,0,0.000885,0,0
0:1:57.845,196.011,24.959,0,0.000885,0,0
0:1:57.946,196.536,25.0211,0,0.000885,0,0
0:1:58.044,196.656,25.0418,0,0.000885,0,0
0:1:58.140,196.656,25.0418,0,0.000885,0,0
0:1:58.238,196.829,25.0624,0,0.000885,0,0
0:1:58.338,197.007,25.0831,0,0.000885,0,0
0:1:58.439,197.243,25.1107,0,0.000885,0,0
0:1:58.538,197.243,25.1107,0,0.000885,0,0
0:1:58.634,197.768,25.1797,0,0.000885,0,0
0:1:58.732,197.652,25.1659,0,0.000885,0,0
0:1:58.832,197.888,25.1934,0,0.000885,0,0
0:1:58.933,197.888,25.1934,0,0.000885,0,0
0:1:59.034,198.475,25.2693,0,0.000885,0,0
0:1:59.129,198.239,25.2417,0,0.000885,0,0
0:1:59.236,198.707,25.2969,0,0.000885,0,0
0:1:59.337,198.707,25.2969,0,0.000885,0,0
0:1:59.437,199.058,25.3451,0,0.000885,0,0
0:1:59.537,198.942,25.3313,0,0.000885,0,0
0:1:59.634,198.942,25.3313,0,0.000885,0,0
0:1:59.740,199.178,25.3589,0,0.000885,0,0
0:1:59.839,199.472,25.4003,0,0.000885,0,0
0:1:59.939,200.117,25.4761,0,0.000885,0,0
0:2:0.039,200.117,25.4761,0,0.000885,0,0
0:2:0.138,200.468,25.5244,0,0.000885,0,0
0:2:0.235,200.641,25.5451,0,0.000885,0,0
0:2:0.334,200.704,25.552,0,0.000885,0,0
0:2:0.434,200.704,25.552,0,0.000885,0,0
0:2:0.535,200.877,25.5795,0,0.000885,0,0
0:2:0.632,201.349,25.6347,0,0.000885,0,0
0:2:0.728,201.642,25.6761,0,0.000885,0,0
0:2:0.836,201.642,25.6761,0,0.000885,0,0
0:2:0.937,201.758,25.6899,0,0.000885,0,0
0:2:1.036,202.287,25.7588,0,0.000885,0,0
0:2:1.137,202.581,25.7933,0,0.000885,0,0
0:2:1.237,202.581,25.7933,0,0.000885,0,0
0:2:1.340,202.87,25.8278,0,0.000885,0,0
0:2:1.439,202.87,25.8278,0,0.000885,0,0
0:2:1.541,203.284,25.8829,0,0.000885,0,0
0:2:1.639,203.284,25.8829,0,0.000885,0,0
0:2:1.741,203.164,25.8691,0,0.000885,0,0
0:2:1.841,203.809,25.9519,0,0.000885,0,0
0:2:1.942,204.102,25.9863,0,0.000885,0,0
0:2:2.042,204.102,25.9863,0,0.000885,0,0
0:2:2.143,204.28,26.007,0,0.000885,0,0
0:2:2.240,204.28,26.007,0,0.000885,0,0
0:2:2.341,204.28,26.007,0,0.000885,0,0
0:2:2.441,204.574,26.0484,0,0.000885,0,0
0:2:2.542,205.041,26.1036,0,0.000885,0,0
0:2:2.642,204.925,26.0898,0,0.000885,0,0
0:2:2.738,204.925,26.0898,0,0.000885,0,0
0:2:2.836,205.334,26.1449,0,0.000885,0,0
0:2:2.935,205.628,26.1794,0,0.000885,0,0
0:2:3.037,206.099,26.2414,0,0.000885,0,0
0:2:3.136,206.099,26.2414,0,0.000885,0,0
0:2:3.234,205.922,26.2208,0,0.000885,0,0
0:2:3.329,206.273,26.2621,0,0.000885,0,0
0:2:3.428,206.331,26.269,0,0.000885,0,0
0:2:3.528,206.331,26.269,0,0.000885,0,0
0:2:3.629,206.744,26.3242,0,0.000885,0,0
0:2:3.727,207.154,26.3724,0,0.000885,0,0
0:2:3.835,207.154,26.3724,0,0.000885,0,0
0:2:3.930,207.154,26.3724,0,0.000885,0,0
0:2:4.033,207.563,26.4276,0,0.000885,0,0
0:2:4.134,207.799,26.4552,0,0.000885,0,0
0:2:4.232,207.799,26.4552,0,0.000885,0,0
0:2:4.328,207.977,26.4828,0,0.000885,0,0
0:2:4.425,208.501,26.5448,0,0.000885,0,0
0:2:4.525,208.853,26.5931,0,0.000885,0,0
0:2:4.625,208.853,26.5931,0,0.000885,0,0
0:2:4.725,209.146,26.6276,0,0.000885,0,0
0:2:4.821,209.44,26.6689,0,0.000885,0,0
0:2:4.928,209.324,26.6551,0,0.000885,0,0
0:2:5.027,209.324,26.6551,0,0.000885,0,0
0:2:5.129,209.849,26.7172,0,0.000885,0,0
0:2:5.229,210.027,26.7448,0,0.000885,0,0
0:2:5.327,210.263,26.7723,0,0.000885,0,0
0:2:5.423,210.263,26.7723,0,0.000885,0,0
0:2:5.523,210.788,26.8413,0,0.000885,0,0
0:2:5.623,211.024,26.8689,0,0.000885,0,0
0:2:5.724,211.024,26.8689,0,0.000885,0,0
0:2:5.820,211.433,26.924,0,0.000885,0,0
0:2:5.926,211.611,26.9447,0,0.000885,0,0
0:2:6.024,211.553,26.9378,0,0.000885,0,0
0:2:6.125,211.553,26.9378,0,0.000885,0,0
0:2:6.226,211.789,26.9654,0,0.000885,0,0
0:2:6.325,211.789,26.9654,0,0.000885,0,0
0:2:6.426,212.434,27.0481,0,0.000885,0,0
0:2:6.526,212.434,27.0481,0,0.000885,0,0
0:2:6.627,212.901,27.1102,0,0.000885,0,0
0:2:6.728,212.901,27.1102,0,0.000885,0,0
0:2:6.828,213.137,27.1378,0,0.000885,0,0
0:2:6.929,213.137,27.1378,0,0.000885,0,0
0:2:7.029,213.252,27.1516,0,0.000885,0,0
0:2:7.129,213.604,27.1998,0,0.000885,0,0
0:2:7.229,213.724,27.2136,0,0.000885,0,0
0:2:7.330,213.724,27.2136,0,0.000885,0,0
0:2:7.429,213.897,27.2343,0,0.000885,0,0
0:2:7.530,214.075,27.255,0,0.000885,0,0
0:2:7.633,214.6,27.3239,0,0.000885,0,0
0:2:7.730,214.6,27.3239,0,0.000885,0,0
0:2:7.829,214.542,27.317,0,0.000885,0,0
0:2:7.926,214.836,27.3515,0,0.000885,0,0
0:2:8.024,214.836,27.3515,0,0.000885,0,0
0:2:8.124,215.014,27.3791,0,0.000885,0,0
0:2:8.224,215.481,27.4342,0,0.000885,0,0
0:2:8.323,215.832,27.4825,0,0.000885,0,0
0:2:8.422,215.832,27.4825,0,0.000885,0,0
0:2:8.518,215.832,27.4825,0,0.000885,0,0
0:2:8.618,216.949,27.6204,0,0.000885,0,0
0:2:8.717,216.771,27.5997,0,0.000885,0,0
0:2:8.817,216.771,27.5997,0,0.000885,0,0
0:2:8.924,217.122,27.648,0,0.000885,0,0
0:2:9.030,217.416,27.6825,0,0.000885,0,0
0:2:9.133,217.651,27.71,0,0.000885,0,0
0:2:9.233,217.651,27.71,0,0.000885,0,0
0:2:9.333,217.887,27.7445,0,0.000885,0,0
0:2:9.428,218.239,27.7859,0,0.000885,0,0
0:2:9.526,218.296,27.7928,0,0.000885,0,0
0:2:9.625,218.296,27.7928,0,0.000885,0,0
0:2:9.727,218.768,27.8548,0,0.000885,0,0
0:2:9.827,218.941,27.8755,0,0.000885,0,0
0:2:9.925,218.999,27.8824,0,0.000885,0,0
0:2:10.029,218.999,27.8824,0,0.000885,0,0
0:2:10.129,219.062,27.8893,0,0.000885,0,0
0:2:10.230,219.293,27.9238,0,0.000885,0,0
0:2:10.329,219.822,27.9858,0,0.000885,0,0
0:2:10.426,219.822,27.9858,0,0.000885,0,0
0:2:10.525,219.938,28.0065,0,0.000885,0,0
0:2:10.621,220,28.0134,0,0.000885,0,0
0:2:10.722,220,28.0134,0,0.000885,0,0
0:2:10.823,220.409,28.0617,0,0.000885,0,0
0:2:10.921,220.583,28.0823,0,0.000885,0,0
0:2:11.027,220.409,28.0617,0,0.000885,0,0
0:2:11.125,220.409,28.0617,0,0.000885,0,0
0:2:11.225,220.876,28.1237,0,0.000885,0,0
0:2:11.325,220.819,28.1168,0,0.000885,0,0
0:2:11.426,221.054,28.1444,0,0.000885,0,0
0:2:11.526,221.054,28.1444,0,0.000885,0,0
0:2:11.628,221.348,28.1858,0,0.000885,0,0
0:2:11.727,221.348,28.1858,0,0.000885,0,0
0:2:11.828,221.406,28.1927,0,0.000885,0,0
0:2:11.929,221.406,28.1927,0,0.000885,0,0
0:2:12.029,221.521,28.2065,0,0.000885,0,0
0:2:12.129,221.642,28.2202,0,0.000885,0,0
0:2:12.230,221.348,28.1858,0,0.000885,0,0
0:2:12.328,221.348,28.1858,0,0.000885,0,0
0:2:12.428,221.29,28.172,0,0.000885,0,0
0:2:12.528,221.584,28.2133,0,0.000885,0,0
0:2:12.629,221.993,28.2616,0,0.000885,0,0
0:2:12.729,221.993,28.2616,0,0.000885,0,0
0:2:12.830,221.993,28.2616,0,0.000885,0,0
0:2:12.930,222.109,28.2823,0,0.000885,0,0
0:2:13.027,222.051,28.2754,0,0.000885,0,0
0:2:13.135,222.051,28.2754,0,0.000885,0,0
0:2:13.235,221.642,28.2202,0,0.000885,0,0
0:2:13.335,221.29,28.172,0,0.000885,0,0
0:2:13.435,221.112,28.1513,0,0.000885,0,0
0:2:13.529,221.112,28.1513,0,0.000885,0,0
0:2:13.637,221.406,28.1927,0,0.000885,0,0
0:2:13.735,221.699,28.2271,0,0.000885,0,0
0:2:13.835,221.699,28.2271,0,0.000885,0,0
0:2:13.935,221.642,28.2202,0,0.000885,0,0
0:2:14.034,221.642,28.2202,0,0.000885,0,0
0:2:14.129,221.815,28.2409,0,0.000885,0,0
0:2:14.226,221.815,28.2409,0,0.000885,0,0
0:2:14.327,221.873,28.2478,0,0.000885,0,0
0:2:14.426,221.993,28.2616,0,0.000885,0,0
0:2:14.525,222.344,28.3099,0,0.000885,0,0
0:2:14.631,222.344,28.3099,0,0.000885,0,0
0:2:14.728,222.46,28.3237,0,0.000885,0,0
0:2:14.829,222.754,28.365,0,0.000885,0,0
0:2:14.929,223.225,28.4202,0,0.000885,0,0
0:2:15.029,223.225,28.4202,0,0.000885,0,0
0:2:15.127,223.519,28.4616,0,0.000885,0,0
0:2:15.223,223.634,28.4753,0,0.000885,0,0
0:2:15.323,223.634,28.4753,0,0.000885,0,0
0:2:15.423,223.341,28.434,0,0.000885,0,0
0:2:15.523,223.399,28.4409,0,0.000885,0,0
0:2:15.619,223.634,28.4753,0,0.000885,0,0
0:2:15.725,223.634,28.4753,0,0.000885,0,0
0:2:15.825,223.812,28.496,0,0.000885,0,0
0:2:15.924,223.456,28.4547,0,0.000885,0,0
0:2:16.025,223.341,28.434,0,0.000885,0,0
0:2:16.125,223.341,28.434,0,0.000885,0,0
0:2:16.226,223.225,28.4202,0,0.000885,0,0
0:2:16.326,222.58,28.3375,0,0.000885,0,0
0:2:16.426,222.344,28.3099,0,0.000885,0,0
0:2:16.527,222.344,28.3099,0,0.000885,0,0
0:2:16.627,221.993,28.2616,0,0.000885,0,0
0:2:16.727,221.464,28.1996,0,0.000885,0,0
0:2:16.828,220.876,28.1237,0,0.000885,0,0
0:2:16.928,220.876,28.1237,0,0.000885,0,0
0:2:17.027,220.352,28.0548,0,0.000885,0,0
0:2:17.127,219.293,27.9238,0,0.000885,0,0
0:2:17.227,218.354,27.7997,0,0.000885,0,0
0:2:17.327,218.354,27.7997,0,0.000885,0,0
0:2:17.428,217.651,27.71,0,0.000885,0,0
0:2:17.527,216.419,27.5583,0,0.000885,0,0
0:2:17.625,215.307,27.4136,0,0.000885,0,0
0:2:17.722,215.307,27.4136,0,0.000885,0,0
0:2:17.820,213.955,27.2412,0,0.000885,0,0
0:2:17.921,212.549,27.0619,0,0.000885,0,0
0:2:18.020,212.549,27.0619,0,0.000885,0,0
0:2:18.119,211.024,26.8689,0,0.000885,0,0
0:2:18.224,209.146,26.6276,0,0.000885,0,0
0:2:18.322,207.038,26.3587,0,0.000885,0,0
0:2:18.423,207.038,26.3587,0,0.000885,0,0
0:2:18.523,205.277,26.138,0,0.000885,0,0
0:2:18.622,203.106,25.8622,0,0.000885,0,0
0:2:18.727,199.472,25.4003,0,0.000885,0,0
0:2:18.825,199.472,25.4003,0,0.000885,0,0
0:2:18.924,194.894,24.8142,0,0.000885,0,0
0:2:19.025,187.27,23.8421,0,0.000885,0,0
0:2:19.125,180.175,22.9389,0,0.000885,0,0
0:2:19.222,180.175,22.9389,0,0.000885,0,0
0:2:19.320,173.783,22.1253,0,0.000885,0,0
0:2:19.421,168.152,21.4082,0,0.000885,0,0
0:2:19.522,163.868,20.8635,0,0.000885,0,0
0:2:19.622,163.868,20.8635,0,0.000885,0,0
0:2:19.728,160.407,20.4223,0,0.000885,0,0
0:2:19.825,156.773,19.9603,0,0.000885,0,0
0:2:19.916,156.773,19.9603,0,0.000885,0,0