File: DataFile2021-06-09_075412.csv
Test ID:,Date Tested:,Time:,Test Type:,Diameter Avg. (mm):,Cyl. Corr. Factor:,Height (mm):,Age (days):,Weight (kN):,Break Type:,Ramp Rate (MPa/s):,Load at Break (kN):,Stress at Break (MPa):
12,6/9/2021,07:54,Cylinder,100,1,200,0,3.6,3,0.25,733.72,93.42
Sample Time,Load (kN),Stress (MPa),Long. Strain,Trans. Strain,Chan1 Deflection (mm),Chan2 Deflection (mm)
0:0:13.160,5.33787,0.682581,0,0.000885,0,0
0:0:13.557,7.33067,0.930792,0,0.000885,0,0
0:0:13.954,8.26924,1.0549,0,0.000885,0,0
0:0:14.349,9.85281,1.25485,0,0.000885,0,0
0:0:14.749,9.32347,1.1859,0,0.000885,0,0
0:0:15.147,9.73716,1.24106,0,0.000885,0,0
0:0:15.543,9.96846,1.26864,0,0.000885,0,0
0:0:15.939,10.1464,1.28932,0,0.000885,0,0
0:0:16.335,10.9693,1.39964,0,0.000885,0,0
0:0:16.735,11.73,1.49616,0,0.000885,0,0
0:0:17.132,12.1392,1.54443,0,0.000885,0,0
0:0:17.527,13.3714,1.70301,0,0.000885,0,0
0:0:17.924,14.0742,1.79264,0,0.000885,0,0
0:0:18.322,14.3099,1.82022,0,0.000885,0,0
0:0:18.721,15.4843,1.9719,0,0.000885,0,0
0:0:19.126,16.3027,2.07532,0,0.000885,0,0
0:0:19.529,17.0678,2.17185,0,0.000885,0,0
0:0:19.932,17.655,2.24769,0,0.000885,0,0
0:0:20.336,18.7092,2.38559,0,0.000885,0,0
0:0:20.732,19.7056,2.50969,0,0.000885,0,0
0:0:21.129,20.3506,2.59243,0,0.000885,0,0
0:0:21.527,21.2892,2.70964,0,0.000885,0,0
0:0:21.926,22.1699,2.81996,0,0.000885,0,0
0:0:22.326,22.8149,2.90269,0,0.000885,0,0
0:0:22.720,23.7535,3.0268,0,0.000885,0,0
0:0:23.119,24.2828,3.08885,0,0.000885,0,0
0:0:23.522,25.0435,3.18538,0,0.000885,0,0
0:0:23.929,25.5728,3.25433,0,0.000885,0,0
0:0:24.332,26.805,3.4129,0,0.000885,0,0
0:0:24.736,27.3299,3.48185,0,0.000885,0,0
0:0:25.134,28.2684,3.59906,0,0.000885,0,0
0:0:25.533,29.5006,3.75764,0,0.000885,0,0
0:0:25.933,30.497,3.88175,0,0.000885,0,0
0:0:26.329,31.7292,4.04033,0,0.000885,0,0
0:0:26.725,32.7256,4.16443,0,0.000885,0,0
0:0:27.124,33.6641,4.28854,0,0.000885,0,0
0:0:27.526,34.8963,4.44022,0,0.000885,0,0
0:0:27.923,35.6614,4.54365,0,0.000885,0,0
0:0:28.319,36.1285,4.5988,0,0.000885,0,0
0:0:28.723,36.8891,4.69533,0,0.000885,0,0
0:0:29.129,37.245,4.74359,0,0.000885,0,0
0:0:29.532,37.1827,4.7367,0,0.000885,0,0
0:0:29.936,38.2992,4.87459,0,0.000885,0,0
0:0:30.332,38.8285,4.94354,0,0.000885,0,0
0:0:30.731,39.4735,5.02628,0,0.000885,0,0
0:0:31.131,39.9984,5.09523,0,0.000885,0,0
0:0:31.528,41.2306,5.24691,0,0.000885,0,0
0:0:31.927,42.1691,5.37102,0,0.000885,0,0
0:0:32.321,42.3471,5.3917,0,0.000885,0,0
0:0:32.723,43.1077,5.48823,0,0.000885,0,0
0:0:33.122,43.8684,5.58475,0,0.000885,0,0
0:0:33.517,44.6913,5.68817,0,0.000885,0,0
0:0:33.921,45.3941,5.77781,0,0.000885,0,0
0:0:34.327,46.4528,5.9157,0,0.000885,0,0
0:0:34.729,47.3291,6.02602,0,0.000885,0,0
0:0:35.132,48.0942,6.12254,0,0.000885,0,0
0:0:35.529,49.0327,6.23976,0,0.000885,0,0
0:0:35.928,50.2026,6.39144,0,0.000885,0,0
0:0:36.327,50.9099,6.48107,0,0.000885,0,0
0:0:36.726,51.9063,6.61207,0,0.000885,0,0
0:0:37.124,52.6091,6.7017,0,0.000885,0,0
0:0:37.518,53.0806,6.75686,0,0.000885,0,0
0:0:37.919,53.8413,6.85339,0,0.000885,0,0
0:0:38.319,54.4863,6.93613,0,0.000885,0,0
0:0:38.726,55.4827,7.06713,0,0.000885,0,0
0:0:39.130,56.012,7.12918,0,0.000885,0,0
0:0:39.534,56.5992,7.20502,0,0.000885,0,0
0:0:39.934,57.947,7.37739,0,0.000885,0,0
0:0:40.335,58.8856,7.4946,0,0.000885,0,0
0:0:40.730,59.5884,7.58423,0,0.000885,0,0
0:0:41.127,59.882,7.6256,0,0.000885,0,0
0:0:41.525,60.5848,7.71523,0,0.000885,0,0
0:0:41.925,61.4077,7.81865,0,0.000885,0,0
0:0:42.324,62.7555,7.99102,0,0.000885,0,0
0:0:42.719,63.7519,8.11513,0,0.000885,0,0
0:0:43.116,64.0455,8.1565,0,0.000885,0,0
0:0:43.520,64.8106,8.25302,0,0.000885,0,0
0:0:43.927,65.6291,8.35645,0,0.000885,0,0
0:0:44.331,66.5676,8.47366,0,0.000885,0,0
0:0:44.733,67.2705,8.56329,0,0.000885,0,0
0:0:45.131,67.9154,8.64603,0,0.000885,0,0
0:0:45.532,68.2713,8.69429,0,0.000885,0,0
0:0:45.931,69.5613,8.85976,0,0.000885,0,0
0:0:46.326,70.3798,8.96318,0,0.000885,0,0
0:0:46.722,70.9669,9.03903,0,0.000885,0,0
0:0:47.122,71.6697,9.12866,0,0.000885,0,0
0:0:47.520,72.4927,9.23208,0,0.000885,0,0
0:0:47.917,73.4312,9.34929,0,0.000885,0,0
0:0:48.313,74.1341,9.43892,0,0.000885,0,0
0:0:48.717,74.3698,9.4665,0,0.000885,0,0
0:0:49.122,75.9534,9.67334,0,0.000885,0,0
0:0:49.525,76.3626,9.72161,0,0.000885,0,0
0:0:49.928,77.4168,9.8595,0,0.000885,0,0
0:0:50.326,78.1819,9.95603,0,0.000885,0,0
0:0:50.726,78.8848,10.0457,0,0.000885,0,0
0:0:51.123,79.4141,10.1077,0,0.000885,0,0
0:0:51.520,80.4683,10.2456,0,0.000885,0,0
0:0:51.918,81.0555,10.3215,0,0.000885,0,0
0:0:52.316,81.7583,10.4111,0,0.000885,0,0
0:0:52.716,82.4033,10.4938,0,0.000885,0,0
0:0:53.112,83.7511,10.6662,0,0.000885,0,0
0:0:53.509,84.3961,10.7489,0,0.000885,0,0
0:0:53.912,85.2769,10.8592,0,0.000885,0,0
0:0:54.320,86.3355,10.9902,0,0.000885,0,0
0:0:54.722,86.6869,11.0385,0,0.000885,0,0
0:0:55.125,87.9191,11.1971,0,0.000885,0,0
0:0:55.521,88.3862,11.2522,0,0.000885,0,0
0:0:55.920,89.2091,11.3557,0,0.000885,0,0
0:0:56.322,90.0276,11.466,0,0.000885,0,0
0:0:56.718,90.2633,11.4936,0,0.000885,0,0
0:0:57.115,91.3754,11.6315,0,0.000885,0,0
0:0:57.512,91.9625,11.7073,0,0.000885,0,0
0:0:57.913,93.079,11.8521,0,0.000885,0,0
0:0:58.312,93.8397,11.9486,0,0.000885,0,0
0:0:58.716,94.5425,12.0382,0,0.000885,0,0
0:0:59.123,95.3076,12.1348,0,0.000885,0,0
0:0:59.526,96.0104,12.2244,0,0.000885,0,0
0:0:59.929,97.3582,12.3968,0,0.000885,0,0
0:1:0.325,98.2968,12.514,0,0.000885,0,0
0:1:0.721,98.8261,12.5829,0,0.000885,0,0
0:1:1.119,99.7069,12.6932,0,0.000885,0,0
0:1:1.519,99.9426,12.7277,0,0.000885,0,0
0:1:1.917,100.703,12.8242,0,0.000885,0,0
0:1:2.311,101.464,12.9208,0,0.000885,0,0
0:1:2.710,102.287,13.0242,0,0.000885,0,0
0:1:3.109,102.932,13.1069,0,0.000885,0,0
0:1:3.508,103.692,13.2035,0,0.000885,0,0
0:1:3.913,104.809,13.3414,0,0.000885,0,0
0:1:4.318,105.396,13.4172,0,0.000885,0,0
0:1:4.721,106.277,13.5344,0,0.000885,0,0
0:1:5.123,107.389,13.6723,0,0.000885,0,0
0:1:5.521,108.212,13.7757,0,0.000885,0,0
0:1:5.918,108.737,13.8447,0,0.000885,0,0
0:1:6.314,109.088,13.8929,0,0.000885,0,0
0:1:6.715,110.089,14.017,0,0.000885,0,0
0:1:7.114,110.908,14.1205,0,0.000885,0,0
0:1:7.511,112.318,14.2997,0,0.000885,0,0
0:1:7.907,112.727,14.3549,0,0.000885,0,0
0:1:8.306,113.608,14.4652,0,0.000885,0,0
0:1:8.707,114.604,14.5893,0,0.000885,0,0
0:1:9.113,115.543,14.7134,0,0.000885,0,0
0:1:9.516,115.716,14.7341,0,0.000885,0,0
0:1:9.920,116.655,14.8513,0,0.000885,0,0
0:1:10.321,117.593,14.9754,0,0.000885,0,0
0:1:10.721,117.945,15.0168,0,0.000885,0,0
0:1:11.119,119.355,15.196,0,0.000885,0,0
0:1:11.514,119.528,15.2167,0,0.000885,0,0
0:1:11.913,120,15.2788,0,0.000885,0,0
0:1:12.313,121.232,15.4374,0,0.000885,0,0
0:1:12.711,122.108,15.5477,0,0.000885,0,0
0:1:13.108,122.758,15.6304,0,0.000885,0,0
0:1:13.513,123.927,15.7821,0,0.000885,0,0
0:1:13.918,124.221,15.8166,0,0.000885,0,0
0:1:14.321,125.338,15.9614,0,0.000885,0,0
0:1:14.722,126.156,16.0648,0,0.000885,0,0
0:1:15.118,126.743,16.1406,0,0.000885,0,0
0:1:15.518,127.33,16.2096,0,0.000885,0,0
0:1:15.917,128.385,16.3475,0,0.000885,0,0
0:1:16.314,129.03,16.4302,0,0.000885,0,0
0:1:16.711,129.443,16.4785,0,0.000885,0,0
0:1:17.107,130.965,16.6784,0,0.000885,0,0
0:1:17.509,131.61,16.7543,0,0.000885,0,0
0:1:17.916,132.197,16.8301,0,0.000885,0,0
0:1:18.312,132.904,16.9197,0,0.000885,0,0
0:1:18.717,134.074,17.0714,0,0.000885,0,0
0:1:19.122,134.719,17.1542,0,0.000885,0,0
0:1:19.526,135.715,17.2783,0,0.000885,0,0
0:1:19.929,136.36,17.361,0,0.000885,0,0
0:1:20.328,137.183,17.4644,0,0.000885,0,0
0:1:20.725,138.006,17.5747,0,0.000885,0,0
0:1:21.123,138.651,17.6506,0,0.000885,0,0
0:1:21.522,138.945,17.6919,0,0.000885,0,0
0:1:21.921,139.883,17.8092,0,0.000885,0,0
0:1:22.317,140.76,17.9195,0,0.000885,0,0
0:1:22.714,141.698,18.0436,0,0.000885,0,0
0:1:23.115,142.405,18.1332,0,0.000885,0,0
0:1:23.515,143.166,18.2297,0,0.000885,0,0
0:1:23.920,143.989,18.3332,0,0.000885,0,0
0:1:24.323,144.456,18.3952,0,0.000885,0,0
0:1:24.725,145.51,18.5262,0,0.000885,0,0
0:1:25.128,146.097,18.6021,0,0.000885,0,0
0:1:25.526,146.978,18.7124,0,0.000885,0,0
0:1:25.924,147.565,18.7882,0,0.000885,0,0
0:1:26.321,148.913,18.9606,0,0.000885,0,0
0:1:26.719,149.91,19.0847,0,0.000885,0,0
0:1:27.120,150.439,19.1536,0,0.000885,0,0
0:1:27.518,151.142,19.2433,0,0.000885,0,0
0:1:27.913,151.907,19.3398,0,0.000885,0,0
0:1:28.312,153.197,19.5053,0,0.000885,0,0
0:1:28.715,153.548,19.5535,0,0.000885,0,0
0:1:29.121,154.367,19.657,0,0.000885,0,0
0:1:29.526,155.305,19.7742,0,0.000885,0,0
0:1:29.928,155.599,19.8086,0,0.000885,0,0
0:1:30.326,156.537,19.9327,0,0.000885,0,0
0:1:30.726,157.36,20.0362,0,0.000885,0,0
0:1:31.125,158.299,20.1534,0,0.000885,0,0
0:1:31.522,159.002,20.243,0,0.000885,0,0
0:1:31.918,159.705,20.3326,0,0.000885,0,0
0:1:32.318,160.701,20.4636,0,0.000885,0,0
0:1:32.717,161.172,20.5188,0,0.000885,0,0
0:1:33.116,162.227,20.6567,0,0.000885,0,0
0:1:33.514,162.698,20.7119,0,0.000885,0,0
0:1:33.918,164.219,20.9118,0,0.000885,0,0
0:1:34.323,164.749,20.9739,0,0.000885,0,0
0:1:34.725,164.927,21.0014,0,0.000885,0,0
0:1:35.128,166.217,21.16,0,0.000885,0,0
0:1:35.526,166.92,21.2496,0,0.000885,0,0
0:1:35.921,167.68,21.3531,0,0.000885,0,0
0:1:36.319,168.619,21.4703,0,0.000885,0,0
0:1:36.722,169.851,21.6289,0,0.000885,0,0
0:1:37.118,170.202,21.6702,0,0.000885,0,0
0:1:37.516,170.496,21.7116,0,0.000885,0,0
0:1:37.912,170.967,21.7667,0,0.000885,0,0
0:1:38.312,171.906,21.8909,0,0.000885,0,0
0:1:38.711,173.018,22.0287,0,0.000885,0,0
0:1:39.118,173.957,22.146,0,0.000885,0,0
0:1:39.522,175.189,22.3045,0,0.000885,0,0
0:1:39.923,175.776,22.3804,0,0.000885,0,0
0:1:40.327,176.127,22.4286,0,0.000885,0,0
0:1:40.725,176.95,22.5321,0,0.000885,0,0
0:1:41.122,177.653,22.6217,0,0.000885,0,0
0:1:41.518,178.182,22.6838,0,0.000885,0,0
0:1:41.918,179.179,22.8148,0,0.000885,0,0
0:1:42.316,179.997,22.9182,0,0.000885,0,0
0:1:42.715,180.469,22.9802,0,0.000885,0,0
0:1:43.111,181.523,23.1112,0,0.000885,0,0
0:1:43.517,182.64,23.256,0,0.000885,0,0
0:1:43.921,183.164,23.3181,0,0.000885,0,0
0:1:44.325,184.281,23.4629,0,0.000885,0,0
0:1:44.729,185.513,23.6214,0,0.000885,0,0
0:1:45.126,185.807,23.6559,0,0.000885,0,0
0:1:45.523,186.625,23.7593,0,0.000885,0,0
0:1:45.921,186.683,23.7662,0,0.000885,0,0
0:1:46.322,188.444,23.9938,0,0.000885,0,0
0:1:46.720,189.089,24.0765,0,0.000885,0,0
0:1:47.116,189.499,24.1248,0,0.000885,0,0
0:1:47.512,190.789,24.2902,0,0.000885,0,0
0:1:47.911,190.789,24.2902,0,0.000885,0,0
0:1:48.311,191.612,24.3937,0,0.000885,0,0
0:1:48.715,192.43,24.504,0,0.000885,0,0
0:1:49.118,193.724,24.6625,0,0.000885,0,0
0:1:49.518,194.601,24.7798,0,0.000885,0,0
0:1:49.920,195.188,24.8556,0,0.000885,0,0
0:1:50.313,195.717,24.9177,0,0.000885,0,0
0:1:50.716,196.714,25.0487,0,0.000885,0,0
0:1:51.112,197.652,25.1659,0,0.000885,0,0
0:1:51.510,198.119,25.2279,0,0.000885,0,0
0:1:51.902,199.12,25.352,0,0.000885,0,0
0:1:52.303,199.351,25.3796,0,0.000885,0,0
0:1:52.706,200.348,25.5106,0,0.000885,0,0
0:1:53.104,201.286,25.6278,0,0.000885,0,0
0:1:53.511,201.7,25.683,0,0.000885,0,0
0:1:53.914,203.399,25.8967,0,0.000885,0,0
0:1:54.315,203.871,25.9588,0,0.000885,0,0
0:1:54.716,204.632,26.0553,0,0.000885,0,0
0:1:55.117,205.686,26.1863,0,0.000885,0,0
0:1:55.511,206.744,26.3242,0,0.000885,0,0
0:1:55.914,206.976,26.3518,0,0.000885,0,0
0:1:56.305,207.332,26.4,0,0.000885,0,0
0:1:56.702,208.328,26.5241,0,0.000885,0,0
0:1:57.099,209.498,26.6758,0,0.000885,0,0
0:1:57.502,209.734,26.7034,0,0.000885,0,0
0:1:57.905,211.202,26.8896,0,0.000885,0,0
0:1:58.301,211.553,26.9378,0,0.000885,0,0
0:1:58.700,212.256,27.0274,0,0.000885,0,0
0:1:59.103,213.31,27.1584,0,0.000885,0,0
0:1:59.504,213.724,27.2136,0,0.000885,0,0
0:1:59.903,214.836,27.3515,0,0.000885,0,0
0:2:0.313,215.481,27.4342,0,0.000885,0,0
0:2:0.707,216.184,27.5239,0,0.000885,0,0
0:2:1.112,217.006,27.6273,0,0.000885,0,0
0:2:1.502,217.594,27.7031,0,0.000885,0,0
0:2:1.900,218.826,27.8617,0,0.000885,0,0
0:2:2.297,218.768,27.8548,0,0.000885,0,0
0:2:2.700,220.352,28.0548,0,0.000885,0,0
0:2:3.103,220.997,28.1375,0,0.000885,0,0
0:2:3.506,221.993,28.2616,0,0.000885,0,0
0:2:3.911,222.932,28.3857,0,0.000885,0,0
0:2:4.312,223.928,28.5098,0,0.000885,0,0
0:2:4.712,223.75,28.4891,0,0.000885,0,0
0:2:5.105,225.334,28.6891,0,0.000885,0,0
0:2:5.500,225.454,28.7029,0,0.000885,0,0
0:2:5.897,226.566,28.8477,0,0.000885,0,0
0:2:6.302,226.979,28.9028,0,0.000885,0,0
0:2:6.695,228.207,29.0545,0,0.000885,0,0
0:2:7.108,229.088,29.1717,0,0.000885,0,0
0:2:7.507,229.381,29.2062,0,0.000885,0,0
0:2:7.914,230.614,29.3648,0,0.000885,0,0
0:2:8.305,231.374,29.4613,0,0.000885,0,0
0:2:8.711,232.375,29.5854,0,0.000885,0,0
0:2:9.112,232.842,29.6475,0,0.000885,0,0
0:2:9.512,232.958,29.6612,0,0.000885,0,0
0:2:9.914,233.959,29.7854,0,0.000885,0,0
0:2:10.315,235.013,29.9232,0,0.000885,0,0
0:2:10.720,235.836,30.0267,0,0.000885,0,0
0:2:11.117,236.77,30.1439,0,0.000885,0,0
0:2:11.512,236.832,30.1508,0,0.000885,0,0
0:2:11.916,238.354,30.3507,0,0.000885,0,0
0:2:12.306,239.176,30.4541,0,0.000885,0,0
0:2:12.704,239.999,30.5576,0,0.000885,0,0
0:2:13.113,241.111,30.7024,0,0.000885,0,0
0:2:13.516,241.699,30.7713,0,0.000885,0,0
0:2:13.918,242.286,30.8471,0,0.000885,0,0
0:2:14.319,243.282,30.9781,0,0.000885,0,0
0:2:14.720,244.105,31.0816,0,0.000885,0,0
0:2:15.120,243.811,31.0402,0,0.000885,0,0
0:2:15.513,245.626,31.2746,0,0.000885,0,0
0:2:15.916,246.449,31.378,0,0.000885,0,0
0:2:16.311,246.098,31.3367,0,0.000885,0,0
0:2:16.708,247.33,31.4884,0,0.000885,0,0
0:2:17.103,248.736,31.6676,0,0.000885,0,0
0:2:17.516,248.971,31.7021,0,0.000885,0,0
0:2:17.911,250.146,31.8469,0,0.000885,0,0
0:2:18.306,250.906,31.9434,0,0.000885,0,0
0:2:18.702,251.671,32.0468,0,0.000885,0,0
0:2:19.106,252.606,32.164,0,0.000885,0,0
0:2:19.507,253.544,32.2813,0,0.000885,0,0
0:2:19.908,253.958,32.3364,0,0.000885,0,0
0:2:20.308,254.425,32.3916,0,0.000885,0,0
0:2:20.701,256.066,32.6053,0,0.000885,0,0
0:2:21.106,256.36,32.6398,0,0.000885,0,0
0:2:21.521,257.067,32.7294,0,0.000885,0,0
0:2:21.918,258.415,32.9018,0,0.000885,0,0
0:2:22.315,258.709,32.9363,0,0.000885,0,0
0:2:22.705,259.878,33.0879,0,0.000885,0,0
0:2:23.108,260.995,33.2327,0,0.000885,0,0
0:2:23.509,260.937,33.2258,0,0.000885,0,0
0:2:23.914,261.524,33.2948,0,0.000885,0,0
0:2:24.314,262.107,33.3706,0,0.000885,0,0
0:2:24.714,262.988,33.4878,0,0.000885,0,0
0:2:25.116,264.104,33.6257,0,0.000885,0,0
0:2:25.513,264.162,33.6326,0,0.000885,0,0
0:2:25.909,265.63,33.8188,0,0.000885,0,0
0:2:26.310,266.506,33.936,0,0.000885,0,0
0:2:26.715,267.271,34.0325,0,0.000885,0,0
0:2:27.108,268.619,34.2049,0,0.000885,0,0
0:2:27.506,269.322,34.2945,0,0.000885,0,0
0:2:27.912,269.851,34.3566,0,0.000885,0,0
0:2:28.313,269.967,34.3704,0,0.000885,0,0
0:2:28.715,270.963,34.5014,0,0.000885,0,0
0:2:29.117,272.138,34.6531,0,0.000885,0,0
0:2:29.519,272.961,34.7565,0,0.000885,0,0
0:2:29.920,273.37,34.8047,0,0.000885,0,0
0:2:30.310,274.424,34.9426,0,0.000885,0,0
0:2:30.719,275.189,35.0392,0,0.000885,0,0
0:2:31.115,276.359,35.1839,0,0.000885,0,0
0:2:31.518,277.36,35.3149,0,0.000885,0,0
0:2:31.913,277.476,35.3287,0,0.000885,0,0
0:2:32.315,278.299,35.4322,0,0.000885,0,0
0:2:32.721,279.001,35.5218,0,0.000885,0,0
0:2:33.119,280.234,35.6804,0,0.000885,0,0
0:2:33.521,280.936,35.77,0,0.000885,0,0
0:2:33.923,281.346,35.8252,0,0.000885,0,0
0:2:34.324,281.523,35.8458,0,0.000885,0,0
0:2:34.723,282.929,36.0251,0,0.000885,0,0
0:2:35.124,283.752,36.1285,0,0.000885,0,0
0:2:35.517,284.633,36.2388,0,0.000885,0,0
0:2:35.910,285.1,36.3009,0,0.000885,0,0
0:2:36.307,285.745,36.3836,0,0.000885,0,0
0:2:36.714,287.213,36.5698,0,0.000885,0,0
0:2:37.106,287.8,36.6456,0,0.000885,0,0
0:2:37.508,288.151,36.687,0,0.000885,0,0
0:2:37.904,289.499,36.8594,0,0.000885,0,0
0:2:38.303,290.673,37.0111,0,0.000885,0,0
0:2:38.705,290.553,36.9973,0,0.000885,0,0
0:2:39.106,291.376,37.1007,0,0.000885,0,0
0:2:39.506,292.551,37.2455,0,0.000885,0,0
0:2:39.903,293.489,37.3696,0,0.000885,0,0
0:2:40.309,294.717,37.5282,0,0.000885,0,0
0:2:40.723,295.304,37.5971,0,0.000885,0,0
0:2:41.116,295.362,37.604,0,0.000885,0,0
0:2:41.511,295.776,37.6592,0,0.000885,0,0
0:2:41.919,297.653,37.9005,0,0.000885,0,0
0:2:42.310,298.062,37.9487,0,0.000885,0,0
0:2:42.711,298.529,38.0108,0,0.000885,0,0
0:2:43.117,299.703,38.1625,0,0.000885,0,0
0:2:43.517,300.175,38.2176,0,0.000885,0,0
0:2:43.921,301.229,38.3555,0,0.000885,0,0
0:2:44.323,301.99,38.4521,0,0.000885,0,0
0:2:44.722,302.697,38.5417,0,0.000885,0,0
0:2:45.119,303.809,38.6796,0,0.000885,0,0
0:2:45.516,304.16,38.7279,0,0.000885,0,0
0:2:45.908,304.69,38.7968,0,0.000885,0,0
0:2:46.309,305.335,38.8795,0,0.000885,0,0
0:2:46.705,306.567,39.0312,0,0.000885,0,0
0:2:47.103,307.741,39.1829,0,0.000885,0,0
0:2:47.507,308.208,39.245,0,0.000885,0,0
0:2:47.909,308.386,39.2656,0,0.000885,0,0
0:2:48.315,309.556,39.4173,0,0.000885,0,0
0:2:48.712,310.615,39.5483,0,0.000885,0,0
0:2:49.119,311.433,39.6517,0,0.000885,0,0
0:2:49.520,312.136,39.7414,0,0.000885,0,0
0:2:49.921,312.959,39.8448,0,0.000885,0,0
0:2:50.315,313.898,39.9689,0,0.000885,0,0
0:2:50.710,314.6,40.0585,0,0.000885,0,0
0:2:51.107,314.952,40.0999,0,0.000885,0,0
0:2:51.521,316.184,40.2585,0,0.000885,0,0
0:2:51.916,317.065,40.3688,0,0.000885,0,0
0:2:52.311,317.301,40.3964,0,0.000885,0,0
0:2:52.719,317.825,40.4653,0,0.000885,0,0
0:2:53.111,319.178,40.6377,0,0.000885,0,0
0:2:53.504,320.468,40.8032,0,0.000885,0,0
0:2:53.907,320.935,40.8652,0,0.000885,0,0
0:2:54.309,320.993,40.8721,0,0.000885,0,0
0:2:54.710,321.993,40.9962,0,0.000885,0,0
0:2:55.111,323.048,41.1341,0,0.000885,0,0
0:2:55.515,323.928,41.2444,0,0.000885,0,0
0:2:55.911,324.631,41.3341,0,0.000885,0,0
0:2:56.309,325.218,41.4099,0,0.000885,0,0
0:2:56.712,326.33,41.5478,0,0.000885,0,0
0:2:57.105,327.327,41.6788,0,0.000885,0,0
0:2:57.510,328.323,41.8029,0,0.000885,0,0
0:2:57.908,328.973,41.8857,0,0.000885,0,0
0:2:58.311,328.679,41.8512,0,0.000885,0,0
0:2:58.712,330.085,42.0304,0,0.000885,0,0
0:2:59.117,331.201,42.1683,0,0.000885,0,0
0:2:59.516,331.784,42.2442,0,0.000885,0,0
0:2:59.916,332.429,42.3269,0,0.000885,0,0
0:3:0.320,333.723,42.4924,0,0.000885,0,0
0:3:0.721,333.897,42.5131,0,0.000885,0,0
0:3:1.118,335.365,42.6992,0,0.000885,0,0
0:3:1.513,335.716,42.7475,0,0.000885,0,0
0:3:1.907,336.125,42.7958,0,0.000885,0,0
0:3:2.309,337.3,42.9474,0,0.000885,0,0
0:3:2.704,338.412,43.0853,0,0.000885,0,0
0:3:3.109,338.883,43.1474,0,0.000885,0,0
0:3:3.506,339.47,43.2232,0,0.000885,0,0
0:3:3.910,339.702,43.2508,0,0.000885,0,0
0:3:4.311,341.285,43.4508,0,0.000885,0,0
0:3:4.711,342.05,43.5542,0,0.000885,0,0
0:3:5.111,342.931,43.6645,0,0.000885,0,0
0:3:5.506,343.34,43.7128,0,0.000885,0,0
0:3:5.909,343.634,43.7541,0,0.000885,0,0
0:3:6.312,344.982,43.9265,0,0.000885,0,0
0:3:6.709,346.156,44.0713,0,0.000885,0,0
0:3:7.106,346.565,44.1264,0,0.000885,0,0
0:3:7.507,347.21,44.2092,0,0.000885,0,0
0:3:7.901,348.207,44.3333,0,0.000885,0,0
0:3:8.297,349.203,44.4643,0,0.000885,0,0
0:3:8.695,349.617,44.5126,0,0.000885,0,0
0:3:9.098,350.849,44.6711,0,0.000885,0,0
0:3:9.500,351.845,44.7952,0,0.000885,0,0
0:3:9.900,352.197,44.8435,0,0.000885,0,0
0:3:10.305,352.433,44.8711,0,0.000885,0,0
0:3:10.711,353.309,44.9883,0,0.000885,0,0
0:3:11.106,354.483,45.1331,0,0.000885,0,0
0:3:11.498,355.48,45.2641,0,0.000885,0,0
0:3:11.901,356.303,45.3675,0,0.000885,0,0
0:3:12.300,356.89,45.4433,0,0.000885,0,0
0:3:12.712,357.063,45.464,0,0.000885,0,0
0:3:13.106,358.531,45.6502,0,0.000885,0,0
0:3:13.508,359.35,45.7536,0,0.000885,0,0
0:3:13.911,360.35,45.8777,0,0.000885,0,0
0:3:14.310,361.053,45.9673,0,0.000885,0,0
0:3:14.710,360.995,45.9605,0,0.000885,0,0
0:3:15.104,361.814,46.0708,0,0.000885,0,0
0:3:15.499,363.282,46.2569,0,0.000885,0,0
0:3:15.896,363.985,46.3466,0,0.000885,0,0
0:3:16.309,364.981,46.4707,0,0.000885,0,0
0:3:16.723,365.977,46.5948,0,0.000885,0,0
0:3:17.114,366.507,46.6637,0,0.000885,0,0
0:3:17.512,366.507,46.6637,0,0.000885,0,0
0:3:17.920,367.912,46.843,0,0.000885,0,0
0:3:18.312,369.207,47.0085,0,0.000885,0,0
0:3:18.713,369.207,47.0085,0,0.000885,0,0
0:3:19.113,370.435,47.167,0,0.000885,0,0
0:3:19.515,371.315,47.2774,0,0.000885,0,0
0:3:19.919,371.902,47.3532,0,0.000885,0,0
0:3:20.321,372.725,47.4566,0,0.000885,0,0
0:3:20.724,373.37,47.5394,0,0.000885,0,0
0:3:21.120,373.664,47.5738,0,0.000885,0,0
0:3:21.527,375.248,47.7807,0,0.000885,0,0
0:3:21.922,376.417,47.9255,0,0.000885,0,0
0:3:22.311,376.538,47.9392,0,0.000885,0,0
0:3:22.707,376.889,47.9875,0,0.000885,0,0
0:3:23.105,378.179,48.153,0,0.000885,0,0
0:3:23.508,378.882,48.2426,0,0.000885,0,0
0:3:23.912,379.705,48.346,0,0.000885,0,0
0:3:24.312,379.82,48.3598,0,0.000885,0,0
0:3:24.712,381.52,48.5736,0,0.000885,0,0
0:3:25.113,381.697,48.6011,0,0.000885,0,0
0:3:25.514,382.342,48.6839,0,0.000885,0,0
0:3:25.908,383.868,48.8769,0,0.000885,0,0
0:3:26.314,384.455,48.9528,0,0.000885,0,0
0:3:26.711,385.158,49.0424,0,0.000885,0,0
0:3:27.107,385.861,49.132,0,0.000885,0,0
0:3:27.508,387.151,49.2906,0,0.000885,0,0
0:3:27.911,387.565,49.3458,0,0.000885,0,0
0:3:28.308,387.854,49.3803,0,0.000885,0,0
0:3:28.713,389.322,49.5733,0,0.000885,0,0
0:3:29.115,390.438,49.7112,0,0.000885,0,0
0:3:29.516,390.202,49.6836,0,0.000885,0,0
0:3:29.919,391.141,49.8008,0,0.000885,0,0
0:3:30.317,392.137,49.9318,0,0.000885,0,0
0:3:30.722,392.547,49.9801,0,0.000885,0,0
0:3:31.113,393.663,50.1249,0,0.000885,0,0
0:3:31.507,394.424,50.2214,0,0.000885,0,0
0:3:31.904,395.069,50.3041,0,0.000885,0,0
0:3:32.301,396.772,50.5179,0,0.000885,0,0
0:3:32.702,397.004,50.5455,0,0.000885,0,0
0:3:33.104,397.649,50.6282,0,0.000885,0,0
0:3:33.504,398.881,50.7868,0,0.000885,0,0
0:3:33.909,399.295,50.8419,0,0.000885,0,0
0:3:34.309,399.584,50.8764,0,0.000885,0,0
0:3:34.710,400.585,51.0005,0,0.000885,0,0
0:3:35.112,401.639,51.1384,0,0.000885,0,0
0:3:35.510,401.875,51.166,0,0.000885,0,0
0:3:35.907,403.458,51.3728,0,0.000885,0,0
0:3:36.320,403.867,51.4211,0,0.000885,0,0
0:3:36.711,404.806,51.5383,0,0.000885,0,0
0:3:37.106,405.802,51.6693,0,0.000885,0,0
0:3:37.504,406.332,51.7383,0,0.000885,0,0
0:3:37.898,407.212,51.8486,0,0.000885,0,0
0:3:38.289,407.737,51.9175,0,0.000885,0,0
0:3:38.691,408.151,51.9658,0,0.000885,0,0
0:3:39.093,409.614,52.1519,0,0.000885,0,0
0:3:39.493,410.202,52.2278,0,0.000885,0,0
0:3:39.893,410.495,52.2692,0,0.000885,0,0
0:3:40.287,411.727,52.4208,0,0.000885,0,0
0:3:40.682,412.488,52.5174,0,0.000885,0,0
0:3:41.079,413.311,52.6277,0,0.000885,0,0
0:3:41.472,414.25,52.7449,0,0.000885,0,0
0:3:41.866,414.659,52.7932,0,0.000885,0,0
0:3:42.261,416.127,52.9793,0,0.000885,0,0
0:3:42.658,416.772,53.0621,0,0.000885,0,0
0:3:43.054,416.945,53.0896,0,0.000885,0,0
0:3:43.445,418.119,53.2344,0,0.000885,0,0
0:3:43.847,418.297,53.262,0,0.000885,0,0
0:3:44.251,419.761,53.4482,0,0.000885,0,0
0:3:44.652,420.17,53.4964,0,0.000885,0,0
0:3:45.052,421.109,53.6205,0,0.000885,0,0
0:3:45.445,422.341,53.7722,0,0.000885,0,0
0:3:45.840,422.519,53.7998,0,0.000885,0,0
0:3:46.240,423.751,53.9515,0,0.000885,0,0
0:3:46.633,424.512,54.048,0,0.000885,0,0
0:3:47.026,424.863,54.0963,0,0.000885,0,0
0:3:47.420,425.686,54.1997,0,0.000885,0,0
0:3:47.815,426.682,54.3238,0,0.000885,0,0
0:3:48.212,427.563,54.441,0,0.000885,0,0
0:3:48.613,428.795,54.5927,0,0.000885,0,0
0:3:49.014,428.733,54.5858,0,0.000885,0,0
0:3:49.414,429.792,54.7237,0,0.000885,0,0
0:3:49.812,430.846,54.8547,0,0.000885,0,0
0:3:50.205,431.197,54.903,0,0.000885,0,0
0:3:50.598,432.136,55.0202,0,0.000885,0,0
0:3:50.995,432.429,55.0615,0,0.000885,0,0
0:3:51.392,433.84,55.2408,0,0.000885,0,0
0:3:51.786,434.542,55.3304,0,0.000885,0,0
0:3:52.178,434.6,55.3373,0,0.000885,0,0
0:3:52.573,436.068,55.5235,0,0.000885,0,0
0:3:52.969,436.299,55.5511,0,0.000885,0,0
0:3:53.364,437.652,55.7234,0,0.000885,0,0
0:3:53.767,438.177,55.7924,0,0.000885,0,0
0:3:54.169,438.942,55.8889,0,0.000885,0,0
0:3:54.569,440.174,56.0475,0,0.000885,0,0
0:3:54.970,440.347,56.0682,0,0.000885,0,0
0:3:55.364,441.579,56.2267,0,0.000885,0,0
0:3:55.761,441.989,56.275,0,0.000885,0,0
0:3:56.153,443.163,56.4267,0,0.000885,0,0
0:3:56.550,443.163,56.4267,0,0.000885,0,0
0:3:56.948,444.395,56.5853,0,0.000885,0,0
0:3:57.341,444.982,56.6542,0,0.000885,0,0
0:3:57.735,446.272,56.8197,0,0.000885,0,0
0:3:58.130,446.624,56.868,0,0.000885,0,0
0:3:58.528,447.798,57.0127,0,0.000885,0,0
0:3:58.932,448.501,57.1024,0,0.000885,0,0
0:3:59.332,448.968,57.1644,0,0.000885,0,0
0:3:59.733,450.2,57.323,0,0.000885,0,0
0:4:0.130,450.436,57.3506,0,0.000885,0,0
0:4:0.527,451.552,57.4954,0,0.000885,0,0
0:4:0.920,452.664,57.6333,0,0.000885,0,0
0:4:1.324,453.252,57.7091,0,0.000885,0,0
0:4:1.714,454.426,57.8608,0,0.000885,0,0
0:4:2.113,454.484,57.8677,0,0.000885,0,0
0:4:2.508,455.538,57.9987,0,0.000885,0,0
0:4:2.910,455.302,57.9711,0,0.000885,0,0
0:4:3.305,457.179,58.2124,0,0.000885,0,0
0:4:3.705,457.299,58.2262,0,0.000885,0,0
0:4:4.110,458.589,58.3917,0,0.000885,0,0
0:4:4.510,459.35,58.4882,0,0.000885,0,0
0:4:4.910,459.586,58.5158,0,0.000885,0,0
0:4:5.305,460.524,58.633,0,0.000885,0,0
0:4:5.711,462.05,58.833,0,0.000885,0,0
0:4:6.118,462.344,58.8674,0,0.000885,0,0
0:4:6.513,463.571,59.026,0,0.000885,0,0
0:4:6.914,463.749,59.0467,0,0.000885,0,0
0:4:7.323,464.804,59.1777,0,0.000885,0,0
0:4:7.718,465.217,59.2329,0,0.000885,0,0
0:4:8.113,466.329,59.3776,0,0.000885,0,0
0:4:8.516,467.032,59.4673,0,0.000885,0,0
0:4:8.917,467.971,59.5845,0,0.000885,0,0
0:4:9.317,469.439,59.7707,0,0.000885,0,0
0:4:9.718,469.554,59.7844,0,0.000885,0,0
0:4:10.134,471.138,59.9844,0,0.000885,0,0
0:4:10.528,471.2,59.9982,0,0.000885,0,0
0:4:10.918,471.961,60.0947,0,0.000885,0,0
0:4:11.326,472.139,60.1154,0,0.000885,0,0
0:4:11.721,473.135,60.2395,0,0.000885,0,0
0:4:12.114,474.541,60.4188,0,0.000885,0,0
0:4:12.516,474.425,60.405,0,0.000885,0,0
0:4:12.921,476.182,60.6325,0,0.000885,0,0
0:4:13.319,476.947,60.729,0,0.000885,0,0
0:4:13.725,477.708,60.8255,0,0.000885,0,0
0:4:14.126,478.589,60.9359,0,0.000885,0,0
0:4:14.526,479.176,61.0117,0,0.000885,0,0
0:4:14.932,479.056,60.9979,0,0.000885,0,0
0:4:15.329,480.466,61.1772,0,0.000885,0,0
0:4:15.721,481.284,61.2806,0,0.000885,0,0
0:4:16.115,482.401,61.4185,0,0.000885,0,0
0:4:16.509,483.104,61.5081,0,0.000885,0,0
0:4:16.908,483.869,61.6047,0,0.000885,0,0
0:4:17.313,484.394,61.6736,0,0.000885,0,0
0:4:17.714,484.981,61.7494,0,0.000885,0,0
0:4:18.118,486.329,61.9218,0,0.000885,0,0
0:4:18.519,486.271,61.9149,0,0.000885,0,0
0:4:18.924,487.796,62.108,0,0.000885,0,0
0:4:19.321,487.97,62.1287,0,0.000885,0,0
0:4:19.724,489.674,62.3493,0,0.000885,0,0
0:4:20.115,490.083,62.3976,0,0.000885,0,0
0:4:20.519,490.554,62.4596,0,0.000885,0,0
0:4:20.917,491.373,62.563,0,0.000885,0,0
0:4:21.322,492.369,62.694,0,0.000885,0,0
0:4:21.714,493.486,62.8319,0,0.000885,0,0
0:4:22.109,493.837,62.8802,0,0.000885,0,0
0:4:22.514,495.243,63.0595,0,0.000885,0,0
0:4:22.920,495.127,63.0388,0,0.000885,0,0
0:4:23.314,496.768,63.2525,0,0.000885,0,0
0:4:23.716,496.946,63.2732,0,0.000885,0,0
0:4:24.117,497.827,63.3835,0,0.000885,0,0
0:4:24.518,498.646,63.4869,0,0.000885,0,0
0:4:24.918,498.997,63.5352,0,0.000885,0,0
0:4:25.312,500.581,63.7351,0,0.000885,0,0
0:4:25.725,500.874,63.7765,0,0.000885,0,0
0:4:26.130,501.813,63.8937,0,0.000885,0,0
0:4:26.528,502.694,64.004,0,0.000885,0,0
0:4:26.920,504.041,64.1764,0,0.000885,0,0
0:4:27.313,503.806,64.1488,0,0.000885,0,0
0:4:27.707,504.393,64.2247,0,0.000885,0,0
0:4:28.112,505.976,64.4246,0,0.000885,0,0
0:4:28.519,506.799,64.528,0,0.000885,0,0
0:4:28.922,506.915,64.5418,0,0.000885,0,0
0:4:29.325,508.383,64.728,0,0.000885,0,0
0:4:29.726,509.143,64.8245,0,0.000885,0,0
0:4:30.123,509.437,64.8659,0,0.000885,0,0
0:4:30.527,509.788,64.9072,0,0.000885,0,0
0:4:30.918,511.141,65.0796,0,0.000885,0,0
0:4:31.322,512.431,65.2451,0,0.000885,0,0
0:4:31.720,513.076,65.3278,0,0.000885,0,0
0:4:32.114,513.191,65.3416,0,0.000885,0,0
0:4:32.507,514.423,65.5002,0,0.000885,0,0
0:4:32.918,515.068,65.5829,0,0.000885,0,0
0:4:33.317,515.068,65.5829,0,0.000885,0,0
0:4:33.721,515.891,65.6864,0,0.000885,0,0
0:4:34.121,517.003,65.8242,0,0.000885,0,0
0:4:34.522,518.645,66.038,0,0.000885,0,0
0:4:34.918,519.641,66.1621,0,0.000885,0,0
0:4:35.322,519.468,66.1414,0,0.000885,0,0
0:4:35.717,520.171,66.231,0,0.000885,0,0
0:4:36.132,521.225,66.362,0,0.000885,0,0
0:4:36.521,522.457,66.5206,0,0.000885,0,0
0:4:36.920,523.396,66.6378,0,0.000885,0,0
0:4:37.317,523.983,66.7137,0,0.000885,0,0
0:4:37.717,524.276,66.755,0,0.000885,0,0
0:4:38.110,524.863,66.8309,0,0.000885,0,0
0:4:38.512,526.153,66.9895,0,0.000885,0,0
0:4:38.917,526.798,67.0722,0,0.000885,0,0
0:4:39.316,527.386,67.148,0,0.000885,0,0
0:4:39.717,528.146,67.2446,0,0.000885,0,0
0:4:40.120,528.969,67.348,0,0.000885,0,0
0:4:40.528,530.495,67.5479,0,0.000885,0,0
0:4:40.933,530.904,67.5962,0,0.000885,0,0
0:4:41.327,531.665,67.6927,0,0.000885,0,0
0:4:41.717,532.603,67.8168,0,0.000885,0,0
0:4:42.114,533.604,67.9409,0,0.000885,0,0
0:4:42.511,533.893,67.9754,0,0.000885,0,0
0:4:42.913,534.481,68.0513,0,0.000885,0,0
0:4:43.308,535.419,68.1685,0,0.000885,0,0
0:4:43.710,536.945,68.3684,0,0.000885,0,0
0:4:44.113,537.238,68.4029,0,0.000885,0,0
0:4:44.512,538.293,68.5408,0,0.000885,0,0
0:4:44.913,539.293,68.6649,0,0.000885,0,0
0:4:45.306,539.467,68.6856,0,0.000885,0,0
0:4:45.700,539.938,68.7476,0,0.000885,0,0
0:4:46.096,540.877,68.8648,0,0.000885,0,0
0:4:46.489,541.344,68.9269,0,0.000885,0,0
0:4:46.882,542.283,69.0441,0,0.000885,0,0
0:4:47.276,542.692,69.0993,0,0.000885,0,0
0:4:47.674,543.751,69.2303,0,0.000885,0,0
0:4:48.069,544.92,69.3819,0,0.000885,0,0
0:4:48.473,545.801,69.4923,0,0.000885,0,0
0:4:48.873,546.273,69.5543,0,0.000885,0,0
0:4:49.274,547.269,69.6784,0,0.000885,0,0
0:4:49.672,547.678,69.7336,0,0.000885,0,0
0:4:50.067,548.795,69.8715,0,0.000885,0,0
0:4:50.459,549.613,69.9818,0,0.000885,0,0
0:4:50.857,550.316,70.0714,0,0.000885,0,0
0:4:51.253,551.023,70.1611,0,0.000885,0,0
0:4:51.648,551.726,70.2507,0,0.000885,0,0
0:4:52.040,552.429,70.3403,0,0.000885,0,0
0:4:52.435,553.31,70.4506,0,0.000885,0,0
0:4:52.833,554.191,70.5609,0,0.000885,0,0
0:4:53.229,554.893,70.6506,0,0.000885,0,0
0:4:53.631,556.183,70.8161,0,0.000885,0,0
0:4:54.032,556.713,70.885,0,0.000885,0,0
0:4:54.433,557.647,71.0022,0,0.000885,0,0
0:4:54.833,558.118,71.0643,0,0.000885,0,0
0:4:55.228,559.173,71.1953,0,0.000885,0,0
0:4:55.631,559.996,71.2987,0,0.000885,0,0
0:4:56.036,560.231,71.3332,0,0.000885,0,0
0:4:56.434,561.521,71.4917,0,0.000885,0,0
0:4:56.838,561.579,71.5055,0,0.000885,0,0
0:4:57.233,562.753,71.6503,0,0.000885,0,0
0:4:57.636,563.278,71.7193,0,0.000885,0,0
0:4:58.033,564.51,71.8778,0,0.000885,0,0
0:4:58.431,565.565,72.0088,0,0.000885,0,0
0:4:58.834,566.566,72.1398,0,0.000885,0,0
0:4:59.236,566.975,72.1881,0,0.000885,0,0
0:4:59.636,567.971,72.3191,0,0.000885,0,0
0:5:0.033,568.029,72.326,0,0.000885,0,0
0:5:0.429,568.968,72.4432,0,0.000885,0,0
0:5:0.831,569.555,72.5191,0,0.000885,0,0
0:5:1.223,570.493,72.6363,0,0.000885,0,0
0:5:1.621,571.548,72.7742,0,0.000885,0,0
0:5:2.026,572.544,72.8983,0,0.000885,0,0
0:5:2.431,573.193,72.981,0,0.000885,0,0
0:5:2.835,573.193,72.981,0,0.000885,0,0
0:5:3.235,574.541,73.1534,0,0.000885,0,0
0:5:3.639,575.36,73.2568,0,0.000885,0,0
0:5:4.041,576.361,73.3809,0,0.000885,0,0
0:5:4.440,577.121,73.4843,0,0.000885,0,0
0:5:4.835,577.824,73.574,0,0.000885,0,0
0:5:5.232,578.589,73.6705,0,0.000885,0,0
0:5:5.625,579.172,73.7394,0,0.000885,0,0
0:5:6.020,580.23,73.8773,0,0.000885,0,0
0:5:6.412,580.64,73.9325,0,0.000885,0,0
0:5:6.809,581.578,74.0497,0,0.000885,0,0
0:5:7.206,582.695,74.1876,0,0.000885,0,0
0:5:7.600,582.926,74.2221,0,0.000885,0,0
0:5:7.994,583.691,74.3186,0,0.000885,0,0
0:5:8.394,584.394,74.4082,0,0.000885,0,0
0:5:8.798,585.275,74.5185,0,0.000885,0,0
0:5:9.199,586.329,74.6564,0,0.000885,0,0
0:5:9.600,587.032,74.7461,0,0.000885,0,0
0:5:9.994,588.09,74.8771,0,0.000885,0,0
0:5:10.390,588.5,74.9322,0,0.000885,0,0
0:5:10.787,589.496,75.0563,0,0.000885,0,0
0:5:11.181,590.377,75.1666,0,0.000885,0,0
0:5:11.572,590.67,75.208,0,0.000885,0,0
0:5:11.968,591.96,75.3735,0,0.000885,0,0
0:5:12.368,592.957,75.4976,0,0.000885,0,0
0:5:12.764,594.131,75.6493,0,0.000885,0,0
0:5:13.159,594.54,75.6975,0,0.000885,0,0
0:5:13.563,594.776,75.732,0,0.000885,0,0
0:5:13.969,595.893,75.8699,0,0.000885,0,0
0:5:14.371,596.716,75.9733,0,0.000885,0,0
0:5:14.773,596.595,75.9595,0,0.000885,0,0
0:5:15.168,597.534,76.0836,0,0.000885,0,0
0:5:15.567,598.828,76.2422,0,0.000885,0,0
0:5:15.964,599.296,76.3043,0,0.000885,0,0
0:5:16.361,600.176,76.4146,0,0.000885,0,0
0:5:16.756,601.235,76.5525,0,0.000885,0,0
0:5:17.153,601.586,76.5939,0,0.000885,0,0
0:5:17.552,602.876,76.7593,0,0.000885,0,0
0:5:17.950,603.641,76.8559,0,0.000885,0,0
0:5:18.354,603.815,76.8834,0,0.000885,0,0
0:5:18.758,605.225,77.0627,0,0.000885,0,0
0:5:19.161,605.812,77.1316,0,0.000885,0,0
0:5:19.563,606.929,77.2764,0,0.000885,0,0
0:5:19.959,607.516,77.3523,0,0.000885,0,0
0:5:20.355,608.277,77.4488,0,0.000885,0,0
0:5:20.751,609.571,77.6143,0,0.000885,0,0
0:5:21.149,610.096,77.6832,0,0.000885,0,0
0:5:21.545,610.452,77.7246,0,0.000885,0,0
0:5:21.940,610.625,77.7453,0,0.000885,0,0
0:5:22.335,612.093,77.9314,0,0.000885,0,0
0:5:22.734,612.738,78.0142,0,0.000885,0,0
0:5:23.133,613.325,78.09,0,0.000885,0,0
0:5:23.539,614.148,78.1934,0,0.000885,0,0
0:5:23.943,615.38,78.352,0,0.000885,0,0
0:5:24.345,616.025,78.4348,0,0.000885,0,0
0:5:24.745,617.084,78.5727,0,0.000885,0,0
0:5:25.142,617.787,78.6623,0,0.000885,0,0
0:5:25.537,618.08,78.6968,0,0.000885,0,0
0:5:25.932,618.903,78.8002,0,0.000885,0,0
0:5:26.329,619.548,78.8829,0,0.000885,0,0
0:5:26.727,620.487,79.0001,0,0.000885,0,0
0:5:27.135,621.661,79.1518,0,0.000885,0,0
0:5:27.527,622.6,79.269,0,0.000885,0,0
0:5:27.925,623.658,79.4069,0,0.000885,0,0
0:5:28.325,624.068,79.4621,0,0.000885,0,0
0:5:28.733,624.655,79.531,0,0.000885,0,0
0:5:29.136,625.945,79.6965,0,0.000885,0,0
0:5:29.536,626.474,79.7654,0,0.000885,0,0
0:5:29.934,626.946,79.8275,0,0.000885,0,0
0:5:30.333,627.942,79.9516,0,0.000885,0,0
0:5:30.726,628.587,80.0343,0,0.000885,0,0
0:5:31.121,629.001,80.0895,0,0.000885,0,0
0:5:31.520,630.291,80.2481,0,0.000885,0,0
0:5:31.919,631.051,80.3515,0,0.000885,0,0
0:5:32.316,631.816,80.448,0,0.000885,0,0
0:5:32.729,632.288,80.5032,0,0.000885,0,0
0:5:33.135,632.871,80.579,0,0.000885,0,0
0:5:33.540,633.636,80.6756,0,0.000885,0,0
0:5:33.942,634.81,80.8272,0,0.000885,0,0
0:5:34.345,635.575,80.9238,0,0.000885,0,0
0:5:34.740,636.278,81.0134,0,0.000885,0,0
0:5:35.138,637.159,81.1237,0,0.000885,0,0
0:5:35.537,637.982,81.2271,0,0.000885,0,0
0:5:35.935,638.92,81.3512,0,0.000885,0,0
0:5:36.337,639.739,81.4547,0,0.000885,0,0
0:5:36.733,640.562,81.5581,0,0.000885,0,0
0:5:37.133,641.5,81.6753,0,0.000885,0,0
0:5:37.529,642.03,81.7442,0,0.000885,0,0
0:5:37.935,643.088,81.8821,0,0.000885,0,0
0:5:38.340,644.143,82.0131,0,0.000885,0,0
0:5:38.743,644.494,82.0614,0,0.000885,0,0
0:5:39.145,645.317,82.1648,0,0.000885,0,0
0:5:39.547,646.376,82.2958,0,0.000885,0,0
0:5:39.942,646.963,82.3717,0,0.000885,0,0
0:5:40.337,647.43,82.4337,0,0.000885,0,0
0:5:40.738,647.959,82.5027,0,0.000885,0,0
0:5:41.135,648.955,82.6268,0,0.000885,0,0
0:5:41.528,649.894,82.744,0,0.000885,0,0
0:5:41.924,650.659,82.8474,0,0.000885,0,0
0:5:42.320,651.304,82.9232,0,0.000885,0,0
0:5:42.719,652.363,83.0611,0,0.000885,0,0
0:5:43.116,653.066,83.1508,0,0.000885,0,0
0:5:43.520,653.595,83.2197,0,0.000885,0,0
0:5:43.923,654.298,83.3094,0,0.000885,0,0
0:5:44.325,655.294,83.4335,0,0.000885,0,0
0:5:44.728,656.117,83.5369,0,0.000885,0,0
0:5:45.124,656.704,83.6127,0,0.000885,0,0
0:5:45.527,657.821,83.7575,0,0.000885,0,0
0:5:45.927,658.875,83.8885,0,0.000885,0,0
0:5:46.326,659.169,83.9299,0,0.000885,0,0
0:5:46.734,659.698,83.9988,0,0.000885,0,0
0:5:47.129,660.872,84.1436,0,0.000885,0,0
0:5:47.535,661.931,84.2815,0,0.000885,0,0
0:5:47.933,662.047,84.2953,0,0.000885,0,0
0:5:48.331,663.279,84.4539,0,0.000885,0,0
0:5:48.739,664.511,84.6056,0,0.000885,0,0
0:5:49.143,664.453,84.5987,0,0.000885,0,0
0:5:49.544,665.334,84.7159,0,0.000885,0,0
0:5:49.944,666.157,84.8193,0,0.000885,0,0
0:5:50.340,667.447,84.9848,0,0.000885,0,0
0:5:50.735,667.505,84.9917,0,0.000885,0,0
0:5:51.130,668.385,85.102,0,0.000885,0,0
0:5:51.531,668.915,85.1709,0,0.000885,0,0
0:5:51.928,670.325,85.3502,0,0.000885,0,0
0:5:52.331,671.143,85.4536,0,0.000885,0,0
0:5:52.727,672.144,85.5777,0,0.000885,0,0
0:5:53.129,672.495,85.626,0,0.000885,0,0
0:5:53.537,673.612,85.7639,0,0.000885,0,0
0:5:53.940,673.843,85.7984,0,0.000885,0,0
0:5:54.342,675.196,85.9707,0,0.000885,0,0
0:5:54.740,675.663,86.0259,0,0.000885,0,0
0:5:55.138,676.192,86.0948,0,0.000885,0,0
0:5:55.535,677.718,86.2879,0,0.000885,0,0
0:5:55.929,677.896,86.3155,0,0.000885,0,0
0:5:56.334,678.95,86.4465,0,0.000885,0,0
0:5:56.731,679.893,86.5637,0,0.000885,0,0
0:5:57.130,680.48,86.6395,0,0.000885,0,0
0:5:57.525,681.241,86.736,0,0.000885,0,0
0:5:57.922,682.121,86.8533,0,0.000885,0,0
0:5:58.324,682.531,86.9015,0,0.000885,0,0
0:5:58.730,683.941,87.0808,0,0.000885,0,0
0:5:59.135,684.177,87.1153,0,0.000885,0,0
0:5:59.536,684.999,87.2187,0,0.000885,0,0
0:5:59.930,686.174,87.3635,0,0.000885,0,0
0:6:0.339,686.699,87.4324,0,0.000885,0,0
0:6:0.739,687.344,87.5152,0,0.000885,0,0
0:6:1.136,688.638,87.6806,0,0.000885,0,0
0:6:1.527,688.344,87.6393,0,0.000885,0,0
0:6:1.924,689.634,87.8047,0,0.000885,0,0
0:6:2.323,691.16,88.0047,0,0.000885,0,0
0:6:2.728,691.632,88.0598,0,0.000885,0,0
0:6:3.124,692.041,88.115,0,0.000885,0,0
0:6:3.527,692.335,88.1495,0,0.000885,0,0
0:6:3.932,693.625,88.3149,0,0.000885,0,0
0:6:4.336,694.977,88.4873,0,0.000885,0,0
0:6:4.737,695.622,88.5701,0,0.000885,0,0
0:6:5.129,695.915,88.6045,0,0.000885,0,0
0:6:5.528,696.974,88.7424,0,0.000885,0,0
0:6:5.926,697.561,88.8183,0,0.000885,0,0
0:6:6.323,698.206,88.901,0,0.000885,0,0
0:6:6.718,699.087,89.0113,0,0.000885,0,0
0:6:7.114,699.848,89.1078,0,0.000885,0,0
0:6:7.512,700.671,89.2113,0,0.000885,0,0
0:6:7.911,701.493,89.3147,0,0.000885,0,0
0:6:8.316,702.254,89.4112,0,0.000885,0,0
0:6:8.720,703.313,89.5491,0,0.000885,0,0
0:6:9.122,704.429,89.687,0,0.000885,0,0
0:6:9.523,705.012,89.7628,0,0.000885,0,0
0:6:9.930,705.719,89.8525,0,0.000885,0,0
0:6:10.323,706.013,89.8938,0,0.000885,0,0
0:6:10.719,706.6,89.9697,0,0.000885,0,0
0:6:11.118,707.712,90.1076,0,0.000885,0,0
0:6:11.525,708.593,90.2179,0,0.000885,0,0
0:6:11.930,709.122,90.2868,0,0.000885,0,0
0:6:12.336,710.123,90.4178,0,0.000885,0,0
0:6:12.731,711.293,90.5626,0,0.000885,0,0
0:6:13.132,712.529,90.7212,0,0.000885,0,0
0:6:13.540,713.117,90.7971,0,0.000885,0,0
0:6:13.943,713.584,90.8591,0,0.000885,0,0
0:6:14.345,714.171,90.9281,0,0.000885,0,0
0:6:14.742,715.461,91.0935,0,0.000885,0,0
0:6:15.142,715.461,91.0935,0,0.000885,0,0
0:6:15.537,716.462,91.2245,0,0.000885,0,0
0:6:15.931,717.222,91.3211,0,0.000885,0,0
0:6:16.328,717.636,91.3693,0,0.000885,0,0
0:6:16.726,718.926,91.5348,0,0.000885,0,0
0:6:17.123,719.513,91.6106,0,0.000885,0,0
0:6:17.518,720.51,91.7416,0,0.000885,0,0
0:6:17.915,721.568,91.8726,0,0.000885,0,0
0:6:18.316,721.978,91.9278,0,0.000885,0,0
0:6:18.722,722.8,92.0312,0,0.000885,0,0
0:6:19.125,723.503,92.1209,0,0.000885,0,0
0:6:19.526,724.798,92.2863,0,0.000885,0,0
0:6:19.932,724.735,92.2794,0,0.000885,0,0
0:6:20.332,724.971,92.307,0,0.000885,0,0
0:6:20.729,727.026,92.569,0,0.000885,0,0
0:6:21.131,727.671,92.6517,0,0.000885,0,0
0:6:21.528,728.143,92.7069,0,0.000885,0,0
0:6:21.926,729.255,92.8517,0,0.000885,0,0
0:6:22.323,729.081,92.831,0,0.000885,0,0
0:6:22.720,730.843,93.0516,0,0.000885,0,0
0:6:23.114,731.194,93.0999,0,0.000885,0,0
0:6:23.517,731.839,93.1826,0,0.000885,0,0
0:6:23.923,733.543,93.3964,0,0.000885,0,0
0:6:24.325,733.365,93.3757,0,0.000885,0,0
0:6:24.727,734.188,93.4791,0,0.000885,0,0
0:6:25.131,726.675,92.5207,0,0.000885,0,0
0:6:25.382,550.143,70.0438,0,0.000885,0,0