File: DataFile2021-06-09_055013.csv
Test ID:,Date Tested:,Time:,Test Type:,Diameter Avg. (mm):,Cyl. Corr. Factor:,Height (mm):,Age (days):,Weight (kN):,Break Type:,Ramp Rate (MPa/s):,Load at Break (kN):,Stress at Break (MPa):
12,6/9/2021,05:50,Cylinder,100,1,200,0,3.6,3,0.23,297.24,37.85
Sample Time,Load (kN),Stress (MPa),Long. Strain,Trans. Strain,Chan1 Deflection (mm),Chan2 Deflection (mm)
0:0:18.243,5.8672,0.744634,0,0.000885,0,0
0:0:18.440,11.2629,1.43411,0,0.000885,0,0
0:0:18.640,11.9657,1.52374,0,0.000885,0,0
0:0:18.837,11.9657,1.52374,0,0.000885,0,0
0:0:19.036,10.9693,1.39964,0,0.000885,0,0
0:0:19.234,10.6757,1.35827,0,0.000885,0,0
0:0:19.429,10.5556,1.34448,0,0.000885,0,0
0:0:19.630,10.3243,1.3169,0,0.000885,0,0
0:0:19.828,9.73716,1.24106,0,0.000885,0,0
0:0:20.025,9.73716,1.24106,0,0.000885,0,0
0:0:20.226,9.96846,1.26864,0,0.000885,0,0
0:0:20.419,9.61706,1.22727,0,0.000885,0,0
0:0:20.620,9.96846,1.26864,0,0.000885,0,0
0:0:20.819,9.44357,1.19969,0,0.000885,0,0
0:0:21.014,9.38575,1.19279,0,0.000885,0,0
0:0:21.216,10.3821,1.32379,0,0.000885,0,0
0:0:21.412,10.6179,1.35137,0,0.000885,0,0
0:0:21.610,10.6179,1.35137,0,0.000885,0,0
0:0:21.810,10.9693,1.39964,0,0.000885,0,0
0:0:22.005,11.9657,1.52374,0,0.000885,0,0
0:0:22.207,12.375,1.5789,0,0.000885,0,0
0:0:22.405,12.9043,1.64095,0,0.000885,0,0
0:0:22.602,13.0199,1.65474,0,0.000885,0,0
0:0:22.805,13.4915,1.71679,0,0.000885,0,0
0:0:22.999,13.9585,1.77885,0,0.000885,0,0
0:0:23.199,15.075,1.91674,0,0.000885,0,0
0:0:23.398,14.8393,1.88916,0,0.000885,0,0
0:0:23.603,15.4843,1.9719,0,0.000885,0,0
0:0:23.805,15.7778,2.00637,0,0.000885,0,0
0:0:24.007,15.8357,2.01327,0,0.000885,0,0
0:0:24.210,16.0714,2.04774,0,0.000885,0,0
0:0:24.413,16.8321,2.14427,0,0.000885,0,0
0:0:24.615,17.3036,2.20632,0,0.000885,0,0
0:0:24.816,17.4192,2.22011,0,0.000885,0,0
0:0:25.018,17.655,2.24769,0,0.000885,0,0
0:0:25.219,18.1799,2.31664,0,0.000885,0,0
0:0:25.421,17.1835,2.18564,0,0.000885,0,0
0:0:25.616,19.7056,2.50969,0,0.000885,0,0
0:0:25.818,20.4084,2.59932,0,0.000885,0,0
0:0:26.016,20.6442,2.6269,0,0.000885,0,0
0:0:26.216,21.4093,2.72343,0,0.000885,0,0
0:0:26.418,21.5828,2.75101,0,0.000885,0,0
0:0:26.612,21.992,2.79927,0,0.000885,0,0
0:0:26.814,22.5213,2.86822,0,0.000885,0,0
0:0:27.014,22.9929,2.93027,0,0.000885,0,0
0:0:27.210,23.4021,2.97854,0,0.000885,0,0
0:0:27.413,23.8113,3.03369,0,0.000885,0,0
0:0:27.607,23.8113,3.03369,0,0.000885,0,0
0:0:27.808,24.2828,3.08885,0,0.000885,0,0
0:0:28.008,24.6921,3.14401,0,0.000885,0,0
0:0:28.204,25.1013,3.19917,0,0.000885,0,0
0:0:28.407,25.3371,3.22675,0,0.000885,0,0
0:0:28.609,26.2756,3.34396,0,0.000885,0,0
0:0:28.813,26.5692,3.38533,0,0.000885,0,0
0:0:29.016,27.0363,3.44048,0,0.000885,0,0
0:0:29.217,26.805,3.4129,0,0.000885,0,0
0:0:29.420,27.2142,3.46806,0,0.000885,0,0
0:0:29.622,27.8592,3.54391,0,0.000885,0,0
0:0:29.824,28.1528,3.58527,0,0.000885,0,0
0:0:30.026,28.562,3.63354,0,0.000885,0,0
0:0:30.222,28.74,3.66112,0,0.000885,0,0
0:0:30.423,28.8556,3.67491,0,0.000885,0,0
0:0:30.622,29.852,3.79901,0,0.000885,0,0
0:0:30.818,30.0878,3.83349,0,0.000885,0,0
0:0:31.021,30.2034,3.84727,0,0.000885,0,0
0:0:31.217,30.7906,3.92312,0,0.000885,0,0
0:0:31.420,30.9685,3.9438,0,0.000885,0,0
0:0:31.617,31.3199,3.98517,0,0.000885,0,0
0:0:31.813,31.6135,4.02654,0,0.000885,0,0
0:0:32.016,32.2585,4.10928,0,0.000885,0,0
0:0:32.213,32.2585,4.10928,0,0.000885,0,0
0:0:32.414,32.9613,4.19891,0,0.000885,0,0
0:0:32.614,33.4907,4.26096,0,0.000885,0,0
0:0:32.809,33.6063,4.28164,0,0.000885,0,0
0:0:33.010,33.8421,4.30922,0,0.000885,0,0
0:0:33.209,34.8385,4.43333,0,0.000885,0,0
0:0:33.407,34.8385,4.43333,0,0.000885,0,0
0:0:33.609,35.3678,4.50228,0,0.000885,0,0
0:0:33.811,35.777,4.55743,0,0.000885,0,0
0:0:34.015,36.6578,4.66775,0,0.000885,0,0
0:0:34.218,36.8891,4.69533,0,0.000885,0,0
0:0:34.419,37.245,4.74359,0,0.000885,0,0
0:0:34.621,37.1827,4.7367,0,0.000885,0,0
0:0:34.823,37.89,4.82633,0,0.000885,0,0
0:0:35.026,38.2414,4.8677,0,0.000885,0,0
0:0:35.224,38.4148,4.88838,0,0.000885,0,0
0:0:35.422,38.6506,4.92286,0,0.000885,0,0
0:0:35.624,39.1177,4.97801,0,0.000885,0,0
0:0:35.822,39.5892,5.04007,0,0.000885,0,0
0:0:36.020,40.0562,5.10212,0,0.000885,0,0
0:0:36.220,40.7635,5.19175,0,0.000885,0,0
0:0:36.418,41.1149,5.23312,0,0.000885,0,0
0:0:36.619,41.4663,5.28138,0,0.000885,0,0
0:0:36.816,41.7599,5.31586,0,0.000885,0,0
0:0:37.014,42.4049,5.39859,0,0.000885,0,0
0:0:37.216,42.5784,5.41928,0,0.000885,0,0
0:0:37.410,43.2234,5.50202,0,0.000885,0,0
0:0:37.613,43.517,5.54338,0,0.000885,0,0
0:0:37.812,43.7527,5.57096,0,0.000885,0,0
0:0:38.009,44.1041,5.61233,0,0.000885,0,0
0:0:38.211,44.1619,5.62612,0,0.000885,0,0
0:0:38.406,44.6335,5.68128,0,0.000885,0,0
0:0:38.606,45.4519,5.7847,0,0.000885,0,0
0:0:38.808,45.8078,5.83296,0,0.000885,0,0
0:0:39.011,46.1014,5.86744,0,0.000885,0,0
0:0:39.214,46.217,5.88123,0,0.000885,0,0
0:0:39.417,46.9198,5.97086,0,0.000885,0,0
0:0:39.619,47.1556,6.00533,0,0.000885,0,0
0:0:39.819,47.3291,6.02602,0,0.000885,0,0
0:0:40.021,48.0363,6.11565,0,0.000885,0,0
0:0:40.223,48.3878,6.16391,0,0.000885,0,0
0:0:40.421,48.6813,6.19839,0,0.000885,0,0
0:0:40.619,49.3842,6.28802,0,0.000885,0,0
0:0:40.820,49.3263,6.28112,0,0.000885,0,0
0:0:41.016,49.6777,6.32249,0,0.000885,0,0
0:0:41.217,50.3227,6.40523,0,0.000885,0,0
0:0:41.415,50.4384,6.41902,0,0.000885,0,0
0:0:41.613,51.6127,6.5707,0,0.000885,0,0
0:0:41.815,51.6705,6.5776,0,0.000885,0,0
0:0:42.012,52.0798,6.63276,0,0.000885,0,0
0:0:42.212,52.1421,6.63965,0,0.000885,0,0
0:0:42.412,52.5513,6.68791,0,0.000885,0,0
0:0:42.607,53.1385,6.76376,0,0.000885,0,0
0:0:42.809,53.5477,6.81891,0,0.000885,0,0
0:0:43.006,53.8991,6.86028,0,0.000885,0,0
0:0:43.204,53.7834,6.84649,0,0.000885,0,0
0:0:43.407,54.1349,6.89476,0,0.000885,0,0
0:0:43.610,55.0156,7.00507,0,0.000885,0,0
0:0:43.814,55.2469,7.03265,0,0.000885,0,0
0:0:44.016,55.1313,7.01886,0,0.000885,0,0
0:0:44.218,56.0698,7.13607,0,0.000885,0,0
0:0:44.420,56.5369,7.19813,0,0.000885,0,0
0:0:44.622,56.7727,7.22571,0,0.000885,0,0
0:0:44.824,57.8892,7.3705,0,0.000885,0,0
0:0:45.023,57.8892,7.3705,0,0.000885,0,0
0:0:45.220,58.2984,7.42565,0,0.000885,0,0
0:0:45.423,58.5341,7.45323,0,0.000885,0,0
0:0:45.618,59.059,7.52218,0,0.000885,0,0
0:0:45.818,59.4727,7.57044,0,0.000885,0,0
0:0:46.018,59.7663,7.61181,0,0.000885,0,0
0:0:46.214,60.4691,7.70144,0,0.000885,0,0
0:0:46.416,60.9985,7.7635,0,0.000885,0,0
0:0:46.612,61.1141,7.78418,0,0.000885,0,0
0:0:46.810,61.2298,7.79797,0,0.000885,0,0
0:0:47.012,61.9949,7.8945,0,0.000885,0,0
0:0:47.207,62.3463,7.93587,0,0.000885,0,0
0:0:47.409,62.5198,7.96344,0,0.000885,0,0
0:0:47.607,62.6399,7.97723,0,0.000885,0,0
0:0:47.805,63.1069,8.03239,0,0.000885,0,0
0:0:48.007,63.6363,8.10134,0,0.000885,0,0
0:0:48.204,63.8097,8.12202,0,0.000885,0,0
0:0:48.405,64.4547,8.20476,0,0.000885,0,0
0:0:48.605,64.2813,8.18408,0,0.000885,0,0
0:0:48.810,65.4556,8.33576,0,0.000885,0,0
0:0:49.013,65.5134,8.34266,0,0.000885,0,0
0:0:49.215,66.3942,8.45297,0,0.000885,0,0
0:0:49.418,66.5676,8.47366,0,0.000885,0,0
0:0:49.619,66.1584,8.42539,0,0.000885,0,0
0:0:49.820,66.5098,8.46676,0,0.000885,0,0
0:0:50.023,67.097,8.5426,0,0.000885,0,0
0:0:50.218,67.5062,8.59776,0,0.000885,0,0
0:0:50.420,68.387,8.70808,0,0.000885,0,0
0:0:50.620,68.9163,8.77703,0,0.000885,0,0
0:0:50.815,69.499,8.84597,0,0.000885,0,0
0:0:51.018,69.9127,8.90113,0,0.000885,0,0
0:0:51.214,69.9705,8.90803,0,0.000885,0,0
0:0:51.414,70.2641,8.94939,0,0.000885,0,0
0:0:51.616,71.0248,9.04592,0,0.000885,0,0
0:0:51.809,70.9091,9.02524,0,0.000885,0,0
0:0:52.011,71.6697,9.12866,0,0.000885,0,0
0:0:52.209,71.9633,9.16313,0,0.000885,0,0
0:0:52.406,71.9055,9.15624,0,0.000885,0,0
0:0:52.609,72.1991,9.19071,0,0.000885,0,0
0:0:52.804,72.4348,9.22519,0,0.000885,0,0
0:0:53.005,73.4891,9.35619,0,0.000885,0,0
0:0:53.205,73.7248,9.38376,0,0.000885,0,0
0:0:53.403,74.1341,9.43892,0,0.000885,0,0
0:0:53.605,74.312,9.45961,0,0.000885,0,0
0:0:53.807,75.0726,9.55613,0,0.000885,0,0
0:0:54.011,75.424,9.6044,0,0.000885,0,0
0:0:54.215,76.247,9.70782,0,0.000885,0,0
0:0:54.417,76.247,9.70782,0,0.000885,0,0
0:0:54.619,76.4783,9.7354,0,0.000885,0,0
0:0:54.820,76.9498,9.79745,0,0.000885,0,0
0:0:55.023,77.7727,9.90087,0,0.000885,0,0
0:0:55.224,77.6526,9.88708,0,0.000885,0,0
0:0:55.419,78.7068,10.025,0,0.000885,0,0
0:0:55.620,78.9426,10.0526,0,0.000885,0,0
0:0:55.820,79.0627,10.0663,0,0.000885,0,0
0:0:56.017,79.7077,10.1491,0,0.000885,0,0
0:0:56.219,79.7077,10.1491,0,0.000885,0,0
0:0:56.414,80.0013,10.1836,0,0.000885,0,0
0:0:56.615,80.3527,10.2318,0,0.000885,0,0
0:0:56.816,80.5262,10.2525,0,0.000885,0,0
0:0:57.011,80.9977,10.3146,0,0.000885,0,0
0:0:57.213,81.7005,10.4042,0,0.000885,0,0
0:0:57.409,81.9362,10.4318,0,0.000885,0,0
0:0:57.609,82.5234,10.5076,0,0.000885,0,0
0:0:57.810,82.6391,10.5214,0,0.000885,0,0
0:0:58.006,83.2262,10.5972,0,0.000885,0,0
0:0:58.207,83.6355,10.6455,0,0.000885,0,0
0:0:58.406,84.574,10.7696,0,0.000885,0,0
0:0:58.602,84.574,10.7696,0,0.000885,0,0
0:0:58.804,84.752,10.7903,0,0.000885,0,0
0:0:59.006,84.9833,10.8179,0,0.000885,0,0
0:0:59.209,85.1034,10.8386,0,0.000885,0,0
0:0:59.413,85.6283,10.9006,0,0.000885,0,0
0:0:59.615,86.2154,10.9765,0,0.000885,0,0
0:0:59.817,86.509,11.0178,0,0.000885,0,0
0:1:0.019,87.4476,11.135,0,0.000885,0,0
0:1:0.220,87.8568,11.1833,0,0.000885,0,0
0:1:0.422,88.444,11.2591,0,0.000885,0,0
0:1:0.617,88.2082,11.2316,0,0.000885,0,0
0:1:0.819,89.1468,11.3488,0,0.000885,0,0
0:1:1.017,89.3826,11.3832,0,0.000885,0,0
0:1:1.216,89.6761,11.4177,0,0.000885,0,0
0:1:1.418,89.5027,11.397,0,0.000885,0,0
0:1:1.612,90.6147,11.5349,0,0.000885,0,0
0:1:1.815,91.2019,11.6108,0,0.000885,0,0
0:1:2.013,91.024,11.5901,0,0.000885,0,0
0:1:2.210,91.9047,11.7004,0,0.000885,0,0
0:1:2.411,91.7312,11.6797,0,0.000885,0,0
0:1:2.607,92.3762,11.7625,0,0.000885,0,0
0:1:2.809,93.0212,11.8452,0,0.000885,0,0
0:1:3.007,92.7855,11.8107,0,0.000885,0,0
0:1:3.205,93.3726,11.8866,0,0.000885,0,0
0:1:3.407,93.5461,11.9141,0,0.000885,0,0
0:1:3.609,93.724,11.9348,0,0.000885,0,0
0:1:3.813,94.6626,12.052,0,0.000885,0,0
0:1:4.016,95.1297,12.1141,0,0.000885,0,0
0:1:4.217,95.3076,12.1348,0,0.000885,0,0
0:1:4.418,95.5434,12.1624,0,0.000885,0,0
0:1:4.621,96.5976,12.3002,0,0.000885,0,0
0:1:4.821,97.0068,12.3485,0,0.000885,0,0
0:1:5.022,97.1269,12.3692,0,0.000885,0,0
0:1:5.218,97.3004,12.3899,0,0.000885,0,0
0:1:5.421,97.9454,12.4726,0,0.000885,0,0
0:1:5.616,98.1811,12.5002,0,0.000885,0,0
0:1:5.815,98.9418,12.5967,0,0.000885,0,0
0:1:6.016,99.0619,12.6105,0,0.000885,0,0
0:1:6.212,99.3555,12.6519,0,0.000885,0,0
0:1:6.414,99.6491,12.6864,0,0.000885,0,0
0:1:6.612,99.7069,12.6932,0,0.000885,0,0
0:1:6.809,100.294,12.7691,0,0.000885,0,0
0:1:7.010,100.877,12.8449,0,0.000885,0,0
0:1:7.207,101.642,12.9415,0,0.000885,0,0
0:1:7.407,101.584,12.9346,0,0.000885,0,0
0:1:7.607,102.58,13.0587,0,0.000885,0,0
0:1:7.803,102.754,13.0862,0,0.000885,0,0
0:1:8.005,103.048,13.1207,0,0.000885,0,0
0:1:8.201,103.461,13.1759,0,0.000885,0,0
0:1:8.398,103.928,13.231,0,0.000885,0,0
0:1:8.603,103.986,13.2379,0,0.000885,0,0
0:1:8.805,104.631,13.3207,0,0.000885,0,0
0:1:9.009,104.631,13.3207,0,0.000885,0,0
0:1:9.211,105.16,13.3896,0,0.000885,0,0
0:1:9.413,105.805,13.4724,0,0.000885,0,0
0:1:9.615,105.627,13.4517,0,0.000885,0,0
0:1:9.816,106.272,13.5344,0,0.000885,0,0
0:1:10.019,107.153,13.6447,0,0.000885,0,0
0:1:10.216,106.802,13.5965,0,0.000885,0,0
0:1:10.414,107.505,13.6861,0,0.000885,0,0
0:1:10.617,108.034,13.755,0,0.000885,0,0
0:1:10.814,108.505,13.8171,0,0.000885,0,0
0:1:11.013,109.444,13.9343,0,0.000885,0,0
0:1:11.214,109.324,13.9205,0,0.000885,0,0
0:1:11.408,109.733,13.9688,0,0.000885,0,0
0:1:11.610,109.911,13.9964,0,0.000885,0,0
0:1:11.807,110.378,14.0515,0,0.000885,0,0
0:1:12.006,111.085,14.1411,0,0.000885,0,0
0:1:12.208,111.028,14.1343,0,0.000885,0,0
0:1:12.401,111.201,14.1618,0,0.000885,0,0
0:1:12.603,112.14,14.279,0,0.000885,0,0
0:1:12.802,112.024,14.2653,0,0.000885,0,0
0:1:12.997,113.078,14.3963,0,0.000885,0,0
0:1:13.198,112.433,14.3135,0,0.000885,0,0
0:1:13.394,113.487,14.4514,0,0.000885,0,0
0:1:13.594,113.901,14.4997,0,0.000885,0,0
0:1:13.796,114.546,14.5824,0,0.000885,0,0
0:1:13.998,115.307,14.6789,0,0.000885,0,0
0:1:14.203,114.777,14.6169,0,0.000885,0,0
0:1:14.406,115.543,14.7134,0,0.000885,0,0
0:1:14.607,115.952,14.7617,0,0.000885,0,0
0:1:14.809,116.188,14.7961,0,0.000885,0,0
0:1:15.010,117.006,14.8996,0,0.000885,0,0
0:1:15.212,117.242,14.9271,0,0.000885,0,0
0:1:15.410,118.238,15.0581,0,0.000885,0,0
0:1:15.608,117.829,15.003,0,0.000885,0,0
0:1:15.810,117.945,15.0168,0,0.000885,0,0
0:1:16.004,118.416,15.0788,0,0.000885,0,0
0:1:16.206,119.235,15.1823,0,0.000885,0,0
0:1:16.404,118.825,15.1271,0,0.000885,0,0
0:1:16.602,119.942,15.2719,0,0.000885,0,0
0:1:16.803,119.822,15.2581,0,0.000885,0,0
0:1:17.009,120.351,15.3202,0,0.000885,0,0
0:1:17.209,120.702,15.3684,0,0.000885,0,0
0:1:17.409,121.699,15.4925,0,0.000885,0,0
0:1:17.605,121.29,15.4443,0,0.000885,0,0
0:1:17.806,122.344,15.5753,0,0.000885,0,0
0:1:18.005,122.108,15.5477,0,0.000885,0,0
0:1:18.203,122.815,15.6373,0,0.000885,0,0
0:1:18.406,123.576,15.7338,0,0.000885,0,0
0:1:18.609,123.34,15.7063,0,0.000885,0,0
0:1:18.813,124.457,15.8442,0,0.000885,0,0
0:1:19.015,123.812,15.7614,0,0.000885,0,0
0:1:19.217,124.924,15.9062,0,0.000885,0,0
0:1:19.418,124.866,15.8993,0,0.000885,0,0
0:1:19.620,125.862,16.0234,0,0.000885,0,0
0:1:19.823,126.098,16.0579,0,0.000885,0,0
0:1:20.020,126.743,16.1406,0,0.000885,0,0
0:1:20.218,127.152,16.1889,0,0.000885,0,0
0:1:20.420,127.152,16.1889,0,0.000885,0,0
0:1:20.614,128.033,16.2992,0,0.000885,0,0
0:1:20.815,127.86,16.2785,0,0.000885,0,0
0:1:21.015,128.856,16.4095,0,0.000885,0,0
0:1:21.211,129.15,16.444,0,0.000885,0,0
0:1:21.414,129.559,16.4992,0,0.000885,0,0
0:1:21.609,129.265,16.4578,0,0.000885,0,0
0:1:21.808,130.32,16.5957,0,0.000885,0,0
0:1:22.008,130.088,16.5612,0,0.000885,0,0
0:1:22.205,131.085,16.6922,0,0.000885,0,0
0:1:22.407,130.965,16.6784,0,0.000885,0,0
0:1:22.604,131.965,16.8025,0,0.000885,0,0
0:1:22.812,132.197,16.8301,0,0.000885,0,0
0:1:23.013,132.259,16.837,0,0.000885,0,0
0:1:23.210,133.077,16.9473,0,0.000885,0,0
0:1:23.411,133.255,16.968,0,0.000885,0,0
0:1:23.613,134.132,17.0783,0,0.000885,0,0
0:1:23.817,133.9,17.0507,0,0.000885,0,0
0:1:24.020,134.719,17.1542,0,0.000885,0,0
0:1:24.221,134.839,17.1679,0,0.000885,0,0
0:1:24.424,135.306,17.23,0,0.000885,0,0
0:1:24.626,135.893,17.3058,0,0.000885,0,0
0:1:24.827,135.778,17.2852,0,0.000885,0,0
0:1:25.029,136.302,17.3541,0,0.000885,0,0
0:1:25.224,136.596,17.3955,0,0.000885,0,0
0:1:25.423,136.596,17.3955,0,0.000885,0,0
0:1:25.625,137.712,17.5334,0,0.000885,0,0
0:1:25.820,137.77,17.5403,0,0.000885,0,0
0:1:26.022,138.357,17.6161,0,0.000885,0,0
0:1:26.218,137.886,17.5541,0,0.000885,0,0
0:1:26.417,139.296,17.7333,0,0.000885,0,0
0:1:26.619,139.06,17.7057,0,0.000885,0,0
0:1:26.814,140.115,17.8367,0,0.000885,0,0
0:1:27.016,140.408,17.8781,0,0.000885,0,0
0:1:27.215,141.111,17.9677,0,0.000885,0,0
0:1:27.411,140.76,17.9195,0,0.000885,0,0
0:1:27.613,141.467,18.0091,0,0.000885,0,0
0:1:27.808,141.64,18.0367,0,0.000885,0,0
0:1:28.009,142.695,18.1677,0,0.000885,0,0
0:1:28.209,142.757,18.1746,0,0.000885,0,0
0:1:28.405,143.224,18.2366,0,0.000885,0,0
0:1:28.606,142.988,18.2091,0,0.000885,0,0
0:1:28.809,144.105,18.3469,0,0.000885,0,0
0:1:29.012,143.811,18.3125,0,0.000885,0,0
0:1:29.215,144.22,18.3607,0,0.000885,0,0
0:1:29.417,145.159,18.4848,0,0.000885,0,0
0:1:29.620,145.101,18.4779,0,0.000885,0,0
0:1:29.821,146.097,18.6021,0,0.000885,0,0
0:1:30.022,146.04,18.5952,0,0.000885,0,0
0:1:30.224,146.742,18.6848,0,0.000885,0,0
0:1:30.419,146.333,18.6296,0,0.000885,0,0
0:1:30.621,147.156,18.7331,0,0.000885,0,0
0:1:30.819,147.739,18.8089,0,0.000885,0,0
0:1:31.018,148.677,18.933,0,0.000885,0,0
0:1:31.219,148.268,18.8778,0,0.000885,0,0
0:1:31.413,149.385,19.0226,0,0.000885,0,0
0:1:31.614,149.149,18.9882,0,0.000885,0,0
0:1:31.815,150.087,19.1123,0,0.000885,0,0
0:1:32.010,149.558,19.0433,0,0.000885,0,0
0:1:32.213,150.555,19.1674,0,0.000885,0,0
0:1:32.409,150.497,19.1605,0,0.000885,0,0
0:1:32.609,151.613,19.3053,0,0.000885,0,0
0:1:32.809,151.2,19.2502,0,0.000885,0,0
0:1:33.005,151.551,19.2984,0,0.000885,0,0
0:1:33.207,152.258,19.3881,0,0.000885,0,0
0:1:33.404,152.725,19.4432,0,0.000885,0,0
0:1:33.612,153.077,19.4915,0,0.000885,0,0
0:1:33.815,153.606,19.5604,0,0.000885,0,0
0:1:34.018,154.309,19.6501,0,0.000885,0,0
0:1:34.221,154.193,19.6294,0,0.000885,0,0
0:1:34.423,155.19,19.7604,0,0.000885,0,0
0:1:34.625,155.305,19.7742,0,0.000885,0,0
0:1:34.826,155.305,19.7742,0,0.000885,0,0
0:1:35.028,156.244,19.8914,0,0.000885,0,0
0:1:35.230,156.128,19.8776,0,0.000885,0,0
0:1:35.428,157.067,20.0017,0,0.000885,0,0
0:1:35.625,156.537,19.9327,0,0.000885,0,0
0:1:35.827,156.947,19.981,0,0.000885,0,0
0:1:36.024,157.827,20.0982,0,0.000885,0,0
0:1:36.224,157.418,20.0431,0,0.000885,0,0
0:1:36.424,159.06,20.2499,0,0.000885,0,0
0:1:36.619,159.117,20.2568,0,0.000885,0,0
0:1:36.821,159.998,20.374,0,0.000885,0,0
0:1:37.019,159.825,20.3464,0,0.000885,0,0
0:1:37.217,160.643,20.4567,0,0.000885,0,0
0:1:37.418,160.407,20.4223,0,0.000885,0,0
0:1:37.612,160.821,20.4774,0,0.000885,0,0
0:1:37.814,161.23,20.5257,0,0.000885,0,0
0:1:38.013,161.466,20.5602,0,0.000885,0,0
0:1:38.211,162.405,20.6774,0,0.000885,0,0
0:1:38.414,162.169,20.6498,0,0.000885,0,0
0:1:38.616,163.223,20.7808,0,0.000885,0,0
0:1:38.820,163.281,20.7877,0,0.000885,0,0
0:1:39.022,164.34,20.9256,0,0.000885,0,0
0:1:39.223,163.988,20.8773,0,0.000885,0,0
0:1:39.425,165.042,21.0152,0,0.000885,0,0
0:1:39.627,165.1,21.0221,0,0.000885,0,0
0:1:39.829,165.394,21.0566,0,0.000885,0,0
0:1:40.028,166.159,21.1531,0,0.000885,0,0
0:1:40.226,166.626,21.2152,0,0.000885,0,0
0:1:40.428,166.275,21.1738,0,0.000885,0,0
0:1:40.624,167.449,21.3186,0,0.000885,0,0
0:1:40.824,167.622,21.3393,0,0.000885,0,0
0:1:41.023,167.8,21.3669,0,0.000885,0,0
0:1:41.218,168.797,21.491,0,0.000885,0,0
0:1:41.419,168.797,21.491,0,0.000885,0,0
0:1:41.616,168.387,21.4427,0,0.000885,0,0
0:1:41.816,169.032,21.5185,0,0.000885,0,0
0:1:42.016,168.97,21.5116,0,0.000885,0,0
0:1:42.211,170.265,21.6771,0,0.000885,0,0
0:1:42.413,170.438,21.6978,0,0.000885,0,0
0:1:42.612,170.496,21.7116,0,0.000885,0,0
0:1:42.808,171.083,21.7805,0,0.000885,0,0
0:1:43.010,171.555,21.8426,0,0.000885,0,0
0:1:43.205,171.906,21.8909,0,0.000885,0,0
0:1:43.405,171.728,21.8633,0,0.000885,0,0
0:1:43.608,172.667,21.9874,0,0.000885,0,0
0:1:43.811,172.373,21.946,0,0.000885,0,0
0:1:44.014,173.957,22.146,0,0.000885,0,0
0:1:44.216,173.547,22.0977,0,0.000885,0,0
0:1:44.419,174.895,22.2701,0,0.000885,0,0
0:1:44.620,174.78,22.2563,0,0.000885,0,0
0:1:44.820,175.425,22.339,0,0.000885,0,0
0:1:45.022,175.425,22.339,0,0.000885,0,0
0:1:45.219,175.718,22.3735,0,0.000885,0,0
0:1:45.419,176.599,22.4838,0,0.000885,0,0
0:1:45.619,176.888,22.5252,0,0.000885,0,0
0:1:45.816,176.714,22.4976,0,0.000885,0,0
0:1:46.018,178.12,22.6769,0,0.000885,0,0
0:1:46.213,177.827,22.6424,0,0.000885,0,0
0:1:46.413,178.414,22.7182,0,0.000885,0,0
0:1:46.613,178.707,22.7527,0,0.000885,0,0
0:1:46.809,178.707,22.7527,0,0.000885,0,0
0:1:47.011,179.824,22.8975,0,0.000885,0,0
0:1:47.207,180.175,22.9389,0,0.000885,0,0
0:1:47.407,180.175,22.9389,0,0.000885,0,0
0:1:47.607,181.287,23.0836,0,0.000885,0,0
0:1:47.812,180.82,23.0216,0,0.000885,0,0
0:1:48.014,181.229,23.0768,0,0.000885,0,0
0:1:48.212,181.874,23.1595,0,0.000885,0,0
0:1:48.410,182.052,23.1802,0,0.000885,0,0
0:1:48.612,182.813,23.2767,0,0.000885,0,0
0:1:48.815,182.519,23.2422,0,0.000885,0,0
0:1:49.018,182.755,23.2698,0,0.000885,0,0
0:1:49.220,183.164,23.3181,0,0.000885,0,0
0:1:49.422,183.578,23.3732,0,0.000885,0,0
0:1:49.624,184.517,23.4904,0,0.000885,0,0
0:1:49.826,184.281,23.4629,0,0.000885,0,0
0:1:50.028,185.451,23.6145,0,0.000885,0,0
0:1:50.227,185.571,23.6283,0,0.000885,0,0
0:1:50.426,186.389,23.7318,0,0.000885,0,0
0:1:50.627,186.625,23.7593,0,0.000885,0,0
0:1:50.822,187.328,23.849,0,0.000885,0,0
0:1:51.024,187.684,23.8972,0,0.000885,0,0
0:1:51.223,187.622,23.8903,0,0.000885,0,0
0:1:51.420,188.151,23.9593,0,0.000885,0,0
0:1:51.621,187.742,23.9041,0,0.000885,0,0
0:1:51.816,188.68,24.0213,0,0.000885,0,0
0:1:52.017,188.618,24.0144,0,0.000885,0,0
0:1:52.218,189.557,24.1385,0,0.000885,0,0
0:1:52.414,189.441,24.1179,0,0.000885,0,0
0:1:52.616,190.673,24.2764,0,0.000885,0,0
0:1:52.811,190.437,24.2489,0,0.000885,0,0
0:1:53.012,191.496,24.3799,0,0.000885,0,0
0:1:53.212,191.727,24.4143,0,0.000885,0,0
0:1:53.407,192.55,24.5178,0,0.000885,0,0
0:1:53.609,192.959,24.566,0,0.000885,0,0
0:1:53.808,193.017,24.5729,0,0.000885,0,0
0:1:54.011,193.898,24.6901,0,0.000885,0,0
0:1:54.212,192.959,24.566,0,0.000885,0,0
0:1:54.413,194.307,24.7384,0,0.000885,0,0
0:1:54.612,193.956,24.697,0,0.000885,0,0
0:1:54.811,194.601,24.7798,0,0.000885,0,0
0:1:55.011,194.837,24.8073,0,0.000885,0,0
0:1:55.210,195.424,24.8832,0,0.000885,0,0
0:1:55.405,195.833,24.9314,0,0.000885,0,0
0:1:55.607,196.011,24.959,0,0.000885,0,0
0:1:55.812,197.301,25.1245,0,0.000885,0,0
0:1:56.008,197.181,25.1038,0,0.000885,0,0
0:1:56.208,198.182,25.2348,0,0.000885,0,0
0:1:56.402,198.355,25.2555,0,0.000885,0,0
0:1:56.601,198.533,25.2762,0,0.000885,0,0
0:1:56.798,198.355,25.2555,0,0.000885,0,0
0:1:56.992,198.942,25.3313,0,0.000885,0,0
0:1:57.193,199.823,25.4417,0,0.000885,0,0
0:1:57.389,200.29,25.5037,0,0.000885,0,0
0:1:57.587,200.117,25.4761,0,0.000885,0,0
0:1:57.785,200.997,25.5933,0,0.000885,0,0
0:1:57.979,200.819,25.5658,0,0.000885,0,0
0:1:58.179,201.171,25.614,0,0.000885,0,0
0:1:58.375,202.109,25.7312,0,0.000885,0,0
0:1:58.573,202.109,25.7312,0,0.000885,0,0
0:1:58.773,202.581,25.7933,0,0.000885,0,0
0:1:58.975,203.284,25.8829,0,0.000885,0,0
0:1:59.176,203.226,25.876,0,0.000885,0,0
0:1:59.378,203.106,25.8622,0,0.000885,0,0
0:1:59.577,203.809,25.9519,0,0.000885,0,0
0:1:59.777,203.809,25.9519,0,0.000885,0,0
0:1:59.977,205.161,26.1242,0,0.000885,0,0
0:2:0.177,204.574,26.0484,0,0.000885,0,0
0:2:0.375,205.864,26.2139,0,0.000885,0,0
0:2:0.571,205.454,26.1587,0,0.000885,0,0
0:2:0.771,205.864,26.2139,0,0.000885,0,0
0:2:0.966,206.567,26.3035,0,0.000885,0,0
0:2:1.164,206.744,26.3242,0,0.000885,0,0
0:2:1.363,207.977,26.4828,0,0.000885,0,0
0:2:1.559,207.977,26.4828,0,0.000885,0,0
0:2:1.758,208.501,26.5448,0,0.000885,0,0
0:2:1.954,209.56,26.6827,0,0.000885,0,0
0:2:2.150,209.44,26.6689,0,0.000885,0,0
0:2:2.350,209.969,26.731,0,0.000885,0,0
0:2:2.542,209.44,26.6689,0,0.000885,0,0
0:2:2.743,210.672,26.8206,0,0.000885,0,0
0:2:2.941,210.85,26.8482,0,0.000885,0,0
0:2:3.136,211.375,26.9102,0,0.000885,0,0
0:2:3.337,211.904,26.9792,0,0.000885,0,0
0:2:3.538,211.553,26.9378,0,0.000885,0,0
0:2:3.740,212.371,27.0412,0,0.000885,0,0
0:2:3.941,212.02,26.993,0,0.000885,0,0
0:2:4.141,212.727,27.0826,0,0.000885,0,0
0:2:4.339,213.137,27.1378,0,0.000885,0,0
0:2:4.540,213.43,27.1722,0,0.000885,0,0
0:2:4.739,214.369,27.2963,0,0.000885,0,0
0:2:4.938,213.897,27.2343,0,0.000885,0,0
0:2:5.132,215.072,27.386,0,0.000885,0,0
0:2:5.333,215.307,27.4136,0,0.000885,0,0
0:2:5.527,216.126,27.517,0,0.000885,0,0
0:2:5.723,215.659,27.4618,0,0.000885,0,0
0:2:5.924,216.949,27.6204,0,0.000885,0,0
0:2:6.119,216.713,27.5928,0,0.000885,0,0
0:2:6.319,217.594,27.7031,0,0.000885,0,0
0:2:6.516,217.3,27.6687,0,0.000885,0,0
0:2:6.711,218.354,27.7997,0,0.000885,0,0
0:2:6.910,218.003,27.7583,0,0.000885,0,0
0:2:7.107,219.177,27.9031,0,0.000885,0,0
0:2:7.302,218.826,27.8617,0,0.000885,0,0
0:2:7.500,220.116,28.0272,0,0.000885,0,0
0:2:7.703,219.88,27.9927,0,0.000885,0,0
0:2:7.903,220.467,28.0686,0,0.000885,0,0
0:2:8.101,220.934,28.1306,0,0.000885,0,0
0:2:8.297,221.112,28.1513,0,0.000885,0,0
0:2:8.497,222.051,28.2754,0,0.000885,0,0
0:2:8.698,222.051,28.2754,0,0.000885,0,0
0:2:8.900,222.811,28.3719,0,0.000885,0,0
0:2:9.101,222.811,28.3719,0,0.000885,0,0
0:2:9.301,223.634,28.4753,0,0.000885,0,0
0:2:9.502,223.283,28.4271,0,0.000885,0,0
0:2:9.703,224.515,28.5857,0,0.000885,0,0
0:2:9.901,224.337,28.565,0,0.000885,0,0
0:2:10.102,224.924,28.6408,0,0.000885,0,0
0:2:10.295,225.102,28.6615,0,0.000885,0,0
0:2:10.497,225.454,28.7029,0,0.000885,0,0
0:2:10.692,226.272,28.8132,0,0.000885,0,0
0:2:10.897,226.334,28.8201,0,0.000885,0,0
0:2:11.098,227.153,28.9235,0,0.000885,0,0
0:2:11.294,227.856,29.0131,0,0.000885,0,0
0:2:11.492,227.153,28.9235,0,0.000885,0,0
0:2:11.698,227.74,28.9993,0,0.000885,0,0
0:2:11.894,227.856,29.0131,0,0.000885,0,0
0:2:12.094,228.972,29.151,0,0.000885,0,0
0:2:12.299,229.088,29.1717,0,0.000885,0,0
0:2:12.499,229.208,29.1855,0,0.000885,0,0
0:2:12.695,229.969,29.282,0,0.000885,0,0
0:2:12.899,230.084,29.2958,0,0.000885,0,0
0:2:13.100,230.849,29.3924,0,0.000885,0,0
0:2:13.297,230.262,29.3165,0,0.000885,0,0
0:2:13.494,231.788,29.5096,0,0.000885,0,0
0:2:13.694,231.494,29.4751,0,0.000885,0,0
0:2:13.897,232.549,29.6061,0,0.000885,0,0
0:2:14.097,231.788,29.5096,0,0.000885,0,0
0:2:14.299,233.136,29.6819,0,0.000885,0,0
0:2:14.498,232.842,29.6475,0,0.000885,0,0
0:2:14.697,233.781,29.7647,0,0.000885,0,0
0:2:14.898,233.896,29.7785,0,0.000885,0,0
0:2:15.098,234.604,29.8681,0,0.000885,0,0
0:2:15.295,234.955,29.9164,0,0.000885,0,0
0:2:15.500,235.013,29.9232,0,0.000885,0,0
0:2:15.702,235.836,30.0267,0,0.000885,0,0
0:2:15.897,236.009,30.0474,0,0.000885,0,0
0:2:16.095,236.948,30.1715,0,0.000885,0,0
0:2:16.293,236.77,30.1439,0,0.000885,0,0
0:2:16.499,237.299,30.2128,0,0.000885,0,0
0:2:16.699,237.886,30.2887,0,0.000885,0,0
0:2:16.903,238.296,30.3438,0,0.000885,0,0
0:2:17.113,238.647,30.3852,0,0.000885,0,0
0:2:17.311,238.941,30.4197,0,0.000885,0,0
0:2:17.504,239.412,30.4817,0,0.000885,0,0
0:2:17.704,239.412,30.4817,0,0.000885,0,0
0:2:17.901,239.47,30.4886,0,0.000885,0,0
0:2:18.097,240.818,30.661,0,0.000885,0,0
0:2:18.297,240.524,30.6265,0,0.000885,0,0
0:2:18.499,241.111,30.7024,0,0.000885,0,0
0:2:18.699,241.583,30.7575,0,0.000885,0,0
0:2:18.901,241.405,30.7368,0,0.000885,0,0
0:2:19.101,242.521,30.8816,0,0.000885,0,0
0:2:19.301,242.459,30.8678,0,0.000885,0,0
0:2:19.501,243.46,30.9988,0,0.000885,0,0
0:2:19.699,243.576,31.0126,0,0.000885,0,0
0:2:19.899,244.572,31.1367,0,0.000885,0,0
0:2:20.104,244.808,31.1712,0,0.000885,0,0
0:2:20.304,245.044,31.1988,0,0.000885,0,0
0:2:20.499,245.746,31.2884,0,0.000885,0,0
0:2:20.696,244.75,31.1643,0,0.000885,0,0
0:2:20.896,246.271,31.3574,0,0.000885,0,0
0:2:21.111,245.92,31.3091,0,0.000885,0,0
0:2:21.313,246.979,31.447,0,0.000885,0,0
0:2:21.509,246.859,31.4332,0,0.000885,0,0
0:2:21.703,247.446,31.509,0,0.000885,0,0
0:2:21.903,247.503,31.5159,0,0.000885,0,0
0:2:22.108,248.148,31.5987,0,0.000885,0,0
0:2:22.305,248.269,31.6125,0,0.000885,0,0
0:2:22.514,248.736,31.6676,0,0.000885,0,0
0:2:22.709,248.971,31.7021,0,0.000885,0,0
0:2:22.909,250.026,31.8331,0,0.000885,0,0
0:2:23.103,249.968,31.8262,0,0.000885,0,0
0:2:23.302,251.084,31.971,0,0.000885,0,0
0:2:23.501,250.439,31.8883,0,0.000885,0,0
0:2:23.704,251.609,32.033,0,0.000885,0,0
0:2:23.905,251.494,32.0193,0,0.000885,0,0
0:2:24.105,252.606,32.164,0,0.000885,0,0
0:2:24.308,252.139,32.102,0,0.000885,0,0
0:2:24.505,253.193,32.2399,0,0.000885,0,0
0:2:24.706,253.135,32.233,0,0.000885,0,0
0:2:24.905,254.131,32.3571,0,0.000885,0,0
0:2:25.114,254.131,32.3571,0,0.000885,0,0
0:2:25.311,255.128,32.4812,0,0.000885,0,0
0:2:25.511,254.954,32.4605,0,0.000885,0,0
0:2:25.713,255.893,32.5846,0,0.000885,0,0
0:2:25.913,255.715,32.557,0,0.000885,0,0
0:2:26.110,256.711,32.688,0,0.000885,0,0
0:2:26.315,256.48,32.6536,0,0.000885,0,0
0:2:26.516,257.419,32.7777,0,0.000885,0,0
0:2:26.709,257.183,32.7432,0,0.000885,0,0
0:2:26.906,257.943,32.8397,0,0.000885,0,0
0:2:27.105,257.65,32.8053,0,0.000885,0,0
0:2:27.311,258.94,32.9707,0,0.000885,0,0
0:2:27.511,258.531,32.9156,0,0.000885,0,0
0:2:27.705,259.941,33.0948,0,0.000885,0,0
0:2:27.902,259.705,33.0673,0,0.000885,0,0
0:2:28.102,260.644,33.1845,0,0.000885,0,0
0:2:28.297,260.408,33.1569,0,0.000885,0,0
0:2:28.497,261.173,33.2534,0,0.000885,0,0
0:2:28.697,261.053,33.2396,0,0.000885,0,0
0:2:28.899,261.698,33.3224,0,0.000885,0,0
0:2:29.099,262.107,33.3706,0,0.000885,0,0
0:2:29.299,261.934,33.3499,0,0.000885,0,0
0:2:29.498,262.636,33.4396,0,0.000885,0,0
0:2:29.699,262.814,33.4603,0,0.000885,0,0
0:2:29.899,263.575,33.5568,0,0.000885,0,0
0:2:30.100,263.811,33.5913,0,0.000885,0,0
0:2:30.295,264.629,33.6947,0,0.000885,0,0
0:2:30.494,264.22,33.6395,0,0.000885,0,0
0:2:30.692,265.216,33.7705,0,0.000885,0,0
0:2:30.896,265.394,33.7912,0,0.000885,0,0
0:2:31.097,265.919,33.8602,0,0.000885,0,0
0:2:31.300,266.684,33.9567,0,0.000885,0,0
0:2:31.510,266.569,33.9429,0,0.000885,0,0
0:2:31.711,267.329,34.0394,0,0.000885,0,0
0:2:31.902,266.858,33.9774,0,0.000885,0,0
0:2:32.102,268.09,34.1359,0,0.000885,0,0
0:2:32.299,268.152,34.1428,0,0.000885,0,0
0:2:32.496,268.561,34.1911,0,0.000885,0,0
0:2:32.696,268.152,34.1428,0,0.000885,0,0
0:2:32.891,268.913,34.2394,0,0.000885,0,0
0:2:33.089,269.851,34.3566,0,0.000885,0,0
0:2:33.287,270.025,34.3842,0,0.000885,0,0
0:2:33.493,270.732,34.4738,0,0.000885,0,0
0:2:33.694,270.906,34.4945,0,0.000885,0,0
0:2:33.895,271.493,34.5703,0,0.000885,0,0
0:2:34.097,272.253,34.6668,0,0.000885,0,0
0:2:34.298,272.022,34.6324,0,0.000885,0,0
0:2:34.499,272.667,34.7151,0,0.000885,0,0
0:2:34.698,272.667,34.7151,0,0.000885,0,0
0:2:34.898,273.37,34.8047,0,0.000885,0,0
0:2:35.099,273.957,34.8806,0,0.000885,0,0
0:2:35.298,273.254,34.7909,0,0.000885,0,0
0:2:35.500,274.718,34.9771,0,0.000885,0,0
0:2:35.700,275.011,35.0185,0,0.000885,0,0
0:2:35.899,274.776,34.984,0,0.000885,0,0
0:2:36.095,276.008,35.1426,0,0.000885,0,0
0:2:36.295,276.07,35.1495,0,0.000885,0,0
0:2:36.497,276.07,35.1495,0,0.000885,0,0
0:2:36.695,276.537,35.2115,0,0.000885,0,0
0:2:36.895,277.533,35.3356,0,0.000885,0,0
0:2:37.089,277.654,35.3494,0,0.000885,0,0
0:2:37.291,278.121,35.4115,0,0.000885,0,0
0:2:37.487,279.295,35.5632,0,0.000885,0,0
0:2:37.684,279.175,35.5425,0,0.000885,0,0
0:2:37.884,279.117,35.5356,0,0.000885,0,0
0:2:38.077,280.234,35.6804,0,0.000885,0,0
0:2:38.278,279.998,35.6528,0,0.000885,0,0
0:2:38.478,280.349,35.6942,0,0.000885,0,0
0:2:38.681,280.994,35.7769,0,0.000885,0,0
0:2:38.882,281.288,35.8114,0,0.000885,0,0
0:2:39.082,281.288,35.8114,0,0.000885,0,0
0:2:39.282,282.226,35.9355,0,0.000885,0,0
0:2:39.483,282.342,35.9493,0,0.000885,0,0
0:2:39.683,282.462,35.9631,0,0.000885,0,0
0:2:39.883,282.462,35.9631,0,0.000885,0,0
0:2:40.078,283.107,36.0458,0,0.000885,0,0
0:2:40.278,283.868,36.1423,0,0.000885,0,0
0:2:40.477,283.926,36.1492,0,0.000885,0,0
0:2:40.670,284.571,36.2319,0,0.000885,0,0
0:2:40.871,284.691,36.2457,0,0.000885,0,0
0:2:41.068,285.278,36.3216,0,0.000885,0,0
0:2:41.264,285.745,36.3836,0,0.000885,0,0
0:2:41.465,286.568,36.4871,0,0.000885,0,0
0:2:41.659,286.506,36.4802,0,0.000885,0,0
0:2:41.858,287.035,36.5491,0,0.000885,0,0
0:2:42.057,287.386,36.5905,0,0.000885,0,0
0:2:42.252,287.271,36.5767,0,0.000885,0,0
0:2:42.454,287.8,36.6456,0,0.000885,0,0
0:2:42.648,288.151,36.687,0,0.000885,0,0
0:2:42.847,288.912,36.7835,0,0.000885,0,0
0:2:43.046,289.263,36.8318,0,0.000885,0,0
0:2:43.240,289.735,36.887,0,0.000885,0,0
0:2:43.441,289.908,36.9145,0,0.000885,0,0
0:2:43.641,290.553,36.9973,0,0.000885,0,0
0:2:43.844,290.673,37.0111,0,0.000885,0,0
0:2:44.046,291.141,37.0662,0,0.000885,0,0
0:2:44.247,291.198,37.08,0,0.000885,0,0
0:2:44.448,291.612,37.1283,0,0.000885,0,0
0:2:44.648,291.434,37.1076,0,0.000885,0,0
0:2:44.847,292.079,37.1903,0,0.000885,0,0
0:2:45.048,292.137,37.1972,0,0.000885,0,0
0:2:45.245,293.311,37.3489,0,0.000885,0,0
0:2:45.442,292.96,37.3006,0,0.000885,0,0
0:2:45.641,293.898,37.4178,0,0.000885,0,0
0:2:45.835,294.366,37.4799,0,0.000885,0,0
0:2:46.035,294.366,37.4799,0,0.000885,0,0
0:2:46.229,294.423,37.4868,0,0.000885,0,0
0:2:46.427,295.131,37.5764,0,0.000885,0,0
0:2:46.628,295.188,37.5833,0,0.000885,0,0
0:2:46.821,295.718,37.6523,0,0.000885,0,0
0:2:47.021,296.243,37.7212,0,0.000885,0,0
0:2:47.217,296.421,37.7419,0,0.000885,0,0
0:2:47.415,296.83,37.7902,0,0.000885,0,0
0:2:47.614,296.594,37.7626,0,0.000885,0,0
0:2:47.817,297.123,37.8315,0,0.000885,0,0
0:2:48.016,297.239,37.8453,0,0.000885,0,0
0:2:48.214,297.475,37.8729,0,0.000885,0,0
0:2:48.407,297.066,37.8246,0,0.000885,0,0
0:2:48.608,297.417,37.866,0,0.000885,0,0
0:2:48.807,296.714,37.7764,0,0.000885,0,0
0:2:49.011,296.3,37.7281,0,0.000885,0,0
0:2:49.212,294.717,37.5282,0,0.000885,0,0
0:2:49.414,294.366,37.4799,0,0.000885,0,0
0:2:49.612,292.96,37.3006,0,0.000885,0,0
0:2:49.812,292.021,37.1834,0,0.000885,0,0
0:2:50.011,288.676,36.756,0,0.000885,0,0
0:2:50.211,286.216,36.4388,0,0.000885,0,0
0:2:50.402,279.882,35.6321,0,0.000885,0,0
0:2:50.601,276.128,35.1564,0,0.000885,0,0
0:2:50.799,268.504,34.1842,0,0.000885,0,0
0:2:50.992,264.691,33.7016,0,0.000885,0,0
0:2:51.193,255.541,32.5364,0,0.000885,0,0
0:2:51.388,251.845,32.0675,0,0.000885,0,0
0:2:51.584,248.62,31.6538,0,0.000885,0,0
0:2:51.784,241.521,30.7506,0,0.000885,0,0
0:2:51.977,238.002,30.3025,0,0.000885,0,0
0:2:52.177,229.617,29.2338,0,0.000885,0,0
0:2:52.374,224.924,28.6408,0,0.000885,0,0
0:2:52.569,212.314,27.0343,0,0.000885,0,0
0:2:52.670,212.314,27.0343,0,0.000885,0,0