File: DataFile2021-06-08_050942.csv
Test ID:,Date Tested:,Time:,Test Type:,Diameter Avg. (mm):,Cyl. Corr. Factor:,Height (mm):,Age (days):,Weight (kN):,Break Type:,Ramp Rate (MPa/s):,Load at Break (kN):,Stress at Break (MPa):
12,6/8/2021,05:09,Cylinder,150,1,300,0,3.6,1,0.24,852.64,48.25
Sample Time,Load (kN),Stress (MPa),Long. Strain,Trans. Strain,Chan1 Deflection (mm),Chan2 Deflection (mm)
0:0:13.916,5.57362,0.317159,0,0.000885,0,0
0:0:14.119,15.7778,0.889424,0,0.000885,0,0
0:0:14.314,17.4771,0.98595,0,0.000885,0,0
0:0:14.514,17.4771,0.98595,0,0.000885,0,0
0:0:14.712,17.0678,0.965266,0,0.000885,0,0
0:0:14.910,17.1835,0.972161,0,0.000885,0,0
0:0:15.112,16.5963,0.937687,0,0.000885,0,0
0:0:15.307,16.9522,0.958371,0,0.000885,0,0
0:0:15.516,16.365,0.923897,0,0.000885,0,0
0:0:15.714,16.3027,0.923897,0,0.000885,0,0
0:0:15.911,15.9513,0.903213,0,0.000885,0,0
0:0:16.113,15.9513,0.903213,0,0.000885,0,0
0:0:16.308,16.7164,0.944582,0,0.000885,0,0
0:0:16.507,16.0714,0.910108,0,0.000885,0,0
0:0:16.707,17.7706,1.00663,0,0.000885,0,0
0:0:16.913,18.4735,1.048,0,0.000885,0,0
0:0:17.115,19.0606,1.07558,0,0.000885,0,0
0:0:17.312,19.8836,1.12385,0,0.000885,0,0
0:0:17.509,20.9378,1.1859,0,0.000885,0,0
0:0:17.711,21.7607,1.23416,0,0.000885,0,0
0:0:17.906,23.3443,1.32379,0,0.000885,0,0
0:0:18.108,23.6957,1.33758,0,0.000885,0,0
0:0:18.308,24.6343,1.39274,0,0.000885,0,0
0:0:18.514,25.9242,1.46858,0,0.000885,0,0
0:0:18.716,26.6849,1.50995,0,0.000885,0,0
0:0:18.912,27.917,1.5789,0,0.000885,0,0
0:0:19.112,28.2684,1.59958,0,0.000885,0,0
0:0:19.314,29.7942,1.68922,0,0.000885,0,0
0:0:19.518,30.8484,1.74437,0,0.000885,0,0
0:0:19.721,31.6713,1.79264,0,0.000885,0,0
0:0:19.923,32.432,1.83401,0,0.000885,0,0
0:0:20.126,33.1971,1.87537,0,0.000885,0,0
0:0:20.328,33.8421,1.91674,0,0.000885,0,0
0:0:20.530,34.7228,1.96501,0,0.000885,0,0
0:0:20.732,35.6614,2.02016,0,0.000885,0,0
0:0:20.931,36.6,2.06843,0,0.000885,0,0
0:0:21.130,37.4184,2.11669,0,0.000885,0,0
0:0:21.332,38.2992,2.16495,0,0.000885,0,0
0:0:21.528,39.1799,2.22011,0,0.000885,0,0
0:0:21.730,40.7635,2.30974,0,0.000885,0,0
0:0:21.929,41.0571,2.32353,0,0.000885,0,0
0:0:22.125,42.1691,2.38559,0,0.000885,0,0
0:0:22.327,42.4049,2.39938,0,0.000885,0,0
0:0:22.524,43.5792,2.46832,0,0.000885,0,0
0:0:22.723,44.4555,2.51659,0,0.000885,0,0
0:0:22.923,45.6877,2.58553,0,0.000885,0,0
0:0:23.118,46.4528,2.6269,0,0.000885,0,0
0:0:23.321,47.3914,2.68206,0,0.000885,0,0
0:0:23.520,47.8006,2.70274,0,0.000885,0,0
0:0:23.719,48.7392,2.7579,0,0.000885,0,0
0:0:23.920,49.6777,2.81306,0,0.000885,0,0
0:0:24.116,50.1448,2.84064,0,0.000885,0,0
0:0:24.319,51.9063,2.93717,0,0.000885,0,0
0:0:24.519,52.6669,2.97854,0,0.000885,0,0
0:0:24.723,53.432,3.0268,0,0.000885,0,0
0:0:24.926,53.8991,3.04748,0,0.000885,0,0
0:0:25.129,55.2469,3.12333,0,0.000885,0,0
0:0:25.331,55.5405,3.14401,0,0.000885,0,0
0:0:25.532,56.7148,3.20606,0,0.000885,0,0
0:0:25.734,57.3598,3.24743,0,0.000885,0,0
0:0:25.936,58.6498,3.31638,0,0.000885,0,0
0:0:26.132,59.059,3.34396,0,0.000885,0,0
0:0:26.332,60.4113,3.4198,0,0.000885,0,0
0:0:26.531,61.4077,3.47496,0,0.000885,0,0
0:0:26.729,62.3463,3.53012,0,0.000885,0,0
0:0:26.932,63.2848,3.57838,0,0.000885,0,0
0:0:27.127,64.3969,3.64733,0,0.000885,0,0
0:0:27.328,65.162,3.6887,0,0.000885,0,0
0:0:27.529,66.2162,3.74385,0,0.000885,0,0
0:0:27.725,66.6877,3.77143,0,0.000885,0,0
0:0:27.928,67.6841,3.83349,0,0.000885,0,0
0:0:28.125,68.209,3.86106,0,0.000885,0,0
0:0:28.323,69.0898,3.90933,0,0.000885,0,0
0:0:28.525,69.9705,3.95759,0,0.000885,0,0
0:0:28.720,70.5577,3.99206,0,0.000885,0,0
0:0:28.923,71.0826,4.01964,0,0.000885,0,0
0:0:29.119,71.2605,4.03343,0,0.000885,0,0
0:0:29.319,73.4312,4.15754,0,0.000885,0,0
0:0:29.521,74.312,4.2058,0,0.000885,0,0
0:0:29.724,75.8333,4.28854,0,0.000885,0,0
0:0:29.927,77.0654,4.36438,0,0.000885,0,0
0:0:30.130,77.7727,4.39886,0,0.000885,0,0
0:0:30.332,77.8305,4.40575,0,0.000885,0,0
0:0:30.535,79.1783,4.48159,0,0.000885,0,0
0:0:30.736,79.7655,4.51607,0,0.000885,0,0
0:0:30.938,81.229,4.5988,0,0.000885,0,0
0:0:31.139,81.5848,4.61949,0,0.000885,0,0
0:0:31.337,82.5812,4.67465,0,0.000885,0,0
0:0:31.539,83.2262,4.70912,0,0.000885,0,0
0:0:31.736,84.107,4.75738,0,0.000885,0,0
0:0:31.938,84.9254,4.80565,0,0.000885,0,0
0:0:32.136,86.1576,4.87459,0,0.000885,0,0
0:0:32.334,86.5668,4.90217,0,0.000885,0,0
0:0:32.536,87.9769,4.97801,0,0.000885,0,0
0:0:32.730,88.5018,5.00559,0,0.000885,0,0
0:0:32.932,89.7918,5.08144,0,0.000885,0,0
0:0:33.132,90.4412,5.11591,0,0.000885,0,0
0:0:33.328,91.669,5.18486,0,0.000885,0,0
0:0:33.531,92.2561,5.21933,0,0.000885,0,0
0:0:33.726,92.6075,5.24002,0,0.000885,0,0
0:0:33.927,93.9598,5.31586,0,0.000885,0,0
0:0:34.128,94.5425,5.35033,0,0.000885,0,0
0:0:34.323,95.7168,5.41928,0,0.000885,0,0
0:0:34.525,96.4819,5.46065,0,0.000885,0,0
0:0:34.728,98.239,5.55717,0,0.000885,0,0
0:0:34.932,98.6482,5.58475,0,0.000885,0,0
0:0:35.135,99.7069,5.63991,0,0.000885,0,0
0:0:35.336,99.6491,5.63991,0,0.000885,0,0
0:0:35.538,100.525,5.68817,0,0.000885,0,0
0:0:35.739,101.17,5.72265,0,0.000885,0,0
0:0:35.942,102.874,5.81918,0,0.000885,0,0
0:0:36.143,103.461,5.85365,0,0.000885,0,0
0:0:36.339,104.689,5.9226,0,0.000885,0,0
0:0:36.541,105.338,5.96397,0,0.000885,0,0
0:0:36.739,106.45,6.02602,0,0.000885,0,0
0:0:36.938,107.095,6.06049,0,0.000885,0,0
0:0:37.139,107.976,6.10875,0,0.000885,0,0
0:0:37.335,108.737,6.15012,0,0.000885,0,0
0:0:37.538,110.908,6.27423,0,0.000885,0,0
0:0:37.735,111.61,6.3156,0,0.000885,0,0
0:0:37.934,112.318,6.35697,0,0.000885,0,0
0:0:38.136,113.136,6.40523,0,0.000885,0,0
0:0:38.331,113.43,6.41902,0,0.000885,0,0
0:0:38.533,114.31,6.46728,0,0.000885,0,0
0:0:38.730,114.777,6.49486,0,0.000885,0,0
0:0:38.929,115.778,6.55002,0,0.000885,0,0
0:0:39.131,116.481,6.59139,0,0.000885,0,0
0:0:39.334,117.771,6.66723,0,0.000885,0,0
0:0:39.538,118.652,6.71549,0,0.000885,0,0
0:0:39.740,119.822,6.77755,0,0.000885,0,0
0:0:39.942,120.351,6.81202,0,0.000885,0,0
0:0:40.144,121.819,6.89476,0,0.000885,0,0
0:0:40.346,122.05,6.90855,0,0.000885,0,0
0:0:40.547,123.34,6.97749,0,0.000885,0,0
0:0:40.749,123.692,6.99818,0,0.000885,0,0
0:0:40.946,125.338,7.09471,0,0.000885,0,0
0:0:41.148,126.276,7.14297,0,0.000885,0,0
0:0:41.345,127.037,7.19123,0,0.000885,0,0
0:0:41.546,127.446,7.21192,0,0.000885,0,0
0:0:41.745,128.442,7.26707,0,0.000885,0,0
0:0:41.943,129.15,7.30844,0,0.000885,0,0
0:0:42.145,130.32,7.37739,0,0.000885,0,0
0:0:42.339,130.733,7.39807,0,0.000885,0,0
0:0:42.540,132.668,7.50839,0,0.000885,0,0
0:0:42.741,132.784,7.51529,0,0.000885,0,0
0:0:42.937,133.665,7.56355,0,0.000885,0,0
0:0:43.140,134.367,7.60492,0,0.000885,0,0
0:0:43.336,135.306,7.66008,0,0.000885,0,0
0:0:43.536,136.654,7.73592,0,0.000885,0,0
0:0:43.737,137.068,7.7566,0,0.000885,0,0
0:0:43.932,138.651,7.84623,0,0.000885,0,0
0:0:44.134,139.412,7.8876,0,0.000885,0,0
0:0:44.337,140.235,7.93587,0,0.000885,0,0
0:0:44.541,140.995,7.97723,0,0.000885,0,0
0:0:44.744,141.818,8.0255,0,0.000885,0,0
0:0:44.946,142.93,8.08755,0,0.000885,0,0
0:0:45.148,143.46,8.11513,0,0.000885,0,0
0:0:45.350,144.278,8.16339,0,0.000885,0,0
0:0:45.552,145.395,8.22545,0,0.000885,0,0
0:0:45.752,145.804,8.25302,0,0.000885,0,0
0:0:45.948,146.449,8.2875,0,0.000885,0,0
0:0:46.151,147.33,8.33576,0,0.000885,0,0
0:0:46.348,148.677,8.4116,0,0.000885,0,0
0:0:46.547,149.091,8.43918,0,0.000885,0,0
0:0:46.749,150.555,8.52192,0,0.000885,0,0
0:0:46.944,151.551,8.57708,0,0.000885,0,0
0:0:47.147,153.134,8.66671,0,0.000885,0,0
0:0:47.345,154.015,8.71497,0,0.000885,0,0
0:0:47.542,154.896,8.76324,0,0.000885,0,0
0:0:47.744,155.541,8.80461,0,0.000885,0,0
0:0:47.941,156.186,8.83908,0,0.000885,0,0
0:0:48.142,156.947,8.88045,0,0.000885,0,0
0:0:48.340,157.009,8.88734,0,0.000885,0,0
0:0:48.537,158.121,8.94939,0,0.000885,0,0
0:0:48.739,158.53,8.97008,0,0.000885,0,0
0:0:48.937,160.056,9.05971,0,0.000885,0,0
0:0:49.137,160.585,9.08729,0,0.000885,0,0
0:0:49.339,162.111,9.17692,0,0.000885,0,0
0:0:49.543,162.929,9.21829,0,0.000885,0,0
0:0:49.747,164.162,9.28724,0,0.000885,0,0
0:0:49.949,164.749,9.32171,0,0.000885,0,0
0:0:50.152,166.159,9.40445,0,0.000885,0,0
0:0:50.353,166.862,9.44582,0,0.000885,0,0
0:0:50.555,167.858,9.50098,0,0.000885,0,0
0:0:50.757,168.739,9.54924,0,0.000885,0,0
0:0:50.956,169.793,9.61129,0,0.000885,0,0
0:0:51.156,170.496,9.64577,0,0.000885,0,0
0:0:51.358,171.025,9.68024,0,0.000885,0,0
0:0:51.552,171.786,9.72161,0,0.000885,0,0
0:0:51.754,172.373,9.75608,0,0.000885,0,0
0:0:51.952,173.138,9.79745,0,0.000885,0,0
0:0:52.150,174.308,9.8664,0,0.000885,0,0
0:0:52.352,175.131,9.90777,0,0.000885,0,0
0:0:52.549,176.479,9.98361,0,0.000885,0,0
0:0:52.748,176.714,9.9974,0,0.000885,0,0
0:0:52.949,178.472,10.1008,0,0.000885,0,0
0:0:53.147,179.117,10.1353,0,0.000885,0,0
0:0:53.349,179.472,10.156,0,0.000885,0,0
0:0:53.545,180.82,10.2318,0,0.000885,0,0
0:0:53.744,181.229,10.2525,0,0.000885,0,0
0:0:53.946,182.462,10.3283,0,0.000885,0,0
0:0:54.141,183.164,10.3628,0,0.000885,0,0
0:0:54.343,183.987,10.4111,0,0.000885,0,0
0:0:54.546,184.926,10.4662,0,0.000885,0,0
0:0:54.750,185.864,10.5145,0,0.000885,0,0
0:0:54.953,186.861,10.5766,0,0.000885,0,0
0:0:55.156,187.973,10.6386,0,0.000885,0,0
0:0:55.357,188.502,10.6662,0,0.000885,0,0
0:0:55.559,189.677,10.7351,0,0.000885,0,0
0:0:55.761,190.264,10.7696,0,0.000885,0,0
0:0:55.964,191.434,10.8317,0,0.000885,0,0
0:0:56.158,191.963,10.8661,0,0.000885,0,0
0:0:56.358,193.547,10.9558,0,0.000885,0,0
0:0:56.557,193.547,10.9558,0,0.000885,0,0
0:0:56.752,195.308,11.0523,0,0.000885,0,0
0:0:56.952,196.127,11.1006,0,0.000885,0,0
0:0:57.148,197.243,11.1626,0,0.000885,0,0
0:0:57.344,197.71,11.1902,0,0.000885,0,0
0:0:57.546,197.946,11.204,0,0.000885,0,0
0:0:57.739,199,11.2591,0,0.000885,0,0
0:0:57.939,199.703,11.3005,0,0.000885,0,0
0:0:58.137,200.641,11.3557,0,0.000885,0,0
0:0:58.332,200.997,11.3763,0,0.000885,0,0
0:0:58.533,202.754,11.4729,0,0.000885,0,0
0:0:58.728,203.164,11.4936,0,0.000885,0,0
0:0:58.928,204.689,11.5832,0,0.000885,0,0
0:0:59.126,205.392,11.6246,0,0.000885,0,0
0:0:59.320,206.331,11.6728,0,0.000885,0,0
0:0:59.521,207.096,11.7211,0,0.000885,0,0
0:0:59.722,207.741,11.7556,0,0.000885,0,0
0:0:59.924,209.204,11.8383,0,0.000885,0,0
0:1:0.126,209.849,11.8728,0,0.000885,0,0
0:1:0.327,210.557,11.9141,0,0.000885,0,0
0:1:0.528,211.317,11.9555,0,0.000885,0,0
0:1:0.727,212.198,12.0107,0,0.000885,0,0
0:1:0.929,213.488,12.0796,0,0.000885,0,0
0:1:1.130,213.782,12.1003,0,0.000885,0,0
0:1:1.323,214.72,12.1486,0,0.000885,0,0
0:1:1.522,215.539,12.1968,0,0.000885,0,0
0:1:1.720,216.184,12.2313,0,0.000885,0,0
0:1:1.918,217.478,12.3071,0,0.000885,0,0
0:1:2.117,218.296,12.3554,0,0.000885,0,0
0:1:2.312,219.235,12.4037,0,0.000885,0,0
0:1:2.511,219.764,12.4381,0,0.000885,0,0
0:1:2.710,221.112,12.514,0,0.000885,0,0
0:1:2.903,221.699,12.5485,0,0.000885,0,0
0:1:3.105,222.932,12.6174,0,0.000885,0,0
0:1:3.300,223.634,12.6519,0,0.000885,0,0
0:1:3.498,225.218,12.7415,0,0.000885,0,0
0:1:3.697,225.747,12.776,0,0.000885,0,0
0:1:3.902,227.095,12.8518,0,0.000885,0,0
0:1:4.102,227.918,12.9001,0,0.000885,0,0
0:1:4.301,228.327,12.9208,0,0.000885,0,0
0:1:4.503,229.381,12.9828,0,0.000885,0,0
0:1:4.705,230.084,13.0173,0,0.000885,0,0
0:1:4.906,230.907,13.0656,0,0.000885,0,0
0:1:5.106,231.259,13.0862,0,0.000885,0,0
0:1:5.307,232.082,13.1345,0,0.000885,0,0
0:1:5.507,232.958,13.1828,0,0.000885,0,0
0:1:5.710,234.31,13.2586,0,0.000885,0,0
0:1:5.903,235.249,13.3138,0,0.000885,0,0
0:1:6.102,236.187,13.362,0,0.000885,0,0
0:1:6.301,236.948,13.4103,0,0.000885,0,0
0:1:6.494,237.709,13.4517,0,0.000885,0,0
0:1:6.695,238.709,13.5068,0,0.000885,0,0
0:1:6.893,239.879,13.5758,0,0.000885,0,0
0:1:7.090,240.231,13.5965,0,0.000885,0,0
0:1:7.290,241.992,13.693,0,0.000885,0,0
0:1:7.502,242.286,13.7137,0,0.000885,0,0
0:1:7.702,243.634,13.7895,0,0.000885,0,0
0:1:7.900,243.985,13.8102,0,0.000885,0,0
0:1:8.096,244.866,13.8585,0,0.000885,0,0
0:1:8.297,245.395,13.886,0,0.000885,0,0
0:1:8.501,246.04,13.9205,0,0.000885,0,0
0:1:8.700,247.388,13.9964,0,0.000885,0,0
0:1:8.899,248.211,14.0446,0,0.000885,0,0
0:1:9.094,248.914,14.086,0,0.000885,0,0
0:1:9.295,249.91,14.1411,0,0.000885,0,0
0:1:9.496,250.733,14.1894,0,0.000885,0,0
0:1:9.699,251.671,14.2446,0,0.000885,0,0
0:1:9.900,253.193,14.3273,0,0.000885,0,0
0:1:10.101,253.135,14.3273,0,0.000885,0,0
0:1:10.302,254.603,14.41,0,0.000885,0,0
0:1:10.501,255.128,14.4376,0,0.000885,0,0
0:1:10.702,256.947,14.541,0,0.000885,0,0
0:1:10.902,257.592,14.5755,0,0.000885,0,0
0:1:11.095,258.531,14.6307,0,0.000885,0,0
0:1:11.296,259.585,14.6927,0,0.000885,0,0
0:1:11.494,260.234,14.7272,0,0.000885,0,0
0:1:11.699,261.231,14.7824,0,0.000885,0,0
0:1:11.899,261.818,14.8168,0,0.000885,0,0
0:1:12.094,262.636,14.8651,0,0.000885,0,0
0:1:12.293,263.811,14.9271,0,0.000885,0,0
0:1:12.492,264.571,14.9685,0,0.000885,0,0
0:1:12.685,264.629,14.9754,0,0.000885,0,0
0:1:12.886,266.333,15.0719,0,0.000885,0,0
0:1:13.082,266.506,15.0788,0,0.000885,0,0
0:1:13.280,267.859,15.1547,0,0.000885,0,0
0:1:13.481,268.797,15.2098,0,0.000885,0,0
0:1:13.676,269.909,15.2719,0,0.000885,0,0
0:1:13.874,270.496,15.3064,0,0.000885,0,0
0:1:14.072,271.551,15.3684,0,0.000885,0,0
0:1:14.268,272.431,15.4167,0,0.000885,0,0
0:1:14.469,273.486,15.4787,0,0.000885,0,0
0:1:14.669,274.131,15.5132,0,0.000885,0,0
0:1:14.872,274.838,15.5546,0,0.000885,0,0
0:1:15.073,275.95,15.6166,0,0.000885,0,0
0:1:15.273,276.773,15.6649,0,0.000885,0,0
0:1:15.472,277.36,15.6925,0,0.000885,0,0
0:1:15.672,278.708,15.7683,0,0.000885,0,0
0:1:15.873,279.001,15.789,0,0.000885,0,0
0:1:16.072,279.295,15.8028,0,0.000885,0,0
0:1:16.266,280.527,15.8717,0,0.000885,0,0
0:1:16.465,280.994,15.8993,0,0.000885,0,0
0:1:16.664,282.52,15.9889,0,0.000885,0,0
0:1:16.860,283.107,16.0234,0,0.000885,0,0
0:1:17.061,284.339,16.0924,0,0.000885,0,0
0:1:17.254,285.571,16.1613,0,0.000885,0,0
0:1:17.454,286.683,16.2234,0,0.000885,0,0
0:1:17.654,287.444,16.2647,0,0.000885,0,0
0:1:17.849,288.912,16.3475,0,0.000885,0,0
0:1:18.049,289.321,16.375,0,0.000885,0,0
0:1:18.245,290.438,16.4371,0,0.000885,0,0
0:1:18.441,291.376,16.4854,0,0.000885,0,0
0:1:18.641,291.786,16.5129,0,0.000885,0,0
0:1:18.836,292.96,16.575,0,0.000885,0,0
0:1:19.037,293.018,16.5819,0,0.000885,0,0
0:1:19.237,293.956,16.637,0,0.000885,0,0
0:1:19.440,294.134,16.6439,0,0.000885,0,0
0:1:19.643,295.598,16.7267,0,0.000885,0,0
0:1:19.841,296.127,16.7543,0,0.000885,0,0
0:1:20.042,297.59,16.837,0,0.000885,0,0
0:1:20.242,297.884,16.8577,0,0.000885,0,0
0:1:20.442,299.116,16.9266,0,0.000885,0,0
0:1:20.643,299.881,16.968,0,0.000885,0,0
0:1:20.838,301.113,17.0369,0,0.000885,0,0
0:1:21.037,301.758,17.0783,0,0.000885,0,0
0:1:21.237,303.342,17.1679,0,0.000885,0,0
0:1:21.429,303.809,17.1955,0,0.000885,0,0
0:1:21.631,304.512,17.23,0,0.000885,0,0
0:1:21.829,305.802,17.3058,0,0.000885,0,0
0:1:22.025,306.683,17.3541,0,0.000885,0,0
0:1:22.226,307.679,17.4093,0,0.000885,0,0
0:1:22.420,308.444,17.4575,0,0.000885,0,0
0:1:22.620,309.205,17.4989,0,0.000885,0,0
0:1:22.818,309.792,17.5334,0,0.000885,0,0
0:1:23.014,311.082,17.6023,0,0.000885,0,0
0:1:23.215,311.963,17.6506,0,0.000885,0,0
0:1:23.408,312.843,17.7057,0,0.000885,0,0
0:1:23.605,313.31,17.7264,0,0.000885,0,0
0:1:23.805,314.365,17.7885,0,0.000885,0,0
0:1:24.000,314.658,17.8092,0,0.000885,0,0
0:1:24.201,316.011,17.885,0,0.000885,0,0
0:1:24.402,316.713,17.9195,0,0.000885,0,0
0:1:24.604,318.061,17.9953,0,0.000885,0,0
0:1:24.806,318.764,18.0367,0,0.000885,0,0
0:1:25.007,319.409,18.0781,0,0.000885,0,0
0:1:25.208,320.583,18.1401,0,0.000885,0,0
0:1:25.407,321.638,18.2022,0,0.000885,0,0
0:1:25.608,322.754,18.2642,0,0.000885,0,0
0:1:25.809,323.986,18.3332,0,0.000885,0,0
0:1:26.013,323.986,18.3332,0,0.000885,0,0
0:1:26.214,325.628,18.4297,0,0.000885,0,0
0:1:26.412,326.215,18.4573,0,0.000885,0,0
0:1:26.604,326.975,18.5055,0,0.000885,0,0
0:1:26.806,327.62,18.54,0,0.000885,0,0
0:1:27.001,328.679,18.6021,0,0.000885,0,0
0:1:27.199,329.733,18.6572,0,0.000885,0,0
0:1:27.400,329.907,18.671,0,0.000885,0,0
0:1:27.593,331.139,18.74,0,0.000885,0,0
0:1:27.794,331.668,18.7675,0,0.000885,0,0
0:1:27.992,332.785,18.8296,0,0.000885,0,0
0:1:28.187,333.545,18.8778,0,0.000885,0,0
0:1:28.388,334.368,18.9192,0,0.000885,0,0
0:1:28.583,335.307,18.9744,0,0.000885,0,0
0:1:28.781,335.89,19.0088,0,0.000885,0,0
0:1:28.980,337.18,19.0778,0,0.000885,0,0
0:1:29.176,337.887,19.1192,0,0.000885,0,0
0:1:29.375,338.883,19.1743,0,0.000885,0,0
0:1:29.576,339.235,19.195,0,0.000885,0,0
0:1:29.779,341.054,19.2984,0,0.000885,0,0
0:1:29.980,341.405,19.3191,0,0.000885,0,0
0:1:30.181,342.811,19.4018,0,0.000885,0,0
0:1:30.382,343.576,19.4432,0,0.000885,0,0
0:1:30.580,344.515,19.4984,0,0.000885,0,0
0:1:30.781,345.218,19.5328,0,0.000885,0,0
0:1:30.982,346.098,19.588,0,0.000885,0,0
0:1:31.177,347.388,19.657,0,0.000885,0,0
0:1:31.378,348.265,19.7052,0,0.000885,0,0
0:1:31.575,348.736,19.7328,0,0.000885,0,0
0:1:31.772,349.265,19.7673,0,0.000885,0,0
0:1:31.971,350.204,19.8155,0,0.000885,0,0
0:1:32.167,350.965,19.8638,0,0.000885,0,0
0:1:32.362,352.019,19.919,0,0.000885,0,0
0:1:32.563,352.548,19.9534,0,0.000885,0,0
0:1:32.757,353.896,20.0293,0,0.000885,0,0
0:1:32.957,354.835,20.0775,0,0.000885,0,0
0:1:33.154,355.831,20.1327,0,0.000885,0,0
0:1:33.349,356.654,20.181,0,0.000885,0,0
0:1:33.551,357.477,20.2292,0,0.000885,0,0
0:1:33.746,358.589,20.2913,0,0.000885,0,0
0:1:33.945,359.234,20.3257,0,0.000885,0,0
0:1:34.146,359.995,20.374,0,0.000885,0,0
0:1:34.349,360.933,20.4223,0,0.000885,0,0
0:1:34.551,362.05,20.4912,0,0.000885,0,0
0:1:34.751,362.637,20.5188,0,0.000885,0,0
0:1:34.952,363.633,20.5809,0,0.000885,0,0
0:1:35.152,364.456,20.6222,0,0.000885,0,0
0:1:35.353,365.217,20.6636,0,0.000885,0,0
0:1:35.553,365.977,20.7119,0,0.000885,0,0
0:1:35.749,366.978,20.767,0,0.000885,0,0
0:1:35.948,367.623,20.8015,0,0.000885,0,0
0:1:36.147,368.5,20.8497,0,0.000885,0,0
0:1:36.340,369.029,20.8842,0,0.000885,0,0
0:1:36.540,371.022,20.9945,0,0.000885,0,0
0:1:36.738,371.787,21.0359,0,0.000885,0,0
0:1:36.936,372.605,21.0842,0,0.000885,0,0
0:1:37.136,373.25,21.1186,0,0.000885,0,0
0:1:37.331,374.189,21.1738,0,0.000885,0,0
0:1:37.530,375.421,21.2427,0,0.000885,0,0
0:1:37.728,376.008,21.2772,0,0.000885,0,0
0:1:37.924,377.062,21.3393,0,0.000885,0,0
0:1:38.125,377.77,21.3806,0,0.000885,0,0
0:1:38.319,378.352,21.4082,0,0.000885,0,0
0:1:38.517,378.94,21.4427,0,0.000885,0,0
0:1:38.717,380.643,21.5392,0,0.000885,0,0
0:1:38.910,380.937,21.5599,0,0.000885,0,0
0:1:39.113,382.165,21.6289,0,0.000885,0,0
0:1:39.310,382.814,21.6633,0,0.000885,0,0
0:1:39.514,383.632,21.7116,0,0.000885,0,0
0:1:39.715,384.571,21.7599,0,0.000885,0,0
0:1:39.916,385.452,21.815,0,0.000885,0,0
0:1:40.116,386.448,21.8702,0,0.000885,0,0
0:1:40.316,387.209,21.9115,0,0.000885,0,0
0:1:40.514,388.21,21.9667,0,0.000885,0,0
0:1:40.715,389.144,22.0219,0,0.000885,0,0
0:1:40.909,389.615,22.0494,0,0.000885,0,0
0:1:41.107,390.847,22.1184,0,0.000885,0,0
0:1:41.308,391.315,22.146,0,0.000885,0,0
0:1:41.503,392.898,22.2356,0,0.000885,0,0
0:1:41.702,393.076,22.2425,0,0.000885,0,0
0:1:41.899,393.485,22.2701,0,0.000885,0,0
0:1:42.094,395.656,22.3873,0,0.000885,0,0
0:1:42.294,395.656,22.3873,0,0.000885,0,0
0:1:42.491,396.946,22.4631,0,0.000885,0,0
0:1:42.689,397.417,22.4907,0,0.000885,0,0
0:1:42.888,398.65,22.5596,0,0.000885,0,0
0:1:43.083,399.232,22.5941,0,0.000885,0,0
0:1:43.283,400.878,22.6838,0,0.000885,0,0
0:1:43.480,401.23,22.7044,0,0.000885,0,0
0:1:43.678,402.106,22.7527,0,0.000885,0,0
0:1:43.877,402.751,22.7941,0,0.000885,0,0
0:1:44.080,404.045,22.863,0,0.000885,0,0
0:1:44.281,404.806,22.9044,0,0.000885,0,0
0:1:44.483,405.802,22.9664,0,0.000885,0,0
0:1:44.683,406.857,23.0216,0,0.000885,0,0
0:1:44.884,407.737,23.0699,0,0.000885,0,0
0:1:45.083,408.618,23.125,0,0.000885,0,0
0:1:45.284,409.441,23.1664,0,0.000885,0,0
0:1:45.483,410.495,23.2284,0,0.000885,0,0
0:1:45.678,411.198,23.2698,0,0.000885,0,0
0:1:45.879,411.785,23.3043,0,0.000885,0,0
0:1:46.074,412.782,23.3594,0,0.000885,0,0
0:1:46.272,413.605,23.4077,0,0.000885,0,0
0:1:46.471,414.952,23.4835,0,0.000885,0,0
0:1:46.665,415.068,23.4904,0,0.000885,0,0
0:1:46.866,416.007,23.5387,0,0.000885,0,0
0:1:47.061,416.772,23.587,0,0.000885,0,0
0:1:47.258,418.062,23.6559,0,0.000885,0,0
0:1:47.459,418.587,23.6904,0,0.000885,0,0
0:1:47.653,419.645,23.7455,0,0.000885,0,0
0:1:47.853,420.112,23.7731,0,0.000885,0,0
0:1:48.050,421.109,23.8283,0,0.000885,0,0
0:1:48.245,421.989,23.8765,0,0.000885,0,0
0:1:48.446,423.222,23.9524,0,0.000885,0,0
0:1:48.642,424.102,24.0007,0,0.000885,0,0
0:1:48.841,424.69,24.0351,0,0.000885,0,0
0:1:49.041,425.859,24.0972,0,0.000885,0,0
0:1:49.244,427.385,24.1868,0,0.000885,0,0
0:1:49.446,427.679,24.2006,0,0.000885,0,0
0:1:49.646,429.262,24.2902,0,0.000885,0,0
0:1:49.846,429.32,24.2971,0,0.000885,0,0
0:1:50.047,430.494,24.3592,0,0.000885,0,0
0:1:50.247,430.904,24.3868,0,0.000885,0,0
0:1:50.448,431.9,24.4419,0,0.000885,0,0
0:1:50.646,432.078,24.4488,0,0.000885,0,0
0:1:50.841,434.133,24.566,0,0.000885,0,0
0:1:51.042,434.484,24.5867,0,0.000885,0,0
0:1:51.236,435.361,24.635,0,0.000885,0,0
0:1:51.435,436.419,24.697,0,0.000885,0,0
0:1:51.632,437.007,24.7315,0,0.000885,0,0
0:1:51.830,438.061,24.7867,0,0.000885,0,0
0:1:52.031,438.648,24.8211,0,0.000885,0,0
0:1:52.226,439.76,24.8832,0,0.000885,0,0
0:1:52.423,440.641,24.9383,0,0.000885,0,0
0:1:52.623,441.464,24.9797,0,0.000885,0,0
0:1:52.817,441.989,25.0142,0,0.000885,0,0
0:1:53.018,443.341,25.09,0,0.000885,0,0
0:1:53.216,443.692,25.1107,0,0.000885,0,0
0:1:53.409,445.156,25.1934,0,0.000885,0,0
0:1:53.610,445.743,25.221,0,0.000885,0,0
0:1:53.804,446.566,25.2693,0,0.000885,0,0
0:1:54.004,447.972,25.352,0,0.000885,0,0
0:1:54.204,448.737,25.3934,0,0.000885,0,0
0:1:54.406,449.733,25.4485,0,0.000885,0,0
0:1:54.608,450.32,25.483,0,0.000885,0,0
0:1:54.808,451.374,25.5451,0,0.000885,0,0
0:1:55.009,452.019,25.5795,0,0.000885,0,0
0:1:55.210,452.9,25.6278,0,0.000885,0,0
0:1:55.409,453.487,25.6623,0,0.000885,0,0
0:1:55.610,454.893,25.745,0,0.000885,0,0
0:1:55.807,455.48,25.7726,0,0.000885,0,0
0:1:56.004,456.477,25.8347,0,0.000885,0,0
0:1:56.205,457.531,25.8898,0,0.000885,0,0
0:1:56.399,458.589,25.9519,0,0.000885,0,0
0:1:56.600,459.292,25.9932,0,0.000885,0,0
0:1:56.797,459.586,26.007,0,0.000885,0,0
0:1:57.004,460.346,26.0484,0,0.000885,0,0
0:1:57.205,461.463,26.1104,0,0.000885,0,0
0:1:57.408,462.344,26.1656,0,0.000885,0,0
0:1:57.608,463.927,26.2552,0,0.000885,0,0
0:1:57.806,464.221,26.269,0,0.000885,0,0
0:1:58.001,465.217,26.3242,0,0.000885,0,0
0:1:58.201,465.742,26.3587,0,0.000885,0,0
0:1:58.396,466.681,26.4069,0,0.000885,0,0
0:1:58.596,468.033,26.4828,0,0.000885,0,0
0:1:58.795,468.206,26.4966,0,0.000885,0,0
0:1:58.989,469.79,26.5862,0,0.000885,0,0
0:1:59.190,470.262,26.6138,0,0.000885,0,0
0:1:59.390,472.076,26.7172,0,0.000885,0,0
0:1:59.591,472.606,26.7448,0,0.000885,0,0
0:1:59.793,473.78,26.8137,0,0.000885,0,0
0:1:59.993,474.656,26.862,0,0.000885,0,0
0:2:0.194,475.595,26.9102,0,0.000885,0,0
0:2:0.393,476.596,26.9723,0,0.000885,0,0
0:2:0.593,476.947,26.993,0,0.000885,0,0
0:2:0.793,478.353,27.0688,0,0.000885,0,0
0:2:0.989,478.704,27.0895,0,0.000885,0,0
0:2:1.188,479.821,27.1516,0,0.000885,0,0
0:2:1.387,480.23,27.1722,0,0.000885,0,0
0:2:1.583,480.817,27.2067,0,0.000885,0,0
0:2:1.782,480.991,27.2205,0,0.000885,0,0
0:2:1.978,482.574,27.3101,0,0.000885,0,0
0:2:2.175,482.988,27.3308,0,0.000885,0,0
0:2:2.374,484.629,27.4273,0,0.000885,0,0
0:2:2.570,484.923,27.4411,0,0.000885,0,0
0:2:2.771,486.68,27.5377,0,0.000885,0,0
0:2:2.967,487.387,27.579,0,0.000885,0,0
0:2:3.164,488.557,27.648,0,0.000885,0,0
0:2:3.362,489.38,27.6962,0,0.000885,0,0
0:2:3.558,490.376,27.7514,0,0.000885,0,0
0:2:3.760,491.257,27.7997,0,0.000885,0,0
0:2:3.961,492.196,27.8548,0,0.000885,0,0
0:2:4.162,493.134,27.9031,0,0.000885,0,0
0:2:4.364,493.601,27.9307,0,0.000885,0,0
0:2:4.564,494.718,27.9927,0,0.000885,0,0
0:2:4.765,494.954,28.0065,0,0.000885,0,0
0:2:4.967,495.888,28.0617,0,0.000885,0,0
0:2:5.167,496.359,28.0892,0,0.000885,0,0
0:2:5.367,497.943,28.1789,0,0.000885,0,0
0:2:5.560,498.179,28.1927,0,0.000885,0,0
0:2:5.761,499.291,28.2547,0,0.000885,0,0
0:2:5.958,499.936,28.2892,0,0.000885,0,0
0:2:6.155,500.994,28.3512,0,0.000885,0,0
0:2:6.355,501.991,28.4064,0,0.000885,0,0
0:2:6.550,503.223,28.4753,0,0.000885,0,0
0:2:6.750,504.219,28.5305,0,0.000885,0,0
0:2:6.949,505.331,28.5926,0,0.000885,0,0
0:2:7.144,505.625,28.6132,0,0.000885,0,0
0:2:7.346,507.093,28.696,0,0.000885,0,0
0:2:7.539,507.738,28.7305,0,0.000885,0,0
0:2:7.739,507.974,28.7442,0,0.000885,0,0
0:2:7.939,509.437,28.827,0,0.000885,0,0
0:2:8.133,510.26,28.8752,0,0.000885,0,0
0:2:8.333,511.372,28.9373,0,0.000885,0,0
0:2:8.529,512.017,28.9718,0,0.000885,0,0
0:2:8.727,512.956,29.0269,0,0.000885,0,0
0:2:8.927,513.133,29.0407,0,0.000885,0,0
0:2:9.130,514.481,29.1166,0,0.000885,0,0
0:2:9.331,515.068,29.1441,0,0.000885,0,0
0:2:9.533,516.358,29.22,0,0.000885,0,0
0:2:9.734,516.71,29.2407,0,0.000885,0,0
0:2:9.934,518.645,29.351,0,0.000885,0,0
0:2:10.133,518.645,29.351,0,0.000885,0,0
0:2:10.335,520.349,29.4475,0,0.000885,0,0
0:2:10.532,520.642,29.4613,0,0.000885,0,0
0:2:10.730,521.932,29.5371,0,0.000885,0,0
0:2:10.930,522.693,29.5785,0,0.000885,0,0
0:2:11.124,523.338,29.613,0,0.000885,0,0
0:2:11.324,524.57,29.6819,0,0.000885,0,0
0:2:11.522,525.041,29.7095,0,0.000885,0,0
0:2:11.718,526.563,29.7991,0,0.000885,0,0
0:2:11.919,527.15,29.8336,0,0.000885,0,0
0:2:12.112,528.088,29.8819,0,0.000885,0,0
0:2:12.312,528.209,29.8888,0,0.000885,0,0
0:2:12.510,529.672,29.9715,0,0.000885,0,0
0:2:12.714,530.023,29.9922,0,0.000885,0,0
0:2:12.917,531.256,30.0611,0,0.000885,0,0
0:2:13.111,532.31,30.1232,0,0.000885,0,0
0:2:13.309,533.248,30.1784,0,0.000885,0,0
0:2:13.508,534.071,30.2197,0,0.000885,0,0
0:2:13.703,534.716,30.2611,0,0.000885,0,0
0:2:13.902,535.539,30.3025,0,0.000885,0,0
0:2:14.103,536.358,30.3507,0,0.000885,0,0
0:2:14.305,537.238,30.399,0,0.000885,0,0
0:2:14.507,538.293,30.461,0,0.000885,0,0
0:2:14.707,539.173,30.5093,0,0.000885,0,0
0:2:14.908,539.525,30.53,0,0.000885,0,0
0:2:15.109,540.757,30.5989,0,0.000885,0,0
0:2:15.309,541.58,30.6472,0,0.000885,0,0
0:2:15.511,543.337,30.7437,0,0.000885,0,0
0:2:15.714,543.395,30.7506,0,0.000885,0,0
0:2:15.917,544.92,30.8334,0,0.000885,0,0
0:2:16.122,545.214,30.854,0,0.000885,0,0
0:2:16.321,546.855,30.9437,0,0.000885,0,0
0:2:16.521,547.207,30.9644,0,0.000885,0,0
0:2:16.723,548.617,31.0471,0,0.000885,0,0
0:2:16.925,548.853,31.0609,0,0.000885,0,0
0:2:17.122,550.085,31.1298,0,0.000885,0,0
0:2:17.318,550.846,31.1712,0,0.000885,0,0
0:2:17.519,551.606,31.2126,0,0.000885,0,0
0:2:17.712,552.313,31.2539,0,0.000885,0,0
0:2:17.912,553.483,31.3229,0,0.000885,0,0
0:2:18.120,554.07,31.3574,0,0.000885,0,0
0:2:18.317,554.773,31.3918,0,0.000885,0,0
0:2:18.513,556.183,31.4746,0,0.000885,0,0
0:2:18.709,557.064,31.5228,0,0.000885,0,0
0:2:18.910,557.883,31.5711,0,0.000885,0,0
0:2:19.110,558.706,31.6194,0,0.000885,0,0
0:2:19.312,559.351,31.6538,0,0.000885,0,0
0:2:19.514,560.111,31.6952,0,0.000885,0,0
0:2:19.715,560.756,31.7297,0,0.000885,0,0
0:2:19.919,561.695,31.7848,0,0.000885,0,0
0:2:20.119,563.105,31.8676,0,0.000885,0,0
0:2:20.319,563.63,31.8951,0,0.000885,0,0
0:2:20.521,565.155,31.9779,0,0.000885,0,0
0:2:20.724,564.982,31.971,0,0.000885,0,0
0:2:20.924,567.442,32.1089,0,0.000885,0,0
0:2:21.122,567.735,32.1296,0,0.000885,0,0
0:2:21.314,568.616,32.1778,0,0.000885,0,0
0:2:21.515,569.613,32.233,0,0.000885,0,0
0:2:21.712,570.258,32.2675,0,0.000885,0,0
0:2:21.909,571.196,32.3226,0,0.000885,0,0
0:2:22.109,572.019,32.3709,0,0.000885,0,0
0:2:22.313,572.838,32.4191,0,0.000885,0,0
0:2:22.513,573.425,32.4467,0,0.000885,0,0
0:2:22.710,574.363,32.5019,0,0.000885,0,0
0:2:22.908,575.36,32.557,0,0.000885,0,0
0:2:23.108,576.592,32.626,0,0.000885,0,0
0:2:23.323,577.588,32.688,0,0.000885,0,0
0:2:23.523,578.233,32.7225,0,0.000885,0,0
0:2:23.720,579.643,32.7984,0,0.000885,0,0
0:2:23.926,579.817,32.8121,0,0.000885,0,0
0:2:24.127,580.582,32.8535,0,0.000885,0,0
0:2:24.328,581.285,32.8949,0,0.000885,0,0
0:2:24.531,582.868,32.9845,0,0.000885,0,0
0:2:24.732,583.162,32.9983,0,0.000885,0,0
0:2:24.932,584.745,33.0879,0,0.000885,0,0
0:2:25.133,584.981,33.1017,0,0.000885,0,0
0:2:25.332,585.568,33.1362,0,0.000885,0,0
0:2:25.533,586.738,33.2052,0,0.000885,0,0
0:2:25.731,587.268,33.2327,0,0.000885,0,0
0:2:25.927,589.145,33.3362,0,0.000885,0,0
0:2:26.128,589.612,33.3637,0,0.000885,0,0
0:2:26.323,590.613,33.4189,0,0.000885,0,0
0:2:26.520,591.373,33.4672,0,0.000885,0,0
0:2:26.721,592.134,33.5085,0,0.000885,0,0
0:2:26.918,593.25,33.5706,0,0.000885,0,0
0:2:27.118,594.189,33.6257,0,0.000885,0,0
0:2:27.325,594.896,33.6671,0,0.000885,0,0
0:2:27.523,595.95,33.7223,0,0.000885,0,0
0:2:27.724,596.302,33.7429,0,0.000885,0,0
0:2:27.921,598.241,33.8533,0,0.000885,0,0
0:2:28.121,598.708,33.8808,0,0.000885,0,0
0:2:28.319,600.354,33.9705,0,0.000885,0,0
0:2:28.525,600.412,33.9774,0,0.000885,0,0
0:2:28.728,601.408,34.0325,0,0.000885,0,0
0:2:28.930,601.764,34.0532,0,0.000885,0,0
0:2:29.133,603.29,34.1359,0,0.000885,0,0
0:2:29.335,603.406,34.1428,0,0.000885,0,0
0:2:29.537,604.402,34.2049,0,0.000885,0,0
0:2:29.738,605.345,34.2532,0,0.000885,0,0
0:2:29.940,606.221,34.3083,0,0.000885,0,0
0:2:30.141,607.338,34.3704,0,0.000885,0,0
0:2:30.342,607.632,34.3842,0,0.000885,0,0
0:2:30.537,609.042,34.4669,0,0.000885,0,0
0:2:30.738,609.922,34.5152,0,0.000885,0,0
0:2:30.937,610.745,34.5634,0,0.000885,0,0
0:2:31.133,611.8,34.6186,0,0.000885,0,0
0:2:31.335,613.21,34.7013,0,0.000885,0,0
0:2:31.531,613.503,34.7151,0,0.000885,0,0
0:2:31.731,614.971,34.7978,0,0.000885,0,0
0:2:31.930,615.029,34.8047,0,0.000885,0,0
0:2:32.127,616.555,34.8875,0,0.000885,0,0
0:2:32.328,616.848,34.9082,0,0.000885,0,0
0:2:32.525,618.196,34.984,0,0.000885,0,0
0:2:32.724,618.725,35.0116,0,0.000885,0,0
0:2:32.925,619.606,35.0598,0,0.000885,0,0
0:2:33.121,620.607,35.1219,0,0.000885,0,0
0:2:33.322,621.074,35.1426,0,0.000885,0,0
0:2:33.520,622.013,35.1977,0,0.000885,0,0
0:2:33.718,622.893,35.246,0,0.000885,0,0
0:2:33.921,624.477,35.3356,0,0.000885,0,0
0:2:34.123,624.419,35.3356,0,0.000885,0,0
0:2:34.327,626.007,35.4253,0,0.000885,0,0
0:2:34.528,626.474,35.4528,0,0.000885,0,0
0:2:34.729,628.414,35.5632,0,0.000885,0,0
0:2:34.930,629.001,35.5907,0,0.000885,0,0
0:2:35.133,629.877,35.6459,0,0.000885,0,0
0:2:35.333,630.406,35.6735,0,0.000885,0,0
0:2:35.533,631.172,35.7148,0,0.000885,0,0
0:2:35.728,632.11,35.77,0,0.000885,0,0
0:2:35.930,632.755,35.8045,0,0.000885,0,0
0:2:36.125,633.164,35.8321,0,0.000885,0,0
0:2:36.324,634.339,35.8941,0,0.000885,0,0
0:2:36.525,634.868,35.9286,0,0.000885,0,0
0:2:36.720,636.1,35.9975,0,0.000885,0,0
0:2:36.923,636.514,36.0182,0,0.000885,0,0
0:2:37.119,638.391,36.1285,0,0.000885,0,0
0:2:37.315,638.978,36.1561,0,0.000885,0,0
0:2:37.519,640.095,36.2251,0,0.000885,0,0
0:2:37.723,641.207,36.2871,0,0.000885,0,0
0:2:37.923,642.208,36.3423,0,0.000885,0,0
0:2:38.121,642.732,36.3698,0,0.000885,0,0
0:2:38.315,643.733,36.425,0,0.000885,0,0
0:2:38.519,644.614,36.4802,0,0.000885,0,0
0:2:38.714,644.965,36.5008,0,0.000885,0,0
0:2:38.913,646.433,36.5836,0,0.000885,0,0
0:2:39.115,646.607,36.5905,0,0.000885,0,0
0:2:39.321,648.546,36.7008,0,0.000885,0,0
0:2:39.523,648.72,36.7077,0,0.000885,0,0
0:2:39.725,649.956,36.7766,0,0.000885,0,0
0:2:39.925,650.659,36.818,0,0.000885,0,0
0:2:40.127,651.362,36.8594,0,0.000885,0,0
0:2:40.327,652.478,36.9214,0,0.000885,0,0
0:2:40.530,653.181,36.9628,0,0.000885,0,0
0:2:40.727,654.004,37.0111,0,0.000885,0,0
0:2:40.926,654.943,37.0593,0,0.000885,0,0
0:2:41.127,655.53,37.0938,0,0.000885,0,0
0:2:41.320,657.176,37.1903,0,0.000885,0,0
0:2:41.521,657.527,37.211,0,0.000885,0,0
0:2:41.720,658.644,37.2731,0,0.000885,0,0
0:2:41.916,658.875,37.2868,0,0.000885,0,0
0:2:42.119,659.876,37.342,0,0.000885,0,0
0:2:42.313,661.05,37.411,0,0.000885,0,0
0:2:42.512,661.869,37.4523,0,0.000885,0,0
0:2:42.711,663.279,37.5351,0,0.000885,0,0
0:2:42.908,663.866,37.5695,0,0.000885,0,0
0:2:43.110,665.156,37.6385,0,0.000885,0,0
0:2:43.306,665.743,37.673,0,0.000885,0,0
0:2:43.505,666.917,37.7419,0,0.000885,0,0
0:2:43.706,667.389,37.7695,0,0.000885,0,0
0:2:43.910,668.621,37.8384,0,0.000885,0,0
0:2:44.111,669.266,37.8729,0,0.000885,0,0
0:2:44.314,670.089,37.9212,0,0.000885,0,0
0:2:44.515,670.556,37.9487,0,0.000885,0,0
0:2:44.716,671.966,38.0246,0,0.000885,0,0
0:2:44.920,672.202,38.0384,0,0.000885,0,0
0:2:45.122,674.137,38.1487,0,0.000885,0,0
0:2:45.320,674.608,38.1763,0,0.000885,0,0
0:2:45.515,675.431,38.2245,0,0.000885,0,0
0:2:45.717,675.605,38.2314,0,0.000885,0,0
0:2:45.913,676.606,38.2866,0,0.000885,0,0
0:2:46.112,677.718,38.3486,0,0.000885,0,0
0:2:46.311,679.421,38.4452,0,0.000885,0,0
0:2:46.516,679.306,38.4383,0,0.000885,0,0
0:2:46.720,680.711,38.521,0,0.000885,0,0
0:2:46.914,681.063,38.5417,0,0.000885,0,0
0:2:47.111,681.944,38.59,0,0.000885,0,0
0:2:47.313,682.944,38.6451,0,0.000885,0,0
0:2:47.508,684.234,38.721,0,0.000885,0,0
0:2:47.709,685.057,38.7692,0,0.000885,0,0
0:2:47.908,685.644,38.7968,0,0.000885,0,0
0:2:48.103,687.05,38.8795,0,0.000885,0,0
0:2:48.304,687.815,38.9209,0,0.000885,0,0
0:2:48.510,688.754,38.9761,0,0.000885,0,0
0:2:48.710,689.341,39.0105,0,0.000885,0,0
0:2:48.912,690.222,39.0588,0,0.000885,0,0
0:2:49.115,690.809,39.0933,0,0.000885,0,0
0:2:49.317,692.57,39.1898,0,0.000885,0,0
0:2:49.521,692.686,39.1967,0,0.000885,0,0
0:2:49.723,694.038,39.2725,0,0.000885,0,0
0:2:49.925,694.447,39.3001,0,0.000885,0,0
0:2:50.125,695.328,39.3484,0,0.000885,0,0
0:2:50.327,696.503,39.4173,0,0.000885,0,0
0:2:50.525,697.561,39.4725,0,0.000885,0,0
0:2:50.723,698.086,39.507,0,0.000885,0,0
0:2:50.924,699.554,39.5897,0,0.000885,0,0
0:2:51.117,700.141,39.6173,0,0.000885,0,0
0:2:51.318,700.906,39.6655,0,0.000885,0,0
0:2:51.517,701.903,39.7207,0,0.000885,0,0
0:2:51.712,702.254,39.7414,0,0.000885,0,0
0:2:51.914,703.135,39.7896,0,0.000885,0,0
0:2:52.110,703.606,39.8172,0,0.000885,0,0
0:2:52.309,705.661,39.9344,0,0.000885,0,0
0:2:52.510,706.071,39.9551,0,0.000885,0,0
0:2:52.706,707.129,40.0172,0,0.000885,0,0
0:2:52.908,708.126,40.0723,0,0.000885,0,0
0:2:53.104,709.064,40.1275,0,0.000885,0,0
0:2:53.302,709.829,40.1689,0,0.000885,0,0
0:2:53.504,710.941,40.2309,0,0.000885,0,0
0:2:53.699,711.764,40.2792,0,0.000885,0,0
0:2:53.902,712.761,40.3343,0,0.000885,0,0
0:2:54.104,713.468,40.3757,0,0.000885,0,0
0:2:54.308,714.407,40.424,0,0.000885,0,0
0:2:54.511,714.816,40.4515,0,0.000885,0,0
0:2:54.713,716.52,40.5481,0,0.000885,0,0
0:2:54.913,716.871,40.5688,0,0.000885,0,0
0:2:55.114,717.867,40.6239,0,0.000885,0,0
0:2:55.315,718.575,40.6653,0,0.000885,0,0
0:2:55.515,719.398,40.7066,0,0.000885,0,0
0:2:55.723,720.394,40.7687,0,0.000885,0,0
0:2:55.925,721.039,40.8032,0,0.000885,0,0
0:2:56.122,721.978,40.8583,0,0.000885,0,0
0:2:56.317,722.271,40.8721,0,0.000885,0,0
0:2:56.518,723.975,40.9686,0,0.000885,0,0
0:2:56.714,724.442,40.9962,0,0.000885,0,0
0:2:56.916,725.558,41.0583,0,0.000885,0,0
0:2:57.115,726.381,41.1065,0,0.000885,0,0
0:2:57.312,727.907,41.1893,0,0.000885,0,0
0:2:57.513,728.143,41.2031,0,0.000885,0,0
0:2:57.708,729.548,41.2858,0,0.000885,0,0
0:2:57.910,730.491,41.3341,0,0.000885,0,0
0:2:58.109,730.723,41.3479,0,0.000885,0,0
0:2:58.314,731.781,41.4099,0,0.000885,0,0
0:2:58.516,732.836,41.472,0,0.000885,0,0
0:2:58.712,733.601,41.5133,0,0.000885,0,0
0:2:58.911,734.891,41.5892,0,0.000885,0,0
0:2:59.113,735.536,41.6236,0,0.000885,0,0
0:2:59.316,735.949,41.6443,0,0.000885,0,0
0:2:59.519,736.71,41.6926,0,0.000885,0,0
0:2:59.723,737.947,41.7615,0,0.000885,0,0
0:2:59.924,739.001,41.8167,0,0.000885,0,0
0:3:0.127,739.704,41.8581,0,0.000885,0,0
0:3:0.327,741.056,41.9339,0,0.000885,0,0
0:3:0.530,741.995,41.9891,0,0.000885,0,0
0:3:0.728,742.639,42.0235,0,0.000885,0,0
0:3:0.929,743.756,42.0856,0,0.000885,0,0
0:3:1.129,744.343,42.1201,0,0.000885,0,0
0:3:1.323,744.93,42.1545,0,0.000885,0,0
0:3:1.525,745.691,42.1959,0,0.000885,0,0
0:3:1.729,746.34,42.2373,0,0.000885,0,0
0:3:1.928,747.866,42.32,0,0.000885,0,0
0:3:2.130,748.453,42.3545,0,0.000885,0,0
0:3:2.324,749.628,42.4234,0,0.000885,0,0
0:3:2.526,750.037,42.4441,0,0.000885,0,0
0:3:2.724,750.975,42.4993,0,0.000885,0,0
0:3:2.922,751.914,42.5475,0,0.000885,0,0
0:3:3.124,753.031,42.6096,0,0.000885,0,0
0:3:3.317,753.733,42.651,0,0.000885,0,0
0:3:3.519,755.259,42.7406,0,0.000885,0,0
0:3:3.716,755.909,42.7751,0,0.000885,0,0
0:3:3.913,756.785,42.8233,0,0.000885,0,0
0:3:4.114,757.844,42.8854,0,0.000885,0,0
0:3:4.316,758.546,42.9268,0,0.000885,0,0
0:3:4.518,758.546,42.9268,0,0.000885,0,0
0:3:4.723,760.072,43.0095,0,0.000885,0,0
0:3:4.924,760.659,43.044,0,0.000885,0,0
0:3:5.126,762.127,43.1267,0,0.000885,0,0
0:3:5.327,762.714,43.1612,0,0.000885,0,0
0:3:5.529,763.715,43.2163,0,0.000885,0,0
0:3:5.729,764.067,43.237,0,0.000885,0,0
0:3:5.926,764.947,43.2853,0,0.000885,0,0
0:3:6.128,766.531,43.3749,0,0.000885,0,0
0:3:6.323,767.412,43.4232,0,0.000885,0,0
0:3:6.524,767.999,43.4577,0,0.000885,0,0
0:3:6.723,768.644,43.499,0,0.000885,0,0
0:3:6.917,770.17,43.5818,0,0.000885,0,0
0:3:7.118,770.877,43.6231,0,0.000885,0,0
0:3:7.327,771.58,43.6645,0,0.000885,0,0
0:3:7.525,772.167,43.699,0,0.000885,0,0
0:3:7.725,773.221,43.7541,0,0.000885,0,0
0:3:7.919,773.986,43.7955,0,0.000885,0,0
0:3:8.123,774.983,43.8576,0,0.000885,0,0
0:3:8.317,775.69,43.892,0,0.000885,0,0
0:3:8.517,777.038,43.9748,0,0.000885,0,0
0:3:8.718,777.567,44.0023,0,0.000885,0,0
0:3:8.924,778.915,44.0782,0,0.000885,0,0
0:3:9.126,779.328,44.0989,0,0.000885,0,0
0:3:9.328,780.44,44.1609,0,0.000885,0,0
0:3:9.529,781.263,44.2092,0,0.000885,0,0
0:3:9.730,782.322,44.2712,0,0.000885,0,0
0:3:9.932,782.909,44.3057,0,0.000885,0,0
0:3:10.134,784.199,44.3747,0,0.000885,0,0
0:3:10.331,784.964,44.4229,0,0.000885,0,0
0:3:10.529,785.725,44.4643,0,0.000885,0,0
0:3:10.731,786.548,44.5126,0,0.000885,0,0
0:3:10.926,787.077,44.5401,0,0.000885,0,0
0:3:11.128,788.425,44.616,0,0.000885,0,0
0:3:11.325,789.421,44.6711,0,0.000885,0,0
0:3:11.531,790.244,44.7194,0,0.000885,0,0
0:3:11.733,790.658,44.7401,0,0.000885,0,0
0:3:11.929,792.126,44.8228,0,0.000885,0,0
0:3:12.130,792.771,44.8642,0,0.000885,0,0
0:3:12.328,794.003,44.9331,0,0.000885,0,0
0:3:12.524,794.648,44.9676,0,0.000885,0,0
0:3:12.726,795.587,45.0228,0,0.000885,0,0
0:3:12.920,795.996,45.0434,0,0.000885,0,0
0:3:13.122,797.29,45.1193,0,0.000885,0,0
0:3:13.319,797.82,45.1469,0,0.000885,0,0
0:3:13.515,798.932,45.2089,0,0.000885,0,0
0:3:13.717,799.755,45.2572,0,0.000885,0,0
0:3:13.918,801.28,45.3399,0,0.000885,0,0
0:3:14.120,801.868,45.3744,0,0.000885,0,0
0:3:14.324,802.926,45.4365,0,0.000885,0,0
0:3:14.526,803.22,45.4502,0,0.000885,0,0
0:3:14.727,804.216,45.5123,0,0.000885,0,0
0:3:14.928,804.625,45.533,0,0.000885,0,0
0:3:15.129,805.92,45.6088,0,0.000885,0,0
0:3:15.331,806.801,45.6571,0,0.000885,0,0
0:3:15.526,807.21,45.6778,0,0.000885,0,0
0:3:15.728,808.442,45.7467,0,0.000885,0,0
0:3:15.927,809.145,45.7881,0,0.000885,0,0
0:3:16.124,810.555,45.8708,0,0.000885,0,0
0:3:16.324,811.2,45.9053,0,0.000885,0,0
0:3:16.517,812.316,45.9673,0,0.000885,0,0
0:3:16.718,813.313,46.0225,0,0.000885,0,0
0:3:16.918,813.842,46.057,0,0.000885,0,0
0:3:17.115,814.02,46.0639,0,0.000885,0,0
0:3:17.317,815.897,46.1673,0,0.000885,0,0
0:3:17.523,816.364,46.1949,0,0.000885,0,0
0:3:17.724,817.423,46.2569,0,0.000885,0,0
0:3:17.920,818.482,46.319,0,0.000885,0,0
0:3:18.119,819.362,46.3672,0,0.000885,0,0
0:3:18.321,819.945,46.4017,0,0.000885,0,0
0:3:18.515,820.532,46.4293,0,0.000885,0,0
0:3:18.715,821.413,46.4845,0,0.000885,0,0
0:3:18.917,822.939,46.5672,0,0.000885,0,0
0:3:19.119,823.468,46.6017,0,0.000885,0,0
0:3:19.324,824.82,46.6775,0,0.000885,0,0
0:3:19.526,824.994,46.6844,0,0.000885,0,0
0:3:19.727,825.995,46.7396,0,0.000885,0,0
0:3:19.927,827.636,46.8361,0,0.000885,0,0
0:3:20.129,827.988,46.8568,0,0.000885,0,0
0:3:20.332,828.988,46.9119,0,0.000885,0,0
0:3:20.528,829.633,46.9464,0,0.000885,0,0
0:3:20.728,830.866,47.0153,0,0.000885,0,0
0:3:20.927,831.275,47.0429,0,0.000885,0,0
0:3:21.132,832.04,47.0843,0,0.000885,0,0
0:3:21.333,832.978,47.1395,0,0.000885,0,0
0:3:21.531,833.859,47.1877,0,0.000885,0,0
0:3:21.731,833.975,47.1946,0,0.000885,0,0
0:3:21.930,835.736,47.2911,0,0.000885,0,0
0:3:22.126,836.208,47.3187,0,0.000885,0,0
0:3:22.328,837.44,47.3877,0,0.000885,0,0
0:3:22.525,837.849,47.4152,0,0.000885,0,0
0:3:22.724,838.85,47.4704,0,0.000885,0,0
0:3:22.924,839.024,47.4773,0,0.000885,0,0
0:3:23.116,840.727,47.5738,0,0.000885,0,0
0:3:23.319,841.314,47.6083,0,0.000885,0,0
0:3:23.517,842.662,47.6841,0,0.000885,0,0
0:3:23.716,843.485,47.7324,0,0.000885,0,0
0:3:23.918,843.721,47.7462,0,0.000885,0,0
0:3:24.121,844.544,47.7945,0,0.000885,0,0
0:3:24.325,845.189,47.8289,0,0.000885,0,0
0:3:24.528,845.892,47.8703,0,0.000885,0,0
0:3:24.729,846.305,47.891,0,0.000885,0,0
0:3:24.931,847.653,47.9668,0,0.000885,0,0
0:3:25.132,848.125,47.9944,0,0.000885,0,0
0:3:25.334,849.179,48.0565,0,0.000885,0,0
0:3:25.532,849.708,48.084,0,0.000885,0,0
0:3:25.730,850.589,48.1323,0,0.000885,0,0
0:3:25.932,851.056,48.1599,0,0.000885,0,0
0:3:26.127,852.173,48.2219,0,0.000885,0,0
0:3:26.327,852.644,48.2495,0,0.000885,0,0
0:3:26.526,852.875,48.2633,0,0.000885,0,0
0:3:26.730,852.466,48.2426,0,0.000885,0,0
0:3:26.931,852.115,48.2219,0,0.000885,0,0
0:3:27.128,851.35,48.1737,0,0.000885,0,0
0:3:27.325,849.472,48.0702,0,0.000885,0,0
0:3:27.525,847.244,47.9461,0,0.000885,0,0
0:3:27.718,841.021,47.5945,0,0.000885,0,0
0:3:27.919,836.559,47.3394,0,0.000885,0,0
0:3:28.117,817.307,46.25,0,0.000885,0,0
0:3:28.321,798.758,45.202,0,0.000885,0,0
0:3:28.525,679.773,38.4659,0,0.000885,0,0
0:3:28.642,679.773,38.4659,0,0.000885,0,0