File: DataFile2021-06-06_070553.csv
Test ID:,Date Tested:,Time:,Test Type:,Diameter Avg. (mm):,Cyl. Corr. Factor:,Height (mm):,Age (days):,Weight (kN):,Break Type:,Ramp Rate (MPa/s):,Load at Break (kN):,Stress at Break (MPa):
12,6/6/2021,07:05,Cylinder,150,1,300,0,13.39,3,0.25,1736.4,98.26
Sample Time,Load (kN),Stress (MPa),Long. Strain,Trans. Strain,Chan1 Deflection (mm),Chan2 Deflection (mm)
0:0:15.972,7.97566,0.448159,0,0.000885,0,0
0:0:16.367,17.3614,0.979056,0,0.000885,0,0
0:0:16.764,16.8321,0.951477,0,0.000885,0,0
0:0:17.162,16.4807,0.930792,0,0.000885,0,0
0:0:17.561,16.0714,0.910108,0,0.000885,0,0
0:0:17.955,16.2449,0.917003,0,0.000885,0,0
0:0:18.351,16.5385,0.937687,0,0.000885,0,0
0:0:18.749,17.2413,0.979056,0,0.000885,0,0
0:0:19.149,18.6514,1.0549,0,0.000885,0,0
0:0:19.546,19.9414,1.13074,0,0.000885,0,0
0:0:19.942,21.5828,1.22037,0,0.000885,0,0
0:0:20.339,24.0471,1.35827,0,0.000885,0,0
0:0:20.739,26.3335,1.48927,0,0.000885,0,0
0:0:21.138,28.5042,1.61337,0,0.000885,0,0
0:0:21.545,30.3235,1.71679,0,0.000885,0,0
0:0:21.948,32.432,1.83401,0,0.000885,0,0
0:0:22.353,34.1357,1.93053,0,0.000885,0,0
0:0:22.755,36.0128,2.04085,0,0.000885,0,0
0:0:23.154,37.245,2.1098,0,0.000885,0,0
0:0:23.553,38.2414,2.16495,0,0.000885,0,0
0:0:23.947,40.937,2.31664,0,0.000885,0,0
0:0:24.346,42.8141,2.42006,0,0.000885,0,0
0:0:24.748,44.3399,2.50969,0,0.000885,0,0
0:0:25.146,46.217,2.61311,0,0.000885,0,0
0:0:25.541,47.5648,2.68896,0,0.000885,0,0
0:0:25.938,49.442,2.79927,0,0.000885,0,0
0:0:26.343,51.6127,2.92338,0,0.000885,0,0
0:0:26.750,53.2541,3.01301,0,0.000885,0,0
0:0:27.153,54.7798,3.10264,0,0.000885,0,0
0:0:27.556,56.657,3.20606,0,0.000885,0,0
0:0:27.954,58.2984,3.29569,0,0.000885,0,0
0:0:28.354,60.8205,3.44048,0,0.000885,0,0
0:0:28.754,61.9949,3.50943,0,0.000885,0,0
0:0:29.152,63.9298,3.61975,0,0.000885,0,0
0:0:29.547,65.162,3.6887,0,0.000885,0,0
0:0:29.945,66.6877,3.77143,0,0.000885,0,0
0:0:30.346,68.854,3.89554,0,0.000885,0,0
0:0:30.744,70.6733,3.99896,0,0.000885,0,0
0:0:31.141,72.8441,4.12306,0,0.000885,0,0
0:0:31.547,74.4276,4.2127,0,0.000885,0,0
0:0:31.952,75.7755,4.28854,0,0.000885,0,0
0:0:32.354,77.5948,4.39196,0,0.000885,0,0
0:0:32.757,78.9426,4.4678,0,0.000885,0,0
0:0:33.157,80.9398,4.57812,0,0.000885,0,0
0:0:33.552,83.1684,4.70912,0,0.000885,0,0
0:0:33.951,84.9833,4.81254,0,0.000885,0,0
0:0:34.353,86.9183,4.91596,0,0.000885,0,0
0:0:34.750,88.5641,5.01249,0,0.000885,0,0
0:0:35.146,90.0276,5.09523,0,0.000885,0,0
0:0:35.543,91.5533,5.17796,0,0.000885,0,0
0:0:35.943,93.8975,5.31586,0,0.000885,0,0
0:0:36.344,95.7747,5.41928,0,0.000885,0,0
0:0:36.748,97.5362,5.5227,0,0.000885,0,0
0:0:37.154,98.8261,5.59165,0,0.000885,0,0
0:0:37.556,101.17,5.72265,0,0.000885,0,0
0:0:37.958,103.168,5.83986,0,0.000885,0,0
0:0:38.358,104.925,5.93639,0,0.000885,0,0
0:0:38.755,106.393,6.01912,0,0.000885,0,0
0:0:39.149,106.86,6.0467,0,0.000885,0,0
0:0:39.550,108.915,6.16391,0,0.000885,0,0
0:0:39.949,111.673,6.32249,0,0.000885,0,0
0:0:40.347,113.608,6.42591,0,0.000885,0,0
0:0:40.745,115.249,6.52244,0,0.000885,0,0
0:0:41.140,116.597,6.59828,0,0.000885,0,0
0:0:41.544,118.18,6.68791,0,0.000885,0,0
0:0:41.951,119.822,6.77755,0,0.000885,0,0
0:0:42.355,121.583,6.88097,0,0.000885,0,0
0:0:42.756,123.812,7.00507,0,0.000885,0,0
0:0:43.155,125.275,7.08781,0,0.000885,0,0
0:0:43.555,127.74,7.22571,0,0.000885,0,0
0:0:43.957,129.675,7.33602,0,0.000885,0,0
0:0:44.353,130.791,7.39807,0,0.000885,0,0
0:0:44.750,133.02,7.52907,0,0.000885,0,0
0:0:45.147,134.545,7.61181,0,0.000885,0,0
0:0:45.548,136.009,7.69455,0,0.000885,0,0
0:0:45.948,137.712,7.79108,0,0.000885,0,0
0:0:46.345,139.412,7.8876,0,0.000885,0,0
0:0:46.752,141.405,8.00481,0,0.000885,0,0
0:0:47.156,143.633,8.12892,0,0.000885,0,0
0:0:47.558,145.337,8.22545,0,0.000885,0,0
0:0:47.963,147.507,8.34955,0,0.000885,0,0
0:0:48.361,148.677,8.4116,0,0.000885,0,0
0:0:48.756,150.087,8.49434,0,0.000885,0,0
0:0:49.157,152.196,8.61155,0,0.000885,0,0
0:0:49.556,153.9,8.70808,0,0.000885,0,0
0:0:49.953,155.541,8.80461,0,0.000885,0,0
0:0:50.350,157.36,8.90803,0,0.000885,0,0
0:0:50.748,158.299,8.95629,0,0.000885,0,0
0:0:51.148,160.937,9.10797,0,0.000885,0,0
0:0:51.547,162.52,9.19761,0,0.000885,0,0
0:0:51.953,164.162,9.28724,0,0.000885,0,0
0:0:52.358,165.803,9.38376,0,0.000885,0,0
0:0:52.762,167.858,9.50098,0,0.000885,0,0
0:0:53.164,169.148,9.56992,0,0.000885,0,0
0:0:53.564,171.492,9.70782,0,0.000885,0,0
0:0:53.959,173.957,9.84571,0,0.000885,0,0
0:0:54.357,174.895,9.89398,0,0.000885,0,0
0:0:54.756,177.182,10.025,0,0.000885,0,0
0:0:55.155,178.765,10.1146,0,0.000885,0,0
0:0:55.553,180.349,10.2042,0,0.000885,0,0
0:0:55.948,182.404,10.3215,0,0.000885,0,0
0:0:56.352,184.281,10.4249,0,0.000885,0,0
0:0:56.758,186.096,10.5283,0,0.000885,0,0
0:0:57.161,187.564,10.611,0,0.000885,0,0
0:0:57.564,189.441,10.7213,0,0.000885,0,0
0:0:57.961,190.379,10.7765,0,0.000885,0,0
0:0:58.361,192.666,10.9006,0,0.000885,0,0
0:0:58.757,194.249,10.9902,0,0.000885,0,0
0:0:59.150,195.659,11.073,0,0.000885,0,0
0:0:59.544,197.71,11.1902,0,0.000885,0,0
0:0:59.941,199.351,11.2798,0,0.000885,0,0
0:1:0.337,201.931,11.4246,0,0.000885,0,0
0:1:0.732,202.697,11.4729,0,0.000885,0,0
0:1:1.134,204.689,11.5832,0,0.000885,0,0
0:1:1.537,206.567,11.6866,0,0.000885,0,0
0:1:1.940,208.795,11.8176,0,0.000885,0,0
0:1:2.341,210.143,11.8935,0,0.000885,0,0
0:1:2.740,211.847,11.99,0,0.000885,0,0
0:1:3.135,213.782,12.1003,0,0.000885,0,0
0:1:3.531,216.068,12.2244,0,0.000885,0,0
0:1:3.938,217.184,12.2934,0,0.000885,0,0
0:1:4.332,219.644,12.4312,0,0.000885,0,0
0:1:4.733,220.703,12.4864,0,0.000885,0,0
0:1:5.130,222.811,12.6105,0,0.000885,0,0
0:1:5.537,224.279,12.6932,0,0.000885,0,0
0:1:5.931,226.45,12.8174,0,0.000885,0,0
0:1:6.336,227.624,12.8794,0,0.000885,0,0
0:1:6.737,229.266,12.9759,0,0.000885,0,0
0:1:7.139,231.316,13.0931,0,0.000885,0,0
0:1:7.541,232.606,13.1621,0,0.000885,0,0
0:1:7.942,234.719,13.2793,0,0.000885,0,0
0:1:8.335,236.712,13.3965,0,0.000885,0,0
0:1:8.730,238.416,13.493,0,0.000885,0,0
0:1:9.129,240.466,13.6103,0,0.000885,0,0
0:1:9.533,242.17,13.7068,0,0.000885,0,0
0:1:9.937,244.163,13.8171,0,0.000885,0,0
0:1:10.331,245.569,13.8998,0,0.000885,0,0
0:1:10.737,247.21,13.9895,0,0.000885,0,0
0:1:11.135,249.381,14.1136,0,0.000885,0,0
0:1:11.538,250.671,14.1825,0,0.000885,0,0
0:1:11.941,252.726,14.2997,0,0.000885,0,0
0:1:12.341,254.603,14.41,0,0.000885,0,0
0:1:12.740,256.244,14.4997,0,0.000885,0,0
0:1:13.133,258.415,14.6238,0,0.000885,0,0
0:1:13.524,259.647,14.6927,0,0.000885,0,0
0:1:13.919,261.346,14.7893,0,0.000885,0,0
0:1:14.325,262.814,14.872,0,0.000885,0,0
0:1:14.722,264.629,14.9754,0,0.000885,0,0
0:1:15.125,266.569,15.0857,0,0.000885,0,0
0:1:15.533,267.974,15.1616,0,0.000885,0,0
0:1:15.937,270.318,15.2995,0,0.000885,0,0
0:1:16.337,272.022,15.396,0,0.000885,0,0
0:1:16.739,273.312,15.4649,0,0.000885,0,0
0:1:17.141,275.656,15.5959,0,0.000885,0,0
0:1:17.541,277.124,15.6787,0,0.000885,0,0
0:1:17.939,279.059,15.789,0,0.000885,0,0
0:1:18.335,280.643,15.8786,0,0.000885,0,0
0:1:18.730,282.756,16.0027,0,0.000885,0,0
0:1:19.133,284.277,16.0855,0,0.000885,0,0
0:1:19.538,286.332,16.2027,0,0.000885,0,0
0:1:19.937,288.503,16.3268,0,0.000885,0,0
0:1:20.333,290.086,16.4164,0,0.000885,0,0
0:1:20.735,291.906,16.5198,0,0.000885,0,0
0:1:21.138,293.778,16.6233,0,0.000885,0,0
0:1:21.538,294.953,16.6922,0,0.000885,0,0
0:1:21.943,296.714,16.7887,0,0.000885,0,0
0:1:22.344,298.707,16.9059,0,0.000885,0,0
0:1:22.745,300.526,17.0094,0,0.000885,0,0
0:1:23.141,302.11,17.099,0,0.000885,0,0
0:1:23.538,303.636,17.1817,0,0.000885,0,0
0:1:23.932,305.277,17.2783,0,0.000885,0,0
0:1:24.324,307.448,17.3955,0,0.000885,0,0
0:1:24.738,309.205,17.4989,0,0.000885,0,0
0:1:25.136,310.731,17.5816,0,0.000885,0,0
0:1:25.534,313.075,17.7195,0,0.000885,0,0
0:1:25.937,314.6,17.8023,0,0.000885,0,0
0:1:26.330,316.184,17.8919,0,0.000885,0,0
0:1:26.731,318.355,18.016,0,0.000885,0,0
0:1:27.134,319.823,18.0987,0,0.000885,0,0
0:1:27.535,321.344,18.1815,0,0.000885,0,0
0:1:27.936,323.105,18.2849,0,0.000885,0,0
0:1:28.331,324.983,18.3883,0,0.000885,0,0
0:1:28.725,326.624,18.4848,0,0.000885,0,0
0:1:29.123,328.617,18.5952,0,0.000885,0,0
0:1:29.516,330.672,18.7124,0,0.000885,0,0
0:1:29.932,332.313,18.802,0,0.000885,0,0
0:1:30.335,334.19,18.9123,0,0.000885,0,0
0:1:30.734,336.068,19.0157,0,0.000885,0,0
0:1:31.131,337.709,19.1123,0,0.000885,0,0
0:1:31.534,339.293,19.2019,0,0.000885,0,0
0:1:31.936,341.17,19.3053,0,0.000885,0,0
0:1:32.336,342.811,19.4018,0,0.000885,0,0
0:1:32.737,344.337,19.4846,0,0.000885,0,0
0:1:33.131,346.036,19.5811,0,0.000885,0,0
0:1:33.533,347.682,19.6776,0,0.000885,0,0
0:1:33.939,349.733,19.788,0,0.000885,0,0
0:1:34.334,351.374,19.8845,0,0.000885,0,0
0:1:34.732,352.664,19.9534,0,0.000885,0,0
0:1:35.124,355.186,20.0982,0,0.000885,0,0
0:1:35.539,356.476,20.1741,0,0.000885,0,0
0:1:35.934,358.531,20.2913,0,0.000885,0,0
0:1:36.336,360.582,20.4016,0,0.000885,0,0
0:1:36.739,362.401,20.505,0,0.000885,0,0
0:1:37.140,364.336,20.6153,0,0.000885,0,0
0:1:37.540,366.04,20.7119,0,0.000885,0,0
0:1:37.936,368.033,20.8291,0,0.000885,0,0
0:1:38.333,369.558,20.9118,0,0.000885,0,0
0:1:38.725,370.964,20.9945,0,0.000885,0,0
0:1:39.134,372.374,21.0704,0,0.000885,0,0
0:1:39.537,374.309,21.1807,0,0.000885,0,0
0:1:39.940,376.417,21.2979,0,0.000885,0,0
0:1:40.340,378.063,21.3944,0,0.000885,0,0
0:1:40.735,380.23,21.5185,0,0.000885,0,0
0:1:41.127,381.991,21.6151,0,0.000885,0,0
0:1:41.532,384.513,21.7599,0,0.000885,0,0
0:1:41.934,385.216,21.8012,0,0.000885,0,0
0:1:42.334,386.977,21.8977,0,0.000885,0,0
0:1:42.735,388.499,21.9874,0,0.000885,0,0
0:1:43.139,390.145,22.077,0,0.000885,0,0
0:1:43.533,391.666,22.1666,0,0.000885,0,0
0:1:43.931,393.837,22.2839,0,0.000885,0,0
0:1:44.338,395.714,22.3942,0,0.000885,0,0
0:1:44.728,397.182,22.4769,0,0.000885,0,0
0:1:45.134,398.939,22.5734,0,0.000885,0,0
0:1:45.539,401.052,22.6975,0,0.000885,0,0
0:1:45.937,402.871,22.801,0,0.000885,0,0
0:1:46.333,404.864,22.9113,0,0.000885,0,0
0:1:46.736,406.447,23.0009,0,0.000885,0,0
0:1:47.137,408.267,23.1043,0,0.000885,0,0
0:1:47.538,410.086,23.2078,0,0.000885,0,0
0:1:47.938,411.901,23.3112,0,0.000885,0,0
0:1:48.342,414.014,23.4284,0,0.000885,0,0
0:1:48.737,415.482,23.5111,0,0.000885,0,0
0:1:49.129,417.003,23.6008,0,0.000885,0,0
0:1:49.536,418.587,23.6904,0,0.000885,0,0
0:1:49.934,420.17,23.78,0,0.000885,0,0
0:1:50.338,422.634,23.9179,0,0.000885,0,0
0:1:50.730,424.512,24.0213,0,0.000885,0,0
0:1:51.135,425.922,24.1041,0,0.000885,0,0
0:1:51.536,427.563,24.1937,0,0.000885,0,0
0:1:51.939,429.089,24.2833,0,0.000885,0,0
0:1:52.340,430.966,24.3868,0,0.000885,0,0
0:1:52.741,432.429,24.4695,0,0.000885,0,0
0:1:53.136,434.484,24.5867,0,0.000885,0,0
0:1:53.533,436.242,24.6832,0,0.000885,0,0
0:1:53.925,438.061,24.7867,0,0.000885,0,0
0:1:54.319,439.818,24.8901,0,0.000885,0,0
0:1:54.736,441.815,25.0004,0,0.000885,0,0
0:1:55.134,443.105,25.0762,0,0.000885,0,0
0:1:55.540,444.982,25.1797,0,0.000885,0,0
0:1:55.934,446.508,25.2693,0,0.000885,0,0
0:1:56.337,448.91,25.4003,0,0.000885,0,0
0:1:56.738,450.729,25.5037,0,0.000885,0,0
0:1:57.141,452.664,25.614,0,0.000885,0,0
0:1:57.542,454.306,25.7105,0,0.000885,0,0
0:1:57.943,456.125,25.814,0,0.000885,0,0
0:1:58.338,458.176,25.9243,0,0.000885,0,0
0:1:58.735,459.292,25.9932,0,0.000885,0,0
0:1:59.142,460.876,26.0829,0,0.000885,0,0
0:1:59.537,463.104,26.207,0,0.000885,0,0
0:1:59.938,464.982,26.3104,0,0.000885,0,0
0:2:0.335,467.268,26.4414,0,0.000885,0,0
0:2:0.731,467.677,26.4621,0,0.000885,0,0
0:2:1.136,469.554,26.5724,0,0.000885,0,0
0:2:1.539,471.2,26.662,0,0.000885,0,0
0:2:1.941,473.602,26.7999,0,0.000885,0,0
0:2:2.340,475.186,26.8896,0,0.000885,0,0
0:2:2.741,477.299,27.0068,0,0.000885,0,0
0:2:3.134,478.646,27.0826,0,0.000885,0,0
0:2:3.539,480.288,27.1791,0,0.000885,0,0
0:2:3.935,482.223,27.2894,0,0.000885,0,0
0:2:4.329,483.926,27.386,0,0.000885,0,0
0:2:4.738,485.919,27.4963,0,0.000885,0,0
0:2:5.140,487.445,27.5859,0,0.000885,0,0
0:2:5.534,488.971,27.6687,0,0.000885,0,0
0:2:5.930,491.021,27.7859,0,0.000885,0,0
0:2:6.338,492.841,27.8893,0,0.000885,0,0
0:2:6.742,494.954,28.0065,0,0.000885,0,0
0:2:7.143,496.537,28.0961,0,0.000885,0,0
0:2:7.544,498.236,28.1927,0,0.000885,0,0
0:2:7.945,499.762,28.2823,0,0.000885,0,0
0:2:8.340,501.577,28.3857,0,0.000885,0,0
0:2:8.731,503.868,28.5098,0,0.000885,0,0
0:2:9.137,505.683,28.6132,0,0.000885,0,0
0:2:9.531,507.444,28.7167,0,0.000885,0,0
0:2:9.939,509.615,28.8408,0,0.000885,0,0
0:2:10.331,510.433,28.8821,0,0.000885,0,0
0:2:10.735,511.723,28.958,0,0.000885,0,0
0:2:11.131,513.601,29.0614,0,0.000885,0,0
0:2:11.540,515.42,29.1648,0,0.000885,0,0
0:2:11.944,517.475,29.282,0,0.000885,0,0
0:2:12.344,519.174,29.3786,0,0.000885,0,0
0:2:12.744,521.225,29.4958,0,0.000885,0,0
0:2:13.143,522.751,29.5785,0,0.000885,0,0
0:2:13.539,524.863,29.7026,0,0.000885,0,0
0:2:13.930,526.505,29.7922,0,0.000885,0,0
0:2:14.337,528.618,29.9164,0,0.000885,0,0
0:2:14.730,530.081,29.9991,0,0.000885,0,0
0:2:15.126,532.021,30.1094,0,0.000885,0,0
0:2:15.543,533.484,30.1921,0,0.000885,0,0
0:2:15.935,535.419,30.2956,0,0.000885,0,0
0:2:16.336,537.416,30.4128,0,0.000885,0,0
0:2:16.741,539.116,30.5093,0,0.000885,0,0
0:2:17.142,540.641,30.592,0,0.000885,0,0
0:2:17.542,542.518,30.7024,0,0.000885,0,0
0:2:17.938,544.396,30.8058,0,0.000885,0,0
0:2:18.331,546.331,30.9161,0,0.000885,0,0
0:2:18.729,547.563,30.985,0,0.000885,0,0
0:2:19.136,549.849,31.116,0,0.000885,0,0
0:2:19.539,551.081,31.185,0,0.000885,0,0
0:2:19.942,552.487,31.2677,0,0.000885,0,0
0:2:20.340,554.48,31.378,0,0.000885,0,0
0:2:20.737,556.65,31.5021,0,0.000885,0,0
0:2:21.139,558.003,31.578,0,0.000885,0,0
0:2:21.543,560.053,31.6952,0,0.000885,0,0
0:2:21.944,562.108,31.8055,0,0.000885,0,0
0:2:22.345,563.808,31.902,0,0.000885,0,0
0:2:22.746,565.333,31.9917,0,0.000885,0,0
0:2:23.140,567.211,32.0951,0,0.000885,0,0
0:2:23.542,568.674,32.1778,0,0.000885,0,0
0:2:23.941,570.845,32.3019,0,0.000885,0,0
0:2:24.337,572.37,32.3916,0,0.000885,0,0
0:2:24.740,574.305,32.5019,0,0.000885,0,0
0:2:25.132,576.005,32.5984,0,0.000885,0,0
0:2:25.528,578.002,32.7087,0,0.000885,0,0
0:2:25.937,579.759,32.8053,0,0.000885,0,0
0:2:26.342,581.111,32.8811,0,0.000885,0,0
0:2:26.744,583.162,32.9983,0,0.000885,0,0
0:2:27.146,585.155,33.1155,0,0.000885,0,0
0:2:27.547,586.916,33.212,0,0.000885,0,0
0:2:27.947,588.909,33.3224,0,0.000885,0,0
0:2:28.343,590.555,33.4189,0,0.000885,0,0
0:2:28.738,591.729,33.4878,0,0.000885,0,0
0:2:29.137,593.722,33.5982,0,0.000885,0,0
0:2:29.533,594.781,33.6602,0,0.000885,0,0
0:2:29.929,596.716,33.7705,0,0.000885,0,0
0:2:30.339,598.477,33.867,0,0.000885,0,0
0:2:30.732,600.296,33.9705,0,0.000885,0,0
0:2:31.132,602.881,34.1153,0,0.000885,0,0
0:2:31.542,604.464,34.2049,0,0.000885,0,0
0:2:31.947,605.754,34.2807,0,0.000885,0,0
0:2:32.351,607.636,34.3842,0,0.000885,0,0
0:2:32.753,608.81,34.4531,0,0.000885,0,0
0:2:33.153,611.51,34.6048,0,0.000885,0,0
0:2:33.553,613.33,34.7082,0,0.000885,0,0
0:2:33.947,614.971,34.7978,0,0.000885,0,0
0:2:34.343,616.733,34.9013,0,0.000885,0,0
0:2:34.742,618.378,34.9909,0,0.000885,0,0
0:2:35.140,620.429,35.1081,0,0.000885,0,0
0:2:35.545,622.191,35.2115,0,0.000885,0,0
0:2:35.940,623.779,35.3012,0,0.000885,0,0
0:2:36.343,625.42,35.3908,0,0.000885,0,0
0:2:36.749,627.533,35.508,0,0.000885,0,0
0:2:37.151,629.294,35.6114,0,0.000885,0,0
0:2:37.554,631.234,35.7217,0,0.000885,0,0
0:2:37.951,633.347,35.8389,0,0.000885,0,0
0:2:38.351,635.046,35.9355,0,0.000885,0,0
0:2:38.747,636.634,36.0251,0,0.000885,0,0
0:2:39.143,637.51,36.0734,0,0.000885,0,0
0:2:39.535,639.214,36.1699,0,0.000885,0,0
0:2:39.935,640.74,36.2595,0,0.000885,0,0
0:2:40.334,642.853,36.3767,0,0.000885,0,0
0:2:40.741,644.85,36.494,0,0.000885,0,0
0:2:41.133,646.789,36.5974,0,0.000885,0,0
0:2:41.539,648.195,36.6801,0,0.000885,0,0
0:2:41.944,650.072,36.7835,0,0.000885,0,0
0:2:42.346,651.718,36.8801,0,0.000885,0,0
0:2:42.749,653.422,36.9766,0,0.000885,0,0
0:2:43.144,655.241,37.08,0,0.000885,0,0
0:2:43.543,657.176,37.1903,0,0.000885,0,0
0:2:43.943,659.409,37.3144,0,0.000885,0,0
0:2:44.349,661.522,37.4316,0,0.000885,0,0
0:2:44.744,663.221,37.5282,0,0.000885,0,0
0:2:45.141,664.337,37.5971,0,0.000885,0,0
0:2:45.539,666.157,37.6936,0,0.000885,0,0
0:2:45.947,668.034,37.804,0,0.000885,0,0
0:2:46.344,669.916,37.9074,0,0.000885,0,0
0:2:46.749,671.735,38.0108,0,0.000885,0,0
0:2:47.152,673.67,38.1211,0,0.000885,0,0
0:2:47.556,675.431,38.2245,0,0.000885,0,0
0:2:47.958,677.077,38.3142,0,0.000885,0,0
0:2:48.354,678.776,38.4107,0,0.000885,0,0
0:2:48.748,680.244,38.4934,0,0.000885,0,0
0:2:49.146,682.126,38.6037,0,0.000885,0,0
0:2:49.547,683.825,38.6934,0,0.000885,0,0
0:2:49.942,685.413,38.783,0,0.000885,0,0
0:2:50.335,686.997,38.8726,0,0.000885,0,0
0:2:50.744,688.874,38.983,0,0.000885,0,0
0:2:51.145,691.045,39.1071,0,0.000885,0,0
0:2:51.549,692.339,39.176,0,0.000885,0,0
0:2:51.952,694.038,39.2725,0,0.000885,0,0
0:2:52.356,696.151,39.3966,0,0.000885,0,0
0:2:52.755,697.503,39.4725,0,0.000885,0,0
0:2:53.153,699.501,39.5828,0,0.000885,0,0
0:2:53.549,701.378,39.6931,0,0.000885,0,0
0:2:53.944,702.788,39.769,0,0.000885,0,0
0:2:54.342,705.132,39.9,0,0.000885,0,0
0:2:54.742,706.778,39.9965,0,0.000885,0,0
0:2:55.148,709.242,40.1344,0,0.000885,0,0
0:2:55.543,710.946,40.2309,0,0.000885,0,0
0:2:55.939,712.765,40.3343,0,0.000885,0,0
0:2:56.342,714.291,40.424,0,0.000885,0,0
0:2:56.748,715.523,40.4929,0,0.000885,0,0
0:2:57.151,717.578,40.6032,0,0.000885,0,0
0:2:57.552,719.513,40.7135,0,0.000885,0,0
0:2:57.951,720.514,40.7756,0,0.000885,0,0
0:2:58.349,721.982,40.8583,0,0.000885,0,0
0:2:58.746,724.095,40.9755,0,0.000885,0,0
0:2:59.141,726.15,41.0928,0,0.000885,0,0
0:2:59.535,728.085,41.2031,0,0.000885,0,0
0:2:59.934,729.611,41.2858,0,0.000885,0,0
0:3:0.332,731.314,41.3823,0,0.000885,0,0
0:3:0.728,733.312,41.4995,0,0.000885,0,0
0:3:1.145,735.131,41.603,0,0.000885,0,0
0:3:1.550,736.772,41.6926,0,0.000885,0,0
0:3:1.955,738.476,41.7891,0,0.000885,0,0
0:3:2.358,740.295,41.8925,0,0.000885,0,0
0:3:2.759,742.35,42.0098,0,0.000885,0,0
0:3:3.157,744.285,42.1201,0,0.000885,0,0
0:3:3.554,745.46,42.1821,0,0.000885,0,0
0:3:3.952,747.221,42.2855,0,0.000885,0,0
0:3:4.352,749.276,42.4028,0,0.000885,0,0
0:3:4.748,751.096,42.5062,0,0.000885,0,0
0:3:5.143,753.618,42.6441,0,0.000885,0,0
0:3:5.541,754.97,42.7199,0,0.000885,0,0
0:3:5.938,756.26,42.7958,0,0.000885,0,0
0:3:6.346,757.786,42.8854,0,0.000885,0,0
0:3:6.749,759.605,42.9819,0,0.000885,0,0
0:3:7.154,761.309,43.0784,0,0.000885,0,0
0:3:7.556,763.012,43.175,0,0.000885,0,0
0:3:7.958,764.48,43.2577,0,0.000885,0,0
0:3:8.355,766.829,43.3956,0,0.000885,0,0
0:3:8.752,768.764,43.5059,0,0.000885,0,0
0:3:9.146,770.174,43.5818,0,0.000885,0,0
0:3:9.547,771.815,43.6783,0,0.000885,0,0
0:3:9.945,773.755,43.7886,0,0.000885,0,0
0:3:10.337,775.574,43.8851,0,0.000885,0,0
0:3:10.745,777.336,43.9886,0,0.000885,0,0
0:3:11.142,779.155,44.092,0,0.000885,0,0
0:3:11.542,781.268,44.2092,0,0.000885,0,0
0:3:11.949,782.673,44.2919,0,0.000885,0,0
0:3:12.351,784.377,44.3884,0,0.000885,0,0
0:3:12.754,786.548,44.5126,0,0.000885,0,0
0:3:13.154,788.545,44.6229,0,0.000885,0,0
0:3:13.553,789.604,44.6849,0,0.000885,0,0
0:3:13.952,791.775,44.8021,0,0.000885,0,0
0:3:14.346,793.772,44.9193,0,0.000885,0,0
0:3:14.742,795.471,45.0159,0,0.000885,0,0
0:3:15.142,796.53,45.071,0,0.000885,0,0
0:3:15.550,798.816,45.202,0,0.000885,0,0
0:3:15.946,800.168,45.2779,0,0.000885,0,0
0:3:16.339,802.166,45.3951,0,0.000885,0,0
0:3:16.745,804.452,45.5261,0,0.000885,0,0
0:3:17.149,805.275,45.5675,0,0.000885,0,0
0:3:17.551,807.036,45.6709,0,0.000885,0,0
0:3:17.954,808.62,45.7605,0,0.000885,0,0
0:3:18.351,810.969,45.8915,0,0.000885,0,0
0:3:18.748,812.788,45.9949,0,0.000885,0,0
0:3:19.147,814.372,46.0846,0,0.000885,0,0
0:3:19.544,816.075,46.1811,0,0.000885,0,0
0:3:19.938,817.952,46.2845,0,0.000885,0,0
0:3:20.333,820.007,46.4017,0,0.000885,0,0
0:3:20.732,821.475,46.4845,0,0.000885,0,0
0:3:21.131,823.646,46.6086,0,0.000885,0,0
0:3:21.537,825.114,46.6913,0,0.000885,0,0
0:3:21.942,826.64,46.7809,0,0.000885,0,0
0:3:22.344,828.873,46.905,0,0.000885,0,0
0:3:22.745,830.572,47.0016,0,0.000885,0,0
0:3:23.143,832.627,47.1188,0,0.000885,0,0
0:3:23.538,834.273,47.2084,0,0.000885,0,0
0:3:23.943,836.27,47.3256,0,0.000885,0,0
0:3:24.340,837.089,47.367,0,0.000885,0,0
0:3:24.738,838.734,47.4635,0,0.000885,0,0
0:3:25.135,841.021,47.5945,0,0.000885,0,0
0:3:25.532,842.195,47.6566,0,0.000885,0,0
0:3:25.928,844.308,47.7807,0,0.000885,0,0
0:3:26.331,846.421,47.8979,0,0.000885,0,0
0:3:26.737,848.476,48.0151,0,0.000885,0,0
0:3:27.139,849.77,48.084,0,0.000885,0,0
0:3:27.540,851.412,48.1806,0,0.000885,0,0
0:3:27.949,853.231,48.284,0,0.000885,0,0
0:3:28.348,855.286,48.4012,0,0.000885,0,0
0:3:28.745,856.932,48.4908,0,0.000885,0,0
0:3:29.139,859.103,48.6149,0,0.000885,0,0
0:3:29.535,860.629,48.7046,0,0.000885,0,0
0:3:29.935,862.27,48.7942,0,0.000885,0,0
0:3:30.344,864.152,48.8976,0,0.000885,0,0
0:3:30.748,865.735,48.9873,0,0.000885,0,0
0:3:31.144,867.377,49.0838,0,0.000885,0,0
0:3:31.549,869.432,49.201,0,0.000885,0,0
0:3:31.954,871.371,49.3113,0,0.000885,0,0
0:3:32.357,873.306,49.4216,0,0.000885,0,0
0:3:32.758,874.832,49.5044,0,0.000885,0,0
0:3:33.153,877.18,49.6354,0,0.000885,0,0
0:3:33.552,878.648,49.7181,0,0.000885,0,0
0:3:33.951,880.058,49.8008,0,0.000885,0,0
0:3:34.348,881.406,49.8767,0,0.000885,0,0
0:3:34.740,883.11,49.9732,0,0.000885,0,0
0:3:35.148,884.578,50.0559,0,0.000885,0,0
0:3:35.547,886.575,50.1731,0,0.000885,0,0
0:3:35.945,888.861,50.2973,0,0.000885,0,0
0:3:36.340,890.329,50.38,0,0.000885,0,0
0:3:36.746,892.327,50.4972,0,0.000885,0,0
0:3:37.150,893.795,50.5799,0,0.000885,0,0
0:3:37.553,895.907,50.6972,0,0.000885,0,0
0:3:37.956,897.255,50.773,0,0.000885,0,0
0:3:38.353,899.195,50.8833,0,0.000885,0,0
0:3:38.748,901.13,50.9936,0,0.000885,0,0
0:3:39.146,902.891,51.0902,0,0.000885,0,0
0:3:39.546,904.595,51.1867,0,0.000885,0,0
0:3:39.938,906.356,51.2901,0,0.000885,0,0
0:3:40.334,908.411,51.4073,0,0.000885,0,0
0:3:40.732,910.524,51.5245,0,0.000885,0,0
0:3:41.133,911.988,51.6073,0,0.000885,0,0
0:3:41.538,913.927,51.7176,0,0.000885,0,0
0:3:41.940,915.395,51.8003,0,0.000885,0,0
0:3:42.344,917.624,51.9244,0,0.000885,0,0
0:3:42.745,919.092,52.0072,0,0.000885,0,0
0:3:43.152,920.911,52.1106,0,0.000885,0,0
0:3:43.548,922.73,52.214,0,0.000885,0,0
0:3:43.940,923.26,52.2485,0,0.000885,0,0
0:3:44.339,925.199,52.3588,0,0.000885,0,0
0:3:44.738,927.605,52.4898,0,0.000885,0,0
0:3:45.146,929.425,52.5932,0,0.000885,0,0
0:3:45.540,931.244,52.6966,0,0.000885,0,0
0:3:45.948,933.121,52.8069,0,0.000885,0,0
0:3:46.351,934.825,52.9035,0,0.000885,0,0
0:3:46.755,936.293,52.9862,0,0.000885,0,0
0:3:47.158,938.112,53.0896,0,0.000885,0,0
0:3:47.559,939.696,53.1793,0,0.000885,0,0
0:3:47.960,942.16,53.3172,0,0.000885,0,0
0:3:48.358,943.979,53.4206,0,0.000885,0,0
0:3:48.755,945.741,53.5171,0,0.000885,0,0
0:3:49.150,947.387,53.6136,0,0.000885,0,0
0:3:49.546,949.028,53.7033,0,0.000885,0,0
0:3:49.947,950.438,53.786,0,0.000885,0,0
0:3:50.345,952.493,53.9032,0,0.000885,0,0
0:3:50.738,953.783,53.9722,0,0.000885,0,0
0:3:51.142,955.896,54.0894,0,0.000885,0,0
0:3:51.548,957.773,54.1997,0,0.000885,0,0
0:3:51.954,959.886,54.3169,0,0.000885,0,0
0:3:52.357,961.648,54.4203,0,0.000885,0,0
0:3:52.757,963.587,54.5306,0,0.000885,0,0
0:3:53.155,965.171,54.6203,0,0.000885,0,0
0:3:53.554,966.817,54.7099,0,0.000885,0,0
0:3:53.951,967.635,54.7582,0,0.000885,0,0
0:3:54.347,969.748,54.8754,0,0.000885,0,0
0:3:54.740,972.097,55.0064,0,0.000885,0,0
0:3:55.139,973.622,55.096,0,0.000885,0,0
0:3:55.539,975.21,55.1856,0,0.000885,0,0
0:3:55.934,976.5,55.2615,0,0.000885,0,0
0:3:56.329,978.671,55.3787,0,0.000885,0,0
0:3:56.732,980.433,55.4821,0,0.000885,0,0
0:3:57.138,982.43,55.5924,0,0.000885,0,0
0:3:57.540,984.307,55.7027,0,0.000885,0,0
0:3:57.941,986.42,55.82,0,0.000885,0,0
0:3:58.337,988.066,55.9096,0,0.000885,0,0
0:3:58.736,990.058,56.0268,0,0.000885,0,0
0:3:59.134,991.762,56.1233,0,0.000885,0,0
0:3:59.531,993.288,56.2061,0,0.000885,0,0
0:3:59.935,994.992,56.3026,0,0.000885,0,0
0:4:0.332,996.517,56.3922,0,0.000885,0,0
0:4:0.732,998.572,56.5094,0,0.000885,0,0
0:4:1.127,999.569,56.5646,0,0.000885,0,0
0:4:1.534,1001.51,56.6749,0,0.000885,0,0
0:4:1.937,1003.27,56.7714,0,0.000885,0,0
0:4:2.340,1005.03,56.8749,0,0.000885,0,0
0:4:2.744,1006.97,56.9852,0,0.000885,0,0
0:4:3.138,1008.79,57.0886,0,0.000885,0,0
0:4:3.555,1011.01,57.2127,0,0.000885,0,0
0:4:3.953,1012.54,57.2954,0,0.000885,0,0
0:4:4.352,1013.95,57.3782,0,0.000885,0,0
0:4:4.749,1015.48,57.4609,0,0.000885,0,0
0:4:5.143,1017.59,57.585,0,0.000885,0,0
0:4:5.537,1019.35,57.6815,0,0.000885,0,0
0:4:5.936,1021.17,57.785,0,0.000885,0,0
0:4:6.336,1023.05,57.8953,0,0.000885,0,0
0:4:6.743,1024.87,57.9987,0,0.000885,0,0
0:4:7.149,1026.98,58.1159,0,0.000885,0,0
0:4:7.549,1028.68,58.2124,0,0.000885,0,0
0:4:7.949,1030.68,58.3228,0,0.000885,0,0
0:4:8.344,1032.09,58.4055,0,0.000885,0,0
0:4:8.752,1033.85,58.502,0,0.000885,0,0
0:4:9.150,1035.67,58.6054,0,0.000885,0,0
0:4:9.543,1037.43,58.7089,0,0.000885,0,0
0:4:9.943,1039.25,58.8123,0,0.000885,0,0
0:4:10.342,1040.89,58.9019,0,0.000885,0,0
0:4:10.748,1042.77,59.0122,0,0.000885,0,0
0:4:11.141,1044.71,59.1156,0,0.000885,0,0
0:4:11.548,1045.76,59.1777,0,0.000885,0,0
0:4:11.952,1047.76,59.288,0,0.000885,0,0
0:4:12.356,1049.41,59.3845,0,0.000885,0,0
0:4:12.758,1051.16,59.4811,0,0.000885,0,0
0:4:13.154,1052.69,59.5707,0,0.000885,0,0
0:4:13.552,1054.81,59.6879,0,0.000885,0,0
0:4:13.951,1056.45,59.7844,0,0.000885,0,0
0:4:14.349,1058.33,59.8879,0,0.000885,0,0
0:4:14.742,1060.14,59.9913,0,0.000885,0,0
0:4:15.137,1061.73,60.0809,0,0.000885,0,0
0:4:15.537,1064.02,60.2119,0,0.000885,0,0
0:4:15.936,1065.61,60.3015,0,0.000885,0,0
0:4:16.353,1067.43,60.405,0,0.000885,0,0
0:4:16.758,1069.01,60.4946,0,0.000885,0,0
0:4:17.161,1071.07,60.6118,0,0.000885,0,0
0:4:17.564,1072.65,60.7014,0,0.000885,0,0
0:4:17.967,1073.88,60.7704,0,0.000885,0,0
0:4:18.363,1075.99,60.8876,0,0.000885,0,0
0:4:18.759,1077.7,60.9841,0,0.000885,0,0
0:4:19.155,1079.64,61.0944,0,0.000885,0,0
0:4:19.555,1081.57,61.2048,0,0.000885,0,0
0:4:19.953,1083.33,61.3013,0,0.000885,0,0
0:4:20.350,1085.33,61.4185,0,0.000885,0,0
0:4:20.742,1085.92,61.453,0,0.000885,0,0
0:4:21.141,1088.15,61.5771,0,0.000885,0,0
0:4:21.542,1090.32,61.7012,0,0.000885,0,0
0:4:21.950,1092.08,61.7977,0,0.000885,0,0
0:4:22.353,1093.6,61.8873,0,0.000885,0,0
0:4:22.754,1095.54,61.9977,0,0.000885,0,0
0:4:23.153,1096.95,62.0735,0,0.000885,0,0
0:4:23.553,1099.06,62.1976,0,0.000885,0,0
0:4:23.950,1100.53,62.2803,0,0.000885,0,0
0:4:24.344,1103,62.4182,0,0.000885,0,0
0:4:24.739,1103.88,62.4665,0,0.000885,0,0
0:4:25.139,1106.29,62.6044,0,0.000885,0,0
0:4:25.546,1107.75,62.6871,0,0.000885,0,0
0:4:25.941,1109.69,62.7974,0,0.000885,0,0
0:4:26.346,1111.27,62.8871,0,0.000885,0,0
0:4:26.752,1113.03,62.9836,0,0.000885,0,0
0:4:27.156,1114.68,63.0801,0,0.000885,0,0
0:4:27.557,1117.02,63.2111,0,0.000885,0,0
0:4:27.955,1118.67,63.3008,0,0.000885,0,0
0:4:28.351,1120.9,63.4318,0,0.000885,0,0
0:4:28.746,1122.49,63.5214,0,0.000885,0,0
0:4:29.158,1124.19,63.6179,0,0.000885,0,0
0:4:29.554,1125.95,63.7145,0,0.000885,0,0
0:4:29.946,1127.36,63.7972,0,0.000885,0,0
0:4:30.344,1129.41,63.9144,0,0.000885,0,0
0:4:30.743,1131,64.004,0,0.000885,0,0
0:4:31.141,1132.52,64.0868,0,0.000885,0,0
0:4:31.547,1134.05,64.1764,0,0.000885,0,0
0:4:31.952,1136.04,64.2867,0,0.000885,0,0
0:4:32.354,1138.39,64.4177,0,0.000885,0,0
0:4:32.757,1139.51,64.4798,0,0.000885,0,0
0:4:33.154,1140.97,64.5694,0,0.000885,0,0
0:4:33.550,1143.15,64.6866,0,0.000885,0,0
0:4:33.956,1144.79,64.7831,0,0.000885,0,0
0:4:34.355,1147.02,64.9072,0,0.000885,0,0
0:4:34.754,1148.49,64.99,0,0.000885,0,0
0:4:35.146,1150.66,65.1141,0,0.000885,0,0
0:4:35.542,1151.84,65.183,0,0.000885,0,0
0:4:35.942,1153.95,65.3002,0,0.000885,0,0
0:4:36.341,1156,65.4175,0,0.000885,0,0
0:4:36.745,1157.35,65.4933,0,0.000885,0,0
0:4:37.151,1159.64,65.6243,0,0.000885,0,0
0:4:37.553,1161.34,65.7208,0,0.000885,0,0
0:4:37.955,1163.05,65.8174,0,0.000885,0,0
0:4:38.353,1164.75,65.9139,0,0.000885,0,0
0:4:38.757,1166.1,65.9897,0,0.000885,0,0
0:4:39.152,1168.27,66.1138,0,0.000885,0,0
0:4:39.552,1169.5,66.1828,0,0.000885,0,0
0:4:39.952,1171.56,66.3,0,0.000885,0,0
0:4:40.346,1173.09,66.3827,0,0.000885,0,0
0:4:40.740,1174.9,66.4861,0,0.000885,0,0
0:4:41.138,1176.78,66.5896,0,0.000885,0,0
0:4:41.539,1178.13,66.6654,0,0.000885,0,0
0:4:41.946,1180.54,66.8033,0,0.000885,0,0
0:4:42.347,1182.12,66.8929,0,0.000885,0,0
0:4:42.752,1183.59,66.9757,0,0.000885,0,0
0:4:43.152,1185.94,67.1136,0,0.000885,0,0
0:4:43.552,1187.93,67.2239,0,0.000885,0,0
0:4:43.956,1189.11,67.2928,0,0.000885,0,0
0:4:44.352,1190.93,67.3894,0,0.000885,0,0
0:4:44.746,1192.57,67.4859,0,0.000885,0,0
0:4:45.146,1194.33,67.5824,0,0.000885,0,0
0:4:45.544,1196.15,67.6858,0,0.000885,0,0
0:4:45.938,1198.15,67.803,0,0.000885,0,0
0:4:46.342,1200.09,67.9134,0,0.000885,0,0
0:4:46.747,1202.14,68.0306,0,0.000885,0,0
0:4:47.152,1204.08,68.134,0,0.000885,0,0
0:4:47.554,1205.49,68.2167,0,0.000885,0,0
0:4:47.959,1207.07,68.3064,0,0.000885,0,0
0:4:48.357,1209.53,68.4443,0,0.000885,0,0
0:4:48.756,1211.06,68.5339,0,0.000885,0,0
0:4:49.153,1211.77,68.5753,0,0.000885,0,0
0:4:49.546,1213.76,68.6856,0,0.000885,0,0
0:4:49.953,1215.46,68.7821,0,0.000885,0,0
0:4:50.352,1217.05,68.8717,0,0.000885,0,0
0:4:50.752,1219.4,69.0027,0,0.000885,0,0
0:4:51.145,1220.4,69.0579,0,0.000885,0,0
0:4:51.552,1222.22,69.1613,0,0.000885,0,0
0:4:51.955,1224.09,69.2716,0,0.000885,0,0
0:4:52.358,1226.09,69.3819,0,0.000885,0,0
0:4:52.761,1228.08,69.4923,0,0.000885,0,0
0:4:53.157,1229.96,69.6026,0,0.000885,0,0
0:4:53.551,1232.02,69.7198,0,0.000885,0,0
0:4:53.952,1234.01,69.8301,0,0.000885,0,0
0:4:54.360,1235.01,69.8853,0,0.000885,0,0
0:4:54.755,1237.06,70.0025,0,0.000885,0,0
0:4:55.148,1238.77,70.099,0,0.000885,0,0
0:4:55.557,1240.59,70.2024,0,0.000885,0,0
0:4:55.957,1242.17,70.2921,0,0.000885,0,0
0:4:56.354,1244.11,70.4024,0,0.000885,0,0
0:4:56.760,1245.87,70.4989,0,0.000885,0,0
0:4:57.163,1247.75,70.6092,0,0.000885,0,0
0:4:57.565,1249.8,70.7264,0,0.000885,0,0
0:4:57.968,1251.86,70.8436,0,0.000885,0,0
0:4:58.365,1253.62,70.9402,0,0.000885,0,0
0:4:58.759,1254.85,71.0091,0,0.000885,0,0
0:4:59.156,1256.08,71.0781,0,0.000885,0,0
0:4:59.555,1258.08,71.1953,0,0.000885,0,0
0:4:59.953,1260.02,71.3056,0,0.000885,0,0
0:5:0.347,1261.66,71.3952,0,0.000885,0,0
0:5:0.754,1263.3,71.4917,0,0.000885,0,0
0:5:1.154,1264.89,71.5814,0,0.000885,0,0
0:5:1.552,1267.18,71.7055,0,0.000885,0,0
0:5:1.958,1268.47,71.7813,0,0.000885,0,0
0:5:2.362,1270.11,71.8709,0,0.000885,0,0
0:5:2.764,1272.28,71.9951,0,0.000885,0,0
0:5:3.166,1274.05,72.0985,0,0.000885,0,0
0:5:3.564,1275.69,72.1881,0,0.000885,0,0
0:5:3.959,1277.45,72.2915,0,0.000885,0,0
0:5:4.354,1279.5,72.4018,0,0.000885,0,0
0:5:4.754,1281.44,72.5122,0,0.000885,0,0
0:5:5.150,1282.68,72.588,0,0.000885,0,0
0:5:5.547,1284.79,72.7052,0,0.000885,0,0
0:5:5.941,1286.67,72.8086,0,0.000885,0,0
0:5:6.343,1288.31,72.9052,0,0.000885,0,0
0:5:6.749,1290.25,73.0155,0,0.000885,0,0
0:5:7.153,1291.77,73.0982,0,0.000885,0,0
0:5:7.556,1294.01,73.2223,0,0.000885,0,0
0:5:7.953,1296,73.3395,0,0.000885,0,0
0:5:8.349,1296.76,73.3809,0,0.000885,0,0
0:5:8.749,1298.58,73.4843,0,0.000885,0,0
0:5:9.155,1300.17,73.574,0,0.000885,0,0
0:5:9.550,1301.99,73.6774,0,0.000885,0,0
0:5:9.960,1303.98,73.7877,0,0.000885,0,0
0:5:10.358,1305.98,73.9049,0,0.000885,0,0
0:5:10.755,1307.8,74.0083,0,0.000885,0,0
0:5:11.160,1308.74,74.0566,0,0.000885,0,0
0:5:11.565,1311.09,74.1945,0,0.000885,0,0
0:5:11.969,1312.85,74.291,0,0.000885,0,0
0:5:12.372,1314.61,74.3944,0,0.000885,0,0
0:5:12.773,1316.66,74.5047,0,0.000885,0,0
0:5:13.170,1318.25,74.5944,0,0.000885,0,0
0:5:13.569,1320.36,74.7185,0,0.000885,0,0
0:5:13.969,1322.3,74.8288,0,0.000885,0,0
0:5:14.366,1323.65,74.9046,0,0.000885,0,0
0:5:14.761,1325.29,74.9943,0,0.000885,0,0
0:5:15.157,1326.99,75.0908,0,0.000885,0,0
0:5:15.555,1328.81,75.1942,0,0.000885,0,0
0:5:15.963,1330.87,75.3114,0,0.000885,0,0
0:5:16.359,1332.57,75.408,0,0.000885,0,0
0:5:16.764,1333.98,75.4907,0,0.000885,0,0
0:5:17.167,1336.03,75.601,0,0.000885,0,0
0:5:17.571,1338.15,75.7251,0,0.000885,0,0
0:5:17.972,1340.26,75.8423,0,0.000885,0,0
0:5:18.370,1341.67,75.9251,0,0.000885,0,0
0:5:18.764,1342.96,75.994,0,0.000885,0,0
0:5:19.163,1344.48,76.0836,0,0.000885,0,0
0:5:19.562,1346.37,76.1871,0,0.000885,0,0
0:5:19.958,1347.77,76.2698,0,0.000885,0,0
0:5:20.352,1349.12,76.3456,0,0.000885,0,0
0:5:20.751,1351.7,76.4904,0,0.000885,0,0
0:5:21.151,1353.58,76.5939,0,0.000885,0,0
0:5:21.558,1355.58,76.7111,0,0.000885,0,0
0:5:21.960,1357.05,76.7938,0,0.000885,0,0
0:5:22.363,1358.81,76.8903,0,0.000885,0,0
0:5:22.764,1360.98,77.0144,0,0.000885,0,0
0:5:23.163,1362.68,77.111,0,0.000885,0,0
0:5:23.560,1364.27,77.2006,0,0.000885,0,0
0:5:23.951,1366.03,77.304,0,0.000885,0,0
0:5:24.352,1367.55,77.3868,0,0.000885,0,0
0:5:24.751,1369.49,77.4971,0,0.000885,0,0
0:5:25.159,1371.43,77.6074,0,0.000885,0,0
0:5:25.552,1373.07,77.697,0,0.000885,0,0
0:5:25.960,1375.24,77.8211,0,0.000885,0,0
0:5:26.363,1377.06,77.9245,0,0.000885,0,0
0:5:26.769,1378.59,78.0142,0,0.000885,0,0
0:5:27.170,1380.35,78.1107,0,0.000885,0,0
0:5:27.573,1382.4,78.2279,0,0.000885,0,0
0:5:27.971,1383.99,78.3175,0,0.000885,0,0
0:5:28.370,1385.58,78.4072,0,0.000885,0,0
0:5:28.767,1387.04,78.4899,0,0.000885,0,0
0:5:29.163,1388.57,78.5795,0,0.000885,0,0
0:5:29.559,1390.33,78.6761,0,0.000885,0,0
0:5:29.959,1392.38,78.7933,0,0.000885,0,0
0:5:30.358,1394.09,78.8898,0,0.000885,0,0
0:5:30.750,1396.31,79.0139,0,0.000885,0,0
0:5:31.147,1397.72,79.0967,0,0.000885,0,0
0:5:31.550,1399.6,79.2001,0,0.000885,0,0
0:5:31.960,1401.54,79.3104,0,0.000885,0,0
0:5:32.363,1403.42,79.4207,0,0.000885,0,0
0:5:32.764,1404.94,79.5034,0,0.000885,0,0
0:5:33.162,1406.76,79.6069,0,0.000885,0,0
0:5:33.561,1408.47,79.7034,0,0.000885,0,0
0:5:33.960,1410.58,79.8206,0,0.000885,0,0
0:5:34.358,1411.99,79.9033,0,0.000885,0,0
0:5:34.751,1414.05,80.0206,0,0.000885,0,0
0:5:35.148,1415.63,80.1102,0,0.000885,0,0
0:5:35.547,1416.75,80.1722,0,0.000885,0,0
0:5:35.945,1418.56,80.2757,0,0.000885,0,0
0:5:36.342,1420.44,80.3791,0,0.000885,0,0
0:5:36.747,1421.91,80.4618,0,0.000885,0,0
0:5:37.150,1424.26,80.5997,0,0.000885,0,0
0:5:37.552,1425.84,80.6893,0,0.000885,0,0
0:5:37.958,1427.37,80.7721,0,0.000885,0,0
0:5:38.352,1429.77,80.91,0,0.000885,0,0
0:5:38.748,1431.36,80.9996,0,0.000885,0,0
0:5:39.158,1433.06,81.0961,0,0.000885,0,0
0:5:39.558,1435.47,81.234,0,0.000885,0,0
0:5:39.953,1436.94,81.3168,0,0.000885,0,0
0:5:40.348,1438.76,81.4202,0,0.000885,0,0
0:5:40.764,1440.11,81.496,0,0.000885,0,0
0:5:41.163,1442.04,81.6063,0,0.000885,0,0
0:5:41.561,1443.51,81.6891,0,0.000885,0,0
0:5:41.966,1445.86,81.8201,0,0.000885,0,0
0:5:42.370,1446.74,81.8683,0,0.000885,0,0
0:5:42.771,1449.03,81.9993,0,0.000885,0,0
0:5:43.174,1451.14,82.1166,0,0.000885,0,0
0:5:43.572,1452.49,82.1924,0,0.000885,0,0
0:5:43.970,1454.6,82.3165,0,0.000885,0,0
0:5:44.364,1456.6,82.4268,0,0.000885,0,0
0:5:44.764,1458.01,82.5096,0,0.000885,0,0
0:5:45.163,1460.3,82.6337,0,0.000885,0,0
0:5:45.560,1461.41,82.6957,0,0.000885,0,0
0:5:45.965,1462.88,82.7854,0,0.000885,0,0
0:5:46.370,1464.64,82.8819,0,0.000885,0,0
0:5:46.775,1466.29,82.9715,0,0.000885,0,0
0:5:47.176,1468.17,83.0818,0,0.000885,0,0
0:5:47.580,1469.99,83.1852,0,0.000885,0,0
0:5:47.976,1471.69,83.2818,0,0.000885,0,0
0:5:48.371,1473.8,83.399,0,0.000885,0,0
0:5:48.772,1475.74,83.5093,0,0.000885,0,0
0:5:49.170,1477.67,83.6196,0,0.000885,0,0
0:5:49.566,1479.67,83.7299,0,0.000885,0,0
0:5:49.962,1480.68,83.792,0,0.000885,0,0
0:5:50.359,1482.62,83.9023,0,0.000885,0,0
0:5:50.758,1484.44,84.0057,0,0.000885,0,0
0:5:51.155,1486.62,84.1229,0,0.000885,0,0
0:5:51.562,1488.5,84.2332,0,0.000885,0,0
0:5:51.966,1489.92,84.3091,0,0.000885,0,0
0:5:52.368,1491.45,84.3987,0,0.000885,0,0
0:5:52.767,1493.63,84.5228,0,0.000885,0,0
0:5:53.165,1495.45,84.6263,0,0.000885,0,0
0:5:53.561,1497.16,84.7228,0,0.000885,0,0
0:5:53.954,1498.57,84.7986,0,0.000885,0,0
0:5:54.354,1500.28,84.902,0,0.000885,0,0
0:5:54.754,1501.58,84.971,0,0.000885,0,0
0:5:55.160,1503.34,85.0744,0,0.000885,0,0
0:5:55.553,1505.47,85.1916,0,0.000885,0,0
0:5:55.951,1507.47,85.3019,0,0.000885,0,0
0:5:56.353,1509,85.3916,0,0.000885,0,0
0:5:56.761,1510.94,85.5019,0,0.000885,0,0
0:5:57.164,1512.65,85.5984,0,0.000885,0,0
0:5:57.568,1514.06,85.6811,0,0.000885,0,0
0:5:57.965,1516.24,85.7984,0,0.000885,0,0
0:5:58.364,1518.3,85.9156,0,0.000885,0,0
0:5:58.763,1520.18,86.0259,0,0.000885,0,0
0:5:59.159,1522.13,86.1362,0,0.000885,0,0
0:5:59.552,1523.31,86.1983,0,0.000885,0,0
0:5:59.951,1525.19,86.3086,0,0.000885,0,0
0:6:0.350,1527.25,86.4258,0,0.000885,0,0
0:6:0.746,1528.49,86.4947,0,0.000885,0,0
0:6:1.143,1530.31,86.5982,0,0.000885,0,0
0:6:1.547,1532.26,86.7085,0,0.000885,0,0
0:6:1.952,1533.9,86.7981,0,0.000885,0,0
0:6:2.355,1536.38,86.9429,0,0.000885,0,0
0:6:2.759,1537.32,86.9912,0,0.000885,0,0
0:6:3.152,1539.56,87.1222,0,0.000885,0,0
0:6:3.561,1541.56,87.2325,0,0.000885,0,0
0:6:3.961,1543.03,87.3152,0,0.000885,0,0
0:6:4.355,1544.44,87.3979,0,0.000885,0,0
0:6:4.752,1545.92,87.4807,0,0.000885,0,0
0:6:5.156,1547.98,87.5979,0,0.000885,0,0
0:6:5.556,1549.45,87.6806,0,0.000885,0,0
0:6:5.954,1551.57,87.7978,0,0.000885,0,0
0:6:6.351,1552.92,87.8806,0,0.000885,0,0
0:6:6.754,1554.87,87.9909,0,0.000885,0,0
0:6:7.160,1556.69,88.0874,0,0.000885,0,0
0:6:7.563,1558.28,88.1839,0,0.000885,0,0
0:6:7.966,1560.16,88.2874,0,0.000885,0,0
0:6:8.362,1562.05,88.3908,0,0.000885,0,0
0:6:8.766,1563.7,88.4873,0,0.000885,0,0
0:6:9.165,1565.7,88.5976,0,0.000885,0,0
0:6:9.564,1567.47,88.7011,0,0.000885,0,0
0:6:9.967,1569.29,88.8045,0,0.000885,0,0
0:6:10.364,1571.06,88.901,0,0.000885,0,0
0:6:10.762,1573.06,89.0182,0,0.000885,0,0
0:6:11.160,1575.06,89.1285,0,0.000885,0,0
0:6:11.555,1576.53,89.2113,0,0.000885,0,0
0:6:11.962,1578.36,89.3147,0,0.000885,0,0
0:6:12.367,1580.01,89.4112,0,0.000885,0,0
0:6:12.768,1581.48,89.4939,0,0.000885,0,0
0:6:13.168,1583.66,89.6181,0,0.000885,0,0
0:6:13.566,1585.66,89.7284,0,0.000885,0,0
0:6:13.960,1586.61,89.7835,0,0.000885,0,0
0:6:14.356,1588.31,89.8801,0,0.000885,0,0
0:6:14.756,1590.31,89.9904,0,0.000885,0,0
0:6:15.151,1591.85,90.08,0,0.000885,0,0
0:6:15.548,1594.02,90.2041,0,0.000885,0,0
0:6:15.964,1595.85,90.3075,0,0.000885,0,0
0:6:16.366,1597.5,90.3972,0,0.000885,0,0
0:6:16.772,1599.03,90.4868,0,0.000885,0,0
0:6:17.176,1601.21,90.6109,0,0.000885,0,0
0:6:17.577,1602.97,90.7074,0,0.000885,0,0
0:6:17.975,1604.62,90.804,0,0.000885,0,0
0:6:18.375,1606.56,90.9143,0,0.000885,0,0
0:6:18.773,1607.98,90.9901,0,0.000885,0,0
0:6:19.167,1609.51,91.0797,0,0.000885,0,0
0:6:19.563,1611.39,91.1832,0,0.000885,0,0
0:6:19.963,1612.93,91.2728,0,0.000885,0,0
0:6:20.361,1614.93,91.3831,0,0.000885,0,0
0:6:20.754,1616.99,91.5003,0,0.000885,0,0
0:6:21.148,1618.93,91.6106,0,0.000885,0,0
0:6:21.552,1620.7,91.7141,0,0.000885,0,0
0:6:21.957,1622.4,91.8106,0,0.000885,0,0
0:6:22.362,1624.53,91.9278,0,0.000885,0,0
0:6:22.763,1626.11,92.0174,0,0.000885,0,0
0:6:23.170,1627.76,92.114,0,0.000885,0,0
0:6:23.568,1628.59,92.1622,0,0.000885,0,0
0:6:23.966,1630.94,92.2932,0,0.000885,0,0
0:6:24.363,1632.53,92.3829,0,0.000885,0,0
0:6:24.766,1634.36,92.4863,0,0.000885,0,0
0:6:25.166,1636.18,92.5897,0,0.000885,0,0
0:6:25.564,1637.95,92.6862,0,0.000885,0,0
0:6:25.957,1639.84,92.7965,0,0.000885,0,0
0:6:26.353,1641.72,92.9,0,0.000885,0,0
0:6:26.756,1643.08,92.9758,0,0.000885,0,0
0:6:27.164,1644.66,93.0723,0,0.000885,0,0
0:6:27.566,1646.55,93.1757,0,0.000885,0,0
0:6:27.969,1648.26,93.2723,0,0.000885,0,0
0:6:28.364,1650.43,93.3964,0,0.000885,0,0
0:6:28.762,1652.38,93.5067,0,0.000885,0,0
0:6:29.159,1654.03,93.5963,0,0.000885,0,0
0:6:29.555,1656.03,93.7135,0,0.000885,0,0
0:6:29.950,1657.91,93.817,0,0.000885,0,0
0:6:30.347,1658.97,93.879,0,0.000885,0,0
0:6:30.746,1660.92,93.9893,0,0.000885,0,0
0:6:31.142,1662.27,94.0652,0,0.000885,0,0
0:6:31.548,1664.04,94.1686,0,0.000885,0,0
0:6:31.952,1666.27,94.2927,0,0.000885,0,0
0:6:32.354,1667.63,94.3685,0,0.000885,0,0
0:6:32.757,1669.22,94.4582,0,0.000885,0,0
0:6:33.164,1671.04,94.5616,0,0.000885,0,0
0:6:33.558,1672.81,94.665,0,0.000885,0,0
0:6:33.956,1675.28,94.8029,0,0.000885,0,0
0:6:34.354,1676.99,94.8994,0,0.000885,0,0
0:6:34.753,1679.05,95.0167,0,0.000885,0,0
0:6:35.147,1680.76,95.1132,0,0.000885,0,0
0:6:35.543,1682.76,95.2235,0,0.000885,0,0
0:6:35.942,1684.64,95.3338,0,0.000885,0,0
0:6:36.342,1686,95.4097,0,0.000885,0,0
0:6:36.747,1687.24,95.4786,0,0.000885,0,0
0:6:37.150,1689.3,95.5958,0,0.000885,0,0
0:6:37.552,1691.18,95.6992,0,0.000885,0,0
0:6:37.953,1692.42,95.7682,0,0.000885,0,0
0:6:38.360,1694.19,95.8716,0,0.000885,0,0
0:6:38.755,1696.13,95.9819,0,0.000885,0,0
0:6:39.150,1698.13,96.0922,0,0.000885,0,0
0:6:39.550,1700.13,96.2094,0,0.000885,0,0
0:6:39.949,1702.19,96.3267,0,0.000885,0,0
0:6:40.356,1704.43,96.4508,0,0.000885,0,0
0:6:40.750,1705.55,96.5128,0,0.000885,0,0
0:6:41.155,1707.32,96.6162,0,0.000885,0,0
0:6:41.558,1708.85,96.699,0,0.000885,0,0
0:6:41.966,1710.26,96.7817,0,0.000885,0,0
0:6:42.368,1712.2,96.892,0,0.000885,0,0
0:6:42.770,1713.85,96.9817,0,0.000885,0,0
0:6:43.168,1715.67,97.0851,0,0.000885,0,0
0:6:43.567,1717.97,97.2161,0,0.000885,0,0
0:6:43.965,1719.33,97.2919,0,0.000885,0,0
0:6:44.358,1721.27,97.4022,0,0.000885,0,0
0:6:44.764,1723.09,97.5057,0,0.000885,0,0
0:6:45.163,1724.39,97.5815,0,0.000885,0,0
0:6:45.560,1726.22,97.6849,0,0.000885,0,0
0:6:45.957,1728.4,97.809,0,0.000885,0,0
0:6:46.354,1730.16,97.9056,0,0.000885,0,0
0:6:46.758,1731.81,98.0021,0,0.000885,0,0
0:6:47.165,1733.87,98.1193,0,0.000885,0,0
0:6:47.566,1733.46,98.0917,0,0.000885,0,0
0:6:47.968,1734.17,98.1331,0,0.000885,0,0
0:6:48.364,1736.4,98.2572,0,0.000885,0,0
0:6:48.767,1726.1,97.678,0,0.000885,0,0
0:6:49.166,1720.09,97.3402,0,0.000885,0,0
0:6:49.564,1718.91,97.2712,0,0.000885,0,0
0:6:49.956,1719.62,97.3126,0,0.000885,0,0
0:6:50.351,1717.32,97.1816,0,0.000885,0,0
0:6:50.747,1707.32,96.6162,0,0.000885,0,0
0:6:51.144,1696.89,96.0233,0,0.000885,0,0
0:6:51.543,1696.01,95.975,0,0.000885,0,0
0:6:51.947,1697.66,96.0647,0,0.000885,0,0
0:6:52.348,1699.13,96.1543,0,0.000885,0,0
0:6:52.748,1701.01,96.2577,0,0.000885,0,0
0:6:53.149,1701.19,96.2646,0,0.000885,0,0
0:6:53.554,1700.13,96.2094,0,0.000885,0,0
0:6:53.970,1698.3,96.106,0,0.000885,0,0
0:6:54.364,1697.25,96.044,0,0.000885,0,0
0:6:54.760,1696.77,96.0164,0,0.000885,0,0
0:6:55.089,1662.39,94.0721,0,0.000885,0,0