File: DataFile2021-07-17_051409.csv
Test ID:,Date Tested:,Time:,Test Type:,Diameter Avg. (mm):,Cyl. Corr. Factor:,Height (mm):,Age (days):,Weight (kN):,Break Type:,Ramp Rate (MPa/s):,Load at Break (kN):,Stress at Break (MPa):
12,7/17/2021,05:14,Cylinder,100,1,200,0,3.6,3,0.25,1335.68,170.07
Sample Time,Load (kN),Stress (MPa),Long. Strain,Trans. Strain,Chan1 Deflection (mm),Chan2 Deflection (mm)
0:0:7.493,5.10211,0.648107,0,0.000885,0,0
0:0:8.086,7.15719,0.910108,0,0.000885,0,0
0:0:8.690,7.56642,0.965266,0,0.000885,0,0
0:0:9.296,8.62065,1.09627,0,0.000885,0,0
0:0:9.906,9.20782,1.17211,0,0.000885,0,0
0:0:10.503,10.4978,1.33758,0,0.000885,0,0
0:0:11.103,11.552,1.46858,0,0.000885,0,0
0:0:11.695,13.0199,1.65474,0,0.000885,0,0
0:0:12.300,14.1943,1.80643,0,0.000885,0,0
0:0:12.907,15.3063,1.95122,0,0.000885,0,0
0:0:13.515,16.4228,2.08911,0,0.000885,0,0
0:0:14.122,17.7706,2.26148,0,0.000885,0,0
0:0:14.728,19.5321,2.48901,0,0.000885,0,0
0:0:15.323,20.5285,2.61311,0,0.000885,0,0
0:0:15.919,21.7607,2.77169,0,0.000885,0,0
0:0:16.515,23.2242,2.95785,0,0.000885,0,0
0:0:17.115,24.2206,3.08196,0,0.000885,0,0
0:0:17.713,25.6885,3.26811,0,0.000885,0,0
0:0:18.321,26.5692,3.38533,0,0.000885,0,0
0:0:18.928,28.3263,3.60596,0,0.000885,0,0
0:0:19.527,28.74,3.66112,0,0.000885,0,0
0:0:20.123,29.9721,3.8128,0,0.000885,0,0
0:0:20.721,31.4934,4.01275,0,0.000885,0,0
0:0:21.320,32.3742,4.12306,0,0.000885,0,0
0:0:21.919,33.722,4.29543,0,0.000885,0,0
0:0:22.515,34.7806,4.42643,0,0.000885,0,0
0:0:23.116,35.777,4.55743,0,0.000885,0,0
0:0:23.724,37.0092,4.70912,0,0.000885,0,0
0:0:24.329,37.9478,4.83322,0,0.000885,0,0
0:0:24.930,39.1799,4.9918,0,0.000885,0,0
0:0:25.527,40.1763,5.11591,0,0.000885,0,0
0:0:26.122,41.7599,5.31586,0,0.000885,0,0
0:0:26.718,43.0499,5.48133,0,0.000885,0,0
0:0:27.316,43.8684,5.58475,0,0.000885,0,0
0:0:27.917,45.1628,5.75023,0,0.000885,0,0
0:0:28.526,46.6841,5.94328,0,0.000885,0,0
0:0:29.131,47.9741,6.10875,0,0.000885,0,0
0:0:29.728,48.9749,6.23286,0,0.000885,0,0
0:0:30.326,49.9135,6.35697,0,0.000885,0,0
0:0:30.925,50.6741,6.45349,0,0.000885,0,0
0:0:31.525,52.3734,6.66723,0,0.000885,0,0
0:0:32.122,53.5477,6.81891,0,0.000885,0,0
0:0:32.716,55.1313,7.01886,0,0.000885,0,0
0:0:33.323,55.8341,7.10849,0,0.000885,0,0
0:0:33.931,57.1863,7.28086,0,0.000885,0,0
0:0:34.536,58.1205,7.39807,0,0.000885,0,0
0:0:35.136,59.1791,7.53597,0,0.000885,0,0
0:0:35.732,60.527,7.70834,0,0.000885,0,0
0:0:36.327,61.7591,7.86002,0,0.000885,0,0
0:0:36.925,63.4005,8.07376,0,0.000885,0,0
0:0:37.524,64.2234,8.17718,0,0.000885,0,0
0:0:38.121,65.2777,8.30818,0,0.000885,0,0
0:0:38.731,66.7456,8.50124,0,0.000885,0,0
0:0:39.336,67.2705,8.56329,0,0.000885,0,0
0:0:39.937,68.5604,8.72876,0,0.000885,0,0
0:0:40.537,69.7348,8.88045,0,0.000885,0,0
0:0:41.132,71.3762,9.08729,0,0.000885,0,0
0:0:41.732,72.3726,9.21829,0,0.000885,0,0
0:0:42.327,73.2533,9.32861,0,0.000885,0,0
0:0:42.930,74.8947,9.53545,0,0.000885,0,0
0:0:43.539,75.9534,9.67334,0,0.000885,0,0
0:0:44.144,76.7719,9.77677,0,0.000885,0,0
0:0:44.742,78.004,9.93535,0,0.000885,0,0
0:0:45.341,79.4141,10.1077,0,0.000885,0,0
0:0:45.937,80.7041,10.2732,0,0.000885,0,0
0:0:46.531,82.1097,10.4525,0,0.000885,0,0
0:0:47.128,82.8748,10.549,0,0.000885,0,0
0:0:47.725,83.6933,10.6593,0,0.000885,0,0
0:0:48.334,85.219,10.8523,0,0.000885,0,0
0:0:48.942,86.5668,11.0247,0,0.000885,0,0
0:0:49.545,87.6833,11.1626,0,0.000885,0,0
0:0:50.141,88.9733,11.3281,0,0.000885,0,0
0:0:50.737,90.2633,11.4936,0,0.000885,0,0
0:0:51.338,91.669,11.6728,0,0.000885,0,0
0:0:51.935,92.6698,11.7969,0,0.000885,0,0
0:0:52.536,93.3148,11.8797,0,0.000885,0,0
0:0:53.133,94.5425,12.0382,0,0.000885,0,0
0:0:53.743,95.8948,12.2106,0,0.000885,0,0
0:0:54.351,97.2426,12.383,0,0.000885,0,0
0:0:54.950,98.1811,12.5002,0,0.000885,0,0
0:0:55.550,99.2932,12.645,0,0.000885,0,0
0:0:56.147,100.761,12.8311,0,0.000885,0,0
0:0:56.743,101.526,12.9277,0,0.000885,0,0
0:0:57.339,102.754,13.0862,0,0.000885,0,0
0:0:57.946,104.458,13.3,0,0.000885,0,0
0:0:58.553,105.338,13.4103,0,0.000885,0,0
0:0:59.159,107.038,13.6309,0,0.000885,0,0
0:0:59.757,107.331,13.6654,0,0.000885,0,0
0:1:0.353,108.621,13.8309,0,0.000885,0,0
0:1:0.948,109.969,14.0033,0,0.000885,0,0
0:1:1.546,111.201,14.1618,0,0.000885,0,0
0:1:2.146,112.491,14.3204,0,0.000885,0,0
0:1:2.744,113.723,14.479,0,0.000885,0,0
0:1:3.350,114.777,14.6169,0,0.000885,0,0
0:1:3.956,115.836,14.7479,0,0.000885,0,0
0:1:4.558,116.948,14.8927,0,0.000885,0,0
0:1:5.155,118.123,15.0375,0,0.000885,0,0
0:1:5.754,119.47,15.2098,0,0.000885,0,0
0:1:6.352,120.587,15.3546,0,0.000885,0,0
0:1:6.951,122.05,15.5408,0,0.000885,0,0
0:1:7.547,122.931,15.6511,0,0.000885,0,0
0:1:8.147,123.985,15.789,0,0.000885,0,0
0:1:8.757,125.16,15.9338,0,0.000885,0,0
0:1:9.362,126.685,16.1268,0,0.000885,0,0
0:1:9.962,127.388,16.2165,0,0.000885,0,0
0:1:10.560,129.03,16.4302,0,0.000885,0,0
0:1:11.155,129.968,16.5474,0,0.000885,0,0
0:1:11.751,131.552,16.7474,0,0.000885,0,0
0:1:12.348,132.962,16.9266,0,0.000885,0,0
0:1:12.947,133.549,17.0025,0,0.000885,0,0
0:1:13.553,134.367,17.1059,0,0.000885,0,0
0:1:14.161,135.835,17.2921,0,0.000885,0,0
0:1:14.764,137.068,17.4506,0,0.000885,0,0
0:1:15.358,138.357,17.6161,0,0.000885,0,0
0:1:15.958,140.057,17.8298,0,0.000885,0,0
0:1:16.557,141.053,17.9608,0,0.000885,0,0
0:1:17.155,141.992,18.0781,0,0.000885,0,0
0:1:17.750,142.579,18.1539,0,0.000885,0,0
0:1:18.352,144.34,18.3745,0,0.000885,0,0
0:1:18.960,145.279,18.4986,0,0.000885,0,0
0:1:19.566,146.275,18.6227,0,0.000885,0,0
0:1:20.166,148.152,18.8641,0,0.000885,0,0
0:1:20.762,148.971,18.9675,0,0.000885,0,0
0:1:21.357,150.439,19.1536,0,0.000885,0,0
0:1:21.954,151.32,19.264,0,0.000885,0,0
0:1:22.550,152.258,19.3881,0,0.000885,0,0
0:1:23.158,153.779,19.5811,0,0.000885,0,0
0:1:23.764,155.012,19.7397,0,0.000885,0,0
0:1:24.369,155.95,19.8569,0,0.000885,0,0
0:1:24.966,157.418,20.0431,0,0.000885,0,0
0:1:25.563,158.357,20.1603,0,0.000885,0,0
0:1:26.161,159.589,20.3188,0,0.000885,0,0
0:1:26.760,160.763,20.4705,0,0.000885,0,0
0:1:27.358,161.408,20.5533,0,0.000885,0,0
0:1:27.956,163.107,20.767,0,0.000885,0,0
0:1:28.566,164.575,20.9532,0,0.000885,0,0
0:1:29.171,165.687,21.098,0,0.000885,0,0
0:1:29.770,166.684,21.2221,0,0.000885,0,0
0:1:30.369,167.974,21.3875,0,0.000885,0,0
0:1:30.968,169.148,21.5392,0,0.000885,0,0
0:1:31.563,169.793,21.622,0,0.000885,0,0
0:1:32.159,170.967,21.7667,0,0.000885,0,0
0:1:32.756,172.079,21.9115,0,0.000885,0,0
0:1:33.362,173.841,22.1322,0,0.000885,0,0
0:1:33.970,175.015,22.2839,0,0.000885,0,0
0:1:34.575,176.421,22.4631,0,0.000885,0,0
0:1:35.173,177.359,22.5803,0,0.000885,0,0
0:1:35.769,178.827,22.7665,0,0.000885,0,0
0:1:36.364,179.179,22.8148,0,0.000885,0,0
0:1:36.961,180.7,23.0078,0,0.000885,0,0
0:1:37.559,182.11,23.1871,0,0.000885,0,0
0:1:38.166,183.107,23.3112,0,0.000885,0,0
0:1:38.773,184.161,23.4491,0,0.000885,0,0
0:1:39.377,185.629,23.6352,0,0.000885,0,0
0:1:39.973,186.683,23.7662,0,0.000885,0,0
0:1:40.569,187.799,23.911,0,0.000885,0,0
0:1:41.168,188.974,24.0627,0,0.000885,0,0
0:1:41.766,190.673,24.2764,0,0.000885,0,0
0:1:42.364,191.318,24.3592,0,0.000885,0,0
0:1:42.963,192.55,24.5178,0,0.000885,0,0
0:1:43.568,193.604,24.6488,0,0.000885,0,0
0:1:44.170,194.779,24.8004,0,0.000885,0,0
0:1:44.764,195.891,24.9452,0,0.000885,0,0
0:1:45.356,197.537,25.1521,0,0.000885,0,0
0:1:45.949,198.764,25.3107,0,0.000885,0,0
0:1:46.541,199.351,25.3796,0,0.000885,0,0
0:1:47.132,200.468,25.5244,0,0.000885,0,0
0:1:47.723,202.109,25.7312,0,0.000885,0,0
0:1:48.326,203.399,25.8967,0,0.000885,0,0
0:1:48.930,204.632,26.0553,0,0.000885,0,0
0:1:49.531,205.334,26.1449,0,0.000885,0,0
0:1:50.123,206.331,26.269,0,0.000885,0,0
0:1:50.714,207.683,26.4414,0,0.000885,0,0
0:1:51.313,208.679,26.5724,0,0.000885,0,0
0:1:51.917,209.498,26.6758,0,0.000885,0,0
0:1:52.511,211.144,26.8827,0,0.000885,0,0
0:1:53.104,211.962,26.9861,0,0.000885,0,0
0:1:53.710,213.372,27.1653,0,0.000885,0,0
0:1:54.310,214.484,27.3101,0,0.000885,0,0
0:1:54.904,216.01,27.5032,0,0.000885,0,0
0:1:55.496,216.949,27.6204,0,0.000885,0,0
0:1:56.101,218.296,27.7928,0,0.000885,0,0
0:1:56.703,219.471,27.9445,0,0.000885,0,0
0:1:57.307,220.934,28.1306,0,0.000885,0,0
0:1:57.913,221.935,28.2547,0,0.000885,0,0
0:1:58.519,223.634,28.4753,0,0.000885,0,0
0:1:59.119,224.689,28.6063,0,0.000885,0,0
0:1:59.714,225.979,28.7718,0,0.000885,0,0
0:2:0.314,226.801,28.8752,0,0.000885,0,0
0:2:0.918,227.682,28.9925,0,0.000885,0,0
0:2:1.507,228.621,29.1097,0,0.000885,0,0
0:2:2.118,229.911,29.2751,0,0.000885,0,0
0:2:2.713,231.259,29.4475,0,0.000885,0,0
0:2:3.317,232.197,29.5647,0,0.000885,0,0
0:2:3.919,233.665,29.7509,0,0.000885,0,0
0:2:4.520,234.835,29.9026,0,0.000885,0,0
0:2:5.108,235.716,30.0129,0,0.000885,0,0
0:2:5.711,236.89,30.1646,0,0.000885,0,0
0:2:6.301,238.767,30.399,0,0.000885,0,0
0:2:6.918,239.999,30.5576,0,0.000885,0,0
0:2:7.511,241.405,30.7368,0,0.000885,0,0
0:2:8.102,241.756,30.7782,0,0.000885,0,0
0:2:8.707,242.695,30.9023,0,0.000885,0,0
0:2:9.307,244.163,31.0885,0,0.000885,0,0
0:2:9.901,245.101,31.2057,0,0.000885,0,0
0:2:10.495,246.156,31.3436,0,0.000885,0,0
0:2:11.099,247.624,31.5297,0,0.000885,0,0
0:2:11.713,248.62,31.6538,0,0.000885,0,0
0:2:12.315,250.377,31.8814,0,0.000885,0,0
0:2:12.913,251.258,31.9917,0,0.000885,0,0
0:2:13.516,253.019,32.2123,0,0.000885,0,0
0:2:14.118,254.016,32.3433,0,0.000885,0,0
0:2:14.713,255.248,32.5019,0,0.000885,0,0
0:2:15.314,255.541,32.5364,0,0.000885,0,0
0:2:15.915,256.711,32.688,0,0.000885,0,0
0:2:16.517,258.357,32.8949,0,0.000885,0,0
0:2:17.118,259.527,33.0466,0,0.000885,0,0
0:2:17.710,260.995,33.2327,0,0.000885,0,0
0:2:18.316,262.049,33.3637,0,0.000885,0,0
0:2:18.917,263.224,33.5154,0,0.000885,0,0
0:2:19.517,264.571,33.6878,0,0.000885,0,0
0:2:20.105,265.51,33.805,0,0.000885,0,0
0:2:20.707,266.858,33.9774,0,0.000885,0,0
0:2:21.300,267.796,34.0946,0,0.000885,0,0
0:2:21.894,269.558,34.3221,0,0.000885,0,0
0:2:22.487,270.381,34.4255,0,0.000885,0,0
0:2:23.081,271.257,34.5358,0,0.000885,0,0
0:2:23.686,272.431,34.6875,0,0.000885,0,0
0:2:24.286,273.548,34.8323,0,0.000885,0,0
0:2:24.881,274.66,34.9702,0,0.000885,0,0
0:2:25.474,275.598,35.0874,0,0.000885,0,0
0:2:26.070,276.946,35.2598,0,0.000885,0,0
0:2:26.661,278.299,35.4322,0,0.000885,0,0
0:2:27.252,279.704,35.6114,0,0.000885,0,0
0:2:27.851,281.052,35.7838,0,0.000885,0,0
0:2:28.455,282.226,35.9355,0,0.000885,0,0
0:2:29.054,283.281,36.0665,0,0.000885,0,0
0:2:29.646,283.868,36.1423,0,0.000885,0,0
0:2:30.241,285.278,36.3216,0,0.000885,0,0
0:2:30.829,286.861,36.5215,0,0.000885,0,0
0:2:31.421,288.031,36.6732,0,0.000885,0,0
0:2:32.022,288.739,36.7628,0,0.000885,0,0
0:2:32.616,289.966,36.9214,0,0.000885,0,0
0:2:33.220,291.318,37.0938,0,0.000885,0,0
0:2:33.822,292.724,37.2731,0,0.000885,0,0
0:2:34.421,293.605,37.3834,0,0.000885,0,0
0:2:35.009,294.366,37.4799,0,0.000885,0,0
0:2:35.601,295.246,37.5902,0,0.000885,0,0
0:2:36.194,296.594,37.7626,0,0.000885,0,0
0:2:36.788,298.356,37.9901,0,0.000885,0,0
0:2:37.382,299.468,38.128,0,0.000885,0,0
0:2:37.977,300.291,38.2314,0,0.000885,0,0
0:2:38.582,302.168,38.4727,0,0.000885,0,0
0:2:39.183,303.4,38.6313,0,0.000885,0,0
0:2:39.777,304.396,38.7554,0,0.000885,0,0
0:2:40.371,304.863,38.8175,0,0.000885,0,0
0:2:40.964,306.158,38.983,0,0.000885,0,0
0:2:41.555,307.621,39.1691,0,0.000885,0,0
0:2:42.148,308.911,39.3346,0,0.000885,0,0
0:2:42.742,309.97,39.4656,0,0.000885,0,0
0:2:43.347,311.024,39.6035,0,0.000885,0,0
0:2:43.947,312.665,39.8103,0,0.000885,0,0
0:2:44.542,313.662,39.9344,0,0.000885,0,0
0:2:45.138,314.485,40.0448,0,0.000885,0,0
0:2:45.729,315.717,40.1964,0,0.000885,0,0
0:2:46.319,317.123,40.3757,0,0.000885,0,0
0:2:46.921,318.119,40.5067,0,0.000885,0,0
0:2:47.523,319.881,40.7273,0,0.000885,0,0
0:2:48.127,320.583,40.817,0,0.000885,0,0
0:2:48.728,321.344,40.9135,0,0.000885,0,0
0:2:49.326,322.518,41.0652,0,0.000885,0,0
0:2:49.917,324.16,41.272,0,0.000885,0,0
0:2:50.521,324.983,41.3754,0,0.000885,0,0
0:2:51.123,326.388,41.5547,0,0.000885,0,0
0:2:51.719,327.914,41.7547,0,0.000885,0,0
0:2:52.320,328.737,41.8581,0,0.000885,0,0
0:2:52.925,329.555,41.9615,0,0.000885,0,0
0:2:53.529,330.556,42.0856,0,0.000885,0,0
0:2:54.131,332.665,42.3545,0,0.000885,0,0
0:2:54.726,333.488,42.4579,0,0.000885,0,0
0:2:55.317,334.6,42.6027,0,0.000885,0,0
0:2:55.917,336.01,42.782,0,0.000885,0,0
0:2:56.518,336.713,42.8716,0,0.000885,0,0
0:2:57.121,338.118,43.0509,0,0.000885,0,0
0:2:57.726,339.586,43.237,0,0.000885,0,0
0:2:58.330,340.347,43.3335,0,0.000885,0,0
0:2:58.930,341.348,43.4645,0,0.000885,0,0
0:2:59.524,343.514,43.7403,0,0.000885,0,0
0:3:0.117,343.928,43.7886,0,0.000885,0,0
0:3:0.719,345.16,43.9472,0,0.000885,0,0
0:3:1.323,347.037,44.1885,0,0.000885,0,0
0:3:1.913,347.504,44.2437,0,0.000885,0,0
0:3:2.513,349.265,44.4712,0,0.000885,0,0
0:3:3.111,349.91,44.5539,0,0.000885,0,0
0:3:3.712,350.965,44.6849,0,0.000885,0,0
0:3:4.314,352.197,44.8435,0,0.000885,0,0
0:3:4.907,353.251,44.9745,0,0.000885,0,0
0:3:5.498,354.19,45.0986,0,0.000885,0,0
0:3:6.108,356.009,45.3261,0,0.000885,0,0
0:3:6.709,356.596,45.402,0,0.000885,0,0
0:3:7.304,357.944,45.5743,0,0.000885,0,0
0:3:7.908,359.585,45.7812,0,0.000885,0,0
0:3:8.509,360.288,45.8708,0,0.000885,0,0
0:3:9.106,361.756,46.057,0,0.000885,0,0
0:3:9.697,362.579,46.1673,0,0.000885,0,0
0:3:10.288,363.869,46.3259,0,0.000885,0,0
0:3:10.881,365.862,46.581,0,0.000885,0,0
0:3:11.475,365.977,46.5948,0,0.000885,0,0
0:3:12.068,367.21,46.7533,0,0.000885,0,0
0:3:12.665,368.913,46.974,0,0.000885,0,0
0:3:13.268,369.265,47.0153,0,0.000885,0,0
0:3:13.869,371.315,47.2774,0,0.000885,0,0
0:3:14.462,371.667,47.3256,0,0.000885,0,0
0:3:15.056,373.722,47.5807,0,0.000885,0,0
0:3:15.649,373.664,47.5738,0,0.000885,0,0
0:3:16.243,375.599,47.822,0,0.000885,0,0
0:3:16.834,377.005,48.0013,0,0.000885,0,0
0:3:17.424,377.534,48.0702,0,0.000885,0,0
0:3:18.024,379.06,48.2633,0,0.000885,0,0
0:3:18.627,380.523,48.4495,0,0.000885,0,0
0:3:19.228,381.404,48.5598,0,0.000885,0,0
0:3:19.822,383.045,48.7735,0,0.000885,0,0
0:3:20.424,384.455,48.9528,0,0.000885,0,0
0:3:21.024,385.043,49.0217,0,0.000885,0,0
0:3:21.613,386.506,49.2148,0,0.000885,0,0
0:3:22.206,386.915,49.263,0,0.000885,0,0
0:3:22.808,388.267,49.4354,0,0.000885,0,0
0:3:23.409,389.5,49.594,0,0.000885,0,0
0:3:24.008,391.315,49.8215,0,0.000885,0,0
0:3:24.609,392.315,49.9525,0,0.000885,0,0
0:3:25.209,394.015,50.1663,0,0.000885,0,0
0:3:25.822,394.602,50.2421,0,0.000885,0,0
0:3:26.415,395.892,50.4076,0,0.000885,0,0
0:3:27.008,396.479,50.4834,0,0.000885,0,0
0:3:27.602,398.062,50.6834,0,0.000885,0,0
0:3:28.205,398.587,50.7523,0,0.000885,0,0
0:3:28.806,400.522,50.9936,0,0.000885,0,0
0:3:29.407,401.052,51.0626,0,0.000885,0,0
0:3:30.011,402.226,51.2143,0,0.000885,0,0
0:3:30.626,404.57,51.5107,0,0.000885,0,0
0:3:31.216,404.864,51.5521,0,0.000885,0,0
0:3:31.828,406.154,51.7107,0,0.000885,0,0
0:3:32.427,406.919,51.8072,0,0.000885,0,0
0:3:33.029,408.031,51.952,0,0.000885,0,0
0:3:33.633,410.317,52.2416,0,0.000885,0,0
0:3:34.233,411.198,52.3588,0,0.000885,0,0
0:3:34.826,412.546,52.5243,0,0.000885,0,0
0:3:35.425,414.072,52.7242,0,0.000885,0,0
0:3:36.026,414.774,52.8138,0,0.000885,0,0
0:3:36.617,415.949,52.9586,0,0.000885,0,0
0:3:37.223,416.536,53.0345,0,0.000885,0,0
0:3:37.825,418.177,53.2413,0,0.000885,0,0
0:3:38.428,418.822,53.3241,0,0.000885,0,0
0:3:39.030,420.993,53.5998,0,0.000885,0,0
0:3:39.624,421.58,53.6757,0,0.000885,0,0
0:3:40.227,423.279,53.8963,0,0.000885,0,0
0:3:40.829,423.751,53.9515,0,0.000885,0,0
0:3:41.424,424.632,54.0687,0,0.000885,0,0
0:3:42.024,426.447,54.2962,0,0.000885,0,0
0:3:42.630,427.092,54.379,0,0.000885,0,0
0:3:43.235,428.795,54.5927,0,0.000885,0,0
0:3:43.833,430.143,54.7651,0,0.000885,0,0
0:3:44.427,430.552,54.8202,0,0.000885,0,0
0:3:45.018,432.256,55.034,0,0.000885,0,0
0:3:45.624,433.546,55.1994,0,0.000885,0,0
0:3:46.222,434.484,55.3166,0,0.000885,0,0
0:3:46.824,435.948,55.5097,0,0.000885,0,0
0:3:47.425,436.242,55.5442,0,0.000885,0,0
0:3:48.028,438.003,55.7648,0,0.000885,0,0
0:3:48.630,438.884,55.882,0,0.000885,0,0
0:3:49.229,440.347,56.0682,0,0.000885,0,0
0:3:49.822,442.34,56.3233,0,0.000885,0,0
0:3:50.430,443.105,56.4198,0,0.000885,0,0
0:3:51.025,443.866,56.5163,0,0.000885,0,0
0:3:51.629,444.453,56.5922,0,0.000885,0,0
0:3:52.223,446.272,56.8197,0,0.000885,0,0
0:3:52.826,447.091,56.9231,0,0.000885,0,0
0:3:53.428,448.265,57.0748,0,0.000885,0,0
0:3:54.029,450.084,57.3092,0,0.000885,0,0
0:3:54.625,450.494,57.3575,0,0.000885,0,0
0:3:55.227,452.255,57.585,0,0.000885,0,0
0:3:55.830,453.252,57.7091,0,0.000885,0,0
0:3:56.420,454.07,57.8125,0,0.000885,0,0
0:3:57.020,456.419,58.1159,0,0.000885,0,0
0:3:57.624,457.121,58.2055,0,0.000885,0,0
0:3:58.226,458.354,58.3572,0,0.000885,0,0
0:3:58.827,459.644,58.5227,0,0.000885,0,0
0:3:59.428,460.346,58.6123,0,0.000885,0,0
0:4:0.029,462.108,58.8399,0,0.000885,0,0
0:4:0.629,463.282,58.9846,0,0.000885,0,0
0:4:1.232,464.452,59.1363,0,0.000885,0,0
0:4:1.826,464.924,59.1984,0,0.000885,0,0
0:4:2.418,466.739,59.4259,0,0.000885,0,0
0:4:3.020,467.326,59.5018,0,0.000885,0,0
0:4:3.620,468.149,59.6052,0,0.000885,0,0
0:4:4.226,470.141,59.8603,0,0.000885,0,0
0:4:4.831,471.431,60.0258,0,0.000885,0,0
0:4:5.423,472.312,60.1361,0,0.000885,0,0
0:4:6.028,473.602,60.3015,0,0.000885,0,0
0:4:6.628,475.012,60.4808,0,0.000885,0,0
0:4:7.228,475.306,60.5153,0,0.000885,0,0
0:4:7.829,477.414,60.7842,0,0.000885,0,0
0:4:8.431,477.472,60.7911,0,0.000885,0,0
0:4:9.033,478.998,60.991,0,0.000885,0,0
0:4:9.627,480.346,61.1565,0,0.000885,0,0
0:4:10.229,480.875,61.2254,0,0.000885,0,0
0:4:10.828,483.397,61.5495,0,0.000885,0,0
0:4:11.430,484.22,61.6529,0,0.000885,0,0
0:4:12.032,485.096,61.7632,0,0.000885,0,0
0:4:12.627,486.916,61.9977,0,0.000885,0,0
0:4:13.230,487.739,62.1011,0,0.000885,0,0
0:4:13.831,489.38,62.3079,0,0.000885,0,0
0:4:14.427,489.496,62.3217,0,0.000885,0,0
0:4:15.028,491.257,62.5492,0,0.000885,0,0
0:4:15.631,491.786,62.6182,0,0.000885,0,0
0:4:16.233,493.486,62.8319,0,0.000885,0,0
0:4:16.825,494.131,62.9147,0,0.000885,0,0
0:4:17.427,495.95,63.1491,0,0.000885,0,0
0:4:18.035,496.653,63.2387,0,0.000885,0,0
0:4:18.639,498.179,63.4318,0,0.000885,0,0
0:4:19.239,499.117,63.549,0,0.000885,0,0
0:4:19.833,500.638,63.742,0,0.000885,0,0
0:4:20.423,501.288,63.8248,0,0.000885,0,0
0:4:21.025,502.871,64.0247,0,0.000885,0,0
0:4:21.627,504.335,64.2109,0,0.000885,0,0
0:4:22.228,504.806,64.2729,0,0.000885,0,0
0:4:22.832,506.799,64.528,0,0.000885,0,0
0:4:23.433,507.444,64.6108,0,0.000885,0,0
0:4:24.034,509.206,64.8314,0,0.000885,0,0
0:4:24.632,509.673,64.8935,0,0.000885,0,0
0:4:25.233,511.55,65.1348,0,0.000885,0,0
0:4:25.826,512.546,65.2589,0,0.000885,0,0
0:4:26.429,513.836,65.4244,0,0.000885,0,0
0:4:27.030,514.891,65.5554,0,0.000885,0,0
0:4:27.634,516.123,65.7139,0,0.000885,0,0
0:4:28.239,516.474,65.7622,0,0.000885,0,0
0:4:28.839,518.471,66.0104,0,0.000885,0,0
0:4:29.432,519.41,66.1345,0,0.000885,0,0
0:4:30.026,520.936,66.3276,0,0.000885,0,0
0:4:30.629,521.167,66.3551,0,0.000885,0,0
0:4:31.231,522.751,66.562,0,0.000885,0,0
0:4:31.831,523.925,66.7068,0,0.000885,0,0
0:4:32.432,525.918,66.9619,0,0.000885,0,0
0:4:33.033,526.563,67.0446,0,0.000885,0,0
0:4:33.634,527.15,67.1205,0,0.000885,0,0
0:4:34.234,528.911,67.3411,0,0.000885,0,0
0:4:34.828,529.672,67.4376,0,0.000885,0,0
0:4:35.428,531.727,67.6996,0,0.000885,0,0
0:4:36.029,532.723,67.8306,0,0.000885,0,0
0:4:36.632,534.307,68.0306,0,0.000885,0,0
0:4:37.235,534.013,67.9892,0,0.000885,0,0
0:4:37.829,535.891,68.2305,0,0.000885,0,0
0:4:38.433,536.478,68.3064,0,0.000885,0,0
0:4:39.033,538.413,68.5546,0,0.000885,0,0
0:4:39.627,538.938,68.6166,0,0.000885,0,0
0:4:40.229,540.17,68.7752,0,0.000885,0,0
0:4:40.831,542.105,69.0234,0,0.000885,0,0
0:4:41.435,542.634,69.0924,0,0.000885,0,0
0:4:42.028,544.102,69.2785,0,0.000885,0,0
0:4:42.631,544.978,69.3888,0,0.000885,0,0
0:4:43.238,546.682,69.6026,0,0.000885,0,0
0:4:43.836,547.033,69.6508,0,0.000885,0,0
0:4:44.430,548.559,69.8439,0,0.000885,0,0
0:4:45.035,550.61,70.1059,0,0.000885,0,0
0:4:45.637,551.255,70.1886,0,0.000885,0,0
0:4:46.229,552.607,70.361,0,0.000885,0,0
0:4:46.828,553.074,70.4162,0,0.000885,0,0
0:4:47.431,554.364,70.5816,0,0.000885,0,0
0:4:48.035,556.241,70.8229,0,0.000885,0,0
0:4:48.638,557.358,70.9677,0,0.000885,0,0
0:4:49.238,558.821,71.1539,0,0.000885,0,0
0:4:49.828,559.173,71.1953,0,0.000885,0,0
0:4:50.429,561.05,71.4366,0,0.000885,0,0
0:4:51.038,561.753,71.5262,0,0.000885,0,0
0:4:51.632,562.518,71.6227,0,0.000885,0,0
0:4:52.234,563.923,71.802,0,0.000885,0,0
0:4:52.838,565.449,71.9951,0,0.000885,0,0
0:4:53.443,566.21,72.0916,0,0.000885,0,0
0:4:54.042,567.562,72.264,0,0.000885,0,0
0:4:54.635,569.146,72.4639,0,0.000885,0,0
0:4:55.238,570.084,72.588,0,0.000885,0,0
0:4:55.830,570.845,72.6845,0,0.000885,0,0
0:4:56.433,572.193,72.8569,0,0.000885,0,0
0:4:57.034,573.483,73.0155,0,0.000885,0,0
0:4:57.630,574.95,73.2016,0,0.000885,0,0
0:4:58.234,576.067,73.3464,0,0.000885,0,0
0:4:58.834,577.651,73.5464,0,0.000885,0,0
0:4:59.426,578.233,73.6222,0,0.000885,0,0
0:5:0.032,578.998,73.7187,0,0.000885,0,0
0:5:0.632,580.173,73.8704,0,0.000885,0,0
0:5:1.232,581.4,74.029,0,0.000885,0,0
0:5:1.833,583.398,74.2772,0,0.000885,0,0
0:5:2.425,584.63,74.4358,0,0.000885,0,0
0:5:3.031,585.506,74.5461,0,0.000885,0,0
0:5:3.633,586.796,74.7116,0,0.000885,0,0
0:5:4.232,587.21,74.7667,0,0.000885,0,0
0:5:4.835,588.851,74.9736,0,0.000885,0,0
0:5:5.431,590.439,75.1735,0,0.000885,0,0
0:5:6.036,591.084,75.2563,0,0.000885,0,0
0:5:6.633,591.493,75.3114,0,0.000885,0,0
0:5:7.240,594.02,75.6355,0,0.000885,0,0
0:5:7.836,594.781,75.732,0,0.000885,0,0
0:5:8.444,595.546,75.8285,0,0.000885,0,0
0:5:9.045,596.72,75.9733,0,0.000885,0,0
0:5:9.643,598.477,76.2009,0,0.000885,0,0
0:5:10.238,599.829,76.3732,0,0.000885,0,0
0:5:10.834,600.888,76.5042,0,0.000885,0,0
0:5:11.436,601.297,76.5594,0,0.000885,0,0
0:5:12.031,603.001,76.7731,0,0.000885,0,0
0:5:12.636,604.527,76.9731,0,0.000885,0,0
0:5:13.241,605.287,77.0696,0,0.000885,0,0
0:5:13.845,606.288,77.1937,0,0.000885,0,0
0:5:14.448,607.52,77.3523,0,0.000885,0,0
0:5:15.043,609.046,77.5453,0,0.000885,0,0
0:5:15.633,609.985,77.6625,0,0.000885,0,0
0:5:16.238,611.159,77.8142,0,0.000885,0,0
0:5:16.834,613.156,78.0693,0,0.000885,0,0
0:5:17.443,613.975,78.1728,0,0.000885,0,0
0:5:18.050,614.504,78.2417,0,0.000885,0,0
0:5:18.653,615.327,78.3451,0,0.000885,0,0
0:5:19.251,617.733,78.6554,0,0.000885,0,0
0:5:19.844,618.143,78.7037,0,0.000885,0,0
0:5:20.441,619.081,78.8209,0,0.000885,0,0
0:5:21.036,620.376,78.9863,0,0.000885,0,0
0:5:21.633,621.901,79.1794,0,0.000885,0,0
0:5:22.238,623.369,79.3724,0,0.000885,0,0
0:5:22.836,624.544,79.5172,0,0.000885,0,0
0:5:23.442,625.189,79.6,0,0.000885,0,0
0:5:24.045,626.479,79.7654,0,0.000885,0,0
0:5:24.644,627.417,79.8827,0,0.000885,0,0
0:5:25.240,628.414,80.0137,0,0.000885,0,0
0:5:25.833,630.353,80.2619,0,0.000885,0,0
0:5:26.435,630.94,80.3308,0,0.000885,0,0
0:5:27.040,632.057,80.4756,0,0.000885,0,0
0:5:27.638,633.64,80.6756,0,0.000885,0,0
0:5:28.245,634.872,80.8341,0,0.000885,0,0
0:5:28.848,636.518,81.041,0,0.000885,0,0
0:5:29.448,637.572,81.1789,0,0.000885,0,0
0:5:30.041,638.453,81.2892,0,0.000885,0,0
0:5:30.635,639.392,81.4133,0,0.000885,0,0
0:5:31.233,640.682,81.5719,0,0.000885,0,0
0:5:31.841,642.328,81.7856,0,0.000885,0,0
0:5:32.433,643.208,81.8959,0,0.000885,0,0
0:5:33.041,644.85,82.1028,0,0.000885,0,0
0:5:33.649,645.557,82.1924,0,0.000885,0,0
0:5:34.251,647.319,82.4199,0,0.000885,0,0
0:5:34.848,648.137,82.5233,0,0.000885,0,0
0:5:35.445,649.489,82.6957,0,0.000885,0,0
0:5:36.039,650.076,82.7716,0,0.000885,0,0
0:5:36.641,651.131,82.9026,0,0.000885,0,0
0:5:37.239,652.011,83.0198,0,0.000885,0,0
0:5:37.845,653.422,83.199,0,0.000885,0,0
0:5:38.448,654.654,83.3507,0,0.000885,0,0
0:5:39.049,656.415,83.5782,0,0.000885,0,0
0:5:39.645,657.412,83.7024,0,0.000885,0,0
0:5:40.239,658.937,83.8954,0,0.000885,0,0
0:5:40.836,659.938,84.0264,0,0.000885,0,0
0:5:41.431,660.992,84.1574,0,0.000885,0,0
0:5:42.027,662.402,84.3367,0,0.000885,0,0
0:5:42.634,662.932,84.4056,0,0.000885,0,0
0:5:43.241,663.928,84.5366,0,0.000885,0,0
0:5:43.844,665.512,84.7366,0,0.000885,0,0
0:5:44.442,666.219,84.8262,0,0.000885,0,0
0:5:45.040,667.451,84.9848,0,0.000885,0,0
0:5:45.642,668.741,85.1503,0,0.000885,0,0
0:5:46.236,670.151,85.3295,0,0.000885,0,0
0:5:46.842,670.974,85.4329,0,0.000885,0,0
0:5:47.438,671.971,85.557,0,0.000885,0,0
0:5:48.044,673.381,85.7363,0,0.000885,0,0
0:5:48.649,674.849,85.9225,0,0.000885,0,0
0:5:49.249,676.374,86.1155,0,0.000885,0,0
0:5:49.841,677.664,86.281,0,0.000885,0,0
0:5:50.437,677.429,86.2534,0,0.000885,0,0
0:5:51.045,679.893,86.5637,0,0.000885,0,0
0:5:51.641,681.423,86.7636,0,0.000885,0,0
0:5:52.245,682.419,86.8877,0,0.000885,0,0
0:5:52.844,683.242,86.9912,0,0.000885,0,0
0:5:53.449,684.181,87.1153,0,0.000885,0,0
0:5:54.051,685.649,87.3014,0,0.000885,0,0
0:5:54.649,686.116,87.3566,0,0.000885,0,0
0:5:55.245,687.642,87.5565,0,0.000885,0,0
0:5:55.840,689.167,87.7496,0,0.000885,0,0
0:5:56.444,690.52,87.9219,0,0.000885,0,0
0:5:57.046,691.049,87.984,0,0.000885,0,0
0:5:57.643,692.748,88.2046,0,0.000885,0,0
0:5:58.249,693.749,88.3287,0,0.000885,0,0
0:5:58.852,695.39,88.5425,0,0.000885,0,0
0:5:59.453,695.978,88.6114,0,0.000885,0,0
0:6:0.048,697.33,88.7838,0,0.000885,0,0
0:6:0.643,699.207,89.0251,0,0.000885,0,0
0:6:1.237,699.91,89.1147,0,0.000885,0,0
0:6:1.846,700.439,89.1837,0,0.000885,0,0
0:6:2.442,702.201,89.4043,0,0.000885,0,0
0:6:3.048,703.611,89.5836,0,0.000885,0,0
0:6:3.652,704.314,89.6732,0,0.000885,0,0
0:6:4.249,705.194,89.7904,0,0.000885,0,0
0:6:4.845,706.778,89.9904,0,0.000885,0,0
0:6:5.444,708.482,90.2041,0,0.000885,0,0
0:6:6.039,709.772,90.3696,0,0.000885,0,0
0:6:6.643,710.772,90.5006,0,0.000885,0,0
0:6:7.245,711.124,90.542,0,0.000885,0,0
0:6:7.846,712.178,90.6798,0,0.000885,0,0
0:6:8.452,713.53,90.8522,0,0.000885,0,0
0:6:9.055,714.762,91.0039,0,0.000885,0,0
0:6:9.653,716.173,91.1832,0,0.000885,0,0
0:6:10.250,717.992,91.4176,0,0.000885,0,0
0:6:10.843,718.637,91.5003,0,0.000885,0,0
0:6:11.446,720.163,91.6934,0,0.000885,0,0
0:6:12.041,720.928,91.7899,0,0.000885,0,0
0:6:12.638,721.688,91.8864,0,0.000885,0,0
0:6:13.245,723.628,92.1346,0,0.000885,0,0
0:6:13.847,724.273,92.2174,0,0.000885,0,0
0:6:14.447,725.033,92.3139,0,0.000885,0,0
0:6:15.041,726.795,92.5414,0,0.000885,0,0
0:6:15.638,727.324,92.6035,0,0.000885,0,0
0:6:16.244,729.967,92.9413,0,0.000885,0,0
0:6:16.841,730.024,92.9482,0,0.000885,0,0
0:6:17.446,730.963,93.0723,0,0.000885,0,0
0:6:18.051,732.609,93.2792,0,0.000885,0,0
0:6:18.655,733.841,93.4378,0,0.000885,0,0
0:6:19.252,735.189,93.6101,0,0.000885,0,0
0:6:19.850,735.896,93.6998,0,0.000885,0,0
0:6:20.446,737.595,93.9135,0,0.000885,0,0
0:6:21.042,738.476,94.0238,0,0.000885,0,0
0:6:21.645,739.357,94.141,0,0.000885,0,0
0:6:22.239,740.825,94.3272,0,0.000885,0,0
0:6:22.845,741.883,94.4582,0,0.000885,0,0
0:6:23.450,742.822,94.5823,0,0.000885,0,0
0:6:24.056,744.699,94.8167,0,0.000885,0,0
0:6:24.652,745.931,94.9753,0,0.000885,0,0
0:6:25.246,746.576,95.058,0,0.000885,0,0
0:6:25.839,748.044,95.2442,0,0.000885,0,0
0:6:26.434,748.747,95.3338,0,0.000885,0,0
0:6:27.030,750.099,95.5062,0,0.000885,0,0
0:6:27.639,751.216,95.651,0,0.000885,0,0
0:6:28.246,753.151,95.8923,0,0.000885,0,0
0:6:28.848,753.858,95.9819,0,0.000885,0,0
0:6:29.447,755.264,96.1612,0,0.000885,0,0
0:6:30.042,755.851,96.237,0,0.000885,0,0
0:6:30.650,756.967,96.3818,0,0.000885,0,0
0:6:31.245,759.022,96.6438,0,0.000885,0,0
0:6:31.835,759.725,96.7334,0,0.000885,0,0
0:6:32.444,761.78,96.9954,0,0.000885,0,0
0:6:33.050,762.252,97.0506,0,0.000885,0,0
0:6:33.653,763.893,97.2643,0,0.000885,0,0
0:6:34.254,764.129,97.2919,0,0.000885,0,0
0:6:34.849,765.655,97.485,0,0.000885,0,0
0:6:35.443,766.535,97.5953,0,0.000885,0,0
0:6:36.048,767.71,97.747,0,0.000885,0,0
0:6:36.646,769.529,97.9814,0,0.000885,0,0
0:6:37.252,770.29,98.0779,0,0.000885,0,0
0:6:37.850,771.406,98.2158,0,0.000885,0,0
0:6:38.456,772.171,98.3123,0,0.000885,0,0
0:6:39.060,774.578,98.6226,0,0.000885,0,0
0:6:39.657,775.338,98.7191,0,0.000885,0,0
0:6:40.253,775.926,98.795,0,0.000885,0,0
0:6:40.850,777.22,98.9605,0,0.000885,0,0
0:6:41.446,778.452,99.1121,0,0.000885,0,0
0:6:42.040,779.626,99.2638,0,0.000885,0,0
0:6:42.641,780.974,99.4362,0,0.000885,0,0
0:6:43.247,782.091,99.581,0,0.000885,0,0
0:6:43.850,783.207,99.7189,0,0.000885,0,0
0:6:44.447,784.319,99.8637,0,0.000885,0,0
0:6:45.043,785.672,100.036,0,0.000885,0,0
0:6:45.646,786.552,100.146,0,0.000885,0,0
0:6:46.241,788.078,100.339,0,0.000885,0,0
0:6:46.846,789.074,100.47,0,0.000885,0,0
0:6:47.444,790.133,100.601,0,0.000885,0,0
0:6:48.051,791.539,100.781,0,0.000885,0,0
0:6:48.654,792.713,100.932,0,0.000885,0,0
0:6:49.253,793.945,101.091,0,0.000885,0,0
0:6:49.849,795.298,101.263,0,0.000885,0,0
0:6:50.447,796.294,101.387,0,0.000885,0,0
0:6:51.043,797.059,101.484,0,0.000885,0,0
0:6:51.650,799.114,101.746,0,0.000885,0,0
0:6:52.243,799.701,101.822,0,0.000885,0,0
0:6:52.844,800.813,101.96,0,0.000885,0,0
0:6:53.451,802.401,102.167,0,0.000885,0,0
0:6:54.054,802.989,102.242,0,0.000885,0,0
0:6:54.651,804.514,102.435,0,0.000885,0,0
0:6:55.245,805.689,102.58,0,0.000885,0,0
0:6:55.849,807.094,102.759,0,0.000885,0,0
0:6:56.443,807.744,102.842,0,0.000885,0,0
0:6:57.048,809.501,103.07,0,0.000885,0,0
0:6:57.645,810.15,103.152,0,0.000885,0,0
0:6:58.251,811.676,103.346,0,0.000885,0,0
0:6:58.857,812.263,103.421,0,0.000885,0,0
0:6:59.457,813.789,103.614,0,0.000885,0,0
0:7:0.052,815.372,103.814,0,0.000885,0,0
0:7:0.646,816.489,103.959,0,0.000885,0,0
0:7:1.246,817.957,104.145,0,0.000885,0,0
0:7:1.842,818.424,104.207,0,0.000885,0,0
0:7:2.447,819.483,104.338,0,0.000885,0,0
0:7:3.055,821.124,104.552,0,0.000885,0,0
0:7:3.658,822.356,104.704,0,0.000885,0,0
0:7:4.255,823.882,104.897,0,0.000885,0,0
0:7:4.851,824.647,105,0,0.000885,0,0
0:7:5.449,825.528,105.111,0,0.000885,0,0
0:7:6.044,826.586,105.242,0,0.000885,0,0
0:7:6.649,827.992,105.421,0,0.000885,0,0
0:7:7.250,829.051,105.559,0,0.000885,0,0
0:7:7.856,830.456,105.738,0,0.000885,0,0
0:7:8.460,831.573,105.876,0,0.000885,0,0
0:7:9.065,832.747,106.028,0,0.000885,0,0
0:7:9.662,834.624,106.269,0,0.000885,0,0
0:7:10.253,834.98,106.31,0,0.000885,0,0
0:7:10.848,836.328,106.483,0,0.000885,0,0
0:7:11.444,837.444,106.627,0,0.000885,0,0
0:7:12.039,838.561,106.765,0,0.000885,0,0
0:7:12.648,840.024,106.958,0,0.000885,0,0
0:7:13.255,841.199,107.103,0,0.000885,0,0
0:7:13.859,842.373,107.255,0,0.000885,0,0
0:7:14.456,843.49,107.4,0,0.000885,0,0
0:7:15.053,844.312,107.503,0,0.000885,0,0
0:7:15.649,845.602,107.669,0,0.000885,0,0
0:7:16.247,846.661,107.8,0,0.000885,0,0
0:7:16.852,848.418,108.027,0,0.000885,0,0
0:7:17.446,849.241,108.13,0,0.000885,0,0
0:7:18.047,850.825,108.33,0,0.000885,0,0
0:7:18.652,851.648,108.434,0,0.000885,0,0
0:7:19.256,853.236,108.634,0,0.000885,0,0
0:7:19.853,853.996,108.737,0,0.000885,0,0
0:7:20.450,854.993,108.861,0,0.000885,0,0
0:7:21.040,856.461,109.047,0,0.000885,0,0
0:7:21.645,857.693,109.206,0,0.000885,0,0
0:7:22.240,858.694,109.33,0,0.000885,0,0
0:7:22.850,859.574,109.447,0,0.000885,0,0
0:7:23.453,861.336,109.668,0,0.000885,0,0
0:7:24.056,862.154,109.771,0,0.000885,0,0
0:7:24.651,863.155,109.902,0,0.000885,0,0
0:7:25.244,864.445,110.068,0,0.000885,0,0
0:7:25.849,865.384,110.185,0,0.000885,0,0
0:7:26.445,866.852,110.371,0,0.000885,0,0
0:7:27.040,868.262,110.551,0,0.000885,0,0
0:7:27.647,869.436,110.702,0,0.000885,0,0
0:7:28.255,870.375,110.819,0,0.000885,0,0
0:7:28.859,871.722,110.992,0,0.000885,0,0
0:7:29.456,872.839,111.137,0,0.000885,0,0
0:7:30.055,873.604,111.233,0,0.000885,0,0
0:7:30.651,875.303,111.447,0,0.000885,0,0
0:7:31.256,876.304,111.571,0,0.000885,0,0
0:7:31.850,877.772,111.764,0,0.000885,0,0
0:7:32.441,878.533,111.861,0,0.000885,0,0
0:7:33.046,880.058,112.054,0,0.000885,0,0
0:7:33.651,881.117,112.185,0,0.000885,0,0
0:7:34.255,882.643,112.385,0,0.000885,0,0
0:7:34.850,883.581,112.502,0,0.000885,0,0
0:7:35.446,884.52,112.619,0,0.000885,0,0
0:7:36.038,885.694,112.771,0,0.000885,0,0
0:7:36.641,886.633,112.888,0,0.000885,0,0
0:7:37.250,888.101,113.074,0,0.000885,0,0
0:7:37.858,889.391,113.239,0,0.000885,0,0
0:7:38.462,891.21,113.474,0,0.000885,0,0
0:7:39.062,891.682,113.529,0,0.000885,0,0
0:7:39.656,892.914,113.688,0,0.000885,0,0
0:7:40.252,893.972,113.826,0,0.000885,0,0
0:7:40.849,894.324,113.867,0,0.000885,0,0
0:7:41.454,896.085,114.094,0,0.000885,0,0
0:7:42.051,897.375,114.26,0,0.000885,0,0
0:7:42.648,898.665,114.418,0,0.000885,0,0
0:7:43.254,900.311,114.632,0,0.000885,0,0
0:7:43.858,901.25,114.749,0,0.000885,0,0
0:7:44.455,902.366,114.894,0,0.000885,0,0
0:7:45.054,903.714,115.067,0,0.000885,0,0
0:7:45.650,904.831,115.204,0,0.000885,0,0
0:7:46.243,905.769,115.329,0,0.000885,0,0
0:7:46.849,906.766,115.453,0,0.000885,0,0
0:7:47.452,908.176,115.632,0,0.000885,0,0
0:7:48.058,909.528,115.804,0,0.000885,0,0
0:7:48.663,910.409,115.915,0,0.000885,0,0
0:7:49.267,911.463,116.053,0,0.000885,0,0
0:7:49.861,912.989,116.246,0,0.000885,0,0
0:7:50.455,914.279,116.411,0,0.000885,0,0
0:7:51.050,915.222,116.528,0,0.000885,0,0
0:7:51.644,916.805,116.728,0,0.000885,0,0
0:7:52.242,918.153,116.901,0,0.000885,0,0
0:7:52.849,918.918,116.997,0,0.000885,0,0
0:7:53.455,919.914,117.128,0,0.000885,0,0
0:7:54.059,921.031,117.266,0,0.000885,0,0
0:7:54.655,921.734,117.356,0,0.000885,0,0
0:7:55.252,923.144,117.542,0,0.000885,0,0
0:7:55.849,924.203,117.673,0,0.000885,0,0
0:7:56.455,925.844,117.88,0,0.000885,0,0
0:7:57.049,926.96,118.024,0,0.000885,0,0
0:7:57.645,928.486,118.218,0,0.000885,0,0
0:7:58.253,929.425,118.335,0,0.000885,0,0
0:7:58.857,930.777,118.507,0,0.000885,0,0
0:7:59.455,932.009,118.666,0,0.000885,0,0
0:8:0.050,932.828,118.769,0,0.000885,0,0
0:8:0.643,934.238,118.948,0,0.000885,0,0
0:8:1.257,934.883,119.031,0,0.000885,0,0
0:8:1.853,936.644,119.259,0,0.000885,0,0
0:8:2.446,937.645,119.383,0,0.000885,0,0
0:8:3.054,938.877,119.541,0,0.000885,0,0
0:8:3.660,940.225,119.714,0,0.000885,0,0
0:8:4.259,940.87,119.796,0,0.000885,0,0
0:8:4.855,942.458,119.996,0,0.000885,0,0
0:8:5.452,943.161,120.086,0,0.000885,0,0
0:8:6.059,944.98,120.32,0,0.000885,0,0
0:8:6.655,945.861,120.431,0,0.000885,0,0
0:8:7.246,947.151,120.596,0,0.000885,0,0
0:8:7.859,948.267,120.734,0,0.000885,0,0
0:8:8.464,949.735,120.927,0,0.000885,0,0
0:8:9.069,950.616,121.037,0,0.000885,0,0
0:8:9.669,951.261,121.12,0,0.000885,0,0
0:8:10.264,953.258,121.375,0,0.000885,0,0
0:8:10.856,953.961,121.465,0,0.000885,0,0
0:8:11.451,955.607,121.672,0,0.000885,0,0
0:8:12.056,956.546,121.789,0,0.000885,0,0
0:8:12.653,957.6,121.927,0,0.000885,0,0
0:8:13.261,959.068,122.113,0,0.000885,0,0
0:8:13.864,959.597,122.182,0,0.000885,0,0
0:8:14.463,961.474,122.416,0,0.000885,0,0
0:8:15.058,961.946,122.478,0,0.000885,0,0
0:8:15.656,964.001,122.74,0,0.000885,0,0
0:8:16.251,964.294,122.775,0,0.000885,0,0
0:8:16.844,965.584,122.94,0,0.000885,0,0
0:8:17.446,967.462,123.182,0,0.000885,0,0
0:8:18.053,968.164,123.271,0,0.000885,0,0
0:8:18.657,969.281,123.416,0,0.000885,0,0
0:8:19.261,970.513,123.568,0,0.000885,0,0
0:8:19.857,972.039,123.761,0,0.000885,0,0
0:8:20.451,973.04,123.892,0,0.000885,0,0
0:8:21.054,973.978,124.009,0,0.000885,0,0
0:8:21.647,975.268,124.175,0,0.000885,0,0
0:8:22.244,975.855,124.25,0,0.000885,0,0
0:8:22.853,977.617,124.471,0,0.000885,0,0
0:8:23.456,979.027,124.65,0,0.000885,0,0
0:8:24.058,980.143,124.795,0,0.000885,0,0
0:8:24.652,981.14,124.919,0,0.000885,0,0
0:8:25.255,982.372,125.078,0,0.000885,0,0
0:8:25.851,983.075,125.167,0,0.000885,0,0
0:8:26.457,984.956,125.409,0,0.000885,0,0
0:8:27.054,986.776,125.643,0,0.000885,0,0
0:8:27.648,987.243,125.698,0,0.000885,0,0
0:8:28.256,988.066,125.802,0,0.000885,0,0
0:8:28.860,989.476,125.981,0,0.000885,0,0
0:8:29.457,990.414,126.105,0,0.000885,0,0
0:8:30.052,991.998,126.305,0,0.000885,0,0
0:8:30.659,993.057,126.443,0,0.000885,0,0
0:8:31.254,994.169,126.581,0,0.000885,0,0
0:8:31.846,995.285,126.726,0,0.000885,0,0
0:8:32.452,996.695,126.905,0,0.000885,0,0
0:8:33.059,997.518,127.008,0,0.000885,0,0
0:8:33.664,999.16,127.215,0,0.000885,0,0
0:8:34.268,999.925,127.312,0,0.000885,0,0
0:8:34.864,1000.98,127.45,0,0.000885,0,0
0:8:35.456,1002.27,127.615,0,0.000885,0,0
0:8:36.062,1003.91,127.822,0,0.000885,0,0
0:8:36.657,1004.85,127.939,0,0.000885,0,0
0:8:37.255,1005.91,128.077,0,0.000885,0,0
0:8:37.848,1006.97,128.208,0,0.000885,0,0
0:8:38.458,1008.38,128.387,0,0.000885,0,0
0:8:39.061,1009.26,128.504,0,0.000885,0,0
0:8:39.657,1010.78,128.698,0,0.000885,0,0
0:8:40.254,1011.9,128.835,0,0.000885,0,0
0:8:40.848,1012.66,128.939,0,0.000885,0,0
0:8:41.457,1014.01,129.111,0,0.000885,0,0
0:8:42.050,1015.19,129.256,0,0.000885,0,0
0:8:42.649,1016.65,129.442,0,0.000885,0,0
0:8:43.257,1017.71,129.58,0,0.000885,0,0
0:8:43.859,1018.71,129.704,0,0.000885,0,0
0:8:44.457,1020.41,129.925,0,0.000885,0,0
0:8:45.053,1021.41,130.049,0,0.000885,0,0
0:8:45.657,1022.87,130.235,0,0.000885,0,0
0:8:46.247,1023.34,130.297,0,0.000885,0,0
0:8:46.843,1024.46,130.435,0,0.000885,0,0
0:8:47.440,1025.99,130.635,0,0.000885,0,0
0:8:48.047,1027.22,130.787,0,0.000885,0,0
0:8:48.649,1028.45,130.945,0,0.000885,0,0
0:8:49.250,1029.51,131.083,0,0.000885,0,0
0:8:49.857,1031.09,131.283,0,0.000885,0,0
0:8:50.446,1031.91,131.386,0,0.000885,0,0
0:8:51.042,1033.26,131.559,0,0.000885,0,0
0:8:51.649,1033.91,131.642,0,0.000885,0,0
0:8:52.246,1034.97,131.773,0,0.000885,0,0
0:8:52.850,1036.61,131.986,0,0.000885,0,0
0:8:53.458,1037.84,132.145,0,0.000885,0,0
0:8:54.061,1039.02,132.29,0,0.000885,0,0
0:8:54.658,1040.43,132.469,0,0.000885,0,0
0:8:55.256,1041.07,132.552,0,0.000885,0,0
0:8:55.861,1042.36,132.717,0,0.000885,0,0
0:8:56.455,1043.3,132.834,0,0.000885,0,0
0:8:57.047,1044.42,132.979,0,0.000885,0,0
0:8:57.650,1045.83,133.158,0,0.000885,0,0
0:8:58.256,1047.24,133.338,0,0.000885,0,0
0:8:58.859,1048.47,133.496,0,0.000885,0,0
0:8:59.457,1049.7,133.655,0,0.000885,0,0
0:9:0.048,1050.64,133.772,0,0.000885,0,0
0:9:0.651,1051.64,133.896,0,0.000885,0,0
0:9:1.245,1053.52,134.138,0,0.000885,0,0
0:9:1.842,1053.93,134.193,0,0.000885,0,0
0:9:2.448,1055.57,134.4,0,0.000885,0,0
0:9:3.057,1056.92,134.572,0,0.000885,0,0
0:9:3.659,1057.68,134.668,0,0.000885,0,0
0:9:4.255,1058.62,134.786,0,0.000885,0,0
0:9:4.850,1059.62,134.917,0,0.000885,0,0
0:9:5.459,1061.2,135.117,0,0.000885,0,0
0:9:6.056,1062.14,135.234,0,0.000885,0,0
0:9:6.648,1063.97,135.468,0,0.000885,0,0
0:9:7.251,1065.08,135.613,0,0.000885,0,0
0:9:7.856,1066.25,135.758,0,0.000885,0,0
0:9:8.461,1067.31,135.896,0,0.000885,0,0
0:9:9.066,1068.42,136.034,0,0.000885,0,0
0:9:9.662,1069.78,136.206,0,0.000885,0,0
0:9:10.255,1070.36,136.282,0,0.000885,0,0
0:9:10.848,1071.95,136.482,0,0.000885,0,0
0:9:11.445,1072.95,136.613,0,0.000885,0,0
0:9:12.051,1074.7,136.833,0,0.000885,0,0
0:9:12.646,1075.23,136.902,0,0.000885,0,0
0:9:13.253,1076.64,137.082,0,0.000885,0,0
0:9:13.858,1077.4,137.178,0,0.000885,0,0
0:9:14.456,1079.11,137.399,0,0.000885,0,0
0:9:15.050,1080.4,137.557,0,0.000885,0,0
0:9:15.647,1081.34,137.681,0,0.000885,0,0
0:9:16.244,1082.92,137.881,0,0.000885,0,0
0:9:16.858,1083.51,137.957,0,0.000885,0,0
0:9:17.450,1085.04,138.15,0,0.000885,0,0
0:9:18.058,1085.86,138.254,0,0.000885,0,0
0:9:18.662,1087.21,138.426,0,0.000885,0,0
0:9:19.264,1088.62,138.605,0,0.000885,0,0
0:9:19.858,1089.56,138.729,0,0.000885,0,0
0:9:20.461,1090.55,138.854,0,0.000885,0,0
0:9:21.052,1091.85,139.019,0,0.000885,0,0
0:9:21.650,1093.32,139.205,0,0.000885,0,0
0:9:22.246,1094.55,139.364,0,0.000885,0,0
0:9:22.853,1095.84,139.529,0,0.000885,0,0
0:9:23.461,1096.19,139.571,0,0.000885,0,0
0:9:24.063,1097.42,139.729,0,0.000885,0,0
0:9:24.661,1099.18,139.95,0,0.000885,0,0
0:9:25.257,1099.95,140.046,0,0.000885,0,0
0:9:25.850,1101.35,140.226,0,0.000885,0,0
0:9:26.454,1102.59,140.384,0,0.000885,0,0
0:9:27.059,1103.82,140.543,0,0.000885,0,0
0:9:27.653,1105.29,140.729,0,0.000885,0,0
0:9:28.260,1106.64,140.901,0,0.000885,0,0
0:9:28.863,1107.17,140.97,0,0.000885,0,0
0:9:29.466,1108.16,141.094,0,0.000885,0,0
0:9:30.061,1109.81,141.308,0,0.000885,0,0
0:9:30.663,1110.86,141.439,0,0.000885,0,0
0:9:31.260,1112.22,141.611,0,0.000885,0,0
0:9:31.855,1113.62,141.791,0,0.000885,0,0
0:9:32.451,1115.03,141.97,0,0.000885,0,0
0:9:33.059,1115.15,141.984,0,0.000885,0,0
0:9:33.661,1116.09,142.108,0,0.000885,0,0
0:9:34.259,1117.62,142.301,0,0.000885,0,0
0:9:34.854,1119.02,142.48,0,0.000885,0,0
0:9:35.451,1120.43,142.659,0,0.000885,0,0
0:9:36.055,1121.66,142.818,0,0.000885,0,0
0:9:36.661,1122.84,142.963,0,0.000885,0,0
0:9:37.251,1123.95,143.108,0,0.000885,0,0
0:9:37.853,1125.01,143.239,0,0.000885,0,0
0:9:38.461,1126.18,143.39,0,0.000885,0,0
0:9:39.065,1127.54,143.563,0,0.000885,0,0
0:9:39.668,1128.77,143.721,0,0.000885,0,0
0:9:40.263,1129.24,143.776,0,0.000885,0,0
0:9:40.855,1130.53,143.942,0,0.000885,0,0
0:9:41.459,1132.23,144.162,0,0.000885,0,0
0:9:42.064,1132.99,144.259,0,0.000885,0,0
0:9:42.660,1134.7,144.473,0,0.000885,0,0
0:9:43.265,1135.46,144.569,0,0.000885,0,0
0:9:43.870,1137.1,144.783,0,0.000885,0,0
0:9:44.470,1138.57,144.969,0,0.000885,0,0
0:9:45.064,1139.1,145.031,0,0.000885,0,0
0:9:45.656,1140.33,145.19,0,0.000885,0,0
0:9:46.254,1140.92,145.266,0,0.000885,0,0
0:9:46.849,1142.68,145.493,0,0.000885,0,0
0:9:47.456,1143.91,145.645,0,0.000885,0,0
0:9:48.066,1145.15,145.803,0,0.000885,0,0
0:9:48.667,1146.49,145.976,0,0.000885,0,0
0:9:49.265,1147.85,146.148,0,0.000885,0,0
0:9:49.860,1148.26,146.203,0,0.000885,0,0
0:9:50.467,1149.84,146.403,0,0.000885,0,0
0:9:51.060,1150.9,146.534,0,0.000885,0,0
0:9:51.651,1151.48,146.61,0,0.000885,0,0
0:9:52.254,1153.71,146.893,0,0.000885,0,0
0:9:52.861,1154.71,147.024,0,0.000885,0,0
0:9:53.465,1155.83,147.162,0,0.000885,0,0
0:9:54.070,1156.48,147.244,0,0.000885,0,0
0:9:54.665,1157.77,147.41,0,0.000885,0,0
0:9:55.267,1158.76,147.541,0,0.000885,0,0
0:9:55.861,1160.41,147.748,0,0.000885,0,0
0:9:56.463,1161.11,147.837,0,0.000885,0,0
0:9:57.060,1162.93,148.072,0,0.000885,0,0
0:9:57.654,1163.69,148.168,0,0.000885,0,0
0:9:58.262,1165.1,148.348,0,0.000885,0,0
0:9:58.866,1165.81,148.437,0,0.000885,0,0
0:9:59.462,1167.63,148.665,0,0.000885,0,0
0:10:0.067,1168.51,148.782,0,0.000885,0,0
0:10:0.664,1170.03,148.975,0,0.000885,0,0
0:10:1.270,1170.91,149.085,0,0.000885,0,0
0:10:1.866,1171.85,149.203,0,0.000885,0,0
0:10:2.468,1173.14,149.368,0,0.000885,0,0
0:10:3.070,1174.73,149.568,0,0.000885,0,0
0:10:3.677,1175.14,149.623,0,0.000885,0,0
0:10:4.280,1177.14,149.878,0,0.000885,0,0
0:10:4.877,1178.02,149.989,0,0.000885,0,0
0:10:5.474,1179.31,150.154,0,0.000885,0,0
0:10:6.065,1180.36,150.292,0,0.000885,0,0
0:10:6.661,1181.31,150.409,0,0.000885,0,0
0:10:7.256,1182.95,150.616,0,0.000885,0,0
0:10:7.862,1183.59,150.699,0,0.000885,0,0
0:10:8.466,1185.35,150.926,0,0.000885,0,0
0:10:9.069,1186.35,151.05,0,0.000885,0,0
0:10:9.665,1187.35,151.181,0,0.000885,0,0
0:10:10.257,1188.58,151.333,0,0.000885,0,0
0:10:10.853,1190.29,151.554,0,0.000885,0,0
0:10:11.458,1190.75,151.609,0,0.000885,0,0
0:10:12.056,1191.69,151.733,0,0.000885,0,0
0:10:12.652,1193.16,151.919,0,0.000885,0,0
0:10:13.259,1194.81,152.126,0,0.000885,0,0
0:10:13.864,1196.39,152.326,0,0.000885,0,0
0:10:14.462,1197.56,152.478,0,0.000885,0,0
0:10:15.067,1198.15,152.553,0,0.000885,0,0
0:10:15.662,1199.09,152.671,0,0.000885,0,0
0:10:16.268,1200.5,152.85,0,0.000885,0,0
0:10:16.871,1201.85,153.022,0,0.000885,0,0
0:10:17.463,1202.08,153.057,0,0.000885,0,0
0:10:18.068,1204.2,153.326,0,0.000885,0,0
0:10:18.672,1205.19,153.45,0,0.000885,0,0
0:10:19.276,1206.66,153.636,0,0.000885,0,0
0:10:19.872,1207.83,153.788,0,0.000885,0,0
0:10:20.466,1208.42,153.863,0,0.000885,0,0
0:10:21.058,1209.19,153.96,0,0.000885,0,0
0:10:21.652,1210.36,154.105,0,0.000885,0,0
0:10:22.260,1211.71,154.277,0,0.000885,0,0
0:10:22.869,1213.23,154.477,0,0.000885,0,0
0:10:23.471,1214.7,154.663,0,0.000885,0,0
0:10:24.069,1215.53,154.767,0,0.000885,0,0
0:10:24.660,1216.87,154.939,0,0.000885,0,0
0:10:25.266,1218.34,155.125,0,0.000885,0,0
0:10:25.860,1219.75,155.304,0,0.000885,0,0
0:10:26.457,1220.1,155.346,0,0.000885,0,0
0:10:27.053,1221.28,155.497,0,0.000885,0,0
0:10:27.651,1222.8,155.691,0,0.000885,0,0
0:10:28.257,1224.03,155.849,0,0.000885,0,0
0:10:28.859,1225.62,156.049,0,0.000885,0,0
0:10:29.454,1226.74,156.194,0,0.000885,0,0
0:10:30.052,1227.74,156.318,0,0.000885,0,0
0:10:30.658,1228.97,156.477,0,0.000885,0,0
0:10:31.251,1229.91,156.594,0,0.000885,0,0
0:10:31.855,1231.73,156.828,0,0.000885,0,0
0:10:32.457,1232.78,156.966,0,0.000885,0,0
0:10:33.065,1233.14,157.007,0,0.000885,0,0
0:10:33.671,1234.48,157.18,0,0.000885,0,0
0:10:34.274,1235.78,157.345,0,0.000885,0,0
0:10:34.869,1237.3,157.538,0,0.000885,0,0
0:10:35.461,1237.83,157.607,0,0.000885,0,0
0:10:36.054,1239.59,157.828,0,0.000885,0,0
0:10:36.650,1240.3,157.918,0,0.000885,0,0
0:10:37.249,1241.53,158.076,0,0.000885,0,0
0:10:37.844,1242.35,158.18,0,0.000885,0,0
0:10:38.451,1243.82,158.366,0,0.000885,0,0
0:10:39.054,1245.58,158.593,0,0.000885,0,0
0:10:39.651,1245.93,158.635,0,0.000885,0,0
0:10:40.248,1247.28,158.807,0,0.000885,0,0
0:10:40.845,1248.69,158.986,0,0.000885,0,0
0:10:41.452,1249.8,159.131,0,0.000885,0,0
0:10:42.054,1250.45,159.214,0,0.000885,0,0
0:10:42.655,1252.04,159.414,0,0.000885,0,0
0:10:43.263,1253.68,159.621,0,0.000885,0,0
0:10:43.868,1254.68,159.752,0,0.000885,0,0
0:10:44.462,1255.91,159.91,0,0.000885,0,0
0:10:45.069,1256.91,160.034,0,0.000885,0,0
0:10:45.662,1258.2,160.2,0,0.000885,0,0
0:10:46.265,1258.38,160.22,0,0.000885,0,0
0:10:46.866,1261.02,160.558,0,0.000885,0,0
0:10:47.471,1261.9,160.669,0,0.000885,0,0
0:10:48.077,1262.78,160.779,0,0.000885,0,0
0:10:48.679,1263.66,160.896,0,0.000885,0,0
0:10:49.277,1265.54,161.13,0,0.000885,0,0
0:10:49.874,1266.07,161.199,0,0.000885,0,0
0:10:50.470,1267.53,161.386,0,0.000885,0,0
0:10:51.068,1268.53,161.517,0,0.000885,0,0
0:10:51.661,1269.76,161.668,0,0.000885,0,0
0:10:52.266,1271.29,161.868,0,0.000885,0,0
0:10:52.868,1272,161.958,0,0.000885,0,0
0:10:53.475,1273.69,162.172,0,0.000885,0,0
0:10:54.079,1274.4,162.261,0,0.000885,0,0
0:10:54.677,1276.04,162.468,0,0.000885,0,0
0:10:55.273,1277.81,162.696,0,0.000885,0,0
0:10:55.863,1278.51,162.785,0,0.000885,0,0
0:10:56.460,1279.62,162.93,0,0.000885,0,0
0:10:57.053,1280.74,163.068,0,0.000885,0,0
0:10:57.652,1281.5,163.164,0,0.000885,0,0
0:10:58.259,1282.56,163.302,0,0.000885,0,0
0:10:58.862,1283.61,163.433,0,0.000885,0,0
0:10:59.460,1286.2,163.764,0,0.000885,0,0
0:11:0.055,1286.49,163.799,0,0.000885,0,0
0:11:0.654,1288.13,164.012,0,0.000885,0,0
0:11:1.259,1289.25,164.15,0,0.000885,0,0
0:11:1.863,1290.48,164.309,0,0.000885,0,0
0:11:2.468,1291.25,164.405,0,0.000885,0,0
0:11:3.072,1291.89,164.488,0,0.000885,0,0
0:11:3.679,1293.48,164.688,0,0.000885,0,0
0:11:4.282,1295.12,164.902,0,0.000885,0,0
0:11:4.877,1296.18,165.033,0,0.000885,0,0
0:11:5.470,1297.18,165.164,0,0.000885,0,0
0:11:6.063,1298.47,165.322,0,0.000885,0,0
0:11:6.661,1299.64,165.474,0,0.000885,0,0
0:11:7.267,1299.81,165.495,0,0.000885,0,0
0:11:7.874,1301.52,165.715,0,0.000885,0,0
0:11:8.481,1303.1,165.915,0,0.000885,0,0
0:11:9.083,1303.81,166.005,0,0.000885,0,0
0:11:9.680,1305.28,166.191,0,0.000885,0,0
0:11:10.276,1306.27,166.322,0,0.000885,0,0
0:11:10.873,1307.33,166.453,0,0.000885,0,0
0:11:11.469,1309.03,166.674,0,0.000885,0,0
0:11:12.063,1310.44,166.853,0,0.000885,0,0
0:11:12.672,1310.85,166.901,0,0.000885,0,0
0:11:13.278,1311.67,167.005,0,0.000885,0,0
0:11:13.881,1314.26,167.336,0,0.000885,0,0
0:11:14.477,1315.08,167.439,0,0.000885,0,0
0:11:15.071,1315.84,167.536,0,0.000885,0,0
0:11:15.666,1316.9,167.674,0,0.000885,0,0
0:11:16.260,1318.01,167.811,0,0.000885,0,0
0:11:16.873,1319.42,167.991,0,0.000885,0,0
0:11:17.470,1320.65,168.149,0,0.000885,0,0
0:11:18.077,1321.89,168.308,0,0.000885,0,0
0:11:18.681,1323.24,168.48,0,0.000885,0,0
0:11:19.282,1323.76,168.549,0,0.000885,0,0
0:11:19.876,1325,168.701,0,0.000885,0,0
0:11:20.471,1326.29,168.866,0,0.000885,0,0
0:11:21.063,1327.7,169.046,0,0.000885,0,0
0:11:21.660,1328.88,169.197,0,0.000885,0,0
0:11:22.257,1329.52,169.28,0,0.000885,0,0
0:11:22.853,1330.81,169.446,0,0.000885,0,0
0:11:23.461,1332.92,169.714,0,0.000885,0,0
0:11:24.065,1333.27,169.756,0,0.000885,0,0
0:11:24.662,1334.57,169.921,0,0.000885,0,0
0:11:25.259,1335.57,170.052,0,0.000885,0,0
0:11:25.804,1327.41,169.011,0,0.000885,0,0