File: DataFile2021-07-17_053058.csv
Test ID:,Date Tested:,Time:,Test Type:,Diameter Avg. (mm):,Cyl. Corr. Factor:,Height (mm):,Age (days):,Weight (kN):,Break Type:,Ramp Rate (MPa/s):,Load at Break (kN):,Stress at Break (MPa):
12,7/17/2021,05:30,Cylinder,100,1,200,0,3.6,3,0.25,1500.05,190.99
Sample Time,Load (kN),Stress (MPa),Long. Strain,Trans. Strain,Chan1 Deflection (mm),Chan2 Deflection (mm)
0:0:16.282,5.21776,0.661897,0,0.000885,0,0
0:0:16.981,10.44,1.33069,0,0.000885,0,0
0:0:17.671,9.38575,1.19279,0,0.000885,0,0
0:0:18.375,8.91424,1.13763,0,0.000885,0,0
0:0:19.070,9.85281,1.25485,0,0.000885,0,0
0:0:19.763,11.085,1.41343,0,0.000885,0,0
0:0:20.468,12.7842,1.62716,0,0.000885,0,0
0:0:21.166,14.1943,1.80643,0,0.000885,0,0
0:0:21.866,16.0136,2.04085,0,0.000885,0,0
0:0:22.578,17.2413,2.19253,0,0.000885,0,0
0:0:23.282,18.8871,2.40627,0,0.000885,0,0
0:0:23.976,20.88,2.66138,0,0.000885,0,0
0:0:24.686,22.8149,2.90269,0,0.000885,0,0
0:0:25.380,23.4021,2.97854,0,0.000885,0,0
0:0:26.073,24.1627,3.07506,0,0.000885,0,0
0:0:26.786,25.6885,3.26811,0,0.000885,0,0
0:0:27.494,26.6849,3.39912,0,0.000885,0,0
0:0:28.200,28.0371,3.57148,0,0.000885,0,0
0:0:28.898,29.6207,3.77143,0,0.000885,0,0
0:0:29.593,31.4356,4.00585,0,0.000885,0,0
0:0:30.291,33.1971,4.22649,0,0.000885,0,0
0:0:30.987,34.4292,4.38507,0,0.000885,0,0
0:0:31.684,35.6614,4.54365,0,0.000885,0,0
0:0:32.395,36.6,4.66086,0,0.000885,0,0
0:0:33.101,38.0634,4.84701,0,0.000885,0,0
0:0:33.804,39.647,5.04696,0,0.000885,0,0
0:0:34.498,40.7012,5.18486,0,0.000885,0,0
0:0:35.194,42.227,5.37791,0,0.000885,0,0
0:0:35.894,43.6949,5.56407,0,0.000885,0,0
0:0:36.594,45.3941,5.77781,0,0.000885,0,0
0:0:37.304,46.5684,5.92949,0,0.000885,0,0
0:0:38.010,47.8584,6.09497,0,0.000885,0,0
0:0:38.705,48.9126,6.22597,0,0.000885,0,0
0:0:39.405,50.5585,6.4397,0,0.000885,0,0
0:0:40.101,51.9641,6.61897,0,0.000885,0,0
0:0:40.795,53.3698,6.79823,0,0.000885,0,0
0:0:41.495,55.0156,7.00507,0,0.000885,0,0
0:0:42.207,56.5369,7.19813,0,0.000885,0,0
0:0:42.913,57.1241,7.27397,0,0.000885,0,0
0:0:43.611,58.6498,7.46702,0,0.000885,0,0
0:0:44.305,59.6462,7.59113,0,0.000885,0,0
0:0:45.006,61.4655,7.82555,0,0.000885,0,0
0:0:45.704,63.4005,8.07376,0,0.000885,0,0
0:0:46.398,64.5748,8.21855,0,0.000885,0,0
0:0:47.108,65.6869,8.36334,0,0.000885,0,0
0:0:47.815,66.6255,8.48055,0,0.000885,0,0
0:0:48.516,68.5604,8.72876,0,0.000885,0,0
0:0:49.213,69.9705,8.90803,0,0.000885,0,0
0:0:49.909,71.3762,9.08729,0,0.000885,0,0
0:0:50.608,72.3726,9.21829,0,0.000885,0,0
0:0:51.301,73.6047,9.36998,0,0.000885,0,0
0:0:52.008,74.957,9.54234,0,0.000885,0,0
0:0:52.717,76.3048,9.71471,0,0.000885,0,0
0:0:53.418,77.9462,9.92156,0,0.000885,0,0
0:0:54.118,79.7077,10.1491,0,0.000885,0,0
0:0:54.813,80.8776,10.3008,0,0.000885,0,0
0:0:55.511,81.874,10.4249,0,0.000885,0,0
0:0:56.210,82.9326,10.5559,0,0.000885,0,0
0:0:56.910,85.1034,10.8386,0,0.000885,0,0
0:0:57.621,86.4512,11.004,0,0.000885,0,0
0:0:58.328,87.5632,11.1488,0,0.000885,0,0
0:0:59.022,89.1468,11.3488,0,0.000885,0,0
0:0:59.721,90.4991,11.5211,0,0.000885,0,0
0:1:0.416,91.3754,11.6315,0,0.000885,0,0
0:1:1.112,92.9011,11.8314,0,0.000885,0,0
0:1:1.812,94.6048,12.0451,0,0.000885,0,0
0:1:2.522,96.2462,12.252,0,0.000885,0,0
0:1:3.230,97.0068,12.3485,0,0.000885,0,0
0:1:3.928,98.4169,12.5278,0,0.000885,0,0
0:1:4.622,100.232,12.7622,0,0.000885,0,0
0:1:5.322,101.464,12.9208,0,0.000885,0,0
0:1:6.021,102.874,13.1,0,0.000885,0,0
0:1:6.715,104.106,13.2517,0,0.000885,0,0
0:1:7.425,105.338,13.4103,0,0.000885,0,0
0:1:8.132,107.211,13.6516,0,0.000885,0,0
0:1:8.832,108.092,13.7619,0,0.000885,0,0
0:1:9.531,109.56,13.9481,0,0.000885,0,0
0:1:10.226,111.201,14.1618,0,0.000885,0,0
0:1:10.921,112.197,14.2859,0,0.000885,0,0
0:1:11.621,113.665,14.4721,0,0.000885,0,0
0:1:12.331,114.72,14.61,0,0.000885,0,0
0:1:13.038,117.006,14.8996,0,0.000885,0,0
0:1:13.735,117.771,14.9961,0,0.000885,0,0
0:1:14.430,119.355,15.196,0,0.000885,0,0
0:1:15.130,120.818,15.3822,0,0.000885,0,0
0:1:15.824,121.583,15.4787,0,0.000885,0,0
0:1:16.520,123.047,15.6649,0,0.000885,0,0
0:1:17.229,124.693,15.8786,0,0.000885,0,0
0:1:17.938,126.156,16.0648,0,0.000885,0,0
0:1:18.637,127.388,16.2165,0,0.000885,0,0
0:1:19.335,128.856,16.4095,0,0.000885,0,0
0:1:20.028,130.262,16.5888,0,0.000885,0,0
0:1:20.727,131.61,16.7543,0,0.000885,0,0
0:1:21.426,133.02,16.9335,0,0.000885,0,0
0:1:22.128,134.777,17.1611,0,0.000885,0,0
0:1:22.837,135.835,17.2921,0,0.000885,0,0
0:1:23.540,136.89,17.4299,0,0.000885,0,0
0:1:24.234,138.006,17.5747,0,0.000885,0,0
0:1:24.935,140.292,17.8643,0,0.000885,0,0
0:1:25.629,141.818,18.0574,0,0.000885,0,0
0:1:26.324,142.521,18.147,0,0.000885,0,0
0:1:27.034,144.278,18.3676,0,0.000885,0,0
0:1:27.739,145.63,18.54,0,0.000885,0,0
0:1:28.439,146.449,18.6434,0,0.000885,0,0
0:1:29.138,148.326,18.8847,0,0.000885,0,0
0:1:29.831,149.558,19.0433,0,0.000885,0,0
0:1:30.530,151.2,19.2502,0,0.000885,0,0
0:1:31.228,152.022,19.3536,0,0.000885,0,0
0:1:31.931,153.548,19.5535,0,0.000885,0,0
0:1:32.639,154.78,19.7052,0,0.000885,0,0
0:1:33.342,156.773,19.9603,0,0.000885,0,0
0:1:34.037,157.947,20.112,0,0.000885,0,0
0:1:34.736,159.18,20.2637,0,0.000885,0,0
0:1:35.429,159.94,20.3671,0,0.000885,0,0
0:1:36.126,161.346,20.5464,0,0.000885,0,0
0:1:36.826,163.459,20.8153,0,0.000885,0,0
0:1:37.537,164.927,21.0014,0,0.000885,0,0
0:1:38.242,165.572,21.0842,0,0.000885,0,0
0:1:38.938,167.68,21.3531,0,0.000885,0,0
0:1:39.634,168.503,21.4565,0,0.000885,0,0
0:1:40.332,169.909,21.6357,0,0.000885,0,0
0:1:41.028,171.67,21.8564,0,0.000885,0,0
0:1:41.724,173.196,22.0494,0,0.000885,0,0
0:1:42.435,174.544,22.2218,0,0.000885,0,0
0:1:43.140,174.953,22.277,0,0.000885,0,0
0:1:43.839,176.599,22.4838,0,0.000885,0,0
0:1:44.538,178.356,22.7113,0,0.000885,0,0
0:1:45.232,179.997,22.9182,0,0.000885,0,0
0:1:45.930,181.056,23.0492,0,0.000885,0,0
0:1:46.630,182.991,23.2974,0,0.000885,0,0
0:1:47.338,183.694,23.387,0,0.000885,0,0
0:1:48.042,185.219,23.5801,0,0.000885,0,0
0:1:48.738,187.39,23.8559,0,0.000885,0,0
0:1:49.436,187.915,23.9248,0,0.000885,0,0
0:1:50.133,189.677,24.1523,0,0.000885,0,0
0:1:50.827,190.846,24.2971,0,0.000885,0,0
0:1:51.528,191.785,24.4212,0,0.000885,0,0
0:1:52.234,193.547,24.6419,0,0.000885,0,0
0:1:52.938,195.014,24.828,0,0.000885,0,0
0:1:53.631,196.42,25.0073,0,0.000885,0,0
0:1:54.318,198.239,25.2417,0,0.000885,0,0
0:1:55.012,198.707,25.2969,0,0.000885,0,0
0:1:55.705,200.584,25.5382,0,0.000885,0,0
0:1:56.392,201.464,25.6485,0,0.000885,0,0
0:1:57.097,202.99,25.8484,0,0.000885,0,0
0:1:57.800,204.574,26.0484,0,0.000885,0,0
0:1:58.494,206.037,26.2346,0,0.000885,0,0
0:1:59.190,207.038,26.3587,0,0.000885,0,0
0:1:59.887,208.795,26.5862,0,0.000885,0,0
0:2:0.589,210.436,26.793,0,0.000885,0,0
0:2:1.280,211.317,26.9033,0,0.000885,0,0
0:2:1.975,211.789,26.9654,0,0.000885,0,0
0:2:2.680,214.484,27.3101,0,0.000885,0,0
0:2:3.389,214.836,27.3515,0,0.000885,0,0
0:2:4.089,216.771,27.5997,0,0.000885,0,0
0:2:4.781,217.709,27.7169,0,0.000885,0,0
0:2:5.481,219.235,27.9169,0,0.000885,0,0
0:2:6.172,220.352,28.0548,0,0.000885,0,0
0:2:6.864,222.754,28.365,0,0.000885,0,0
0:2:7.568,223.634,28.4753,0,0.000885,0,0
0:2:8.268,224.866,28.6339,0,0.000885,0,0
0:2:8.973,226.392,28.827,0,0.000885,0,0
0:2:9.681,227.976,29.0269,0,0.000885,0,0
0:2:10.383,229.146,29.1786,0,0.000885,0,0
0:2:11.084,230.792,29.3855,0,0.000885,0,0
0:2:11.792,231.788,29.5096,0,0.000885,0,0
0:2:12.494,232.669,29.6268,0,0.000885,0,0
0:2:13.191,234.777,29.8957,0,0.000885,0,0
0:2:13.880,236.009,30.0474,0,0.000885,0,0
0:2:14.573,237.415,30.2266,0,0.000885,0,0
0:2:15.264,238.709,30.3921,0,0.000885,0,0
0:2:15.954,239.354,30.4748,0,0.000885,0,0
0:2:16.648,241.876,30.7989,0,0.000885,0,0
0:2:17.353,242.815,30.9161,0,0.000885,0,0
0:2:18.052,243.749,31.0333,0,0.000885,0,0
0:2:18.748,246.156,31.3436,0,0.000885,0,0
0:2:19.438,247.917,31.5642,0,0.000885,0,0
0:2:20.129,248.326,31.6194,0,0.000885,0,0
0:2:20.821,249.674,31.7917,0,0.000885,0,0
0:2:21.509,250.964,31.9572,0,0.000885,0,0
0:2:22.212,252.432,32.1434,0,0.000885,0,0
0:2:22.915,254.367,32.3847,0,0.000885,0,0
0:2:23.608,255.07,32.4743,0,0.000885,0,0
0:2:24.304,256.889,32.7087,0,0.000885,0,0
0:2:24.993,258.179,32.8742,0,0.000885,0,0
0:2:25.692,258.882,32.9638,0,0.000885,0,0
0:2:26.384,260.35,33.15,0,0.000885,0,0
0:2:27.090,262.521,33.4258,0,0.000885,0,0
0:2:27.789,263.281,33.5223,0,0.000885,0,0
0:2:28.482,264.571,33.6878,0,0.000885,0,0
0:2:29.180,265.919,33.8602,0,0.000885,0,0
0:2:29.881,267.271,34.0325,0,0.000885,0,0
0:2:30.575,269.206,34.2738,0,0.000885,0,0
0:2:31.261,269.909,34.3635,0,0.000885,0,0
0:2:31.964,271.671,34.591,0,0.000885,0,0
0:2:32.667,273.606,34.8392,0,0.000885,0,0
0:2:33.361,274.073,34.8944,0,0.000885,0,0
0:2:34.055,276.128,35.1564,0,0.000885,0,0
0:2:34.748,277.066,35.2736,0,0.000885,0,0
0:2:35.434,278.356,35.4391,0,0.000885,0,0
0:2:36.129,279.175,35.5425,0,0.000885,0,0
0:2:36.821,281.23,35.8045,0,0.000885,0,0
0:2:37.526,282.636,35.9837,0,0.000885,0,0
0:2:38.228,283.107,36.0458,0,0.000885,0,0
0:2:38.918,284.864,36.2733,0,0.000885,0,0
0:2:39.607,286.741,36.5077,0,0.000885,0,0
0:2:40.302,288.151,36.687,0,0.000885,0,0
0:2:40.987,289.263,36.8318,0,0.000885,0,0
0:2:41.692,291.141,37.0662,0,0.000885,0,0
0:2:42.394,292.373,37.2248,0,0.000885,0,0
0:2:43.085,293.369,37.3558,0,0.000885,0,0
0:2:43.787,294.659,37.5144,0,0.000885,0,0
0:2:44.492,295.718,37.6523,0,0.000885,0,0
0:2:45.187,297.008,37.8177,0,0.000885,0,0
0:2:45.892,298.529,38.0108,0,0.000885,0,0
0:2:46.596,300.526,38.2659,0,0.000885,0,0
0:2:47.301,301.696,38.4107,0,0.000885,0,0
0:2:48.003,303.4,38.6313,0,0.000885,0,0
0:2:48.694,304.218,38.7347,0,0.000885,0,0
0:2:49.391,305.393,38.8864,0,0.000885,0,0
0:2:50.084,306.976,39.0864,0,0.000885,0,0
0:2:50.785,308.093,39.2243,0,0.000885,0,0
0:2:51.485,309.676,39.4311,0,0.000885,0,0
0:2:52.192,312.136,39.7414,0,0.000885,0,0
0:2:52.893,312.665,39.8103,0,0.000885,0,0
0:2:53.598,313.782,39.9551,0,0.000885,0,0
0:2:54.288,315.303,40.1482,0,0.000885,0,0
0:2:54.986,316.771,40.3343,0,0.000885,0,0
0:2:55.688,318.297,40.5274,0,0.000885,0,0
0:2:56.383,320.348,40.7894,0,0.000885,0,0
0:2:57.088,320.761,40.8376,0,0.000885,0,0
0:2:57.788,321.758,40.9686,0,0.000885,0,0
0:2:58.497,323.283,41.1617,0,0.000885,0,0
0:2:59.196,325.218,41.4099,0,0.000885,0,0
0:2:59.889,325.628,41.4582,0,0.000885,0,0
0:3:0.587,327.678,41.7202,0,0.000885,0,0
0:3:1.286,328.679,41.8512,0,0.000885,0,0
0:3:1.992,330.788,42.1201,0,0.000885,0,0
0:3:2.693,331.784,42.2442,0,0.000885,0,0
0:3:3.387,333.31,42.4372,0,0.000885,0,0
0:3:4.082,334.835,42.6303,0,0.000885,0,0
0:3:4.788,335.365,42.6992,0,0.000885,0,0
0:3:5.481,337.593,42.9819,0,0.000885,0,0
0:3:6.174,339.057,43.1681,0,0.000885,0,0
0:3:6.870,339.47,43.2232,0,0.000885,0,0
0:3:7.573,341.641,43.499,0,0.000885,0,0
0:3:8.270,342.811,43.6507,0,0.000885,0,0
0:3:8.963,343.985,43.7955,0,0.000885,0,0
0:3:9.655,345.453,43.9817,0,0.000885,0,0
0:3:10.344,347.037,44.1885,0,0.000885,0,0
0:3:11.037,348.5,44.3747,0,0.000885,0,0
0:3:11.741,349.91,44.5539,0,0.000885,0,0
0:3:12.441,350.555,44.6367,0,0.000885,0,0
0:3:13.137,352.312,44.8573,0,0.000885,0,0
0:3:13.826,353.838,45.0503,0,0.000885,0,0
0:3:14.515,355.128,45.2158,0,0.000885,0,0
0:3:15.209,355.951,45.3192,0,0.000885,0,0
0:3:15.897,358.06,45.5881,0,0.000885,0,0
0:3:16.599,358.705,45.6709,0,0.000885,0,0
0:3:17.300,360.115,45.8501,0,0.000885,0,0
0:3:17.995,361.814,46.0708,0,0.000885,0,0
0:3:18.701,363.397,46.2707,0,0.000885,0,0
0:3:19.389,365.039,46.4776,0,0.000885,0,0
0:3:20.078,366.155,46.6223,0,0.000885,0,0
0:3:20.782,367.739,46.8223,0,0.000885,0,0
0:3:21.499,368.62,46.9326,0,0.000885,0,0
0:3:22.202,370.145,47.1257,0,0.000885,0,0
0:3:22.901,372.254,47.3946,0,0.000885,0,0
0:3:23.599,372.547,47.4359,0,0.000885,0,0
0:3:24.294,373.958,47.6152,0,0.000885,0,0
0:3:24.983,375.599,47.822,0,0.000885,0,0
0:3:25.672,376.653,47.9599,0,0.000885,0,0
0:3:26.368,378.295,48.1668,0,0.000885,0,0
0:3:27.072,379.527,48.3254,0,0.000885,0,0
0:3:27.772,381.582,48.5874,0,0.000885,0,0
0:3:28.464,382.578,48.7115,0,0.000885,0,0
0:3:29.153,383.575,48.8356,0,0.000885,0,0
0:3:29.847,385.158,49.0424,0,0.000885,0,0
0:3:30.538,386.742,49.2424,0,0.000885,0,0
0:3:31.228,387.445,49.332,0,0.000885,0,0
0:3:31.933,388.912,49.5181,0,0.000885,0,0
0:3:32.633,390.438,49.7112,0,0.000885,0,0
0:3:33.327,391.902,49.8974,0,0.000885,0,0
0:3:34.020,393.543,50.1111,0,0.000885,0,0
0:3:34.708,395.305,50.3317,0,0.000885,0,0
0:3:35.403,396.127,50.4351,0,0.000885,0,0
0:3:36.102,397.182,50.573,0,0.000885,0,0
0:3:36.802,399.295,50.8419,0,0.000885,0,0
0:3:37.503,400.522,50.9936,0,0.000885,0,0
0:3:38.198,401.287,51.0902,0,0.000885,0,0
0:3:38.888,402.871,51.297,0,0.000885,0,0
0:3:39.580,403.925,51.428,0,0.000885,0,0
0:3:40.270,406.096,51.7038,0,0.000885,0,0
0:3:40.961,406.919,51.8072,0,0.000885,0,0
0:3:41.665,407.795,51.9244,0,0.000885,0,0
0:3:42.366,409.557,52.145,0,0.000885,0,0
0:3:43.060,411.025,52.3312,0,0.000885,0,0
0:3:43.752,412.724,52.5518,0,0.000885,0,0
0:3:44.442,413.836,52.6897,0,0.000885,0,0
0:3:45.135,415.304,52.8759,0,0.000885,0,0
0:3:45.828,416.242,53,0,0.000885,0,0
0:3:46.522,417.942,53.2137,0,0.000885,0,0
0:3:47.227,420.112,53.4895,0,0.000885,0,0
0:3:47.926,420.877,53.5861,0,0.000885,0,0
0:3:48.624,421.874,53.7171,0,0.000885,0,0
0:3:49.318,422.812,53.8343,0,0.000885,0,0
0:3:50.007,424.454,54.0411,0,0.000885,0,0
0:3:50.698,426.331,54.2824,0,0.000885,0,0
0:3:51.401,427.034,54.3721,0,0.000885,0,0
0:3:52.105,429.089,54.6341,0,0.000885,0,0
0:3:52.806,430.552,54.8202,0,0.000885,0,0
0:3:53.500,432.256,55.034,0,0.000885,0,0
0:3:54.206,432.959,55.1236,0,0.000885,0,0
0:3:54.900,433.31,55.1718,0,0.000885,0,0
0:3:55.601,435.774,55.4821,0,0.000885,0,0
0:3:56.309,437.18,55.6614,0,0.000885,0,0
0:3:57.010,438.47,55.8268,0,0.000885,0,0
0:3:57.708,440.111,56.0337,0,0.000885,0,0
0:3:58.395,441.228,56.1785,0,0.000885,0,0
0:3:59.090,442.869,56.3853,0,0.000885,0,0
0:3:59.778,443.808,56.5094,0,0.000885,0,0
0:4:0.488,445.218,56.6887,0,0.000885,0,0
0:4:1.184,447.033,56.9162,0,0.000885,0,0
0:4:1.887,448.092,57.0541,0,0.000885,0,0
0:4:2.588,450.027,57.3023,0,0.000885,0,0
0:4:3.291,450.378,57.3437,0,0.000885,0,0
0:4:3.980,451.904,57.5367,0,0.000885,0,0
0:4:4.674,454.012,57.8056,0,0.000885,0,0
0:4:5.367,454.893,57.916,0,0.000885,0,0
0:4:6.053,455.889,58.047,0,0.000885,0,0
0:4:6.757,457.651,58.2676,0,0.000885,0,0
0:4:7.459,459.292,58.4813,0,0.000885,0,0
0:4:8.153,460.346,58.6123,0,0.000885,0,0
0:4:8.849,462.281,58.8605,0,0.000885,0,0
0:4:9.539,463.456,59.0122,0,0.000885,0,0
0:4:10.228,464.337,59.1225,0,0.000885,0,0
0:4:10.922,465.862,59.3156,0,0.000885,0,0
0:4:11.628,466.565,59.4052,0,0.000885,0,0
0:4:12.328,468.206,59.6121,0,0.000885,0,0
0:4:13.031,470.377,59.8879,0,0.000885,0,0
0:4:13.718,471.552,60.0395,0,0.000885,0,0
0:4:14.413,472.664,60.1843,0,0.000885,0,0
0:4:15.103,474.247,60.3843,0,0.000885,0,0
0:4:15.790,475.186,60.5015,0,0.000885,0,0
0:4:16.491,477.005,60.7359,0,0.000885,0,0
0:4:17.192,477.356,60.7773,0,0.000885,0,0
0:4:17.896,479.469,61.0462,0,0.000885,0,0
0:4:18.601,480.581,61.191,0,0.000885,0,0
0:4:19.300,482.752,61.4668,0,0.000885,0,0
0:4:20.002,483.926,61.6184,0,0.000885,0,0
0:4:20.693,485.274,61.7839,0,0.000885,0,0
0:4:21.391,486.506,61.9425,0,0.000885,0,0
0:4:22.092,487.681,62.0942,0,0.000885,0,0
0:4:22.801,489.322,62.301,0,0.000885,0,0
0:4:23.493,490.492,62.4527,0,0.000885,0,0
0:4:24.184,491.257,62.5492,0,0.000885,0,0
0:4:24.882,493.308,62.8112,0,0.000885,0,0
0:4:25.577,494.891,63.0112,0,0.000885,0,0
0:4:26.272,495.95,63.1491,0,0.000885,0,0
0:4:26.977,497.24,63.3077,0,0.000885,0,0
0:4:27.677,498.53,63.4731,0,0.000885,0,0
0:4:28.366,500.171,63.6869,0,0.000885,0,0
0:4:29.060,501.346,63.8317,0,0.000885,0,0
0:4:29.753,502.4,63.9696,0,0.000885,0,0
0:4:30.441,503.926,64.1626,0,0.000885,0,0
0:4:31.134,506.27,64.4591,0,0.000885,0,0
0:4:31.840,507.093,64.5625,0,0.000885,0,0
0:4:32.540,508.498,64.7418,0,0.000885,0,0
0:4:33.234,509.673,64.8935,0,0.000885,0,0
0:4:33.921,510.727,65.0314,0,0.000885,0,0
0:4:34.613,512.253,65.2244,0,0.000885,0,0
0:4:35.309,513.369,65.3623,0,0.000885,0,0
0:4:36.003,514.659,65.5278,0,0.000885,0,0
0:4:36.708,516.358,65.7415,0,0.000885,0,0
0:4:37.408,518,65.9552,0,0.000885,0,0
0:4:38.105,519.41,66.1345,0,0.000885,0,0
0:4:38.798,520.464,66.2655,0,0.000885,0,0
0:4:39.509,522.226,66.493,0,0.000885,0,0
0:4:40.197,523.044,66.5965,0,0.000885,0,0
0:4:40.892,524.161,66.7413,0,0.000885,0,0
0:4:41.596,526.505,67.0377,0,0.000885,0,0
0:4:42.297,528.031,67.2308,0,0.000885,0,0
0:4:43.003,529.614,67.4307,0,0.000885,0,0
0:4:43.690,529.908,67.4721,0,0.000885,0,0
0:4:44.381,531.198,67.6376,0,0.000885,0,0
0:4:45.075,532.723,67.8306,0,0.000885,0,0
0:4:45.763,534.307,68.0306,0,0.000885,0,0
0:4:46.468,536.064,68.2512,0,0.000885,0,0
0:4:47.169,537.474,68.4305,0,0.000885,0,0
0:4:47.863,539.116,68.6442,0,0.000885,0,0
0:4:48.557,539.351,68.6718,0,0.000885,0,0
0:4:49.247,540.873,68.8648,0,0.000885,0,0
0:4:49.937,542.398,69.0579,0,0.000885,0,0
0:4:50.630,543.631,69.2165,0,0.000885,0,0
0:4:51.335,545.156,69.4095,0,0.000885,0,0
0:4:52.036,546.682,69.6026,0,0.000885,0,0
0:4:52.731,548.266,69.8094,0,0.000885,0,0
0:4:53.418,549.146,69.9197,0,0.000885,0,0
0:4:54.110,550.316,70.0714,0,0.000885,0,0
0:4:54.804,551.784,70.2576,0,0.000885,0,0
0:4:55.511,554.013,70.5403,0,0.000885,0,0
0:4:56.214,554.715,70.6299,0,0.000885,0,0
0:4:56.915,556.005,70.7954,0,0.000885,0,0
0:4:57.610,557.473,70.9815,0,0.000885,0,0
0:4:58.313,558.941,71.1677,0,0.000885,0,0
0:4:59.013,560.169,71.3263,0,0.000885,0,0
0:4:59.701,561.988,71.5538,0,0.000885,0,0
0:5:0.406,562.691,71.6434,0,0.000885,0,0
0:5:1.113,564.275,71.8434,0,0.000885,0,0
0:5:1.817,565.858,72.0502,0,0.000885,0,0
0:5:2.519,567.735,72.2846,0,0.000885,0,0
0:5:3.207,568.149,72.3398,0,0.000885,0,0
0:5:3.908,569.733,72.5397,0,0.000885,0,0
0:5:4.611,571.023,72.7052,0,0.000885,0,0
0:5:5.309,572.664,72.9121,0,0.000885,0,0
0:5:6.013,574.128,73.0982,0,0.000885,0,0
0:5:6.716,575.36,73.2568,0,0.000885,0,0
0:5:7.417,576.77,73.4361,0,0.000885,0,0
0:5:8.111,578.295,73.6291,0,0.000885,0,0
0:5:8.812,579.701,73.8084,0,0.000885,0,0
0:5:9.512,580.933,73.967,0,0.000885,0,0
0:5:10.203,582.339,74.1462,0,0.000885,0,0
0:5:10.897,583.629,74.3117,0,0.000885,0,0
0:5:11.601,584.745,74.4496,0,0.000885,0,0
0:5:12.301,586.213,74.6357,0,0.000885,0,0
0:5:12.991,587.797,74.8426,0,0.000885,0,0
0:5:13.696,589.029,74.9943,0,0.000885,0,0
0:5:14.400,590.497,75.1873,0,0.000885,0,0
0:5:15.091,591.787,75.3459,0,0.000885,0,0
0:5:15.789,593.313,75.5459,0,0.000885,0,0
0:5:16.497,595.074,75.7665,0,0.000885,0,0
0:5:17.199,595.955,75.8768,0,0.000885,0,0
0:5:17.898,597.423,76.063,0,0.000885,0,0
0:5:18.591,598.655,76.2215,0,0.000885,0,0
0:5:19.306,599.358,76.3112,0,0.000885,0,0
0:5:20.013,601.471,76.5801,0,0.000885,0,0
0:5:20.704,603.059,76.7869,0,0.000885,0,0
0:5:21.410,604.113,76.9179,0,0.000885,0,0
0:5:22.114,604.758,77.0006,0,0.000885,0,0
0:5:22.811,606.697,77.2489,0,0.000885,0,0
0:5:23.509,607.578,77.3592,0,0.000885,0,0
0:5:24.204,610.336,77.7108,0,0.000885,0,0
0:5:24.894,611.626,77.8763,0,0.000885,0,0
0:5:25.591,612.449,77.9797,0,0.000885,0,0
0:5:26.297,613.797,78.1521,0,0.000885,0,0
0:5:27.002,614.678,78.2624,0,0.000885,0,0
0:5:27.711,616.03,78.4348,0,0.000885,0,0
0:5:28.412,617.671,78.6416,0,0.000885,0,0
0:5:29.116,619.553,78.8829,0,0.000885,0,0
0:5:29.815,620.901,79.0553,0,0.000885,0,0
0:5:30.515,622.72,79.2897,0,0.000885,0,0
0:5:31.222,623.543,79.3931,0,0.000885,0,0
0:5:31.927,624.601,79.5241,0,0.000885,0,0
0:5:32.626,626.421,79.7586,0,0.000885,0,0
0:5:33.322,627.417,79.8827,0,0.000885,0,0
0:5:34.017,629.237,80.1171,0,0.000885,0,0
0:5:34.709,630.411,80.2688,0,0.000885,0,0
0:5:35.415,631.701,80.4273,0,0.000885,0,0
0:5:36.114,633.405,80.648,0,0.000885,0,0
0:5:36.820,633.934,80.7169,0,0.000885,0,0
0:5:37.523,635.517,80.9169,0,0.000885,0,0
0:5:38.215,637.337,81.1513,0,0.000885,0,0
0:5:38.910,639.214,81.3857,0,0.000885,0,0
0:5:39.617,640.037,81.4891,0,0.000885,0,0
0:5:40.308,640.918,81.6063,0,0.000885,0,0
0:5:41.014,642.915,81.8615,0,0.000885,0,0
0:5:41.722,644.556,82.0683,0,0.000885,0,0
0:5:42.424,645.263,82.1579,0,0.000885,0,0
0:5:43.123,646.26,82.282,0,0.000885,0,0
0:5:43.815,647.728,82.4682,0,0.000885,0,0
0:5:44.511,649.783,82.7302,0,0.000885,0,0
0:5:45.216,650.721,82.8543,0,0.000885,0,0
0:5:45.915,652.189,83.0405,0,0.000885,0,0
0:5:46.622,653.244,83.1715,0,0.000885,0,0
0:5:47.324,655.534,83.4679,0,0.000885,0,0
0:5:48.018,656.589,83.5989,0,0.000885,0,0
0:5:48.715,657.883,83.7644,0,0.000885,0,0
0:5:49.406,659.057,83.9161,0,0.000885,0,0
0:5:50.113,660.877,84.1436,0,0.000885,0,0
0:5:50.806,661.931,84.2815,0,0.000885,0,0
0:5:51.517,663.225,84.447,0,0.000885,0,0
0:5:52.223,665.218,84.6952,0,0.000885,0,0
0:5:52.919,666.57,84.8676,0,0.000885,0,0
0:5:53.610,667.509,84.9917,0,0.000885,0,0
0:5:54.318,668.919,85.1709,0,0.000885,0,0
0:5:55.010,669.916,85.295,0,0.000885,0,0
0:5:55.702,671.263,85.4674,0,0.000885,0,0
0:5:56.412,672.851,85.6674,0,0.000885,0,0
0:5:57.115,674.671,85.9018,0,0.000885,0,0
0:5:57.814,675.138,85.9638,0,0.000885,0,0
0:5:58.517,677.135,86.2189,0,0.000885,0,0
0:5:59.212,678.367,86.3706,0,0.000885,0,0
0:5:59.917,679.893,86.5637,0,0.000885,0,0
0:6:0.617,681.303,86.7429,0,0.000885,0,0
0:6:1.324,683.064,86.9705,0,0.000885,0,0
0:6:2.029,683.945,87.0808,0,0.000885,0,0
0:6:2.725,685.587,87.2945,0,0.000885,0,0
0:6:3.423,686.703,87.4324,0,0.000885,0,0
0:6:4.117,688.055,87.6048,0,0.000885,0,0
0:6:4.812,689.167,87.7496,0,0.000885,0,0
0:6:5.519,690.284,87.8875,0,0.000885,0,0
0:6:6.218,692.868,88.2184,0,0.000885,0,0
0:6:6.924,693.278,88.2736,0,0.000885,0,0
0:6:7.628,695.213,88.5149,0,0.000885,0,0
0:6:8.320,696.565,88.6873,0,0.000885,0,0
0:6:9.018,697.446,88.8045,0,0.000885,0,0
0:6:9.720,698.971,88.9975,0,0.000885,0,0
0:6:10.420,700.146,89.1423,0,0.000885,0,0
0:6:11.120,701.965,89.3767,0,0.000885,0,0
0:6:11.830,703.433,89.5629,0,0.000885,0,0
0:6:12.532,704.607,89.7146,0,0.000885,0,0
0:6:13.229,706.191,89.9145,0,0.000885,0,0
0:6:13.918,707.187,90.0455,0,0.000885,0,0
0:6:14.615,709.069,90.28,0,0.000885,0,0
0:6:15.320,710.301,90.4385,0,0.000885,0,0
0:6:16.022,711.475,90.5902,0,0.000885,0,0
0:6:16.727,712.943,90.7764,0,0.000885,0,0
0:6:17.430,713.997,90.9074,0,0.000885,0,0
0:6:18.120,715.287,91.0728,0,0.000885,0,0
0:6:18.819,716.404,91.2176,0,0.000885,0,0
0:6:19.521,718.575,91.4934,0,0.000885,0,0
0:6:20.213,719.985,91.6727,0,0.000885,0,0
0:6:20.922,721.101,91.8106,0,0.000885,0,0
0:6:21.631,722.511,91.9899,0,0.000885,0,0
0:6:22.334,723.156,92.0726,0,0.000885,0,0
0:6:23.030,725.211,92.3346,0,0.000885,0,0
0:6:23.720,726.795,92.5414,0,0.000885,0,0
0:6:24.417,728.263,92.7276,0,0.000885,0,0
0:6:25.121,728.672,92.7759,0,0.000885,0,0
0:6:25.813,730.785,93.0447,0,0.000885,0,0
0:6:26.522,732.253,93.2309,0,0.000885,0,0
0:6:27.226,733.427,93.3826,0,0.000885,0,0
0:6:27.924,734.895,93.5688,0,0.000885,0,0
0:6:28.621,736.127,93.7273,0,0.000885,0,0
0:6:29.321,737.186,93.8583,0,0.000885,0,0
0:6:30.018,738.943,94.0859,0,0.000885,0,0
0:6:30.725,740.06,94.2306,0,0.000885,0,0
0:6:31.434,742.23,94.5064,0,0.000885,0,0
0:6:32.138,742.817,94.5754,0,0.000885,0,0
0:6:32.832,744.872,94.8374,0,0.000885,0,0
0:6:33.523,745.695,94.9477,0,0.000885,0,0
0:6:34.219,746.576,95.058,0,0.000885,0,0
0:6:34.921,747.808,95.2166,0,0.000885,0,0
0:6:35.616,750.451,95.5475,0,0.000885,0,0
0:6:36.323,751.683,95.7061,0,0.000885,0,0
0:6:37.028,753.093,95.8854,0,0.000885,0,0
0:6:37.725,754.441,96.0578,0,0.000885,0,0
0:6:38.422,755.557,96.2025,0,0.000885,0,0
0:6:39.122,757.261,96.4163,0,0.000885,0,0
0:6:39.820,757.964,96.5059,0,0.000885,0,0
0:6:40.523,759.196,96.6645,0,0.000885,0,0
0:6:41.225,760.077,96.7748,0,0.000885,0,0
0:6:41.934,762.367,97.0644,0,0.000885,0,0
0:6:42.634,763.835,97.2574,0,0.000885,0,0
0:6:43.327,765.655,97.485,0,0.000885,0,0
0:6:44.025,766.651,97.616,0,0.000885,0,0
0:6:44.719,768.003,97.7883,0,0.000885,0,0
0:6:45.423,769.173,97.9331,0,0.000885,0,0
0:6:46.121,770.41,98.0917,0,0.000885,0,0
0:6:46.829,771.7,98.2572,0,0.000885,0,0
0:6:47.534,773.635,98.5054,0,0.000885,0,0
0:6:48.230,774.929,98.664,0,0.000885,0,0
0:6:48.921,775.926,98.795,0,0.000885,0,0
0:6:49.620,777.571,99.0018,0,0.000885,0,0
0:6:50.321,778.919,99.1742,0,0.000885,0,0
0:6:51.025,780.445,99.3672,0,0.000885,0,0
0:6:51.730,781.677,99.5258,0,0.000885,0,0
0:6:52.431,783.029,99.6982,0,0.000885,0,0
0:6:53.129,784.084,99.8361,0,0.000885,0,0
0:6:53.821,785.084,99.9602,0,0.000885,0,0
0:6:54.517,786.668,100.16,0,0.000885,0,0
0:6:55.223,788.429,100.388,0,0.000885,0,0
0:6:55.923,790.013,100.588,0,0.000885,0,0
0:6:56.630,791.303,100.753,0,0.000885,0,0
0:6:57.333,792.713,100.932,0,0.000885,0,0
0:6:58.025,794.297,101.132,0,0.000885,0,0
0:6:58.722,794.946,101.215,0,0.000885,0,0
0:6:59.424,797.117,101.491,0,0.000885,0,0
0:7:0.120,798.171,101.629,0,0.000885,0,0
0:7:0.827,799.639,101.815,0,0.000885,0,0
0:7:1.534,800.64,101.939,0,0.000885,0,0
0:7:2.237,802.166,102.132,0,0.000885,0,0
0:7:2.934,803.398,102.291,0,0.000885,0,0
0:7:3.628,805.568,102.566,0,0.000885,0,0
0:7:4.324,806.156,102.642,0,0.000885,0,0
0:7:5.025,807.566,102.822,0,0.000885,0,0
0:7:5.721,809.034,103.008,0,0.000885,0,0
0:7:6.428,810.146,103.152,0,0.000885,0,0
0:7:7.131,811.204,103.283,0,0.000885,0,0
0:7:7.831,813.024,103.518,0,0.000885,0,0
0:7:8.522,814.665,103.725,0,0.000885,0,0
0:7:9.225,816.427,103.952,0,0.000885,0,0
0:7:9.925,817.659,104.111,0,0.000885,0,0
0:7:10.625,818.602,104.228,0,0.000885,0,0
0:7:11.333,820.185,104.428,0,0.000885,0,0
0:7:12.039,821.653,104.614,0,0.000885,0,0
0:7:12.738,822.828,104.766,0,0.000885,0,0
0:7:13.435,823.882,104.897,0,0.000885,0,0
0:7:14.129,825.176,105.062,0,0.000885,0,0
0:7:14.824,826.702,105.255,0,0.000885,0,0
0:7:15.521,827.992,105.421,0,0.000885,0,0
0:7:16.229,830.047,105.683,0,0.000885,0,0
0:7:16.937,830.75,105.772,0,0.000885,0,0
0:7:17.638,831.809,105.91,0,0.000885,0,0
0:7:18.331,833.392,106.11,0,0.000885,0,0
0:7:19.029,835.096,106.331,0,0.000885,0,0
0:7:19.722,836.915,106.558,0,0.000885,0,0
0:7:20.423,838.089,106.71,0,0.000885,0,0
0:7:21.132,839.673,106.91,0,0.000885,0,0
0:7:21.837,840.79,107.055,0,0.000885,0,0
0:7:22.534,842.315,107.248,0,0.000885,0,0
0:7:23.232,843.312,107.372,0,0.000885,0,0
0:7:23.923,844.37,107.51,0,0.000885,0,0
0:7:24.628,845.954,107.71,0,0.000885,0,0
0:7:25.325,847.48,107.903,0,0.000885,0,0
0:7:26.023,848.77,108.068,0,0.000885,0,0
0:7:26.731,850.122,108.241,0,0.000885,0,0
0:7:27.436,851.826,108.455,0,0.000885,0,0
0:7:28.125,852.764,108.579,0,0.000885,0,0
0:7:28.823,855.344,108.903,0,0.000885,0,0
0:7:29.527,856.167,109.013,0,0.000885,0,0
0:7:30.215,856.812,109.096,0,0.000885,0,0
0:7:30.926,858.106,109.254,0,0.000885,0,0
0:7:31.635,859.454,109.427,0,0.000885,0,0
0:7:32.340,861.394,109.675,0,0.000885,0,0
0:7:33.037,863.035,109.882,0,0.000885,0,0
0:7:33.730,863.858,109.992,0,0.000885,0,0
0:7:34.423,865.206,110.164,0,0.000885,0,0
0:7:35.118,866.732,110.357,0,0.000885,0,0
0:7:35.809,867.732,110.482,0,0.000885,0,0
0:7:36.516,869.667,110.73,0,0.000885,0,0
0:7:37.223,871.02,110.902,0,0.000885,0,0
0:7:37.921,871.9,111.012,0,0.000885,0,0
0:7:38.630,873.542,111.226,0,0.000885,0,0
0:7:39.323,875.419,111.461,0,0.000885,0,0
0:7:40.026,876.887,111.647,0,0.000885,0,0
0:7:40.723,877.768,111.764,0,0.000885,0,0
0:7:41.431,878.648,111.874,0,0.000885,0,0
0:7:42.135,880.352,112.088,0,0.000885,0,0
0:7:42.834,881.762,112.267,0,0.000885,0,0
0:7:43.524,883.346,112.474,0,0.000885,0,0
0:7:44.232,885.343,112.722,0,0.000885,0,0
0:7:44.925,886.161,112.833,0,0.000885,0,0
0:7:45.625,887.336,112.977,0,0.000885,0,0
0:7:46.333,888.394,113.115,0,0.000885,0,0
0:7:47.038,890.272,113.35,0,0.000885,0,0
0:7:47.735,891.446,113.501,0,0.000885,0,0
0:7:48.432,893.323,113.743,0,0.000885,0,0
0:7:49.124,894.204,113.853,0,0.000885,0,0
0:7:49.829,895.32,113.998,0,0.000885,0,0
0:7:50.525,896.962,114.205,0,0.000885,0,0
0:7:51.224,898.55,114.405,0,0.000885,0,0
0:7:51.933,899.782,114.563,0,0.000885,0,0
0:7:52.635,900.72,114.68,0,0.000885,0,0
0:7:53.326,902.655,114.929,0,0.000885,0,0
0:7:54.025,904.123,115.115,0,0.000885,0,0
0:7:54.727,905.062,115.239,0,0.000885,0,0
0:7:55.431,906.414,115.411,0,0.000885,0,0
0:7:56.130,907.824,115.591,0,0.000885,0,0
0:7:56.839,909.879,115.853,0,0.000885,0,0
0:7:57.541,910.818,115.97,0,0.000885,0,0
0:7:58.238,912.05,116.128,0,0.000885,0,0
0:7:58.930,913.34,116.287,0,0.000885,0,0
0:7:59.626,914.399,116.425,0,0.000885,0,0
0:8:0.333,916.276,116.666,0,0.000885,0,0
0:8:1.032,917.917,116.873,0,0.000885,0,0
0:8:1.739,918.74,116.976,0,0.000885,0,0
0:8:2.440,920.092,117.149,0,0.000885,0,0
0:8:3.132,921.854,117.376,0,0.000885,0,0
0:8:3.831,923.905,117.638,0,0.000885,0,0
0:8:4.532,924.025,117.652,0,0.000885,0,0
0:8:5.233,925.666,117.859,0,0.000885,0,0
0:8:5.932,927.428,118.087,0,0.000885,0,0
0:8:6.639,928.544,118.224,0,0.000885,0,0
0:8:7.345,930.479,118.473,0,0.000885,0,0
0:8:8.043,931.595,118.617,0,0.000885,0,0
0:8:8.734,932.77,118.762,0,0.000885,0,0
0:8:9.430,934.238,118.948,0,0.000885,0,0
0:8:10.125,935.47,119.107,0,0.000885,0,0
0:8:10.828,936.76,119.272,0,0.000885,0,0
0:8:11.535,938.348,119.472,0,0.000885,0,0
0:8:12.241,939.989,119.686,0,0.000885,0,0
0:8:12.937,941.221,119.838,0,0.000885,0,0
0:8:13.636,942.809,120.045,0,0.000885,0,0
0:8:14.328,943.806,120.169,0,0.000885,0,0
0:8:15.033,945.038,120.327,0,0.000885,0,0
0:8:15.731,946.448,120.507,0,0.000885,0,0
0:8:16.437,948.09,120.713,0,0.000885,0,0
0:8:17.141,948.503,120.769,0,0.000885,0,0
0:8:17.837,950.496,121.024,0,0.000885,0,0
0:8:18.528,951.848,121.196,0,0.000885,0,0
0:8:19.235,953.254,121.375,0,0.000885,0,0
0:8:19.931,954.9,121.582,0,0.000885,0,0
0:8:20.632,956.541,121.789,0,0.000885,0,0
0:8:21.341,957.6,121.927,0,0.000885,0,0
0:8:22.045,958.596,122.051,0,0.000885,0,0
0:8:22.742,959.891,122.216,0,0.000885,0,0
0:8:23.441,961.768,122.458,0,0.000885,0,0
0:8:24.132,962.764,122.582,0,0.000885,0,0
0:8:24.828,963.939,122.734,0,0.000885,0,0
0:8:25.533,965.878,122.982,0,0.000885,0,0
0:8:26.233,967.519,123.189,0,0.000885,0,0
0:8:26.941,968.222,123.278,0,0.000885,0,0
0:8:27.642,969.574,123.451,0,0.000885,0,0
0:8:28.335,971.042,123.637,0,0.000885,0,0
0:8:29.033,972.568,123.83,0,0.000885,0,0
0:8:29.722,974.152,124.03,0,0.000885,0,0
0:8:30.418,975.446,124.195,0,0.000885,0,0
0:8:31.136,976.62,124.347,0,0.000885,0,0
0:8:31.843,978.026,124.526,0,0.000885,0,0
0:8:32.548,979.672,124.733,0,0.000885,0,0
0:8:33.243,981.198,124.933,0,0.000885,0,0
0:8:33.936,982.488,125.092,0,0.000885,0,0
0:8:34.633,983.484,125.223,0,0.000885,0,0
0:8:35.334,984.778,125.388,0,0.000885,0,0
0:8:36.030,986.713,125.629,0,0.000885,0,0
0:8:36.738,987.536,125.74,0,0.000885,0,0
0:8:37.441,989.298,125.96,0,0.000885,0,0
0:8:38.140,990.708,126.14,0,0.000885,0,0
0:8:38.832,992.056,126.312,0,0.000885,0,0
0:8:39.536,993.466,126.491,0,0.000885,0,0
0:8:40.233,994.582,126.636,0,0.000885,0,0
0:8:40.941,995.579,126.76,0,0.000885,0,0
0:8:41.649,997.104,126.953,0,0.000885,0,0
0:8:42.351,998.572,127.139,0,0.000885,0,0
0:8:43.042,1000.57,127.394,0,0.000885,0,0
0:8:43.740,1001.98,127.574,0,0.000885,0,0
0:8:44.434,1002.98,127.705,0,0.000885,0,0
0:8:45.136,1004.21,127.856,0,0.000885,0,0
0:8:45.834,1005.44,128.015,0,0.000885,0,0
0:8:46.540,1006.67,128.174,0,0.000885,0,0
0:8:47.244,1008.38,128.387,0,0.000885,0,0
0:8:47.941,1010.02,128.601,0,0.000885,0,0
0:8:48.632,1011.08,128.732,0,0.000885,0,0
0:8:49.337,1012.31,128.891,0,0.000885,0,0
0:8:50.034,1014.01,129.104,0,0.000885,0,0
0:8:50.734,1015.24,129.263,0,0.000885,0,0
0:8:51.439,1016,129.359,0,0.000885,0,0
0:8:52.145,1017.59,129.566,0,0.000885,0,0
0:8:52.843,1019.41,129.794,0,0.000885,0,0
0:8:53.541,1021.17,130.021,0,0.000885,0,0
0:8:54.232,1022.17,130.145,0,0.000885,0,0
0:8:54.935,1023.81,130.359,0,0.000885,0,0
0:8:55.634,1024.75,130.476,0,0.000885,0,0
0:8:56.339,1026.4,130.683,0,0.000885,0,0
0:8:57.045,1027.16,130.78,0,0.000885,0,0
0:8:57.750,1029.04,131.021,0,0.000885,0,0
0:8:58.441,1030.68,131.228,0,0.000885,0,0
0:8:59.138,1031.91,131.386,0,0.000885,0,0
0:8:59.832,1033.09,131.538,0,0.000885,0,0
0:9:0.533,1034.79,131.752,0,0.000885,0,0
0:9:1.240,1035.55,131.848,0,0.000885,0,0
0:9:1.944,1037.14,132.055,0,0.000885,0,0
0:9:2.641,1038.43,132.214,0,0.000885,0,0
0:9:3.339,1039.42,132.345,0,0.000885,0,0
0:9:4.030,1041.36,132.593,0,0.000885,0,0
0:9:4.733,1042.48,132.731,0,0.000885,0,0
0:9:5.441,1044.42,132.979,0,0.000885,0,0
0:9:6.137,1045.77,133.152,0,0.000885,0,0
0:9:6.842,1046.82,133.283,0,0.000885,0,0
0:9:7.546,1047.82,133.414,0,0.000885,0,0
0:9:8.237,1049.7,133.655,0,0.000885,0,0
0:9:8.934,1051.28,133.855,0,0.000885,0,0
0:9:9.627,1052.52,134.013,0,0.000885,0,0
0:9:10.332,1053.51,134.138,0,0.000885,0,0
0:9:11.027,1055.27,134.365,0,0.000885,0,0
0:9:11.738,1056.27,134.489,0,0.000885,0,0
0:9:12.440,1057.92,134.696,0,0.000885,0,0
0:9:13.137,1059.33,134.875,0,0.000885,0,0
0:9:13.838,1060.09,134.972,0,0.000885,0,0
0:9:14.533,1061.38,135.137,0,0.000885,0,0
0:9:15.227,1063.2,135.372,0,0.000885,0,0
0:9:15.938,1064.67,135.558,0,0.000885,0,0
0:9:16.644,1066.02,135.73,0,0.000885,0,0
0:9:17.348,1067.43,135.909,0,0.000885,0,0
0:9:18.040,1068.77,136.082,0,0.000885,0,0
0:9:18.738,1069.65,136.192,0,0.000885,0,0
0:9:19.429,1071.42,136.42,0,0.000885,0,0
0:9:20.134,1073.12,136.633,0,0.000885,0,0
0:9:20.840,1074.7,136.833,0,0.000885,0,0
0:9:21.548,1075.94,136.992,0,0.000885,0,0
0:9:22.250,1077.29,137.164,0,0.000885,0,0
0:9:22.946,1078.46,137.316,0,0.000885,0,0
0:9:23.638,1079.46,137.44,0,0.000885,0,0
0:9:24.337,1081.51,137.702,0,0.000885,0,0
0:9:25.039,1082.57,137.84,0,0.000885,0,0
0:9:25.733,1083.68,137.978,0,0.000885,0,0
0:9:26.439,1085.15,138.164,0,0.000885,0,0
0:9:27.145,1086.15,138.295,0,0.000885,0,0
0:9:27.842,1088.38,138.578,0,0.000885,0,0
0:9:28.540,1089.56,138.729,0,0.000885,0,0
0:9:29.229,1090.9,138.902,0,0.000885,0,0
0:9:29.924,1092.31,139.081,0,0.000885,0,0
0:9:30.619,1093.19,139.191,0,0.000885,0,0
0:9:31.320,1094.31,139.329,0,0.000885,0,0
0:9:32.026,1096.48,139.605,0,0.000885,0,0
0:9:32.739,1097.89,139.791,0,0.000885,0,0
0:9:33.434,1099.07,139.936,0,0.000885,0,0
0:9:34.130,1100.41,140.108,0,0.000885,0,0
0:9:34.841,1101.53,140.253,0,0.000885,0,0
0:9:35.538,1102.71,140.398,0,0.000885,0,0
0:9:36.237,1104.58,140.639,0,0.000885,0,0
0:9:36.944,1105.64,140.777,0,0.000885,0,0
0:9:37.650,1107.52,141.012,0,0.000885,0,0
0:9:38.341,1108.4,141.129,0,0.000885,0,0
0:9:39.037,1110.1,141.343,0,0.000885,0,0
0:9:39.735,1111.74,141.549,0,0.000885,0,0
0:9:40.436,1112.74,141.68,0,0.000885,0,0
0:9:41.141,1114.33,141.88,0,0.000885,0,0
0:9:41.846,1115.38,142.018,0,0.000885,0,0
0:9:42.544,1116.79,142.197,0,0.000885,0,0
0:9:43.240,1118.26,142.384,0,0.000885,0,0
0:9:43.930,1119.2,142.501,0,0.000885,0,0
0:9:44.629,1121.08,142.742,0,0.000885,0,0
0:9:45.335,1122.54,142.928,0,0.000885,0,0
0:9:46.038,1124.31,143.149,0,0.000885,0,0
0:9:46.742,1124.89,143.225,0,0.000885,0,0
0:9:47.443,1126.53,143.432,0,0.000885,0,0
0:9:48.138,1128.06,143.632,0,0.000885,0,0
0:9:48.836,1129.35,143.797,0,0.000885,0,0
0:9:49.545,1130.12,143.894,0,0.000885,0,0
0:9:50.241,1132.05,144.135,0,0.000885,0,0
0:9:50.941,1133.52,144.321,0,0.000885,0,0
0:9:51.650,1134.63,144.466,0,0.000885,0,0
0:9:52.353,1135.99,144.638,0,0.000885,0,0
0:9:53.047,1137.69,144.852,0,0.000885,0,0
0:9:53.739,1139.27,145.059,0,0.000885,0,0
0:9:54.436,1139.86,145.135,0,0.000885,0,0
0:9:55.139,1141.56,145.348,0,0.000885,0,0
0:9:55.841,1142.68,145.493,0,0.000885,0,0
0:9:56.550,1145.03,145.79,0,0.000885,0,0
0:9:57.253,1145.55,145.859,0,0.000885,0,0
0:9:57.951,1146.55,145.983,0,0.000885,0,0
0:9:58.646,1148.66,146.252,0,0.000885,0,0
0:9:59.339,1149.55,146.362,0,0.000885,0,0
0:10:0.036,1151.25,146.583,0,0.000885,0,0
0:10:0.738,1152.37,146.72,0,0.000885,0,0
0:10:1.440,1154.48,146.989,0,0.000885,0,0
0:10:2.146,1155.77,147.155,0,0.000885,0,0
0:10:2.846,1156.12,147.203,0,0.000885,0,0
0:10:3.542,1157.82,147.417,0,0.000885,0,0
0:10:4.247,1159.53,147.637,0,0.000885,0,0
0:10:4.938,1161.23,147.851,0,0.000885,0,0
0:10:5.633,1162.23,147.982,0,0.000885,0,0
0:10:6.342,1163.52,148.141,0,0.000885,0,0
0:10:7.045,1164.69,148.292,0,0.000885,0,0
0:10:7.742,1166.16,148.479,0,0.000885,0,0
0:10:8.437,1167.56,148.658,0,0.000885,0,0
0:10:9.126,1169.5,148.906,0,0.000885,0,0
0:10:9.833,1170.79,149.072,0,0.000885,0,0
0:10:10.525,1172.2,149.251,0,0.000885,0,0
0:10:11.227,1173.55,149.423,0,0.000885,0,0
0:10:11.933,1174.32,149.52,0,0.000885,0,0
0:10:12.632,1175.84,149.713,0,0.000885,0,0
0:10:13.340,1177.25,149.892,0,0.000885,0,0
0:10:14.034,1178.95,150.106,0,0.000885,0,0
0:10:14.735,1180.3,150.278,0,0.000885,0,0
0:10:15.431,1181.71,150.457,0,0.000885,0,0
0:10:16.139,1183.24,150.657,0,0.000885,0,0
0:10:16.846,1184.06,150.761,0,0.000885,0,0
0:10:17.552,1185.53,150.947,0,0.000885,0,0
0:10:18.244,1187.29,151.168,0,0.000885,0,0
0:10:18.947,1188.17,151.285,0,0.000885,0,0
0:10:19.646,1189.93,151.505,0,0.000885,0,0
0:10:20.338,1191.1,151.657,0,0.000885,0,0
0:10:21.042,1192.34,151.816,0,0.000885,0,0
0:10:21.747,1193.8,152.002,0,0.000885,0,0
0:10:22.444,1194.98,152.147,0,0.000885,0,0
0:10:23.141,1196.15,152.298,0,0.000885,0,0
0:10:23.839,1197.62,152.484,0,0.000885,0,0
0:10:24.527,1199.68,152.746,0,0.000885,0,0
0:10:25.234,1201.02,152.919,0,0.000885,0,0
0:10:25.930,1202.08,153.057,0,0.000885,0,0
0:10:26.641,1203.49,153.236,0,0.000885,0,0
0:10:27.345,1204.84,153.408,0,0.000885,0,0
0:10:28.040,1206.84,153.657,0,0.000885,0,0
0:10:28.742,1207.78,153.781,0,0.000885,0,0
0:10:29.439,1209.18,153.96,0,0.000885,0,0
0:10:30.130,1210.3,154.098,0,0.000885,0,0
0:10:30.833,1211.53,154.256,0,0.000885,0,0
0:10:31.543,1213,154.443,0,0.000885,0,0
0:10:32.246,1214.88,154.684,0,0.000885,0,0
0:10:32.944,1215.7,154.787,0,0.000885,0,0
0:10:33.640,1217.34,154.994,0,0.000885,0,0
0:10:34.329,1218.75,155.173,0,0.000885,0,0
0:10:35.036,1220.34,155.38,0,0.000885,0,0
0:10:35.731,1221.28,155.497,0,0.000885,0,0
0:10:36.433,1223.21,155.746,0,0.000885,0,0
0:10:37.136,1224.09,155.856,0,0.000885,0,0
0:10:37.836,1225.09,155.98,0,0.000885,0,0
0:10:38.531,1226.38,156.146,0,0.000885,0,0
0:10:39.237,1228.44,156.408,0,0.000885,0,0
0:10:39.940,1229.61,156.559,0,0.000885,0,0
0:10:40.636,1231.02,156.739,0,0.000885,0,0
0:10:41.346,1232.31,156.904,0,0.000885,0,0
0:10:42.049,1233.49,157.056,0,0.000885,0,0
0:10:42.747,1235.25,157.276,0,0.000885,0,0
0:10:43.448,1236.77,157.469,0,0.000885,0,0
0:10:44.142,1237.95,157.621,0,0.000885,0,0
0:10:44.847,1239.53,157.821,0,0.000885,0,0
0:10:45.540,1240.06,157.89,0,0.000885,0,0
0:10:46.242,1241.88,158.124,0,0.000885,0,0
0:10:46.948,1242.94,158.255,0,0.000885,0,0
0:10:47.647,1244.52,158.455,0,0.000885,0,0
0:10:48.343,1245.93,158.635,0,0.000885,0,0
0:10:49.049,1247.98,158.897,0,0.000885,0,0
0:10:49.749,1249.22,159.055,0,0.000885,0,0
0:10:50.446,1250.92,159.269,0,0.000885,0,0
0:10:51.151,1251.86,159.393,0,0.000885,0,0
0:10:51.859,1252.56,159.483,0,0.000885,0,0
0:10:52.564,1254.38,159.71,0,0.000885,0,0
0:10:53.257,1255.2,159.82,0,0.000885,0,0
0:10:53.951,1257.26,160.082,0,0.000885,0,0
0:10:54.649,1258.38,160.22,0,0.000885,0,0
0:10:55.338,1260.02,160.427,0,0.000885,0,0
0:10:56.045,1261.08,160.565,0,0.000885,0,0
0:10:56.752,1262.66,160.765,0,0.000885,0,0
0:10:57.455,1264.42,160.993,0,0.000885,0,0
0:10:58.152,1265.42,161.117,0,0.000885,0,0
0:10:58.848,1266.65,161.275,0,0.000885,0,0
0:10:59.537,1268,161.448,0,0.000885,0,0
0:11:0.246,1269.94,161.696,0,0.000885,0,0
0:11:0.943,1270.88,161.813,0,0.000885,0,0
0:11:1.650,1272.17,161.979,0,0.000885,0,0
0:11:2.354,1273.69,162.172,0,0.000885,0,0
0:11:3.045,1275.28,162.372,0,0.000885,0,0
0:11:3.737,1276.34,162.509,0,0.000885,0,0
0:11:4.447,1277.81,162.696,0,0.000885,0,0
0:11:5.135,1278.98,162.847,0,0.000885,0,0
0:11:5.843,1280.68,163.061,0,0.000885,0,0
0:11:6.549,1281.68,163.185,0,0.000885,0,0
0:11:7.253,1283.5,163.42,0,0.000885,0,0
0:11:7.951,1284.67,163.571,0,0.000885,0,0
0:11:8.644,1286.61,163.819,0,0.000885,0,0
0:11:9.347,1287.08,163.875,0,0.000885,0,0
0:11:10.043,1288.72,164.088,0,0.000885,0,0
0:11:10.735,1290.07,164.254,0,0.000885,0,0
0:11:11.437,1291.71,164.468,0,0.000885,0,0
0:11:12.146,1293.36,164.674,0,0.000885,0,0
0:11:12.844,1294.12,164.771,0,0.000885,0,0
0:11:13.551,1296.06,165.019,0,0.000885,0,0
0:11:14.246,1296.76,165.109,0,0.000885,0,0
0:11:14.948,1298.58,165.343,0,0.000885,0,0
0:11:15.645,1299.87,165.502,0,0.000885,0,0
0:11:16.352,1300.93,165.64,0,0.000885,0,0
0:11:17.056,1302.75,165.874,0,0.000885,0,0
0:11:17.755,1303.87,166.012,0,0.000885,0,0
0:11:18.446,1304.63,166.108,0,0.000885,0,0
0:11:19.141,1306.33,166.329,0,0.000885,0,0
0:11:19.847,1308.21,166.564,0,0.000885,0,0
0:11:20.539,1309.62,166.743,0,0.000885,0,0
0:11:21.248,1311.03,166.922,0,0.000885,0,0
0:11:21.952,1312.2,167.074,0,0.000885,0,0
0:11:22.648,1313.2,167.205,0,0.000885,0,0
0:11:23.344,1315.13,167.446,0,0.000885,0,0
0:11:24.031,1315.66,167.515,0,0.000885,0,0
0:11:24.728,1317.37,167.736,0,0.000885,0,0
0:11:25.445,1319.48,168.005,0,0.000885,0,0
0:11:26.157,1320.48,168.129,0,0.000885,0,0
0:11:26.861,1321.42,168.246,0,0.000885,0,0
0:11:27.561,1322.77,168.418,0,0.000885,0,0
0:11:28.253,1324.64,168.66,0,0.000885,0,0
0:11:28.950,1325.35,168.749,0,0.000885,0,0
0:11:29.642,1327.52,169.025,0,0.000885,0,0
0:11:30.345,1328.75,169.184,0,0.000885,0,0
0:11:31.040,1329.58,169.287,0,0.000885,0,0
0:11:31.750,1331.4,169.521,0,0.000885,0,0
0:11:32.454,1333.27,169.756,0,0.000885,0,0
0:11:33.149,1333.98,169.845,0,0.000885,0,0
0:11:33.840,1335.45,170.032,0,0.000885,0,0
0:11:34.536,1336.97,170.232,0,0.000885,0,0
0:11:35.240,1338.15,170.376,0,0.000885,0,0
0:11:35.942,1339.61,170.563,0,0.000885,0,0
0:11:36.651,1341.2,170.769,0,0.000885,0,0
0:11:37.357,1342.2,170.893,0,0.000885,0,0
0:11:38.054,1343.43,171.052,0,0.000885,0,0
0:11:38.752,1345.43,171.307,0,0.000885,0,0
0:11:39.441,1346.37,171.424,0,0.000885,0,0
0:11:40.137,1347.83,171.611,0,0.000885,0,0
0:11:40.843,1349.12,171.776,0,0.000885,0,0
0:11:41.553,1350.71,171.976,0,0.000885,0,0
0:11:42.258,1352.35,172.19,0,0.000885,0,0
0:11:42.953,1353.06,172.279,0,0.000885,0,0
0:11:43.642,1354.58,172.472,0,0.000885,0,0
0:11:44.340,1355.99,172.652,0,0.000885,0,0
0:11:45.032,1357.7,172.865,0,0.000885,0,0
0:11:45.734,1358.4,172.955,0,0.000885,0,0
0:11:46.442,1359.57,173.107,0,0.000885,0,0
0:11:47.148,1361.57,173.362,0,0.000885,0,0
0:11:47.843,1363.1,173.555,0,0.000885,0,0
0:11:48.539,1364.68,173.755,0,0.000885,0,0
0:11:49.231,1365.91,173.913,0,0.000885,0,0
0:11:49.937,1366.5,173.989,0,0.000885,0,0
0:11:50.631,1368.67,174.265,0,0.000885,0,0
0:11:51.342,1369.96,174.43,0,0.000885,0,0
0:11:52.050,1371.55,174.63,0,0.000885,0,0
0:11:52.750,1372.96,174.81,0,0.000885,0,0
0:11:53.439,1373.78,174.913,0,0.000885,0,0
0:11:54.136,1374.89,175.058,0,0.000885,0,0
0:11:54.838,1376.77,175.299,0,0.000885,0,0
0:11:55.543,1378.12,175.465,0,0.000885,0,0
0:11:56.253,1379.35,175.623,0,0.000885,0,0
0:11:56.957,1381.11,175.851,0,0.000885,0,0
0:11:57.655,1382.7,176.051,0,0.000885,0,0
0:11:58.350,1383.17,176.113,0,0.000885,0,0
0:11:59.050,1384.34,176.258,0,0.000885,0,0
0:11:59.744,1385.87,176.458,0,0.000885,0,0
0:12:0.441,1388.16,176.747,0,0.000885,0,0
0:12:1.154,1389.1,176.864,0,0.000885,0,0
0:12:1.859,1390.27,177.016,0,0.000885,0,0
0:12:2.558,1391.8,177.209,0,0.000885,0,0
0:12:3.252,1393.15,177.381,0,0.000885,0,0
0:12:3.950,1394.38,177.54,0,0.000885,0,0
0:12:4.639,1396.08,177.754,0,0.000885,0,0
0:12:5.357,1397.61,177.947,0,0.000885,0,0
0:12:6.056,1398.61,178.078,0,0.000885,0,0
0:12:6.765,1399.96,178.25,0,0.000885,0,0
0:12:7.468,1402.01,178.512,0,0.000885,0,0
0:12:8.160,1402.95,178.629,0,0.000885,0,0
0:12:8.853,1403.83,178.74,0,0.000885,0,0
0:12:9.559,1405.47,178.953,0,0.000885,0,0
0:12:10.251,1406.88,179.133,0,0.000885,0,0
0:12:10.957,1408.35,179.319,0,0.000885,0,0
0:12:11.663,1409.7,179.491,0,0.000885,0,0
0:12:12.368,1411.52,179.719,0,0.000885,0,0
0:12:13.065,1412.46,179.843,0,0.000885,0,0
0:12:13.759,1413.93,180.029,0,0.000885,0,0
0:12:14.453,1415.51,180.229,0,0.000885,0,0
0:12:15.150,1416.63,180.374,0,0.000885,0,0
0:12:15.845,1417.63,180.498,0,0.000885,0,0
0:12:16.555,1419.56,180.746,0,0.000885,0,0
0:12:17.258,1421.09,180.939,0,0.000885,0,0
0:12:17.958,1422.85,181.16,0,0.000885,0,0
0:12:18.654,1422.97,181.18,0,0.000885,0,0
0:12:19.348,1424.44,181.367,0,0.000885,0,0
0:12:20.052,1426.31,181.601,0,0.000885,0,0
0:12:20.748,1427.66,181.773,0,0.000885,0,0
0:12:21.457,1428.78,181.918,0,0.000885,0,0
0:12:22.160,1430.48,182.132,0,0.000885,0,0
0:12:22.857,1431.24,182.228,0,0.000885,0,0
0:12:23.558,1432.89,182.442,0,0.000885,0,0
0:12:24.253,1434.94,182.704,0,0.000885,0,0
0:12:24.947,1436.29,182.877,0,0.000885,0,0
0:12:25.659,1437.11,182.98,0,0.000885,0,0
0:12:26.364,1438.46,183.152,0,0.000885,0,0
0:12:27.069,1439.64,183.297,0,0.000885,0,0
0:12:27.766,1441.52,183.538,0,0.000885,0,0
0:12:28.465,1442.51,183.669,0,0.000885,0,0
0:12:29.158,1444.45,183.911,0,0.000885,0,0
0:12:29.848,1445.39,184.035,0,0.000885,0,0
0:12:30.546,1446.27,184.145,0,0.000885,0,0
0:12:31.243,1447.86,184.345,0,0.000885,0,0
0:12:31.947,1449.79,184.593,0,0.000885,0,0
0:12:32.654,1451.26,184.779,0,0.000885,0,0
0:12:33.343,1452.67,184.959,0,0.000885,0,0
0:12:34.038,1453.9,185.117,0,0.000885,0,0
0:12:34.736,1455.19,185.283,0,0.000885,0,0
0:12:35.445,1456.66,185.469,0,0.000885,0,0
0:12:36.156,1457.42,185.565,0,0.000885,0,0
0:12:36.860,1459.19,185.786,0,0.000885,0,0
0:12:37.554,1460.77,185.993,0,0.000885,0,0
0:12:38.253,1461.77,186.117,0,0.000885,0,0
0:12:38.944,1463.29,186.31,0,0.000885,0,0
0:12:39.635,1464.23,186.434,0,0.000885,0,0
0:12:40.331,1465.47,186.586,0,0.000885,0,0
0:12:41.046,1467.64,186.869,0,0.000885,0,0
0:12:41.755,1469.22,187.069,0,0.000885,0,0
0:12:42.458,1470.28,187.2,0,0.000885,0,0
0:12:43.159,1471.16,187.317,0,0.000885,0,0
0:12:43.855,1472.69,187.51,0,0.000885,0,0
0:12:44.553,1474.74,187.772,0,0.000885,0,0
0:12:45.253,1475.44,187.861,0,0.000885,0,0
0:12:45.959,1477.03,188.061,0,0.000885,0,0
0:12:46.665,1478.67,188.268,0,0.000885,0,0
0:12:47.370,1479.21,188.337,0,0.000885,0,0
0:12:48.066,1481.27,188.599,0,0.000885,0,0
0:12:48.758,1482.62,188.772,0,0.000885,0,0
0:12:49.450,1483.92,188.937,0,0.000885,0,0
0:12:50.159,1485.92,189.192,0,0.000885,0,0
0:12:50.857,1486.74,189.296,0,0.000885,0,0
0:12:51.563,1487.92,189.447,0,0.000885,0,0
0:12:52.268,1489.69,189.675,0,0.000885,0,0
0:12:52.959,1490.57,189.785,0,0.000885,0,0
0:12:53.656,1491.57,189.916,0,0.000885,0,0
0:12:54.349,1493.22,190.123,0,0.000885,0,0
0:12:55.040,1495.28,190.385,0,0.000885,0,0
0:12:55.747,1496.46,190.537,0,0.000885,0,0
0:12:56.455,1497.93,190.723,0,0.000885,0,0
0:12:57.158,1499.17,190.881,0,0.000885,0,0
0:12:57.856,1500.05,190.992,0,0.000885,0,0
0:12:58.320,1326.82,168.935,0,0.000885,0,0