File: DataFile2021-06-06_073306.csv
Test ID:,Date Tested:,Time:,Test Type:,Diameter Avg. (mm):,Cyl. Corr. Factor:,Height (mm):,Age (days):,Weight (kN):,Break Type:,Ramp Rate (MPa/s):,Load at Break (kN):,Stress at Break (MPa):
12,6/6/2021,07:33,Cylinder,100,1,200,0,13.39,3,0.24,336.71,42.87
Sample Time,Load (kN),Stress (MPa),Long. Strain,Trans. Strain,Chan1 Deflection (mm),Chan2 Deflection (mm)
0:0:7.192,5.10211,0.648107,0,0.000885,0,0
0:0:7.391,7.86001,0.99974,0,0.000885,0,0
0:0:7.588,10.2042,1.29621,0,0.000885,0,0
0:0:7.789,9.79498,1.24795,0,0.000885,0,0
0:0:7.985,9.20782,1.17211,0,0.000885,0,0
0:0:8.185,9.32347,1.1859,0,0.000885,0,0
0:0:8.382,8.91424,1.13763,0,0.000885,0,0
0:0:8.579,8.91424,1.13763,0,0.000885,0,0
0:0:8.781,8.79858,1.11695,0,0.000885,0,0
0:0:8.977,9.14999,1.16521,0,0.000885,0,0
0:0:9.175,8.56283,1.08937,0,0.000885,0,0
0:0:9.376,8.505,1.08248,0,0.000885,0,0
0:0:9.571,8.74076,1.11006,0,0.000885,0,0
0:0:9.773,9.79498,1.24795,0,0.000885,0,0
0:0:9.971,9.85281,1.25485,0,0.000885,0,0
0:0:10.166,10.1464,1.28932,0,0.000885,0,0
0:0:10.368,10.3243,1.3169,0,0.000885,0,0
0:0:10.563,10.8492,1.37895,0,0.000885,0,0
0:0:10.764,11.0271,1.40653,0,0.000885,0,0
0:0:10.964,11.6143,1.47548,0,0.000885,0,0
0:0:11.160,12.1392,1.54443,0,0.000885,0,0
0:0:11.362,13.3135,1.69611,0,0.000885,0,0
0:0:11.558,13.6071,1.73058,0,0.000885,0,0
0:0:11.759,14.3678,1.82711,0,0.000885,0,0
0:0:11.959,14.3678,1.82711,0,0.000885,0,0
0:0:12.152,14.7814,1.88227,0,0.000885,0,0
0:0:12.354,15.1907,1.93743,0,0.000885,0,0
0:0:12.556,16.0136,2.04085,0,0.000885,0,0
0:0:12.759,16.0714,2.04774,0,0.000885,0,0
0:0:12.962,17.1257,2.17874,0,0.000885,0,0
0:0:13.164,17.4192,2.22011,0,0.000885,0,0
0:0:13.368,17.8285,2.26838,0,0.000885,0,0
0:0:13.570,18.1221,2.30974,0,0.000885,0,0
0:0:13.770,18.4735,2.35111,0,0.000885,0,0
0:0:13.972,18.7092,2.38559,0,0.000885,0,0
0:0:14.171,19.8257,2.52348,0,0.000885,0,0
0:0:14.370,19.9414,2.53727,0,0.000885,0,0
0:0:14.570,19.9992,2.54417,0,0.000885,0,0
0:0:14.767,20.1193,2.55795,0,0.000885,0,0
0:0:14.969,20.6442,2.6269,0,0.000885,0,0
0:0:15.166,21.1157,2.68896,0,0.000885,0,0
0:0:15.364,21.1735,2.69585,0,0.000885,0,0
0:0:15.566,21.5249,2.73722,0,0.000885,0,0
0:0:15.760,21.992,2.79927,0,0.000885,0,0
0:0:15.962,22.3479,2.84753,0,0.000885,0,0
0:0:16.162,22.4057,2.85443,0,0.000885,0,0
0:0:16.359,23.2864,2.96475,0,0.000885,0,0
0:0:16.560,23.2242,2.95785,0,0.000885,0,0
0:0:16.755,24.1627,3.07506,0,0.000885,0,0
0:0:16.956,23.8692,3.04059,0,0.000885,0,0
0:0:17.157,24.5141,3.12333,0,0.000885,0,0
0:0:17.352,24.6343,3.13711,0,0.000885,0,0
0:0:17.555,25.8041,3.2888,0,0.000885,0,0
0:0:17.756,25.6307,3.26122,0,0.000885,0,0
0:0:17.961,26.3913,3.35775,0,0.000885,0,0
0:0:18.163,26.7427,3.40601,0,0.000885,0,0
0:0:18.367,27.3877,3.48875,0,0.000885,0,0
0:0:18.569,27.7436,3.53012,0,0.000885,0,0
0:0:18.769,28.2684,3.59906,0,0.000885,0,0
0:0:18.972,28.5042,3.62664,0,0.000885,0,0
0:0:19.173,28.7978,3.66801,0,0.000885,0,0
0:0:19.368,29.5584,3.76454,0,0.000885,0,0
0:0:19.570,29.9721,3.8128,0,0.000885,0,0
0:0:19.768,30.1456,3.84038,0,0.000885,0,0
0:0:19.963,30.6171,3.89554,0,0.000885,0,0
0:0:20.167,30.9107,3.93691,0,0.000885,0,0
0:0:20.363,30.9685,3.9438,0,0.000885,0,0
0:0:20.562,31.4934,4.01275,0,0.000885,0,0
0:0:20.762,31.3199,3.98517,0,0.000885,0,0
0:0:20.958,31.9649,4.06791,0,0.000885,0,0
0:0:21.161,32.432,4.12996,0,0.000885,0,0
0:0:21.358,32.9035,4.19201,0,0.000885,0,0
0:0:21.559,33.1971,4.22649,0,0.000885,0,0
0:0:21.758,33.722,4.29543,0,0.000885,0,0
0:0:21.954,34.3091,4.37128,0,0.000885,0,0
0:0:22.157,34.7228,4.41954,0,0.000885,0,0
0:0:22.354,34.9541,4.45401,0,0.000885,0,0
0:0:22.553,35.7192,4.55054,0,0.000885,0,0
0:0:22.754,35.777,4.55743,0,0.000885,0,0
0:0:22.957,36.1285,4.5988,0,0.000885,0,0
0:0:23.161,36.7156,4.67465,0,0.000885,0,0
0:0:23.364,37.3028,4.75049,0,0.000885,0,0
0:0:23.565,37.4763,4.77117,0,0.000885,0,0
0:0:23.768,38.2992,4.87459,0,0.000885,0,0
0:0:23.970,38.2992,4.87459,0,0.000885,0,0
0:0:24.172,38.6506,4.92286,0,0.000885,0,0
0:0:24.370,38.9442,4.95733,0,0.000885,0,0
0:0:24.569,38.8864,4.95044,0,0.000885,0,0
0:0:24.770,39.4112,5.01938,0,0.000885,0,0
0:0:24.966,39.8828,5.07454,0,0.000885,0,0
0:0:25.167,40.3498,5.13659,0,0.000885,0,0
0:0:25.366,40.6434,5.17796,0,0.000885,0,0
0:0:25.563,40.9948,5.21933,0,0.000885,0,0
0:0:25.767,41.2306,5.24691,0,0.000885,0,0
0:0:25.961,42.0535,5.35723,0,0.000885,0,0
0:0:26.160,42.0535,5.35723,0,0.000885,0,0
0:0:26.362,42.5784,5.41928,0,0.000885,0,0
0:0:26.559,42.9342,5.46754,0,0.000885,0,0
0:0:26.761,43.9306,5.59165,0,0.000885,0,0
0:0:26.958,44.2242,5.63302,0,0.000885,0,0
0:0:27.157,44.9849,5.72954,0,0.000885,0,0
0:0:27.359,45.1005,5.74333,0,0.000885,0,0
0:0:27.562,45.8656,5.83986,0,0.000885,0,0
0:0:27.764,46.217,5.88123,0,0.000885,0,0
0:0:27.968,46.7464,5.95018,0,0.000885,0,0
0:0:28.170,46.4528,5.9157,0,0.000885,0,0
0:0:28.371,46.6263,5.93639,0,0.000885,0,0
0:0:28.573,46.7464,5.95018,0,0.000885,0,0
0:0:28.774,47.3914,6.03291,0,0.000885,0,0
0:0:28.975,47.6849,6.07428,0,0.000885,0,0
0:0:29.172,48.6813,6.19839,0,0.000885,0,0
0:0:29.374,48.5034,6.1777,0,0.000885,0,0
0:0:29.572,49.3842,6.28802,0,0.000885,0,0
0:0:29.770,49.6777,6.32249,0,0.000885,0,0
0:0:29.972,49.9135,6.35697,0,0.000885,0,0
0:0:30.167,50.1448,6.38455,0,0.000885,0,0
0:0:30.368,50.4962,6.43281,0,0.000885,0,0
0:0:30.567,51.1412,6.50865,0,0.000885,0,0
0:0:30.764,51.2613,6.52934,0,0.000885,0,0
0:0:30.966,51.6705,6.5776,0,0.000885,0,0
0:0:31.162,52.1999,6.64655,0,0.000885,0,0
0:0:31.362,52.6669,6.7086,0,0.000885,0,0
0:0:31.562,53.0806,6.75686,0,0.000885,0,0
0:0:31.758,53.7834,6.84649,0,0.000885,0,0
0:0:31.960,53.9569,6.86718,0,0.000885,0,0
0:0:32.158,54.3706,6.92234,0,0.000885,0,0
0:0:32.357,54.722,6.9706,0,0.000885,0,0
0:0:32.559,54.7798,6.97749,0,0.000885,0,0
0:0:32.763,54.9533,6.99818,0,0.000885,0,0
0:0:32.968,55.7184,7.09471,0,0.000885,0,0
0:0:33.170,56.012,7.12918,0,0.000885,0,0
0:0:33.371,56.1277,7.14986,0,0.000885,0,0
0:0:33.572,56.7148,7.21881,0,0.000885,0,0
0:0:33.775,57.7112,7.34981,0,0.000885,0,0
0:0:33.977,57.7691,7.35671,0,0.000885,0,0
0:0:34.177,58.414,7.43944,0,0.000885,0,0
0:0:34.374,58.7699,7.48081,0,0.000885,0,0
0:0:34.576,59.237,7.54286,0,0.000885,0,0
0:0:34.771,59.6462,7.59113,0,0.000885,0,0
0:0:34.972,59.9976,7.63939,0,0.000885,0,0
0:0:35.173,60.2334,7.66697,0,0.000885,0,0
0:0:35.370,60.3535,7.68076,0,0.000885,0,0
0:0:35.572,60.7627,7.73592,0,0.000885,0,0
0:0:35.769,61.1141,7.78418,0,0.000885,0,0
0:0:35.967,61.5234,7.83244,0,0.000885,0,0
0:0:36.168,61.6435,7.84623,0,0.000885,0,0
0:0:36.365,62.2262,7.92208,0,0.000885,0,0
0:0:36.568,62.5198,7.96344,0,0.000885,0,0
0:0:36.764,62.7555,7.99102,0,0.000885,0,0
0:0:36.963,63.2848,8.05997,0,0.000885,0,0
0:0:37.164,64.3391,8.19097,0,0.000885,0,0
0:0:37.362,64.8106,8.25302,0,0.000885,0,0
0:0:37.562,65.2777,8.30818,0,0.000885,0,0
0:0:37.764,65.5712,8.34955,0,0.000885,0,0
0:0:37.969,65.807,8.37713,0,0.000885,0,0
0:0:38.171,65.5712,8.34955,0,0.000885,0,0
0:0:38.373,66.452,8.45987,0,0.000885,0,0
0:0:38.575,66.7456,8.50124,0,0.000885,0,0
0:0:38.776,67.2705,8.56329,0,0.000885,0,0
0:0:38.978,67.3906,8.57708,0,0.000885,0,0
0:0:39.180,67.9777,8.65292,0,0.000885,0,0
0:0:39.377,68.1512,8.6805,0,0.000885,0,0
0:0:39.576,68.7384,8.74945,0,0.000885,0,0
0:0:39.777,69.1476,8.80461,0,0.000885,0,0
0:0:39.973,69.6191,8.86666,0,0.000885,0,0
0:0:40.176,70.3798,8.96318,0,0.000885,0,0
0:0:40.372,70.6733,8.99766,0,0.000885,0,0
0:0:40.572,70.789,9.01145,0,0.000885,0,0
0:0:40.773,70.9669,9.03903,0,0.000885,0,0
0:0:40.969,71.9055,9.15624,0,0.000885,0,0
0:0:41.170,71.9633,9.16313,0,0.000885,0,0
0:0:41.368,71.9055,9.15624,0,0.000885,0,0
0:0:41.565,72.3726,9.21829,0,0.000885,0,0
0:0:41.768,72.9597,9.28724,0,0.000885,0,0
0:0:41.962,73.1377,9.31482,0,0.000885,0,0
0:0:42.163,73.667,9.37687,0,0.000885,0,0
0:0:42.363,74.1919,9.44582,0,0.000885,0,0
0:0:42.561,74.8369,9.52855,0,0.000885,0,0
0:0:42.763,75.0148,9.54924,0,0.000885,0,0
0:0:42.964,75.7176,9.63887,0,0.000885,0,0
0:0:43.169,75.9534,9.67334,0,0.000885,0,0
0:0:43.372,76.6562,9.76298,0,0.000885,0,0
0:0:43.574,76.4783,9.7354,0,0.000885,0,0
0:0:43.776,77.2434,9.83192,0,0.000885,0,0
0:0:43.977,77.6526,9.88708,0,0.000885,0,0
0:0:44.179,78.2398,9.96292,0,0.000885,0,0
0:0:44.379,78.649,10.0112,0,0.000885,0,0
0:0:44.574,78.649,10.0112,0,0.000885,0,0
0:0:44.775,79.0627,10.0663,0,0.000885,0,0
0:0:44.974,78.9426,10.0526,0,0.000885,0,0
0:0:45.172,78.9426,10.0526,0,0.000885,0,0
0:0:45.372,79.0627,10.0663,0,0.000885,0,0
0:0:45.568,79.939,10.1767,0,0.000885,0,0
0:0:45.768,80.8197,10.287,0,0.000885,0,0
0:0:45.969,81.7583,10.4111,0,0.000885,0,0
0:0:46.165,82.2298,10.4662,0,0.000885,0,0
0:0:46.368,82.5812,10.5145,0,0.000885,0,0
0:0:46.561,82.8748,10.549,0,0.000885,0,0
0:0:46.763,83.3419,10.611,0,0.000885,0,0
0:0:46.963,83.3997,10.6179,0,0.000885,0,0
0:0:47.160,83.8712,10.68,0,0.000885,0,0
0:0:47.362,84.3383,10.7351,0,0.000885,0,0
0:0:47.564,84.8676,10.8041,0,0.000885,0,0
0:0:47.769,84.8676,10.8041,0,0.000885,0,0
0:0:47.971,85.2769,10.8592,0,0.000885,0,0
0:0:48.173,84.9833,10.8179,0,0.000885,0,0
0:0:48.374,85.5704,10.8937,0,0.000885,0,0
0:0:48.575,86.2154,10.9765,0,0.000885,0,0
0:0:48.778,86.9183,11.0661,0,0.000885,0,0
0:0:48.978,86.9183,11.0661,0,0.000885,0,0
0:0:49.174,87.3319,11.1212,0,0.000885,0,0
0:0:49.376,88.0348,11.2109,0,0.000885,0,0
0:0:49.573,88.1504,11.2247,0,0.000885,0,0
0:0:49.773,88.7376,11.3005,0,0.000885,0,0
0:0:49.973,89.2669,11.3626,0,0.000885,0,0
0:0:50.170,90.0854,11.4729,0,0.000885,0,0
0:0:50.373,89.8541,11.4384,0,0.000885,0,0
0:0:50.570,90.6147,11.5349,0,0.000885,0,0
0:0:50.768,90.5569,11.528,0,0.000885,0,0
0:0:50.969,91.3754,11.6315,0,0.000885,0,0
0:0:51.164,91.9625,11.7073,0,0.000885,0,0
0:0:51.367,92.3139,11.7556,0,0.000885,0,0
0:0:51.564,92.2561,11.7487,0,0.000885,0,0
0:0:51.761,92.6075,11.79,0,0.000885,0,0
0:0:51.962,92.6075,11.79,0,0.000885,0,0
0:0:52.159,93.3726,11.8866,0,0.000885,0,0
0:0:52.360,94.1333,11.9831,0,0.000885,0,0
0:0:52.562,94.5425,12.0382,0,0.000885,0,0
0:0:52.766,94.3112,12.0107,0,0.000885,0,0
0:0:52.968,95.0718,12.1072,0,0.000885,0,0
0:0:53.171,95.4232,12.1486,0,0.000885,0,0
0:0:53.372,95.8369,12.2037,0,0.000885,0,0
0:0:53.574,96.304,12.2589,0,0.000885,0,0
0:0:53.776,96.5976,12.3002,0,0.000885,0,0
0:0:53.977,97.1847,12.3761,0,0.000885,0,0
0:0:54.173,97.2426,12.383,0,0.000885,0,0
0:0:54.374,97.5362,12.4175,0,0.000885,0,0
0:0:54.574,98.4747,12.5416,0,0.000885,0,0
0:0:54.771,98.8261,12.5829,0,0.000885,0,0
0:0:54.973,99.1197,12.6174,0,0.000885,0,0
0:0:55.168,99.0619,12.6105,0,0.000885,0,0
0:0:55.369,100.116,12.7484,0,0.000885,0,0
0:0:55.570,99.9382,12.7277,0,0.000885,0,0
0:0:55.764,100.703,12.8242,0,0.000885,0,0
0:0:55.967,101.584,12.9346,0,0.000885,0,0
0:0:56.164,101.464,12.9208,0,0.000885,0,0
0:0:56.366,102.403,13.038,0,0.000885,0,0
0:0:56.564,102.523,13.0518,0,0.000885,0,0
0:0:56.760,102.523,13.0518,0,0.000885,0,0
0:0:56.962,102.932,13.1069,0,0.000885,0,0
0:0:57.158,103.283,13.1483,0,0.000885,0,0
0:0:57.358,103.635,13.1966,0,0.000885,0,0
0:0:57.560,103.813,13.2172,0,0.000885,0,0
0:0:57.763,104.106,13.2517,0,0.000885,0,0
0:0:57.967,104.631,13.3207,0,0.000885,0,0
0:0:58.170,105.045,13.3758,0,0.000885,0,0
0:0:58.371,105.512,13.431,0,0.000885,0,0
0:0:58.573,106.099,13.5068,0,0.000885,0,0
0:0:58.775,106.215,13.5206,0,0.000885,0,0
0:0:58.977,106.922,13.6103,0,0.000885,0,0
0:0:59.176,106.922,13.6103,0,0.000885,0,0
0:0:59.374,107.798,13.7275,0,0.000885,0,0
0:0:59.577,107.918,13.7413,0,0.000885,0,0
0:0:59.773,108.27,13.7826,0,0.000885,0,0
0:0:59.974,109.088,13.8929,0,0.000885,0,0
0:1:0.172,109.266,13.9136,0,0.000885,0,0
0:1:0.369,109.502,13.9412,0,0.000885,0,0
0:1:0.571,109.618,13.955,0,0.000885,0,0
0:1:0.766,109.795,13.9826,0,0.000885,0,0
0:1:0.968,111.673,14.217,0,0.000885,0,0
0:1:1.167,111.085,14.1411,0,0.000885,0,0
0:1:1.362,111.846,14.2377,0,0.000885,0,0
0:1:1.565,112.491,14.3204,0,0.000885,0,0
0:1:1.760,112.433,14.3135,0,0.000885,0,0
0:1:1.961,112.607,14.3411,0,0.000885,0,0
0:1:2.160,113.545,14.4583,0,0.000885,0,0
0:1:2.356,113.256,14.4169,0,0.000885,0,0
0:1:2.558,114.017,14.5204,0,0.000885,0,0
0:1:2.761,114.075,14.5273,0,0.000885,0,0
0:1:2.963,114.72,14.61,0,0.000885,0,0
0:1:3.167,115.129,14.6583,0,0.000885,0,0
0:1:3.368,115.071,14.6514,0,0.000885,0,0
0:1:3.570,115.6,14.7203,0,0.000885,0,0
0:1:3.772,116.13,14.7893,0,0.000885,0,0
0:1:3.973,116.712,14.8582,0,0.000885,0,0
0:1:4.175,117.126,14.9134,0,0.000885,0,0
0:1:4.371,117.42,14.9478,0,0.000885,0,0
0:1:4.573,118.007,15.0237,0,0.000885,0,0
0:1:4.770,118.652,15.1064,0,0.000885,0,0
0:1:4.969,118.532,15.0926,0,0.000885,0,0
0:1:5.170,118.768,15.1202,0,0.000885,0,0
0:1:5.364,119.061,15.1616,0,0.000885,0,0
0:1:5.567,119.88,15.265,0,0.000885,0,0
0:1:5.764,120.235,15.3064,0,0.000885,0,0
0:1:5.963,120.88,15.3891,0,0.000885,0,0
0:1:6.165,120.938,15.396,0,0.000885,0,0
0:1:6.359,121.819,15.5132,0,0.000885,0,0
0:1:6.561,122.108,15.5477,0,0.000885,0,0
0:1:6.758,122.522,15.6028,0,0.000885,0,0
0:1:6.956,121.757,15.4994,0,0.000885,0,0
0:1:7.158,122.873,15.6442,0,0.000885,0,0
0:1:7.354,122.695,15.6235,0,0.000885,0,0
0:1:7.555,123.46,15.72,0,0.000885,0,0
0:1:7.757,124.399,15.8373,0,0.000885,0,0
0:1:7.961,124.399,15.8373,0,0.000885,0,0
0:1:8.164,125.16,15.9338,0,0.000885,0,0
0:1:8.368,125.338,15.9614,0,0.000885,0,0
0:1:8.570,126.098,16.0579,0,0.000885,0,0
0:1:8.770,126.214,16.0717,0,0.000885,0,0
0:1:8.972,126.628,16.1199,0,0.000885,0,0
0:1:9.175,126.801,16.1475,0,0.000885,0,0
0:1:9.371,127.388,16.2165,0,0.000885,0,0
0:1:9.571,127.388,16.2165,0,0.000885,0,0
0:1:9.771,128.153,16.3199,0,0.000885,0,0
0:1:9.967,128.442,16.3544,0,0.000885,0,0
0:1:10.170,128.798,16.3957,0,0.000885,0,0
0:1:10.368,129.15,16.444,0,0.000885,0,0
0:1:10.566,129.559,16.4992,0,0.000885,0,0
0:1:10.766,129.675,16.5129,0,0.000885,0,0
0:1:10.960,130.262,16.5888,0,0.000885,0,0
0:1:11.162,130.555,16.6233,0,0.000885,0,0
0:1:11.359,131.32,16.7198,0,0.000885,0,0
0:1:11.559,131.73,16.7749,0,0.000885,0,0
0:1:11.758,131.494,16.7405,0,0.000885,0,0
0:1:11.954,133.193,16.9611,0,0.000885,0,0
0:1:12.156,132.904,16.9197,0,0.000885,0,0
0:1:12.353,133.077,16.9473,0,0.000885,0,0
0:1:12.553,133.549,17.0025,0,0.000885,0,0
0:1:12.755,134.016,17.0645,0,0.000885,0,0
0:1:12.957,134.252,17.0921,0,0.000885,0,0
0:1:13.161,134.839,17.1679,0,0.000885,0,0
0:1:13.364,134.777,17.1611,0,0.000885,0,0
0:1:13.564,135.426,17.2438,0,0.000885,0,0
0:1:13.767,136.245,17.3472,0,0.000885,0,0
0:1:13.969,136.832,17.4231,0,0.000885,0,0
0:1:14.171,136.654,17.4024,0,0.000885,0,0
0:1:14.369,136.832,17.4231,0,0.000885,0,0
0:1:14.567,137.241,17.4713,0,0.000885,0,0
0:1:14.770,137.944,17.5609,0,0.000885,0,0
0:1:14.964,138.18,17.5954,0,0.000885,0,0
0:1:15.164,138.882,17.6851,0,0.000885,0,0
0:1:15.364,139.47,17.7609,0,0.000885,0,0
0:1:15.560,139.412,17.7471,0,0.000885,0,0
0:1:15.763,139.883,17.8092,0,0.000885,0,0
0:1:15.959,140.177,17.8505,0,0.000885,0,0
0:1:16.159,140.466,17.885,0,0.000885,0,0
0:1:16.360,140.528,17.8919,0,0.000885,0,0
0:1:16.556,141.111,17.9677,0,0.000885,0,0
0:1:16.757,141.525,18.016,0,0.000885,0,0
0:1:16.956,141.698,18.0436,0,0.000885,0,0
0:1:17.152,142.343,18.1263,0,0.000885,0,0
0:1:17.354,142.579,18.1539,0,0.000885,0,0
0:1:17.557,142.988,18.2091,0,0.000885,0,0
0:1:17.760,143.753,18.3056,0,0.000885,0,0
0:1:17.963,144.105,18.3469,0,0.000885,0,0
0:1:18.164,144.928,18.4504,0,0.000885,0,0
0:1:18.368,144.928,18.4504,0,0.000885,0,0
0:1:18.569,145.688,18.5469,0,0.000885,0,0
0:1:18.771,145.982,18.5883,0,0.000885,0,0
0:1:18.973,146.449,18.6434,0,0.000885,0,0
0:1:19.169,146.8,18.6917,0,0.000885,0,0
0:1:19.371,147.387,18.7675,0,0.000885,0,0
0:1:19.568,147.272,18.7537,0,0.000885,0,0
0:1:19.768,148.095,18.8572,0,0.000885,0,0
0:1:19.969,148.446,18.8985,0,0.000885,0,0
0:1:20.163,148.326,18.8847,0,0.000885,0,0
0:1:20.365,148.855,18.9537,0,0.000885,0,0
0:1:20.562,149.207,18.9951,0,0.000885,0,0
0:1:20.760,149.736,19.064,0,0.000885,0,0
0:1:20.962,149.678,19.0571,0,0.000885,0,0
0:1:21.157,150.381,19.1467,0,0.000885,0,0
0:1:21.358,150.79,19.2019,0,0.000885,0,0
0:1:21.557,151.435,19.2846,0,0.000885,0,0
0:1:21.754,151.377,19.2708,0,0.000885,0,0
0:1:21.956,151.729,19.3191,0,0.000885,0,0
0:1:22.152,152.08,19.3605,0,0.000885,0,0
0:1:22.352,152.667,19.4363,0,0.000885,0,0
0:1:22.553,152.961,19.4777,0,0.000885,0,0
0:1:22.756,153.957,19.6018,0,0.000885,0,0
0:1:22.958,153.842,19.588,0,0.000885,0,0
0:1:23.161,154.66,19.6914,0,0.000885,0,0
0:1:23.363,154.954,19.7328,0,0.000885,0,0
0:1:23.563,155.483,19.7948,0,0.000885,0,0
0:1:23.765,155.363,19.7811,0,0.000885,0,0
0:1:23.968,156.244,19.8914,0,0.000885,0,0
0:1:24.167,155.599,19.8086,0,0.000885,0,0
0:1:24.364,156.715,19.9534,0,0.000885,0,0
0:1:24.567,157.302,20.0293,0,0.000885,0,0
0:1:24.760,157.067,20.0017,0,0.000885,0,0
0:1:24.961,157.947,20.112,0,0.000885,0,0
0:1:25.162,158.299,20.1534,0,0.000885,0,0
0:1:25.358,158.299,20.1534,0,0.000885,0,0
0:1:25.560,158.944,20.2361,0,0.000885,0,0
0:1:25.756,159.589,20.3188,0,0.000885,0,0
0:1:25.955,159.469,20.3051,0,0.000885,0,0
0:1:26.157,160.349,20.4154,0,0.000885,0,0
0:1:26.351,160.176,20.3947,0,0.000885,0,0
0:1:26.553,161.346,20.5464,0,0.000885,0,0
0:1:26.750,161.582,20.574,0,0.000885,0,0
0:1:26.948,161.875,20.6084,0,0.000885,0,0
0:1:27.150,162.992,20.7532,0,0.000885,0,0
0:1:27.346,163.637,20.836,0,0.000885,0,0
0:1:27.546,163.401,20.8015,0,0.000885,0,0
0:1:27.748,162.992,20.7532,0,0.000885,0,0
0:1:27.952,163.459,20.8153,0,0.000885,0,0
0:1:28.155,164.046,20.8842,0,0.000885,0,0
0:1:28.357,164.219,20.9118,0,0.000885,0,0
0:1:28.559,164.633,20.9601,0,0.000885,0,0
0:1:28.761,165.158,21.029,0,0.000885,0,0
0:1:28.963,165.923,21.1255,0,0.000885,0,0
0:1:29.165,165.803,21.1117,0,0.000885,0,0
0:1:29.363,166.742,21.229,0,0.000885,0,0
0:1:29.563,167.329,21.3048,0,0.000885,0,0
0:1:29.763,167.329,21.3048,0,0.000885,0,0
0:1:29.958,167.858,21.3737,0,0.000885,0,0
0:1:30.160,168.094,21.4013,0,0.000885,0,0
0:1:30.359,168.681,21.4772,0,0.000885,0,0
0:1:30.559,168.854,21.4979,0,0.000885,0,0
0:1:30.760,169.384,21.5668,0,0.000885,0,0
0:1:30.954,169.384,21.5668,0,0.000885,0,0
0:1:31.154,169.793,21.622,0,0.000885,0,0
0:1:31.355,169.971,21.6426,0,0.000885,0,0
0:1:31.551,170.616,21.7254,0,0.000885,0,0
0:1:31.753,170.732,21.7392,0,0.000885,0,0
0:1:31.949,171.786,21.8702,0,0.000885,0,0
0:1:32.149,171.786,21.8702,0,0.000885,0,0
0:1:32.350,172.373,21.946,0,0.000885,0,0
0:1:32.546,173.076,22.0356,0,0.000885,0,0
0:1:32.749,173.427,22.0839,0,0.000885,0,0
0:1:32.951,173.783,22.1253,0,0.000885,0,0
0:1:33.155,174.78,22.2563,0,0.000885,0,0
0:1:33.358,174.366,22.2011,0,0.000885,0,0
0:1:33.558,174.953,22.277,0,0.000885,0,0
0:1:33.760,175.66,22.3666,0,0.000885,0,0
0:1:33.961,175.131,22.2976,0,0.000885,0,0
0:1:34.164,175.598,22.3597,0,0.000885,0,0
0:1:34.365,176.479,22.47,0,0.000885,0,0
0:1:34.560,176.772,22.5045,0,0.000885,0,0
0:1:34.762,176.421,22.4631,0,0.000885,0,0
0:1:34.960,177.124,22.5528,0,0.000885,0,0
0:1:35.157,177.653,22.6217,0,0.000885,0,0
0:1:35.359,178.12,22.6769,0,0.000885,0,0
0:1:35.555,178.765,22.7596,0,0.000885,0,0
0:1:35.756,179.352,22.8354,0,0.000885,0,0
0:1:35.956,179.059,22.801,0,0.000885,0,0
0:1:36.151,179.646,22.8699,0,0.000885,0,0
0:1:36.353,180.291,22.9526,0,0.000885,0,0
0:1:36.550,180.762,23.0147,0,0.000885,0,0
0:1:36.750,181.056,23.0492,0,0.000885,0,0
0:1:36.952,181.701,23.1319,0,0.000885,0,0
0:1:37.155,182.11,23.1871,0,0.000885,0,0
0:1:37.357,182.284,23.2078,0,0.000885,0,0
0:1:37.558,182.577,23.2491,0,0.000885,0,0
0:1:37.763,183.222,23.3319,0,0.000885,0,0
0:1:37.965,183.4,23.3525,0,0.000885,0,0
0:1:38.169,183.636,23.3801,0,0.000885,0,0
0:1:38.371,184.575,23.4973,0,0.000885,0,0
0:1:38.572,184.69,23.518,0,0.000885,0,0
0:1:38.774,184.397,23.4766,0,0.000885,0,0
0:1:38.976,184.926,23.5456,0,0.000885,0,0
0:1:39.174,185.864,23.6628,0,0.000885,0,0
0:1:39.373,186.332,23.7249,0,0.000885,0,0
0:1:39.573,186.803,23.7869,0,0.000885,0,0
0:1:39.768,187.097,23.8214,0,0.000885,0,0
0:1:39.970,187.212,23.8352,0,0.000885,0,0
0:1:40.169,187.622,23.8903,0,0.000885,0,0
0:1:40.367,188.444,23.9938,0,0.000885,0,0
0:1:40.568,188.387,23.9869,0,0.000885,0,0
0:1:40.762,188.912,24.0558,0,0.000885,0,0
0:1:40.963,189.677,24.1523,0,0.000885,0,0
0:1:41.162,190.379,24.242,0,0.000885,0,0
0:1:41.359,190.202,24.2144,0,0.000885,0,0
0:1:41.561,190.264,24.2282,0,0.000885,0,0
0:1:41.755,190.909,24.304,0,0.000885,0,0
0:1:41.957,191.496,24.3799,0,0.000885,0,0
0:1:42.156,191.669,24.4074,0,0.000885,0,0
0:1:42.353,191.963,24.4419,0,0.000885,0,0
0:1:42.555,192.55,24.5178,0,0.000885,0,0
0:1:42.757,193.431,24.6281,0,0.000885,0,0
0:1:42.959,193.137,24.5936,0,0.000885,0,0
0:1:43.161,193.724,24.6625,0,0.000885,0,0
0:1:43.361,193.898,24.6901,0,0.000885,0,0
0:1:43.561,194.076,24.7108,0,0.000885,0,0
0:1:43.762,194.369,24.7453,0,0.000885,0,0
0:1:43.960,194.837,24.8073,0,0.000885,0,0
0:1:44.161,195.482,24.8901,0,0.000885,0,0
0:1:44.354,195.482,24.8901,0,0.000885,0,0
0:1:44.554,195.953,24.9521,0,0.000885,0,0
0:1:44.751,196.184,24.9797,0,0.000885,0,0
0:1:44.947,197.123,25.0969,0,0.000885,0,0
0:1:45.149,197.474,25.1452,0,0.000885,0,0
0:1:45.352,198.239,25.2417,0,0.000885,0,0
0:1:45.551,198.119,25.2279,0,0.000885,0,0
0:1:45.749,198.884,25.3244,0,0.000885,0,0
0:1:45.953,199.236,25.3658,0,0.000885,0,0
0:1:46.154,199.529,25.4072,0,0.000885,0,0
0:1:46.350,200.117,25.4761,0,0.000885,0,0
0:1:46.549,200.762,25.5589,0,0.000885,0,0
0:1:46.747,200.877,25.5795,0,0.000885,0,0
0:1:46.950,201.349,25.6347,0,0.000885,0,0
0:1:47.151,201.931,25.7105,0,0.000885,0,0
0:1:47.347,201.7,25.683,0,0.000885,0,0
0:1:47.555,202.167,25.7381,0,0.000885,0,0
0:1:47.755,202.697,25.8071,0,0.000885,0,0
0:1:47.956,203.399,25.8967,0,0.000885,0,0
0:1:48.157,203.399,25.8967,0,0.000885,0,0
0:1:48.360,203.929,25.9657,0,0.000885,0,0
0:1:48.559,204.516,26.0415,0,0.000885,0,0
0:1:48.760,204.925,26.0898,0,0.000885,0,0
0:1:48.960,204.983,26.0967,0,0.000885,0,0
0:1:49.161,205.454,26.1587,0,0.000885,0,0
0:1:49.358,205.454,26.1587,0,0.000885,0,0
0:1:49.553,206.099,26.2414,0,0.000885,0,0
0:1:49.754,205.922,26.2208,0,0.000885,0,0
0:1:49.949,206.744,26.3242,0,0.000885,0,0
0:1:50.156,207.038,26.3587,0,0.000885,0,0
0:1:50.356,207.563,26.4276,0,0.000885,0,0
0:1:50.551,208.208,26.5103,0,0.000885,0,0
0:1:50.752,208.679,26.5724,0,0.000885,0,0
0:1:50.947,208.737,26.5793,0,0.000885,0,0
0:1:51.154,209.382,26.662,0,0.000885,0,0
0:1:51.354,210.027,26.7448,0,0.000885,0,0
0:1:51.548,210.672,26.8206,0,0.000885,0,0
0:1:51.749,210.73,26.8344,0,0.000885,0,0
0:1:51.943,211.495,26.9309,0,0.000885,0,0
0:1:52.140,211.553,26.9378,0,0.000885,0,0
0:1:52.340,211.259,26.8964,0,0.000885,0,0
0:1:52.542,211.553,26.9378,0,0.000885,0,0
0:1:52.743,212.14,27.0137,0,0.000885,0,0
0:1:52.944,212.785,27.0895,0,0.000885,0,0
0:1:53.145,212.607,27.0688,0,0.000885,0,0
0:1:53.344,213.604,27.1998,0,0.000885,0,0
0:1:53.544,214.017,27.2481,0,0.000885,0,0
0:1:53.748,214.662,27.3308,0,0.000885,0,0
0:1:53.955,215.072,27.386,0,0.000885,0,0
0:1:54.151,215.832,27.4825,0,0.000885,0,0
0:1:54.350,215.539,27.4411,0,0.000885,0,0
0:1:54.554,216.068,27.5101,0,0.000885,0,0
0:1:54.754,216.419,27.5583,0,0.000885,0,0
0:1:54.952,216.833,27.6066,0,0.000885,0,0
0:1:55.145,216.949,27.6204,0,0.000885,0,0
0:1:55.349,217.3,27.6687,0,0.000885,0,0
0:1:55.552,218.354,27.7997,0,0.000885,0,0
0:1:55.751,218.59,27.8341,0,0.000885,0,0
0:1:55.949,218.532,27.8272,0,0.000885,0,0
0:1:56.154,219.119,27.8962,0,0.000885,0,0
0:1:56.354,219.707,27.972,0,0.000885,0,0
0:1:56.548,219.586,27.9582,0,0.000885,0,0
0:1:56.756,220.231,28.041,0,0.000885,0,0
0:1:56.955,220.934,28.1306,0,0.000885,0,0
0:1:57.150,221.228,28.1651,0,0.000885,0,0
0:1:57.350,220.876,28.1237,0,0.000885,0,0
0:1:57.549,221.521,28.2065,0,0.000885,0,0
0:1:57.752,222.402,28.3168,0,0.000885,0,0
0:1:57.953,222.58,28.3375,0,0.000885,0,0
0:1:58.154,222.754,28.365,0,0.000885,0,0
0:1:58.354,223.399,28.4409,0,0.000885,0,0
0:1:58.554,224.101,28.5305,0,0.000885,0,0
0:1:58.755,224.457,28.5788,0,0.000885,0,0
0:1:58.955,224.515,28.5857,0,0.000885,0,0
0:1:59.150,225.276,28.6822,0,0.000885,0,0
0:1:59.350,225.685,28.7373,0,0.000885,0,0
0:1:59.555,226.214,28.7994,0,0.000885,0,0
0:1:59.753,226.156,28.7925,0,0.000885,0,0
0:1:59.953,226.099,28.7856,0,0.000885,0,0
0:2:0.157,226.624,28.8546,0,0.000885,0,0
0:2:0.356,227.446,28.958,0,0.000885,0,0
0:2:0.553,227.153,28.9235,0,0.000885,0,0
0:2:0.748,227.74,28.9993,0,0.000885,0,0
0:2:0.949,228.269,29.0614,0,0.000885,0,0
0:2:1.154,228.794,29.1303,0,0.000885,0,0
0:2:1.353,229.03,29.1579,0,0.000885,0,0
0:2:1.550,229.03,29.1579,0,0.000885,0,0
0:2:1.756,229.617,29.2338,0,0.000885,0,0
0:2:1.956,230.32,29.3234,0,0.000885,0,0
0:2:2.152,230.849,29.3924,0,0.000885,0,0
0:2:2.351,231.494,29.4751,0,0.000885,0,0
0:2:2.551,231.73,29.5027,0,0.000885,0,0
0:2:2.754,232.082,29.5509,0,0.000885,0,0
0:2:2.955,232.669,29.6268,0,0.000885,0,0
0:2:3.156,233.314,29.7095,0,0.000885,0,0
0:2:3.355,233.665,29.7509,0,0.000885,0,0
0:2:3.556,233.781,29.7647,0,0.000885,0,0
0:2:3.756,234.368,29.8405,0,0.000885,0,0
0:2:3.956,234.368,29.8405,0,0.000885,0,0
0:2:4.152,235.013,29.9232,0,0.000885,0,0
0:2:4.350,235.774,30.0198,0,0.000885,0,0
0:2:4.550,236.187,30.0749,0,0.000885,0,0
0:2:4.752,235.894,30.0336,0,0.000885,0,0
0:2:4.953,236.303,30.0887,0,0.000885,0,0
0:2:5.149,237.064,30.1852,0,0.000885,0,0
0:2:5.355,237.651,30.2611,0,0.000885,0,0
0:2:5.556,237.477,30.2335,0,0.000885,0,0
0:2:5.750,237.886,30.2887,0,0.000885,0,0
0:2:5.952,237.944,30.2956,0,0.000885,0,0
0:2:6.156,238.883,30.4128,0,0.000885,0,0
0:2:6.354,238.767,30.399,0,0.000885,0,0
0:2:6.553,239.292,30.4679,0,0.000885,0,0
0:2:6.756,239.937,30.5507,0,0.000885,0,0
0:2:6.956,239.821,30.5369,0,0.000885,0,0
0:2:7.153,240.115,30.5714,0,0.000885,0,0
0:2:7.349,240.996,30.6817,0,0.000885,0,0
0:2:7.549,241.169,30.7092,0,0.000885,0,0
0:2:7.750,241.814,30.792,0,0.000885,0,0
0:2:7.953,242.637,30.8954,0,0.000885,0,0
0:2:8.153,242.579,30.8885,0,0.000885,0,0
0:2:8.353,243.224,30.9712,0,0.000885,0,0
0:2:8.554,243.34,30.985,0,0.000885,0,0
0:2:8.753,243.869,31.0471,0,0.000885,0,0
0:2:8.954,244.808,31.1712,0,0.000885,0,0
0:2:9.152,245.101,31.2057,0,0.000885,0,0
0:2:9.357,244.981,31.1919,0,0.000885,0,0
0:2:9.557,245.862,31.3022,0,0.000885,0,0
0:2:9.753,246.391,31.3711,0,0.000885,0,0
0:2:9.952,246.916,31.4401,0,0.000885,0,0
0:2:10.149,246.271,31.3574,0,0.000885,0,0
0:2:10.353,246.979,31.447,0,0.000885,0,0
0:2:10.554,247.797,31.5504,0,0.000885,0,0
0:2:10.750,248.091,31.5849,0,0.000885,0,0
0:2:10.958,247.855,31.5573,0,0.000885,0,0
0:2:11.157,248.5,31.64,0,0.000885,0,0
0:2:11.350,248.971,31.7021,0,0.000885,0,0
0:2:11.550,248.62,31.6538,0,0.000885,0,0
0:2:11.757,249.501,31.7641,0,0.000885,0,0
0:2:11.954,250.261,31.8676,0,0.000885,0,0
0:2:12.153,250.791,31.9296,0,0.000885,0,0
0:2:12.357,250.613,31.9089,0,0.000885,0,0
0:2:12.558,250.906,31.9434,0,0.000885,0,0
0:2:12.757,251.316,31.9986,0,0.000885,0,0
0:2:12.959,251.903,32.0744,0,0.000885,0,0
0:2:13.162,252.254,32.1158,0,0.000885,0,0
0:2:13.363,253.019,32.2123,0,0.000885,0,0
0:2:13.564,252.841,32.1916,0,0.000885,0,0
0:2:13.763,253.486,32.2744,0,0.000885,0,0
0:2:13.964,253.838,32.3226,0,0.000885,0,0
0:2:14.164,254.483,32.4054,0,0.000885,0,0
0:2:14.358,255.128,32.4812,0,0.000885,0,0
0:2:14.558,255.421,32.5226,0,0.000885,0,0
0:2:14.755,255.421,32.5226,0,0.000885,0,0
0:2:14.952,256.302,32.6329,0,0.000885,0,0
0:2:15.153,256.538,32.6605,0,0.000885,0,0
0:2:15.357,256.889,32.7087,0,0.000885,0,0
0:2:15.557,257.534,32.7915,0,0.000885,0,0
0:2:15.754,258.709,32.9363,0,0.000885,0,0
0:2:15.947,258.709,32.9363,0,0.000885,0,0
0:2:16.150,258.709,32.9363,0,0.000885,0,0
0:2:16.354,259.176,32.9983,0,0.000885,0,0
0:2:16.553,259.411,33.0259,0,0.000885,0,0
0:2:16.751,259.233,33.0052,0,0.000885,0,0
0:2:16.955,260.056,33.1086,0,0.000885,0,0
0:2:17.155,260.408,33.1569,0,0.000885,0,0
0:2:17.351,260.056,33.1086,0,0.000885,0,0
0:2:17.558,260.523,33.1707,0,0.000885,0,0
0:2:17.758,260.879,33.2189,0,0.000885,0,0
0:2:17.960,261.64,33.3155,0,0.000885,0,0
0:2:18.162,262.285,33.3982,0,0.000885,0,0
0:2:18.364,262.988,33.4878,0,0.000885,0,0
0:2:18.563,262.636,33.4396,0,0.000885,0,0
0:2:18.764,263.401,33.5361,0,0.000885,0,0
0:2:18.963,263.459,33.543,0,0.000885,0,0
0:2:19.165,263.869,33.5982,0,0.000885,0,0
0:2:19.362,264.629,33.6947,0,0.000885,0,0
0:2:19.557,264.985,33.736,0,0.000885,0,0
0:2:19.757,265.568,33.8119,0,0.000885,0,0
0:2:19.951,265.981,33.867,0,0.000885,0,0
0:2:20.159,266.155,33.8877,0,0.000885,0,0
0:2:20.359,266.684,33.9567,0,0.000885,0,0
0:2:20.553,266.978,33.9912,0,0.000885,0,0
0:2:20.754,267.565,34.067,0,0.000885,0,0
0:2:20.950,268.268,34.1566,0,0.000885,0,0
0:2:21.157,268.21,34.1497,0,0.000885,0,0
0:2:21.358,269.264,34.2807,0,0.000885,0,0
0:2:21.552,269.38,34.3014,0,0.000885,0,0
0:2:21.752,269.5,34.3152,0,0.000885,0,0
0:2:21.957,270.145,34.3979,0,0.000885,0,0
0:2:22.152,270.496,34.4393,0,0.000885,0,0
0:2:22.353,270.145,34.3979,0,0.000885,0,0
0:2:22.554,270.848,34.4876,0,0.000885,0,0
0:2:22.756,271.493,34.5703,0,0.000885,0,0
0:2:22.958,271.964,34.6255,0,0.000885,0,0
0:2:23.158,271.671,34.591,0,0.000885,0,0
0:2:23.359,271.844,34.6117,0,0.000885,0,0
0:2:23.558,272.961,34.7565,0,0.000885,0,0
0:2:23.760,273.312,34.7978,0,0.000885,0,0
0:2:23.958,273.606,34.8392,0,0.000885,0,0
0:2:24.153,274.131,34.9013,0,0.000885,0,0
0:2:24.354,274.251,34.9219,0,0.000885,0,0
0:2:24.548,274.838,34.9909,0,0.000885,0,0
0:2:24.756,275.131,35.0323,0,0.000885,0,0
0:2:24.956,275.598,35.0874,0,0.000885,0,0
0:2:25.158,276.128,35.1564,0,0.000885,0,0
0:2:25.358,276.715,35.2322,0,0.000885,0,0
0:2:25.555,276.831,35.246,0,0.000885,0,0
0:2:25.752,277.182,35.2943,0,0.000885,0,0
0:2:25.954,277.476,35.3287,0,0.000885,0,0
0:2:26.156,278.356,35.4391,0,0.000885,0,0
0:2:26.357,278.588,35.4735,0,0.000885,0,0
0:2:26.553,278.823,35.5011,0,0.000885,0,0
0:2:26.749,279.117,35.5356,0,0.000885,0,0
0:2:26.952,279.295,35.5632,0,0.000885,0,0
0:2:27.154,279.998,35.6528,0,0.000885,0,0
0:2:27.353,280.407,35.7011,0,0.000885,0,0
0:2:27.554,281.172,35.7976,0,0.000885,0,0
0:2:27.756,281.288,35.8114,0,0.000885,0,0
0:2:27.957,281.581,35.8527,0,0.000885,0,0
0:2:28.159,281.755,35.8734,0,0.000885,0,0
0:2:28.359,282.048,35.9148,0,0.000885,0,0
0:2:28.560,282.578,35.9768,0,0.000885,0,0
0:2:28.760,283.107,36.0458,0,0.000885,0,0
0:2:28.959,283.338,36.0734,0,0.000885,0,0
0:2:29.159,283.81,36.1354,0,0.000885,0,0
0:2:29.354,283.752,36.1285,0,0.000885,0,0
0:2:29.554,284.984,36.2871,0,0.000885,0,0
0:2:29.758,285.042,36.294,0,0.000885,0,0
0:2:29.955,285.451,36.3423,0,0.000885,0,0
0:2:30.155,285.923,36.4043,0,0.000885,0,0
0:2:30.348,286.448,36.4733,0,0.000885,0,0
0:2:30.548,286.683,36.5008,0,0.000885,0,0
0:2:30.755,287.093,36.556,0,0.000885,0,0
0:2:30.953,287.622,36.6181,0,0.000885,0,0
0:2:31.152,288.151,36.687,0,0.000885,0,0
0:2:31.356,288.209,36.6939,0,0.000885,0,0
0:2:31.557,288.618,36.7491,0,0.000885,0,0
0:2:31.752,288.912,36.7835,0,0.000885,0,0
0:2:31.958,288.796,36.7697,0,0.000885,0,0
0:2:32.159,289.673,36.8801,0,0.000885,0,0
0:2:32.353,290.086,36.9352,0,0.000885,0,0
0:2:32.553,290.553,36.9973,0,0.000885,0,0
0:2:32.754,291.198,37.08,0,0.000885,0,0
0:2:32.957,291.492,37.1145,0,0.000885,0,0
0:2:33.157,292.137,37.1972,0,0.000885,0,0
0:2:33.358,292.137,37.1972,0,0.000885,0,0
0:2:33.559,292.84,37.2868,0,0.000885,0,0
0:2:33.757,293.369,37.3558,0,0.000885,0,0
0:2:33.955,293.253,37.3351,0,0.000885,0,0
0:2:34.157,293.956,37.4247,0,0.000885,0,0
0:2:34.353,294.014,37.4385,0,0.000885,0,0
0:2:34.549,294.423,37.4868,0,0.000885,0,0
0:2:34.747,294.779,37.5351,0,0.000885,0,0
0:2:34.953,294.659,37.5144,0,0.000885,0,0
0:2:35.155,295.598,37.6385,0,0.000885,0,0
0:2:35.360,295.891,37.673,0,0.000885,0,0
0:2:35.558,296.594,37.7626,0,0.000885,0,0
0:2:35.758,296.243,37.7212,0,0.000885,0,0
0:2:35.959,297.301,37.8522,0,0.000885,0,0
0:2:36.159,297.301,37.8522,0,0.000885,0,0
0:2:36.357,297.768,37.9143,0,0.000885,0,0
0:2:36.554,298.591,38.0177,0,0.000885,0,0
0:2:36.754,298.765,38.0384,0,0.000885,0,0
0:2:36.957,299.352,38.1142,0,0.000885,0,0
0:2:37.157,299.468,38.128,0,0.000885,0,0
0:2:37.355,299.352,38.1142,0,0.000885,0,0
0:2:37.548,300.526,38.2659,0,0.000885,0,0
0:2:37.749,300.758,38.2935,0,0.000885,0,0
0:2:37.949,301.465,38.3831,0,0.000885,0,0
0:2:38.154,301.287,38.3624,0,0.000885,0,0
0:2:38.355,302.871,38.5624,0,0.000885,0,0
0:2:38.554,302.697,38.5417,0,0.000885,0,0
0:2:38.755,302.991,38.5762,0,0.000885,0,0
0:2:38.955,303.164,38.5969,0,0.000885,0,0
0:2:39.155,303.809,38.6796,0,0.000885,0,0
0:2:39.354,303.987,38.7072,0,0.000885,0,0
0:2:39.559,304.103,38.721,0,0.000885,0,0
0:2:39.761,304.574,38.7761,0,0.000885,0,0
0:2:39.957,304.574,38.7761,0,0.000885,0,0
0:2:40.154,305.45,38.8933,0,0.000885,0,0
0:2:40.353,305.099,38.8451,0,0.000885,0,0
0:2:40.557,306.273,38.9967,0,0.000885,0,0
0:2:40.755,306.389,39.0105,0,0.000885,0,0
0:2:40.954,306.918,39.0795,0,0.000885,0,0
0:2:41.158,306.683,39.045,0,0.000885,0,0
0:2:41.358,307.385,39.1346,0,0.000885,0,0
0:2:41.554,307.799,39.1898,0,0.000885,0,0
0:2:41.750,308.911,39.3346,0,0.000885,0,0
0:2:41.953,309.263,39.376,0,0.000885,0,0
0:2:42.145,309.97,39.4656,0,0.000885,0,0
0:2:42.343,309.908,39.4587,0,0.000885,0,0
0:2:42.543,310.731,39.5621,0,0.000885,0,0
0:2:42.746,310.615,39.5483,0,0.000885,0,0
0:2:42.947,311.198,39.6242,0,0.000885,0,0
0:2:43.147,311.14,39.6173,0,0.000885,0,0
0:2:43.346,311.553,39.6655,0,0.000885,0,0
0:2:43.547,312.021,39.7276,0,0.000885,0,0
0:2:43.747,312.665,39.8103,0,0.000885,0,0
0:2:43.947,312.781,39.8241,0,0.000885,0,0
0:2:44.154,313.426,39.9069,0,0.000885,0,0
0:2:44.353,313.368,39.9,0,0.000885,0,0
0:2:44.560,313.72,39.9413,0,0.000885,0,0
0:2:44.755,314.249,40.0103,0,0.000885,0,0
0:2:44.954,315.01,40.1068,0,0.000885,0,0
0:2:45.160,315.188,40.1344,0,0.000885,0,0
0:2:45.358,315.948,40.2309,0,0.000885,0,0
0:2:45.558,315.775,40.2033,0,0.000885,0,0
0:2:45.760,316.42,40.2861,0,0.000885,0,0
0:2:45.961,316.478,40.293,0,0.000885,0,0
0:2:46.159,316.949,40.355,0,0.000885,0,0
0:2:46.355,317.301,40.3964,0,0.000885,0,0
0:2:46.555,317.946,40.4791,0,0.000885,0,0
0:2:46.758,318.297,40.5274,0,0.000885,0,0
0:2:46.957,318.533,40.555,0,0.000885,0,0
0:2:47.156,319.409,40.6653,0,0.000885,0,0
0:2:47.351,319.529,40.686,0,0.000885,0,0
0:2:47.553,319.938,40.7342,0,0.000885,0,0
0:2:47.754,320.174,40.7687,0,0.000885,0,0
0:2:47.957,321.055,40.879,0,0.000885,0,0
0:2:48.157,321.286,40.9066,0,0.000885,0,0
0:2:48.358,321.873,40.9824,0,0.000885,0,0
0:2:48.557,322.283,41.0376,0,0.000885,0,0
0:2:48.757,322.345,41.0445,0,0.000885,0,0
0:2:48.957,322.754,41.0928,0,0.000885,0,0
0:2:49.157,323.163,41.1479,0,0.000885,0,0
0:2:49.359,323.163,41.1479,0,0.000885,0,0
0:2:49.560,323.515,41.1893,0,0.000885,0,0
0:2:49.756,324.044,41.2582,0,0.000885,0,0
0:2:49.950,324.453,41.3134,0,0.000885,0,0
0:2:50.153,324.747,41.3479,0,0.000885,0,0
0:2:50.358,324.689,41.341,0,0.000885,0,0
0:2:50.557,325.743,41.472,0,0.000885,0,0
0:2:50.755,326.215,41.534,0,0.000885,0,0
0:2:50.959,326.037,41.5133,0,0.000885,0,0
0:2:51.160,326.037,41.5133,0,0.000885,0,0
0:2:51.355,326.86,41.6168,0,0.000885,0,0
0:2:51.563,327.327,41.6788,0,0.000885,0,0
0:2:51.761,327.563,41.7064,0,0.000885,0,0
0:2:51.955,327.741,41.7271,0,0.000885,0,0
0:2:52.156,328.559,41.8305,0,0.000885,0,0
0:2:52.353,328.737,41.8581,0,0.000885,0,0
0:2:52.561,329.733,41.9822,0,0.000885,0,0
0:2:52.760,329.969,42.0098,0,0.000885,0,0
0:2:52.962,330.614,42.0925,0,0.000885,0,0
0:2:53.164,330.965,42.1408,0,0.000885,0,0
0:2:53.368,331.375,42.189,0,0.000885,0,0
0:2:53.566,331.846,42.2511,0,0.000885,0,0
0:2:53.767,332.491,42.3338,0,0.000885,0,0
0:2:53.968,332.785,42.3683,0,0.000885,0,0
0:2:54.166,332.843,42.3821,0,0.000885,0,0
0:2:54.365,333.31,42.4372,0,0.000885,0,0
0:2:54.562,333.897,42.5131,0,0.000885,0,0
0:2:54.761,333.661,42.4855,0,0.000885,0,0
0:2:54.956,333.839,42.5062,0,0.000885,0,0
0:2:55.155,334.013,42.5269,0,0.000885,0,0
0:2:55.362,334.133,42.5407,0,0.000885,0,0
0:2:55.559,334.951,42.651,0,0.000885,0,0
0:2:55.760,335.307,42.6923,0,0.000885,0,0
0:2:55.955,335.245,42.6854,0,0.000885,0,0
0:2:56.161,335.832,42.7613,0,0.000885,0,0
0:2:56.362,336.535,42.8509,0,0.000885,0,0
0:2:56.555,336.535,42.8509,0,0.000885,0,0
0:2:56.757,337.122,42.9268,0,0.000885,0,0
0:2:56.960,336.891,42.8923,0,0.000885,0,0
0:2:57.157,336.948,42.8992,0,0.000885,0,0
0:2:57.357,336.183,42.8027,0,0.000885,0,0
0:2:57.558,334.835,42.6303,0,0.000885,0,0
0:2:57.760,334.013,42.5269,0,0.000885,0,0
0:2:57.960,332.665,42.3545,0,0.000885,0,0
0:2:58.160,332.078,42.2787,0,0.000885,0,0
0:2:58.360,331.081,42.1545,0,0.000885,0,0
0:2:58.560,328.91,41.8788,0,0.000885,0,0
0:2:58.759,327.505,41.6995,0,0.000885,0,0
0:2:58.958,324.395,41.3065,0,0.000885,0,0
0:2:59.162,322.345,41.0445,0,0.000885,0,0
0:2:59.361,316.42,40.2861,0,0.000885,0,0
0:2:59.557,312.43,39.7827,0,0.000885,0,0
0:2:59.751,301.407,38.3762,0,0.000885,0,0
0:2:59.951,295.073,37.5695,0,0.000885,0,0
0:3:0.157,282.284,35.9424,0,0.000885,0,0
0:3:0.355,277.418,35.3218,0,0.000885,0,0
0:3:0.560,268.561,34.1911,0,0.000885,0,0
0:3:0.758,264.104,33.6257,0,0.000885,0,0
0:3:0.958,253.371,32.2606,0,0.000885,0,0
0:3:1.161,244.572,31.1367,0,0.000885,0,0
0:3:1.200,244.572,31.1367,0,0.000885,0,0