File: DataFile2021-07-03_073053.csv
Test ID:,Date Tested:,Time:,Test Type:,Diameter Avg. (mm):,Cyl. Corr. Factor:,Height (mm):,Age (days):,Weight (kN):,Break Type:,Ramp Rate (MPa/s):,Load at Break (kN):,Stress at Break (MPa):
12,7/3/2021,07:30,Cylinder,100,1,200,0,3.6,3,0.25,613.74,78.15
Sample Time,Load (kN),Stress (MPa),Long. Strain,Trans. Strain,Chan1 Deflection (mm),Chan2 Deflection (mm)
0:0:18.189,5.21776,0.661897,0,0.000885,0,0
0:0:18.489,5.98286,0.758423,0,0.000885,0,0
0:0:18.796,7.15719,0.910108,0,0.000885,0,0
0:0:19.104,8.67848,1.10316,0,0.000885,0,0
0:0:19.404,10.4978,1.33758,0,0.000885,0,0
0:0:19.711,11.1428,1.42032,0,0.000885,0,0
0:0:20.012,10.8492,1.37895,0,0.000885,0,0
0:0:20.308,11.0271,1.40653,0,0.000885,0,0
0:0:20.614,10.907,1.38585,0,0.000885,0,0
0:0:20.912,10.907,1.38585,0,0.000885,0,0
0:0:21.209,10.8492,1.37895,0,0.000885,0,0
0:0:21.509,11.2006,1.42721,0,0.000885,0,0
0:0:21.814,11.7878,1.50306,0,0.000885,0,0
0:0:22.113,12.0814,1.53753,0,0.000885,0,0
0:0:22.413,12.2015,1.55132,0,0.000885,0,0
0:0:22.716,13.0778,1.66853,0,0.000885,0,0
0:0:23.019,13.9585,1.77885,0,0.000885,0,0
0:0:23.314,14.6613,1.86848,0,0.000885,0,0
0:0:23.618,15.075,1.91674,0,0.000885,0,0
0:0:23.921,16.0136,2.04085,0,0.000885,0,0
0:0:24.226,17.0678,2.17185,0,0.000885,0,0
0:0:24.527,17.5349,2.2339,0,0.000885,0,0
0:0:24.830,18.6514,2.3718,0,0.000885,0,0
0:0:25.129,19.412,2.47522,0,0.000885,0,0
0:0:25.429,20.1771,2.57174,0,0.000885,0,0
0:0:25.724,20.9956,2.67517,0,0.000885,0,0
0:0:26.027,21.2892,2.70964,0,0.000885,0,0
0:0:26.323,21.5828,2.75101,0,0.000885,0,0
0:0:26.622,22.1121,2.81306,0,0.000885,0,0
0:0:26.920,22.7571,2.8958,0,0.000885,0,0
0:0:27.216,22.9306,2.91648,0,0.000885,0,0
0:0:27.518,23.6378,3.00611,0,0.000885,0,0
0:0:27.813,24.1049,3.06817,0,0.000885,0,0
0:0:28.116,24.5764,3.13022,0,0.000885,0,0
0:0:28.413,25.6885,3.26811,0,0.000885,0,0
0:0:28.716,26.3335,3.35085,0,0.000885,0,0
0:0:29.020,26.6849,3.39912,0,0.000885,0,0
0:0:29.323,27.3877,3.48875,0,0.000885,0,0
0:0:29.626,27.7436,3.53012,0,0.000885,0,0
0:0:29.926,28.0371,3.57148,0,0.000885,0,0
0:0:30.228,28.8556,3.67491,0,0.000885,0,0
0:0:30.525,29.0914,3.70248,0,0.000885,0,0
0:0:30.823,29.6207,3.77143,0,0.000885,0,0
0:0:31.125,31.0263,3.9507,0,0.000885,0,0
0:0:31.422,31.6135,4.02654,0,0.000885,0,0
0:0:31.720,32.0227,4.0748,0,0.000885,0,0
0:0:32.020,32.1384,4.09549,0,0.000885,0,0
0:0:32.315,33.1971,4.22649,0,0.000885,0,0
0:0:32.617,33.6063,4.28164,0,0.000885,0,0
0:0:32.913,34.1357,4.3437,0,0.000885,0,0
0:0:33.212,34.4292,4.38507,0,0.000885,0,0
0:0:33.512,35.2477,4.48849,0,0.000885,0,0
0:0:33.813,36.0128,4.58501,0,0.000885,0,0
0:0:34.120,36.6578,4.66775,0,0.000885,0,0
0:0:34.422,37.1827,4.7367,0,0.000885,0,0
0:0:34.726,37.8277,4.81944,0,0.000885,0,0
0:0:35.027,38.2992,4.87459,0,0.000885,0,0
0:0:35.325,39.002,4.96423,0,0.000885,0,0
0:0:35.626,39.8249,5.06765,0,0.000885,0,0
0:0:35.922,40.7012,5.18486,0,0.000885,0,0
0:0:36.225,41.1149,5.23312,0,0.000885,0,0
0:0:36.519,41.4085,5.27449,0,0.000885,0,0
0:0:36.819,41.8756,5.32965,0,0.000885,0,0
0:0:37.118,42.227,5.37791,0,0.000885,0,0
0:0:37.414,42.4627,5.40549,0,0.000885,0,0
0:0:37.715,43.4013,5.5227,0,0.000885,0,0
0:0:38.011,44.282,5.63991,0,0.000885,0,0
0:0:38.311,44.7491,5.69507,0,0.000885,0,0
0:0:38.619,45.1628,5.75023,0,0.000885,0,0
0:0:38.921,45.9234,5.84675,0,0.000885,0,0
0:0:39.226,46.5684,5.92949,0,0.000885,0,0
0:0:39.528,47.0978,5.99844,0,0.000885,0,0
0:0:39.832,47.2134,6.01223,0,0.000885,0,0
0:0:40.134,48.5034,6.1777,0,0.000885,0,0
0:0:40.433,48.9126,6.22597,0,0.000885,0,0
0:0:40.734,49.9713,6.36386,0,0.000885,0,0
0:0:41.029,50.0291,6.37076,0,0.000885,0,0
0:0:41.331,51.0834,6.50176,0,0.000885,0,0
0:0:41.626,51.4971,6.55691,0,0.000885,0,0
0:0:41.925,51.9641,6.61897,0,0.000885,0,0
0:0:42.224,52.3734,6.66723,0,0.000885,0,0
0:0:42.521,53.3119,6.79134,0,0.000885,0,0
0:0:42.822,53.5477,6.81891,0,0.000885,0,0
0:0:43.117,54.3083,6.91544,0,0.000885,0,0
0:0:43.420,54.7798,6.97749,0,0.000885,0,0
0:0:43.723,54.722,6.9706,0,0.000885,0,0
0:0:44.028,55.3092,7.03955,0,0.000885,0,0
0:0:44.328,56.1277,7.14986,0,0.000885,0,0
0:0:44.631,57.0662,7.26707,0,0.000885,0,0
0:0:44.934,57.6534,7.34292,0,0.000885,0,0
0:0:45.230,58.592,7.46013,0,0.000885,0,0
0:0:45.531,58.9434,7.50839,0,0.000885,0,0
0:0:45.829,59.059,7.52218,0,0.000885,0,0
0:0:46.125,59.704,7.60492,0,0.000885,0,0
0:0:46.426,60.4113,7.69455,0,0.000885,0,0
0:0:46.722,61.1141,7.78418,0,0.000885,0,0
0:0:47.025,62.2262,7.92208,0,0.000885,0,0
0:0:47.319,62.5198,7.96344,0,0.000885,0,0
0:0:47.621,63.227,8.05308,0,0.000885,0,0
0:0:47.920,63.7519,8.11513,0,0.000885,0,0
0:0:48.214,64.3391,8.19097,0,0.000885,0,0
0:0:48.515,64.8684,8.25992,0,0.000885,0,0
0:0:48.820,65.5712,8.34955,0,0.000885,0,0
0:0:49.122,66.1584,8.42539,0,0.000885,0,0
0:0:49.426,66.5676,8.47366,0,0.000885,0,0
0:0:49.728,67.5062,8.59776,0,0.000885,0,0
0:0:50.031,68.0355,8.65982,0,0.000885,0,0
0:0:50.328,68.6227,8.73566,0,0.000885,0,0
0:0:50.629,68.9741,8.78392,0,0.000885,0,0
0:0:50.924,69.7926,8.88734,0,0.000885,0,0
0:0:51.224,69.9705,8.90803,0,0.000885,0,0
0:0:51.522,71.2027,9.06661,0,0.000885,0,0
0:0:51.820,71.3762,9.08729,0,0.000885,0,0
0:0:52.121,71.9633,9.16313,0,0.000885,0,0
0:0:52.415,72.4927,9.23208,0,0.000885,0,0
0:0:52.716,72.4927,9.23208,0,0.000885,0,0
0:0:53.014,73.2533,9.32861,0,0.000885,0,0
0:0:53.313,73.8983,9.41134,0,0.000885,0,0
0:0:53.622,74.5433,9.49408,0,0.000885,0,0
0:0:53.925,75.4819,9.61129,0,0.000885,0,0
0:0:54.230,75.8956,9.66645,0,0.000885,0,0
0:0:54.533,76.8341,9.78366,0,0.000885,0,0
0:0:54.835,77.359,9.85261,0,0.000885,0,0
0:0:55.138,77.8305,9.90777,0,0.000885,0,0
0:0:55.434,78.5912,10.0043,0,0.000885,0,0
0:0:55.736,79.4719,10.1215,0,0.000885,0,0
0:0:56.030,79.2362,10.087,0,0.000885,0,0
0:0:56.332,80.2904,10.2249,0,0.000885,0,0
0:0:56.628,80.5262,10.2525,0,0.000885,0,0
0:0:56.927,81.5848,10.3904,0,0.000885,0,0
0:0:57.227,82.5812,10.5145,0,0.000885,0,0
0:0:57.523,82.5234,10.5076,0,0.000885,0,0
0:0:57.825,83.0483,10.5766,0,0.000885,0,0
0:0:58.120,83.2262,10.5972,0,0.000885,0,0
0:0:58.420,83.7511,10.6662,0,0.000885,0,0
0:0:58.719,84.3383,10.7351,0,0.000885,0,0
0:0:59.023,85.4548,10.8799,0,0.000885,0,0
0:0:59.326,86.3934,10.9971,0,0.000885,0,0
0:0:59.628,86.5668,11.0247,0,0.000885,0,0
0:0:59.931,87.3898,11.1281,0,0.000885,0,0
0:1:0.234,87.7412,11.1695,0,0.000885,0,0
0:1:0.533,88.1504,11.2247,0,0.000885,0,0
0:1:0.832,89.3247,11.3763,0,0.000885,0,0
0:1:1.128,89.2669,11.3626,0,0.000885,0,0
0:1:1.430,90.7304,11.5556,0,0.000885,0,0
0:1:1.724,90.9661,11.5832,0,0.000885,0,0
0:1:2.024,91.4376,11.6452,0,0.000885,0,0
0:1:2.323,91.9047,11.7004,0,0.000885,0,0
0:1:2.620,92.3762,11.7625,0,0.000885,0,0
0:1:2.921,93.3726,11.8866,0,0.000885,0,0
0:1:3.216,93.8975,11.9555,0,0.000885,0,0
0:1:3.519,94.0754,11.9762,0,0.000885,0,0
0:1:3.823,94.8361,12.0727,0,0.000885,0,0
0:1:4.127,95.1297,12.1141,0,0.000885,0,0
0:1:4.429,95.7168,12.1899,0,0.000885,0,0
0:1:4.730,96.304,12.2589,0,0.000885,0,0
0:1:5.032,96.8333,12.3278,0,0.000885,0,0
0:1:5.328,97.7096,12.4381,0,0.000885,0,0
0:1:5.630,98.6482,12.5622,0,0.000885,0,0
0:1:5.927,98.9418,12.5967,0,0.000885,0,0
0:1:6.224,99.5868,12.6795,0,0.000885,0,0
0:1:6.524,100.116,12.7484,0,0.000885,0,0
0:1:6.821,101.17,12.8794,0,0.000885,0,0
0:1:7.122,101.233,12.8863,0,0.000885,0,0
0:1:7.417,101.878,12.969,0,0.000885,0,0
0:1:7.718,102.345,13.0311,0,0.000885,0,0
0:1:8.016,102.754,13.0862,0,0.000885,0,0
0:1:8.313,103.928,13.231,0,0.000885,0,0
0:1:8.615,104.458,13.3,0,0.000885,0,0
0:1:8.921,104.751,13.3345,0,0.000885,0,0
0:1:9.223,105.627,13.4517,0,0.000885,0,0
0:1:9.526,106.566,13.5689,0,0.000885,0,0
0:1:9.828,106.508,13.562,0,0.000885,0,0
0:1:10.129,107.095,13.6378,0,0.000885,0,0
0:1:10.427,107.74,13.7206,0,0.000885,0,0
0:1:10.726,108.621,13.8309,0,0.000885,0,0
0:1:11.026,108.973,13.8723,0,0.000885,0,0
0:1:11.321,109.618,13.955,0,0.000885,0,0
0:1:11.622,110.205,14.0308,0,0.000885,0,0
0:1:11.919,110.378,14.0515,0,0.000885,0,0
0:1:12.219,111.085,14.1411,0,0.000885,0,0
0:1:12.517,111.904,14.2515,0,0.000885,0,0
0:1:12.815,112.669,14.348,0,0.000885,0,0
0:1:13.115,113.256,14.4169,0,0.000885,0,0
0:1:13.420,113.665,14.4721,0,0.000885,0,0
0:1:13.723,114.604,14.5893,0,0.000885,0,0
0:1:14.027,115.249,14.672,0,0.000885,0,0
0:1:14.332,115.485,14.7065,0,0.000885,0,0
0:1:14.633,116.303,14.8099,0,0.000885,0,0
0:1:14.936,116.361,14.8168,0,0.000885,0,0
0:1:15.238,117.242,14.9271,0,0.000885,0,0
0:1:15.535,117.829,15.003,0,0.000885,0,0
0:1:15.834,118.18,15.0444,0,0.000885,0,0
0:1:16.134,119.003,15.1547,0,0.000885,0,0
0:1:16.430,119.59,15.2236,0,0.000885,0,0
0:1:16.733,120.058,15.2857,0,0.000885,0,0
0:1:17.029,120.467,15.3408,0,0.000885,0,0
0:1:17.329,121.463,15.4649,0,0.000885,0,0
0:1:17.628,122.05,15.5408,0,0.000885,0,0
0:1:17.923,122.522,15.6028,0,0.000885,0,0
0:1:18.225,123.109,15.6718,0,0.000885,0,0
0:1:18.522,123.518,15.7269,0,0.000885,0,0
0:1:18.826,124.105,15.8028,0,0.000885,0,0
0:1:19.131,125.395,15.9683,0,0.000885,0,0
0:1:19.434,125.631,15.9958,0,0.000885,0,0
0:1:19.735,126.57,16.113,0,0.000885,0,0
0:1:20.036,126.57,16.113,0,0.000885,0,0
0:1:20.338,127.566,16.244,0,0.000885,0,0
0:1:20.636,127.86,16.2785,0,0.000885,0,0
0:1:20.933,128.736,16.3888,0,0.000885,0,0
0:1:21.233,129.381,16.4716,0,0.000885,0,0
0:1:21.528,129.207,16.4509,0,0.000885,0,0
0:1:21.831,129.968,16.5474,0,0.000885,0,0
0:1:22.127,130.965,16.6784,0,0.000885,0,0
0:1:22.427,131.494,16.7405,0,0.000885,0,0
0:1:22.727,132.139,16.8232,0,0.000885,0,0
0:1:23.021,132.139,16.8232,0,0.000885,0,0
0:1:23.323,133.313,16.9749,0,0.000885,0,0
0:1:23.620,133.78,17.0369,0,0.000885,0,0
0:1:23.924,134.719,17.1542,0,0.000885,0,0
0:1:24.228,135.012,17.1886,0,0.000885,0,0
0:1:24.530,135.306,17.23,0,0.000885,0,0
0:1:24.833,136.129,17.3334,0,0.000885,0,0
0:1:25.135,136.538,17.3817,0,0.000885,0,0
0:1:25.434,137.01,17.4437,0,0.000885,0,0
0:1:25.734,137.944,17.5609,0,0.000885,0,0
0:1:26.031,138.531,17.6368,0,0.000885,0,0
0:1:26.332,139.527,17.7678,0,0.000885,0,0
0:1:26.626,139.705,17.7885,0,0.000885,0,0
0:1:26.928,140.177,17.8505,0,0.000885,0,0
0:1:27.224,140.057,17.8298,0,0.000885,0,0
0:1:27.522,141.405,18.0022,0,0.000885,0,0
0:1:27.823,142.112,18.0918,0,0.000885,0,0
0:1:28.118,142.815,18.1815,0,0.000885,0,0
0:1:28.420,143.166,18.2297,0,0.000885,0,0
0:1:28.724,143.753,18.3056,0,0.000885,0,0
0:1:29.029,144.865,18.4435,0,0.000885,0,0
0:1:29.330,145.337,18.5055,0,0.000885,0,0
0:1:29.632,145.746,18.5538,0,0.000885,0,0
0:1:29.934,146.04,18.5952,0,0.000885,0,0
0:1:30.231,146.92,18.7055,0,0.000885,0,0
0:1:30.532,147.801,18.8158,0,0.000885,0,0
0:1:30.827,147.565,18.7882,0,0.000885,0,0
0:1:31.128,148.677,18.933,0,0.000885,0,0
0:1:31.426,149.207,18.9951,0,0.000885,0,0
0:1:31.722,149.265,19.002,0,0.000885,0,0
0:1:32.024,149.616,19.0502,0,0.000885,0,0
0:1:32.319,150.323,19.1398,0,0.000885,0,0
0:1:32.620,151.026,19.2295,0,0.000885,0,0
0:1:32.918,151.907,19.3398,0,0.000885,0,0
0:1:33.216,153.019,19.4846,0,0.000885,0,0
0:1:33.516,153.134,19.4984,0,0.000885,0,0
0:1:33.821,154.135,19.6225,0,0.000885,0,0
0:1:34.124,154.309,19.6501,0,0.000885,0,0
0:1:34.427,155.19,19.7604,0,0.000885,0,0
0:1:34.728,155.657,19.8224,0,0.000885,0,0
0:1:35.031,156.244,19.8914,0,0.000885,0,0
0:1:35.327,156.595,19.9396,0,0.000885,0,0
0:1:35.629,157.24,20.0224,0,0.000885,0,0
0:1:35.924,158.179,20.1396,0,0.000885,0,0
0:1:36.225,158.472,20.1741,0,0.000885,0,0
0:1:36.523,158.886,20.2292,0,0.000885,0,0
0:1:36.819,159.353,20.2913,0,0.000885,0,0
0:1:37.121,160.763,20.4705,0,0.000885,0,0
0:1:37.415,160.821,20.4774,0,0.000885,0,0
0:1:37.718,161.408,20.5533,0,0.000885,0,0
0:1:38.023,161.697,20.5877,0,0.000885,0,0
0:1:38.323,162.698,20.7119,0,0.000885,0,0
0:1:38.622,162.872,20.7394,0,0.000885,0,0
0:1:38.925,163.752,20.8497,0,0.000885,0,0
0:1:39.230,164.104,20.8911,0,0.000885,0,0
0:1:39.533,164.927,21.0014,0,0.000885,0,0
0:1:39.835,165.63,21.0911,0,0.000885,0,0
0:1:40.138,166.568,21.2083,0,0.000885,0,0
0:1:40.434,166.684,21.2221,0,0.000885,0,0
0:1:40.735,167.097,21.2772,0,0.000885,0,0
0:1:41.030,167.858,21.3737,0,0.000885,0,0
0:1:41.332,168.912,21.5047,0,0.000885,0,0
0:1:41.629,169.09,21.5323,0,0.000885,0,0
0:1:41.927,169.909,21.6357,0,0.000885,0,0
0:1:42.226,169.677,21.6013,0,0.000885,0,0
0:1:42.522,170.789,21.7461,0,0.000885,0,0
0:1:42.825,171.319,21.815,0,0.000885,0,0
0:1:43.120,172.079,21.9115,0,0.000885,0,0
0:1:43.420,172.431,21.9529,0,0.000885,0,0
0:1:43.718,173.312,22.0701,0,0.000885,0,0
0:1:44.022,173.957,22.146,0,0.000885,0,0
0:1:44.325,174.659,22.2356,0,0.000885,0,0
0:1:44.629,174.953,22.277,0,0.000885,0,0
0:1:44.930,175.482,22.3459,0,0.000885,0,0
0:1:45.234,175.718,22.3735,0,0.000885,0,0
0:1:45.531,176.83,22.5183,0,0.000885,0,0
0:1:45.831,177.417,22.5872,0,0.000885,0,0
0:1:46.126,177.417,22.5872,0,0.000885,0,0
0:1:46.428,178.062,22.67,0,0.000885,0,0
0:1:46.724,178.885,22.7734,0,0.000885,0,0
0:1:47.025,179.939,22.9113,0,0.000885,0,0
0:1:47.323,180.762,23.0147,0,0.000885,0,0
0:1:47.618,181.229,23.0768,0,0.000885,0,0
0:1:47.920,181.701,23.1319,0,0.000885,0,0
0:1:48.214,181.995,23.1733,0,0.000885,0,0
0:1:48.519,183.049,23.3043,0,0.000885,0,0
0:1:48.824,183.4,23.3525,0,0.000885,0,0
0:1:49.126,183.809,23.4008,0,0.000885,0,0
0:1:49.428,184.517,23.4904,0,0.000885,0,0
0:1:49.729,185.099,23.5663,0,0.000885,0,0
0:1:50.031,185.629,23.6352,0,0.000885,0,0
0:1:50.329,186.625,23.7593,0,0.000885,0,0
0:1:50.626,186.509,23.7455,0,0.000885,0,0
0:1:50.925,187.328,23.849,0,0.000885,0,0
0:1:51.222,187.622,23.8903,0,0.000885,0,0
0:1:51.523,188.093,23.9455,0,0.000885,0,0
0:1:51.818,188.912,24.0558,0,0.000885,0,0
0:1:52.119,189.441,24.1179,0,0.000885,0,0
0:1:52.418,190.202,24.2144,0,0.000885,0,0
0:1:52.713,191.024,24.3247,0,0.000885,0,0
0:1:53.013,191.727,24.4143,0,0.000885,0,0
0:1:53.321,192.141,24.4626,0,0.000885,0,0
0:1:53.622,192.902,24.5591,0,0.000885,0,0
0:1:53.925,193.195,24.6005,0,0.000885,0,0
0:1:54.226,194.014,24.7039,0,0.000885,0,0
0:1:54.527,194.601,24.7798,0,0.000885,0,0
0:1:54.828,195.072,24.8349,0,0.000885,0,0
0:1:55.128,195.833,24.9314,0,0.000885,0,0
0:1:55.422,196.478,25.0142,0,0.000885,0,0
0:1:55.720,197.065,25.09,0,0.000885,0,0
0:1:56.014,197.537,25.1521,0,0.000885,0,0
0:1:56.320,197.888,25.1934,0,0.000885,0,0
0:1:56.618,198.707,25.2969,0,0.000885,0,0
0:1:56.922,199.529,25.4072,0,0.000885,0,0
0:1:57.222,199.645,25.421,0,0.000885,0,0
0:1:57.524,199.939,25.4554,0,0.000885,0,0
0:1:57.824,200.997,25.5933,0,0.000885,0,0
0:1:58.120,201.7,25.683,0,0.000885,0,0
0:1:58.422,201.874,25.7037,0,0.000885,0,0
0:1:58.721,202.581,25.7933,0,0.000885,0,0
0:1:59.023,202.812,25.8209,0,0.000885,0,0
0:1:59.327,204.164,25.9932,0,0.000885,0,0
0:1:59.627,204.102,25.9863,0,0.000885,0,0
0:1:59.928,204.867,26.0829,0,0.000885,0,0
0:2:0.228,205.392,26.1518,0,0.000885,0,0
0:2:0.523,205.628,26.1794,0,0.000885,0,0
0:2:0.822,206.86,26.338,0,0.000885,0,0
0:2:1.114,207.212,26.3862,0,0.000885,0,0
0:2:1.423,208.328,26.5241,0,0.000885,0,0
0:2:1.720,208.622,26.5655,0,0.000885,0,0
0:2:2.013,209.676,26.6965,0,0.000885,0,0
0:2:2.313,209.618,26.6896,0,0.000885,0,0
0:2:2.613,210.321,26.7792,0,0.000885,0,0
0:2:2.914,211.144,26.8827,0,0.000885,0,0
0:2:3.219,211.553,26.9378,0,0.000885,0,0
0:2:3.521,212.198,27.0206,0,0.000885,0,0
0:2:3.822,212.843,27.1033,0,0.000885,0,0
0:2:4.123,213.079,27.1309,0,0.000885,0,0
0:2:4.423,213.782,27.2205,0,0.000885,0,0
0:2:4.725,214.484,27.3101,0,0.000885,0,0
0:2:5.023,215.072,27.386,0,0.000885,0,0
0:2:5.320,215.894,27.4894,0,0.000885,0,0
0:2:5.612,216.01,27.5032,0,0.000885,0,0
0:2:5.910,216.891,27.6135,0,0.000885,0,0
0:2:6.214,217.767,27.7238,0,0.000885,0,0
0:2:6.513,217.709,27.7169,0,0.000885,0,0
0:2:6.815,218.417,27.8066,0,0.000885,0,0
0:2:7.113,218.648,27.841,0,0.000885,0,0
0:2:7.410,219.471,27.9445,0,0.000885,0,0
0:2:7.714,220.174,28.0341,0,0.000885,0,0
0:2:8.014,220.761,28.1099,0,0.000885,0,0
0:2:8.307,221.228,28.1651,0,0.000885,0,0
0:2:8.606,222.051,28.2754,0,0.000885,0,0
0:2:8.911,223.047,28.3995,0,0.000885,0,0
0:2:9.212,223.399,28.4409,0,0.000885,0,0
0:2:9.512,223.87,28.5029,0,0.000885,0,0
0:2:9.812,224.515,28.5857,0,0.000885,0,0
0:2:10.110,224.982,28.6477,0,0.000885,0,0
0:2:10.415,225.396,28.696,0,0.000885,0,0
0:2:10.712,226.392,28.827,0,0.000885,0,0
0:2:11.009,226.801,28.8752,0,0.000885,0,0
0:2:11.323,227.504,28.9649,0,0.000885,0,0
0:2:11.624,228.207,29.0545,0,0.000885,0,0
0:2:11.915,228.269,29.0614,0,0.000885,0,0
0:2:12.213,229.381,29.2062,0,0.000885,0,0
0:2:12.520,229.146,29.1786,0,0.000885,0,0
0:2:12.825,230.262,29.3165,0,0.000885,0,0
0:2:13.125,230.729,29.3786,0,0.000885,0,0
0:2:13.415,231.73,29.5027,0,0.000885,0,0
0:2:13.716,232.019,29.544,0,0.000885,0,0
0:2:14.020,232.842,29.6475,0,0.000885,0,0
0:2:14.323,233.371,29.7164,0,0.000885,0,0
0:2:14.622,233.781,29.7647,0,0.000885,0,0
0:2:14.923,235.013,29.9232,0,0.000885,0,0
0:2:15.223,234.719,29.8888,0,0.000885,0,0
0:2:15.514,235.48,29.9853,0,0.000885,0,0
0:2:15.814,236.419,30.1025,0,0.000885,0,0
0:2:16.121,237.006,30.1784,0,0.000885,0,0
0:2:16.425,237.064,30.1852,0,0.000885,0,0
0:2:16.725,237.886,30.2887,0,0.000885,0,0
0:2:17.017,238.474,30.3645,0,0.000885,0,0
0:2:17.316,238.941,30.4197,0,0.000885,0,0
0:2:17.621,239.999,30.5576,0,0.000885,0,0
0:2:17.916,240.524,30.6265,0,0.000885,0,0
0:2:18.224,240.876,30.6679,0,0.000885,0,0
0:2:18.516,241.405,30.7368,0,0.000885,0,0
0:2:18.816,241.756,30.7782,0,0.000885,0,0
0:2:19.120,242.815,30.9161,0,0.000885,0,0
0:2:19.421,243.224,30.9712,0,0.000885,0,0
0:2:19.722,243.811,31.0402,0,0.000885,0,0
0:2:20.021,244.808,31.1712,0,0.000885,0,0
0:2:20.323,245.044,31.1988,0,0.000885,0,0
0:2:20.625,245.569,31.2677,0,0.000885,0,0
0:2:20.925,246.04,31.3298,0,0.000885,0,0
0:2:21.229,247.094,31.4608,0,0.000885,0,0
0:2:21.526,247.388,31.4953,0,0.000885,0,0
0:2:21.822,247.624,31.5297,0,0.000885,0,0
0:2:22.115,248.5,31.64,0,0.000885,0,0
0:2:22.414,248.736,31.6676,0,0.000885,0,0
0:2:22.707,249.91,31.8193,0,0.000885,0,0
0:2:23.005,250.146,31.8469,0,0.000885,0,0
0:2:23.312,251.084,31.971,0,0.000885,0,0
0:2:23.613,251.729,32.0537,0,0.000885,0,0
0:2:23.915,252.139,32.102,0,0.000885,0,0
0:2:24.217,252.784,32.1847,0,0.000885,0,0
0:2:24.517,253.486,32.2744,0,0.000885,0,0
0:2:24.815,253.838,32.3226,0,0.000885,0,0
0:2:25.113,254.367,32.3847,0,0.000885,0,0
0:2:25.409,255.484,32.5295,0,0.000885,0,0
0:2:25.725,255.541,32.5364,0,0.000885,0,0
0:2:26.025,256.36,32.6398,0,0.000885,0,0
0:2:26.327,256.653,32.6811,0,0.000885,0,0
0:2:26.627,257.005,32.7225,0,0.000885,0,0
0:2:26.922,257.943,32.8397,0,0.000885,0,0
0:2:27.226,258.179,32.8742,0,0.000885,0,0
0:2:27.524,259.176,32.9983,0,0.000885,0,0
0:2:27.829,259.647,33.0604,0,0.000885,0,0
0:2:28.127,260.466,33.1638,0,0.000885,0,0
0:2:28.423,260.759,33.1983,0,0.000885,0,0
0:2:28.721,261.818,33.3362,0,0.000885,0,0
0:2:29.025,262.049,33.3637,0,0.000885,0,0
0:2:29.325,262.814,33.4603,0,0.000885,0,0
0:2:29.627,263.224,33.5154,0,0.000885,0,0
0:2:29.926,264.162,33.6326,0,0.000885,0,0
0:2:30.226,264.749,33.7085,0,0.000885,0,0
0:2:30.518,265.216,33.7705,0,0.000885,0,0
0:2:30.827,265.63,33.8188,0,0.000885,0,0
0:2:31.124,266.275,33.9015,0,0.000885,0,0
0:2:31.426,266.8,33.9705,0,0.000885,0,0
0:2:31.726,267.503,34.0601,0,0.000885,0,0
0:2:32.018,267.916,34.1153,0,0.000885,0,0
0:2:32.315,268.504,34.1842,0,0.000885,0,0
0:2:32.623,269.206,34.2738,0,0.000885,0,0
0:2:32.916,269.851,34.3566,0,0.000885,0,0
0:2:33.215,270.496,34.4393,0,0.000885,0,0
0:2:33.521,271.026,34.5083,0,0.000885,0,0
0:2:33.821,271.551,34.5772,0,0.000885,0,0
0:2:34.124,271.786,34.6048,0,0.000885,0,0
0:2:34.424,272.547,34.7013,0,0.000885,0,0
0:2:34.725,273.018,34.7634,0,0.000885,0,0
0:2:35.026,273.837,34.8668,0,0.000885,0,0
0:2:35.325,274.251,34.9219,0,0.000885,0,0
0:2:35.618,275.011,35.0185,0,0.000885,0,0
0:2:35.926,275.421,35.0667,0,0.000885,0,0
0:2:36.225,276.301,35.1771,0,0.000885,0,0
0:2:36.527,276.831,35.246,0,0.000885,0,0
0:2:36.827,277.943,35.3908,0,0.000885,0,0
0:2:37.119,278.178,35.4184,0,0.000885,0,0
0:2:37.418,278.766,35.4942,0,0.000885,0,0
0:2:37.726,279.175,35.5425,0,0.000885,0,0
0:2:38.030,279.704,35.6114,0,0.000885,0,0
0:2:38.329,280.056,35.6597,0,0.000885,0,0
0:2:38.630,280.821,35.7562,0,0.000885,0,0
0:2:38.932,281.991,35.901,0,0.000885,0,0
0:2:39.233,282.404,35.9562,0,0.000885,0,0
0:2:39.532,282.929,36.0251,0,0.000885,0,0
0:2:39.831,283.049,36.0389,0,0.000885,0,0
0:2:40.124,284.046,36.163,0,0.000885,0,0
0:2:40.424,284.455,36.2182,0,0.000885,0,0
0:2:40.726,284.922,36.2802,0,0.000885,0,0
0:2:41.026,285.687,36.3767,0,0.000885,0,0
0:2:41.319,286.568,36.4871,0,0.000885,0,0
0:2:41.615,286.799,36.5146,0,0.000885,0,0
0:2:41.925,287.858,36.6525,0,0.000885,0,0
0:2:42.227,288.325,36.7077,0,0.000885,0,0
0:2:42.526,288.796,36.7697,0,0.000885,0,0
0:2:42.822,289.321,36.8387,0,0.000885,0,0
0:2:43.127,290.38,36.9697,0,0.000885,0,0
0:2:43.426,290.553,36.9973,0,0.000885,0,0
0:2:43.726,291.025,37.0524,0,0.000885,0,0
0:2:44.029,291.434,37.1076,0,0.000885,0,0
0:2:44.328,292.079,37.1903,0,0.000885,0,0
0:2:44.628,292.782,37.28,0,0.000885,0,0
0:2:44.929,293.427,37.3627,0,0.000885,0,0
0:2:45.223,293.427,37.3627,0,0.000885,0,0
0:2:45.523,294.134,37.4523,0,0.000885,0,0
0:2:45.826,294.717,37.5282,0,0.000885,0,0
0:2:46.124,295.304,37.5971,0,0.000885,0,0
0:2:46.430,296.243,37.7212,0,0.000885,0,0
0:2:46.726,296.714,37.7764,0,0.000885,0,0
0:2:47.025,297.239,37.8453,0,0.000885,0,0
0:2:47.315,298.12,37.9556,0,0.000885,0,0
0:2:47.615,298.471,38.0039,0,0.000885,0,0
0:2:47.920,299.294,38.1073,0,0.000885,0,0
0:2:48.227,300.055,38.2039,0,0.000885,0,0
0:2:48.525,300.993,38.3211,0,0.000885,0,0
0:2:48.828,301.465,38.3831,0,0.000885,0,0
0:2:49.127,301.581,38.3969,0,0.000885,0,0
0:2:49.429,302.461,38.5072,0,0.000885,0,0
0:2:49.728,303.048,38.5831,0,0.000885,0,0
0:2:50.029,303.751,38.6727,0,0.000885,0,0
0:2:50.323,304.103,38.721,0,0.000885,0,0
0:2:50.623,304.574,38.7761,0,0.000885,0,0
0:2:50.927,305.099,38.8451,0,0.000885,0,0
0:2:51.224,305.686,38.9209,0,0.000885,0,0
0:2:51.531,306.095,38.9761,0,0.000885,0,0
0:2:51.824,306.74,39.0588,0,0.000885,0,0
0:2:52.124,307.328,39.1277,0,0.000885,0,0
0:2:52.427,307.799,39.1898,0,0.000885,0,0
0:2:52.725,308.444,39.2725,0,0.000885,0,0
0:2:53.030,309.614,39.4242,0,0.000885,0,0
0:2:53.327,310.028,39.4725,0,0.000885,0,0
0:2:53.626,310.553,39.5414,0,0.000885,0,0
0:2:53.929,310.788,39.569,0,0.000885,0,0
0:2:54.229,312.021,39.7276,0,0.000885,0,0
0:2:54.530,312.136,39.7414,0,0.000885,0,0
0:2:54.830,312.959,39.8448,0,0.000885,0,0
0:2:55.130,313.426,39.9069,0,0.000885,0,0
0:2:55.423,314.133,39.9965,0,0.000885,0,0
0:2:55.723,315.01,40.1068,0,0.000885,0,0
0:2:56.025,315.13,40.1206,0,0.000885,0,0
0:2:56.323,315.948,40.2309,0,0.000885,0,0
0:2:56.617,316.535,40.2999,0,0.000885,0,0
0:2:56.934,317.18,40.3826,0,0.000885,0,0
0:2:57.232,317.532,40.4309,0,0.000885,0,0
0:2:57.525,318.061,40.4998,0,0.000885,0,0
0:2:57.825,318.47,40.5481,0,0.000885,0,0
0:2:58.128,318.826,40.5963,0,0.000885,0,0
0:2:58.426,319.823,40.7204,0,0.000885,0,0
0:2:58.725,320.232,40.7756,0,0.000885,0,0
0:2:59.026,320.641,40.8239,0,0.000885,0,0
0:2:59.328,321.464,40.9273,0,0.000885,0,0
0:2:59.628,321.873,40.9824,0,0.000885,0,0
0:2:59.928,323.221,41.1548,0,0.000885,0,0
0:3:0.229,323.577,41.1962,0,0.000885,0,0
0:3:0.521,323.808,41.2306,0,0.000885,0,0
0:3:0.824,324.689,41.341,0,0.000885,0,0
0:3:1.115,324.983,41.3754,0,0.000885,0,0
0:3:1.413,325.57,41.4513,0,0.000885,0,0
0:3:1.720,326.215,41.534,0,0.000885,0,0
0:3:2.027,326.86,41.6168,0,0.000885,0,0
0:3:2.326,328.15,41.7822,0,0.000885,0,0
0:3:2.615,328.034,41.7684,0,0.000885,0,0
0:3:2.916,328.617,41.8443,0,0.000885,0,0
0:3:3.210,329.204,41.9132,0,0.000885,0,0
0:3:3.512,329.849,41.996,0,0.000885,0,0
0:3:3.816,330.263,42.0511,0,0.000885,0,0
0:3:4.116,331.201,42.1683,0,0.000885,0,0
0:3:4.417,331.904,42.258,0,0.000885,0,0
0:3:4.715,332.491,42.3338,0,0.000885,0,0
0:3:5.013,332.9,42.389,0,0.000885,0,0
0:3:5.310,332.785,42.3683,0,0.000885,0,0
0:3:5.613,333.781,42.4993,0,0.000885,0,0
0:3:5.913,334.248,42.5613,0,0.000885,0,0
0:3:6.217,335.187,42.6785,0,0.000885,0,0
0:3:6.515,335.832,42.7613,0,0.000885,0,0
0:3:6.821,336.241,42.8095,0,0.000885,0,0
0:3:7.127,337.064,42.913,0,0.000885,0,0
0:3:7.426,337.415,42.9612,0,0.000885,0,0
0:3:7.718,337.767,43.0026,0,0.000885,0,0
0:3:8.016,338.883,43.1474,0,0.000885,0,0
0:3:8.313,339.586,43.237,0,0.000885,0,0
0:3:8.613,340.173,43.3129,0,0.000885,0,0
0:3:8.918,341.054,43.4232,0,0.000885,0,0
0:3:9.217,341.463,43.4783,0,0.000885,0,0
0:3:9.519,341.873,43.5266,0,0.000885,0,0
0:3:9.819,342.518,43.6093,0,0.000885,0,0
0:3:10.116,342.989,43.6714,0,0.000885,0,0
0:3:10.413,343.047,43.6783,0,0.000885,0,0
0:3:10.716,343.75,43.7679,0,0.000885,0,0
0:3:11.016,344.688,43.8851,0,0.000885,0,0
0:3:11.309,344.866,43.9127,0,0.000885,0,0
0:3:11.609,345.627,44.0092,0,0.000885,0,0
0:3:11.914,346.098,44.0644,0,0.000885,0,0
0:3:12.210,346.917,44.1678,0,0.000885,0,0
0:3:12.517,347.326,44.223,0,0.000885,0,0
0:3:12.819,347.855,44.2919,0,0.000885,0,0
0:3:13.119,348.91,44.4229,0,0.000885,0,0
0:3:13.415,349.559,44.5057,0,0.000885,0,0
0:3:13.714,349.91,44.5539,0,0.000885,0,0
0:3:14.019,350.787,44.6642,0,0.000885,0,0
0:3:14.318,351.2,44.7194,0,0.000885,0,0
0:3:14.619,351.903,44.809,0,0.000885,0,0
0:3:14.917,352.433,44.8711,0,0.000885,0,0
0:3:15.215,352.664,44.9056,0,0.000885,0,0
0:3:15.521,353.015,44.9469,0,0.000885,0,0
0:3:15.829,353.78,45.0434,0,0.000885,0,0
0:3:16.127,354.31,45.1124,0,0.000885,0,0
0:3:16.428,355.244,45.2296,0,0.000885,0,0
0:3:16.728,355.715,45.2917,0,0.000885,0,0
0:3:17.030,356.182,45.3537,0,0.000885,0,0
0:3:17.328,356.827,45.4296,0,0.000885,0,0
0:3:17.621,357.063,45.464,0,0.000885,0,0
0:3:17.929,358.531,45.6502,0,0.000885,0,0
0:3:18.227,358.767,45.6778,0,0.000885,0,0
0:3:18.530,359.47,45.7674,0,0.000885,0,0
0:3:18.830,359.705,45.8019,0,0.000885,0,0
0:3:19.133,360.23,45.8639,0,0.000885,0,0
0:3:19.433,360.817,45.9398,0,0.000885,0,0
0:3:19.734,361.698,46.0501,0,0.000885,0,0
0:3:20.033,362.107,46.1052,0,0.000885,0,0
0:3:20.335,363.224,46.25,0,0.000885,0,0
0:3:20.629,363.869,46.3259,0,0.000885,0,0
0:3:20.926,363.869,46.3259,0,0.000885,0,0
0:3:21.220,364.336,46.3879,0,0.000885,0,0
0:3:21.515,365.275,46.5051,0,0.000885,0,0
0:3:21.814,365.217,46.4982,0,0.000885,0,0
0:3:22.117,366.565,46.6706,0,0.000885,0,0
0:3:22.428,367.036,46.7327,0,0.000885,0,0
0:3:22.732,367.503,46.7947,0,0.000885,0,0
0:3:23.027,367.912,46.843,0,0.000885,0,0
0:3:23.327,368.913,46.974,0,0.000885,0,0
0:3:23.629,369.616,47.0636,0,0.000885,0,0
0:3:23.932,369.732,47.0774,0,0.000885,0,0
0:3:24.233,370.612,47.1877,0,0.000885,0,0
0:3:24.533,371.022,47.2429,0,0.000885,0,0
0:3:24.834,371.96,47.3601,0,0.000885,0,0
0:3:25.127,372.432,47.4221,0,0.000885,0,0
0:3:25.427,373.25,47.5256,0,0.000885,0,0
0:3:25.729,373.25,47.5256,0,0.000885,0,0
0:3:26.027,374.131,47.6359,0,0.000885,0,0
0:3:26.320,374.425,47.6704,0,0.000885,0,0
0:3:26.627,374.834,47.7255,0,0.000885,0,0
0:3:26.934,375.657,47.8289,0,0.000885,0,0
0:3:27.229,376.302,47.9117,0,0.000885,0,0
0:3:27.529,377.125,48.0151,0,0.000885,0,0
0:3:27.832,377.885,48.1116,0,0.000885,0,0
0:3:28.130,378.121,48.1461,0,0.000885,0,0
0:3:28.424,378.646,48.2081,0,0.000885,0,0
0:3:28.729,379.06,48.2633,0,0.000885,0,0
0:3:29.030,379.998,48.3805,0,0.000885,0,0
0:3:29.332,380.875,48.4977,0,0.000885,0,0
0:3:29.630,381.11,48.5253,0,0.000885,0,0
0:3:29.929,381.404,48.5598,0,0.000885,0,0
0:3:30.227,382.165,48.6563,0,0.000885,0,0
0:3:30.521,382.814,48.739,0,0.000885,0,0
0:3:30.829,383.575,48.8356,0,0.000885,0,0
0:3:31.128,384.042,48.8976,0,0.000885,0,0
0:3:31.430,385.216,49.0493,0,0.000885,0,0
0:3:31.729,385.394,49.07,0,0.000885,0,0
0:3:32.022,385.861,49.132,0,0.000885,0,0
0:3:32.328,386.097,49.1596,0,0.000885,0,0
0:3:32.625,386.915,49.263,0,0.000885,0,0
0:3:32.918,387.974,49.4009,0,0.000885,0,0
0:3:33.218,388.147,49.4216,0,0.000885,0,0
0:3:33.521,388.267,49.4354,0,0.000885,0,0
0:3:33.822,388.855,49.5113,0,0.000885,0,0
0:3:34.125,389.673,49.6147,0,0.000885,0,0
0:3:34.425,390.202,49.6836,0,0.000885,0,0
0:3:34.728,391.083,49.7939,0,0.000885,0,0
0:3:35.028,391.377,49.8284,0,0.000885,0,0
0:3:35.324,391.959,49.9043,0,0.000885,0,0
0:3:35.619,392.898,50.0284,0,0.000885,0,0
0:3:35.917,393.663,50.1249,0,0.000885,0,0
0:3:36.215,394.015,50.1663,0,0.000885,0,0
0:3:36.518,394.953,50.2835,0,0.000885,0,0
0:3:36.816,396.007,50.4214,0,0.000885,0,0
0:3:37.122,396.007,50.4214,0,0.000885,0,0
0:3:37.419,396.537,50.4903,0,0.000885,0,0
0:3:37.725,397.182,50.573,0,0.000885,0,0
0:3:38.020,397.297,50.5868,0,0.000885,0,0
0:3:38.319,398,50.6765,0,0.000885,0,0
0:3:38.610,398.881,50.7868,0,0.000885,0,0
0:3:38.912,399.584,50.8764,0,0.000885,0,0
0:3:39.215,399.762,50.8971,0,0.000885,0,0
0:3:39.516,400.349,50.9729,0,0.000885,0,0
0:3:39.817,400.816,51.035,0,0.000885,0,0
0:3:40.117,401.109,51.0695,0,0.000885,0,0
0:3:40.417,401.812,51.1591,0,0.000885,0,0
0:3:40.732,402.399,51.2349,0,0.000885,0,0
0:3:41.037,403.458,51.3728,0,0.000885,0,0
0:3:41.336,404.161,51.4625,0,0.000885,0,0
0:3:41.629,404.277,51.4763,0,0.000885,0,0
0:3:41.930,405.509,51.6279,0,0.000885,0,0
0:3:42.232,405.567,51.6417,0,0.000885,0,0
0:3:42.532,406.857,51.8003,0,0.000885,0,0
0:3:42.836,407.386,51.8693,0,0.000885,0,0
0:3:43.131,407.795,51.9244,0,0.000885,0,0
0:3:43.431,408.44,52.0072,0,0.000885,0,0
0:3:43.733,408.676,52.0347,0,0.000885,0,0
0:3:44.035,409.441,52.1313,0,0.000885,0,0
0:3:44.337,409.908,52.1933,0,0.000885,0,0
0:3:44.636,410.38,52.2485,0,0.000885,0,0
0:3:44.937,410.847,52.3105,0,0.000885,0,0
0:3:45.230,411.492,52.3933,0,0.000885,0,0
0:3:45.530,412.43,52.5105,0,0.000885,0,0
0:3:45.834,413.253,52.6139,0,0.000885,0,0
0:3:46.131,413.72,52.6759,0,0.000885,0,0
0:3:46.425,413.898,52.6966,0,0.000885,0,0
0:3:46.722,414.774,52.8138,0,0.000885,0,0
0:3:47.022,415.362,52.8828,0,0.000885,0,0
0:3:47.314,415.54,52.9104,0,0.000885,0,0
0:3:47.614,416.478,53.0276,0,0.000885,0,0
0:3:47.907,416.945,53.0896,0,0.000885,0,0
0:3:48.214,417.71,53.1862,0,0.000885,0,0
0:3:48.513,417.648,53.1793,0,0.000885,0,0
0:3:48.811,418.235,53.2482,0,0.000885,0,0
0:3:49.115,419.409,53.3999,0,0.000885,0,0
0:3:49.415,420.112,53.4895,0,0.000885,0,0
0:3:49.715,420.29,53.5102,0,0.000885,0,0
0:3:50.016,420.877,53.5861,0,0.000885,0,0
0:3:50.311,421.522,53.6688,0,0.000885,0,0
0:3:50.611,422.634,53.8136,0,0.000885,0,0
0:3:50.925,422.986,53.8549,0,0.000885,0,0
0:3:51.222,423.106,53.8687,0,0.000885,0,0
0:3:51.519,423.751,53.9515,0,0.000885,0,0
0:3:51.823,424.396,54.0342,0,0.000885,0,0
0:3:52.123,425.041,54.1169,0,0.000885,0,0
0:3:52.415,425.628,54.1928,0,0.000885,0,0
0:3:52.714,426.331,54.2824,0,0.000885,0,0
0:3:53.011,426.682,54.3238,0,0.000885,0,0
0:3:53.316,427.799,54.4686,0,0.000885,0,0
0:3:53.615,427.914,54.4824,0,0.000885,0,0
0:3:53.916,429.089,54.6341,0,0.000885,0,0
0:3:54.219,429.734,54.7168,0,0.000885,0,0
0:3:54.518,430.259,54.7857,0,0.000885,0,0
0:3:54.820,430.552,54.8202,0,0.000885,0,0
0:3:55.119,430.846,54.8547,0,0.000885,0,0
0:3:55.412,431.784,54.9788,0,0.000885,0,0
0:3:55.713,432.372,55.0546,0,0.000885,0,0
0:3:56.016,432.839,55.1098,0,0.000885,0,0
0:3:56.322,433.132,55.1512,0,0.000885,0,0
0:3:56.620,433.368,55.1787,0,0.000885,0,0
0:3:56.922,434.249,55.2891,0,0.000885,0,0
0:3:57.223,435.067,55.3925,0,0.000885,0,0
0:3:57.526,435.361,55.4338,0,0.000885,0,0
0:3:57.822,436.535,55.5786,0,0.000885,0,0
0:3:58.120,436.713,55.6062,0,0.000885,0,0
0:3:58.436,437.709,55.7303,0,0.000885,0,0
0:3:58.736,438.412,55.82,0,0.000885,0,0
0:3:59.040,438.47,55.8268,0,0.000885,0,0
0:3:59.341,439.467,55.9579,0,0.000885,0,0
0:3:59.641,439.818,55.9992,0,0.000885,0,0
0:3:59.941,440.347,56.0682,0,0.000885,0,0
0:4:0.240,440.819,56.1233,0,0.000885,0,0
0:4:0.536,441.344,56.1923,0,0.000885,0,0
0:4:0.833,442.402,56.3302,0,0.000885,0,0
0:4:1.127,442.869,56.3853,0,0.000885,0,0
0:4:1.423,443.514,56.4681,0,0.000885,0,0
0:4:1.722,443.514,56.4681,0,0.000885,0,0
0:4:2.035,444.511,56.5991,0,0.000885,0,0
0:4:2.336,445.156,56.6818,0,0.000885,0,0
0:4:2.631,445.801,56.7645,0,0.000885,0,0
0:4:2.936,446.566,56.8611,0,0.000885,0,0
0:4:3.234,447.447,56.9714,0,0.000885,0,0
0:4:3.525,447.856,57.0196,0,0.000885,0,0
0:4:3.827,448.443,57.0955,0,0.000885,0,0
0:4:4.131,449.088,57.1782,0,0.000885,0,0
0:4:4.433,449.319,57.2127,0,0.000885,0,0
0:4:4.733,449.969,57.2885,0,0.000885,0,0
0:4:5.034,450.672,57.3782,0,0.000885,0,0
0:4:5.334,451.081,57.4333,0,0.000885,0,0
0:4:5.627,451.726,57.5161,0,0.000885,0,0
0:4:5.923,452.135,57.5712,0,0.000885,0,0
0:4:6.222,453.194,57.7022,0,0.000885,0,0
0:4:6.524,453.603,57.7574,0,0.000885,0,0
0:4:6.825,453.781,57.7781,0,0.000885,0,0
0:4:7.137,454.07,57.8125,0,0.000885,0,0
0:4:7.436,455.009,57.9366,0,0.000885,0,0
0:4:7.733,455.774,58.0332,0,0.000885,0,0
0:4:8.025,456.361,58.1021,0,0.000885,0,0
0:4:8.325,456.477,58.1228,0,0.000885,0,0
0:4:8.628,457.593,58.2607,0,0.000885,0,0
0:4:8.933,458.238,58.3434,0,0.000885,0,0
0:4:9.234,458.647,58.3986,0,0.000885,0,0
0:4:9.536,459.408,58.4951,0,0.000885,0,0
0:4:9.836,459.937,58.5641,0,0.000885,0,0
0:4:10.137,460.289,58.6054,0,0.000885,0,0
0:4:10.436,460.991,58.6951,0,0.000885,0,0
0:4:10.732,461.579,58.7709,0,0.000885,0,0
0:4:11.038,462.224,58.8536,0,0.000885,0,0
0:4:11.336,462.753,58.9226,0,0.000885,0,0
0:4:11.627,463.807,59.0536,0,0.000885,0,0
0:4:11.927,463.927,59.0674,0,0.000885,0,0
0:4:12.233,464.804,59.1777,0,0.000885,0,0
0:4:12.537,465.275,59.2398,0,0.000885,0,0
0:4:12.836,465.742,59.3018,0,0.000885,0,0
0:4:13.139,466.329,59.3776,0,0.000885,0,0
0:4:13.440,466.801,59.4328,0,0.000885,0,0
0:4:13.744,467.504,59.5224,0,0.000885,0,0
0:4:14.047,468.149,59.6052,0,0.000885,0,0
0:4:14.347,468.794,59.6879,0,0.000885,0,0
0:4:14.647,469.261,59.75,0,0.000885,0,0
0:4:14.947,470.084,59.8534,0,0.000885,0,0
0:4:15.239,470.435,59.8948,0,0.000885,0,0
0:4:15.540,471.258,60.0051,0,0.000885,0,0
0:4:15.834,471.961,60.0947,0,0.000885,0,0
0:4:16.132,472.37,60.143,0,0.000885,0,0
0:4:16.427,472.957,60.2188,0,0.000885,0,0
0:4:16.729,473.251,60.2533,0,0.000885,0,0
0:4:17.028,474.074,60.3636,0,0.000885,0,0
0:4:17.322,474.425,60.405,0,0.000885,0,0
0:4:17.621,475.364,60.5222,0,0.000885,0,0
0:4:17.925,475.715,60.5704,0,0.000885,0,0
0:4:18.220,476.066,60.6118,0,0.000885,0,0
0:4:18.528,477.241,60.7635,0,0.000885,0,0
0:4:18.834,478.001,60.86,0,0.000885,0,0
0:4:19.136,478.001,60.86,0,0.000885,0,0
0:4:19.437,478.704,60.9497,0,0.000885,0,0
0:4:19.737,479.821,61.0944,0,0.000885,0,0
0:4:20.038,480.23,61.1427,0,0.000885,0,0
0:4:20.329,480.408,61.1703,0,0.000885,0,0
0:4:20.629,481.169,61.2668,0,0.000885,0,0
0:4:20.922,481.404,61.2944,0,0.000885,0,0
0:4:21.220,482.049,61.3771,0,0.000885,0,0
0:4:21.526,483.104,61.5081,0,0.000885,0,0
0:4:21.822,483.513,61.5633,0,0.000885,0,0
0:4:22.120,483.691,61.584,0,0.000885,0,0
0:4:22.421,484.158,61.646,0,0.000885,0,0
0:4:22.722,484.981,61.7494,0,0.000885,0,0
0:4:23.036,486.035,61.8873,0,0.000885,0,0
0:4:23.332,486.035,61.8873,0,0.000885,0,0
0:4:23.627,486.564,61.9494,0,0.000885,0,0
0:4:23.930,487.445,62.0666,0,0.000885,0,0
0:4:24.235,488.263,62.17,0,0.000885,0,0
0:4:24.535,488.908,62.2528,0,0.000885,0,0
0:4:24.836,489.264,62.2941,0,0.000885,0,0
0:4:25.138,490.141,62.4044,0,0.000885,0,0
0:4:25.433,490.492,62.4527,0,0.000885,0,0
0:4:25.732,491.199,62.5423,0,0.000885,0,0
0:4:26.034,491.844,62.6251,0,0.000885,0,0
0:4:26.334,492.254,62.6733,0,0.000885,0,0
0:4:26.637,493.014,62.7699,0,0.000885,0,0
0:4:26.935,493.659,62.8526,0,0.000885,0,0
0:4:27.229,494.015,62.9009,0,0.000885,0,0
0:4:27.534,494.776,62.9974,0,0.000885,0,0
0:4:27.834,495.363,63.0732,0,0.000885,0,0
0:4:28.137,496.181,63.1767,0,0.000885,0,0
0:4:28.435,496.946,63.2732,0,0.000885,0,0
0:4:28.728,497.471,63.3421,0,0.000885,0,0
0:4:29.026,497.765,63.3766,0,0.000885,0,0
0:4:29.330,498.824,63.5145,0,0.000885,0,0
0:4:29.630,499.175,63.5559,0,0.000885,0,0
0:4:29.930,499.642,63.6179,0,0.000885,0,0
0:4:30.230,499.993,63.6593,0,0.000885,0,0
0:4:30.540,500.287,63.7007,0,0.000885,0,0
0:4:30.837,501.404,63.8386,0,0.000885,0,0
0:4:31.129,501.639,63.873,0,0.000885,0,0
0:4:31.429,502.4,63.9696,0,0.000885,0,0
0:4:31.730,503.223,64.073,0,0.000885,0,0
0:4:32.029,503.632,64.1212,0,0.000885,0,0
0:4:32.326,504.161,64.1902,0,0.000885,0,0
0:4:32.620,505.038,64.3005,0,0.000885,0,0
0:4:32.918,505.1,64.3143,0,0.000885,0,0
0:4:33.212,505.509,64.3626,0,0.000885,0,0
0:4:33.514,506.27,64.4591,0,0.000885,0,0
0:4:33.816,507.093,64.5625,0,0.000885,0,0
0:4:34.118,507.502,64.6177,0,0.000885,0,0
0:4:34.419,508.383,64.728,0,0.000885,0,0
0:4:34.720,508.792,64.7831,0,0.000885,0,0
0:4:35.020,509.206,64.8314,0,0.000885,0,0
0:4:35.334,510.024,64.9417,0,0.000885,0,0
0:4:35.634,510.727,65.0314,0,0.000885,0,0
0:4:35.938,510.963,65.0589,0,0.000885,0,0
0:4:36.243,511.959,65.183,0,0.000885,0,0
0:4:36.540,512.079,65.1968,0,0.000885,0,0
0:4:36.835,512.604,65.2658,0,0.000885,0,0
0:4:37.135,513.307,65.3554,0,0.000885,0,0
0:4:37.437,514.246,65.4726,0,0.000885,0,0
0:4:37.735,514.891,65.5554,0,0.000885,0,0
0:4:38.029,515.42,65.6243,0,0.000885,0,0
0:4:38.323,515.598,65.645,0,0.000885,0,0
0:4:38.622,516.185,65.7208,0,0.000885,0,0
0:4:38.926,516.888,65.8105,0,0.000885,0,0
0:4:39.227,517.355,65.8725,0,0.000885,0,0
0:4:39.528,517.942,65.9484,0,0.000885,0,0
0:4:39.828,518.414,66.0035,0,0.000885,0,0
0:4:40.128,519.059,66.0862,0,0.000885,0,0
0:4:40.422,519.997,66.2104,0,0.000885,0,0
0:4:40.722,520.349,66.2517,0,0.000885,0,0
0:4:41.017,521.287,66.3689,0,0.000885,0,0
0:4:41.322,521.403,66.3896,0,0.000885,0,0
0:4:41.628,522.283,66.4999,0,0.000885,0,0
0:4:41.924,523.396,66.6378,0,0.000885,0,0
0:4:42.224,523.689,66.6792,0,0.000885,0,0
0:4:42.526,523.867,66.6999,0,0.000885,0,0
0:4:42.825,524.806,66.8171,0,0.000885,0,0
0:4:43.130,525.041,66.8516,0,0.000885,0,0
0:4:43.436,525.86,66.955,0,0.000885,0,0
0:4:43.732,525.976,66.9688,0,0.000885,0,0
0:4:44.037,526.856,67.0791,0,0.000885,0,0
0:4:44.340,527.679,67.1894,0,0.000885,0,0
0:4:44.640,528.324,67.2653,0,0.000885,0,0
0:4:44.939,528.969,67.348,0,0.000885,0,0
0:4:45.240,529.556,67.4238,0,0.000885,0,0
0:4:45.544,530.023,67.4859,0,0.000885,0,0
0:4:45.844,530.437,67.5341,0,0.000885,0,0
0:4:46.136,531.371,67.6583,0,0.000885,0,0
0:4:46.435,532.021,67.741,0,0.000885,0,0
0:4:46.728,532.31,67.7755,0,0.000885,0,0
0:4:47.024,533.368,67.9134,0,0.000885,0,0
0:4:47.323,534.013,67.9892,0,0.000885,0,0
0:4:47.637,534.071,68.003,0,0.000885,0,0
0:4:47.936,535.068,68.1271,0,0.000885,0,0
0:4:48.228,535.188,68.1409,0,0.000885,0,0
0:4:48.527,536.184,68.2719,0,0.000885,0,0
0:4:48.830,537.06,68.3822,0,0.000885,0,0
0:4:49.131,536.829,68.3477,0,0.000885,0,0
0:4:49.432,537.416,68.4236,0,0.000885,0,0
0:4:49.732,537.768,68.4718,0,0.000885,0,0
0:4:50.030,538.88,68.6097,0,0.000885,0,0
0:4:50.327,539.351,68.6718,0,0.000885,0,0
0:4:50.630,539.938,68.7476,0,0.000885,0,0
0:4:50.939,540.17,68.7752,0,0.000885,0,0
0:4:51.231,541.051,68.8855,0,0.000885,0,0
0:4:51.532,541.931,69.0027,0,0.000885,0,0
0:4:51.837,542.576,69.0855,0,0.000885,0,0
0:4:52.132,543.106,69.1475,0,0.000885,0,0
0:4:52.427,543.751,69.2303,0,0.000885,0,0
0:4:52.722,543.924,69.2578,0,0.000885,0,0
0:4:53.022,544.92,69.3819,0,0.000885,0,0
0:4:53.316,545.392,69.444,0,0.000885,0,0
0:4:53.615,545.628,69.4716,0,0.000885,0,0
0:4:53.918,546.331,69.5612,0,0.000885,0,0
0:4:54.220,546.918,69.637,0,0.000885,0,0
0:4:54.521,547.856,69.7543,0,0.000885,0,0
0:4:54.821,548.439,69.8301,0,0.000885,0,0
0:4:55.121,549.026,69.9059,0,0.000885,0,0
0:4:55.436,548.968,69.899,0,0.000885,0,0
0:4:55.731,549.965,70.0232,0,0.000885,0,0
0:4:56.041,550.316,70.0714,0,0.000885,0,0
0:4:56.332,551.081,70.1679,0,0.000885,0,0
0:4:56.633,551.668,70.2438,0,0.000885,0,0
0:4:56.936,552.723,70.3748,0,0.000885,0,0
0:4:57.233,553.132,70.4299,0,0.000885,0,0
0:4:57.527,553.719,70.4989,0,0.000885,0,0
0:4:57.824,554.542,70.6092,0,0.000885,0,0
0:4:58.121,554.6,70.6161,0,0.000885,0,0
0:4:58.424,555.067,70.6713,0,0.000885,0,0
0:4:58.724,556.126,70.8092,0,0.000885,0,0
0:4:59.027,556.65,70.8781,0,0.000885,0,0
0:4:59.327,556.944,70.9126,0,0.000885,0,0
0:4:59.628,557.589,70.9953,0,0.000885,0,0
0:4:59.925,558.354,71.0918,0,0.000885,0,0
0:5:0.226,558.821,71.1539,0,0.000885,0,0
0:5:0.528,558.763,71.147,0,0.000885,0,0
0:5:0.827,559.76,71.2711,0,0.000885,0,0
0:5:1.132,560.583,71.3745,0,0.000885,0,0
0:5:1.439,561.05,71.4366,0,0.000885,0,0
0:5:1.737,561.753,71.5262,0,0.000885,0,0
0:5:2.029,562.398,71.6089,0,0.000885,0,0
0:5:2.330,563.105,71.6986,0,0.000885,0,0
0:5:2.632,563.514,71.7468,0,0.000885,0,0
0:5:2.929,564.275,71.8434,0,0.000885,0,0
0:5:3.226,564.337,71.8503,0,0.000885,0,0
0:5:3.521,564.804,71.9123,0,0.000885,0,0
0:5:3.819,565.565,72.0088,0,0.000885,0,0
0:5:4.123,566.33,72.1054,0,0.000885,0,0
0:5:4.425,567.148,72.2088,0,0.000885,0,0
0:5:4.725,567.562,72.264,0,0.000885,0,0
0:5:5.025,567.971,72.3191,0,0.000885,0,0
0:5:5.326,568.852,72.4294,0,0.000885,0,0
0:5:5.618,569.261,72.4777,0,0.000885,0,0
0:5:5.918,569.613,72.526,0,0.000885,0,0
0:5:6.215,570.435,72.6294,0,0.000885,0,0
0:5:6.521,571.196,72.7259,0,0.000885,0,0
0:5:6.827,571.783,72.8017,0,0.000885,0,0
0:5:7.130,572.255,72.8638,0,0.000885,0,0
0:5:7.431,573.015,72.9603,0,0.000885,0,0
0:5:7.722,573.251,72.9879,0,0.000885,0,0
0:5:8.023,574.248,73.112,0,0.000885,0,0
0:5:8.328,574.657,73.1672,0,0.000885,0,0
0:5:8.627,575.128,73.2292,0,0.000885,0,0
0:5:8.931,575.653,73.2913,0,0.000885,0,0
0:5:9.232,576.418,73.3947,0,0.000885,0,0
0:5:9.533,576.885,73.4498,0,0.000885,0,0
0:5:9.834,577.588,73.5395,0,0.000885,0,0
0:5:10.141,578.118,73.6084,0,0.000885,0,0
0:5:10.438,578.763,73.6912,0,0.000885,0,0
0:5:10.741,579.234,73.7532,0,0.000885,0,0
0:5:11.041,580.23,73.8773,0,0.000885,0,0
0:5:11.332,580.698,73.9394,0,0.000885,0,0
0:5:11.632,580.875,73.9601,0,0.000885,0,0
0:5:11.939,581.285,74.0083,0,0.000885,0,0
0:5:12.232,582.045,74.1117,0,0.000885,0,0
0:5:12.541,582.459,74.16,0,0.000885,0,0
0:5:12.833,582.868,74.2152,0,0.000885,0,0
0:5:13.132,583.278,74.2634,0,0.000885,0,0
0:5:13.438,584.158,74.3806,0,0.000885,0,0
0:5:13.738,585.155,74.5047,0,0.000885,0,0
0:5:14.042,585.568,74.5599,0,0.000885,0,0
0:5:14.343,586.213,74.6357,0,0.000885,0,0
0:5:14.644,587.383,74.7874,0,0.000885,0,0
0:5:14.945,587.797,74.8426,0,0.000885,0,0
0:5:15.243,588.322,74.9046,0,0.000885,0,0
0:5:15.540,588.851,74.9736,0,0.000885,0,0
0:5:15.834,589.318,75.0356,0,0.000885,0,0
0:5:16.134,590.377,75.1666,0,0.000885,0,0
0:5:16.429,590.786,75.2218,0,0.000885,0,0
0:5:16.730,591.315,75.2907,0,0.000885,0,0
0:5:17.026,591.787,75.3459,0,0.000885,0,0
0:5:17.324,592.081,75.3873,0,0.000885,0,0
0:5:17.622,592.841,75.4838,0,0.000885,0,0
0:5:17.927,592.605,75.4562,0,0.000885,0,0
0:5:18.228,593.019,75.5045,0,0.000885,0,0
0:5:18.522,593.428,75.5596,0,0.000885,0,0
0:5:18.825,593.78,75.601,0,0.000885,0,0
0:5:19.130,595.016,75.7596,0,0.000885,0,0
0:5:19.432,595.483,75.8216,0,0.000885,0,0
0:5:19.735,596.013,75.8837,0,0.000885,0,0
0:5:20.036,595.719,75.8492,0,0.000885,0,0
0:5:20.339,595.541,75.8285,0,0.000885,0,0
0:5:20.632,595.541,75.8285,0,0.000885,0,0
0:5:20.942,596.186,75.9113,0,0.000885,0,0
0:5:21.240,596.658,75.9664,0,0.000885,0,0
0:5:21.545,597.654,76.0974,0,0.000885,0,0
0:5:21.846,598.241,76.1733,0,0.000885,0,0
0:5:22.141,599.122,76.2836,0,0.000885,0,0
0:5:22.441,599.767,76.3663,0,0.000885,0,0
0:5:22.735,600.061,76.4008,0,0.000885,0,0
0:5:23.033,600.884,76.5042,0,0.000885,0,0
0:5:23.333,601.764,76.6214,0,0.000885,0,0
0:5:23.640,602.174,76.6697,0,0.000885,0,0
0:5:23.943,602.996,76.7731,0,0.000885,0,0
0:5:24.244,603.41,76.8283,0,0.000885,0,0
0:5:24.546,604.286,76.9386,0,0.000885,0,0
0:5:24.849,604.816,77.0075,0,0.000885,0,0
0:5:25.144,605.581,77.1041,0,0.000885,0,0
0:5:25.446,605.754,77.1248,0,0.000885,0,0
0:5:25.741,606.813,77.2627,0,0.000885,0,0
0:5:26.041,606.929,77.2764,0,0.000885,0,0
0:5:26.346,607.342,77.3316,0,0.000885,0,0
0:5:26.645,608.045,77.4212,0,0.000885,0,0
0:5:26.943,608.454,77.4695,0,0.000885,0,0
0:5:27.236,609.629,77.6212,0,0.000885,0,0
0:5:27.539,610.394,77.7177,0,0.000885,0,0
0:5:27.834,610.981,77.7935,0,0.000885,0,0
0:5:28.133,611.155,77.8142,0,0.000885,0,0
0:5:28.430,611.742,77.8901,0,0.000885,0,0
0:5:28.732,612.213,77.9521,0,0.000885,0,0
0:5:29.040,612.974,78.0487,0,0.000885,0,0
0:5:29.341,613.681,78.1383,0,0.000885,0,0
0:5:29.642,613.739,78.1452,0,0.000885,0,0
0:5:29.943,614.09,78.1865,0,0.000885,0,0
0:5:30.248,610.042,77.6694,0,0.000885,0,0
0:5:30.548,604.286,76.9386,0,0.000885,0,0
0:5:30.842,582.633,74.1807,0,0.000885,0,0
0:5:31.000,514.601,65.5209,0,0.000885,0,0