File: DataFile2021-06-06_021242.csv
Test ID:,Date Tested:,Time:,Test Type:,Diameter Avg. (mm):,Cyl. Corr. Factor:,Height (mm):,Age (days):,Weight (kN):,Break Type:,Ramp Rate (MPa/s):,Load at Break (kN):,Stress at Break (MPa):
12,6/6/2021,02:12,Cylinder,150,1,300,0,13.39,Invalid/No Break,0.25,1252.27,70.86
Sample Time,Load (kN),Stress (MPa),Long. Strain,Trans. Strain,Chan1 Deflection (mm),Chan2 Deflection (mm)
0:0:11.729,60.0599,3.39912,0,0.000885,0,0
0:0:12.029,60.5848,3.42669,0,0.000885,0,0
0:0:12.327,61.1719,3.46117,0,0.000885,0,0
0:0:12.623,64.5748,3.65422,0,0.000885,0,0
0:0:12.926,65.5134,3.70938,0,0.000885,0,0
0:0:13.221,66.7456,3.77833,0,0.000885,0,0
0:0:13.521,68.0355,3.84727,0,0.000885,0,0
0:0:13.820,69.499,3.93001,0,0.000885,0,0
0:0:14.117,71.2605,4.03343,0,0.000885,0,0
0:0:14.419,72.5505,4.10238,0,0.000885,0,0
0:0:14.713,74.312,4.2058,0,0.000885,0,0
0:0:15.016,75.5397,4.27475,0,0.000885,0,0
0:0:15.312,76.6562,4.3368,0,0.000885,0,0
0:0:15.611,77.537,4.38507,0,0.000885,0,0
0:0:15.910,78.7691,4.45401,0,0.000885,0,0
0:0:16.206,80.0591,4.52986,0,0.000885,0,0
0:0:16.508,81.1133,4.59191,0,0.000885,0,0
0:0:16.805,83.3997,4.72291,0,0.000885,0,0
0:0:17.107,84.5162,4.78496,0,0.000885,0,0
0:0:17.412,85.2769,4.82633,0,0.000885,0,0
0:0:17.714,86.9183,4.91596,0,0.000885,0,0
0:0:18.018,88.3862,4.9987,0,0.000885,0,0
0:0:18.320,90.379,5.11591,0,0.000885,0,0
0:0:18.622,91.2597,5.16417,0,0.000885,0,0
0:0:18.920,92.1405,5.21244,0,0.000885,0,0
0:0:19.219,93.4883,5.28828,0,0.000885,0,0
0:0:19.520,94.8984,5.37102,0,0.000885,0,0
0:0:19.813,96.1883,5.43996,0,0.000885,0,0
0:0:20.116,97.3004,5.50891,0,0.000885,0,0
0:0:20.413,98.7105,5.58475,0,0.000885,0,0
0:0:20.711,99.8804,5.6537,0,0.000885,0,0
0:0:21.011,102.403,5.7916,0,0.000885,0,0
0:0:21.308,103.986,5.88123,0,0.000885,0,0
0:0:21.610,104.515,5.9157,0,0.000885,0,0
0:0:21.903,104.925,5.93639,0,0.000885,0,0
0:0:22.206,106.45,6.02602,0,0.000885,0,0
0:0:22.511,108.15,6.12254,0,0.000885,0,0
0:0:22.815,108.857,6.15702,0,0.000885,0,0
0:0:23.119,110.089,6.23286,0,0.000885,0,0
0:0:23.420,111.553,6.3156,0,0.000885,0,0
0:0:23.723,114.19,6.46039,0,0.000885,0,0
0:0:24.020,115.774,6.55002,0,0.000885,0,0
0:0:24.319,116.655,6.59828,0,0.000885,0,0
0:0:24.619,117.42,6.64655,0,0.000885,0,0
0:0:24.913,118.238,6.68791,0,0.000885,0,0
0:0:25.216,119.528,6.76376,0,0.000885,0,0
0:0:25.513,121.174,6.86028,0,0.000885,0,0
0:0:25.812,122.758,6.94992,0,0.000885,0,0
0:0:26.111,123.634,6.99818,0,0.000885,0,0
0:0:26.409,125.983,7.12918,0,0.000885,0,0
0:0:26.710,127.037,7.19123,0,0.000885,0,0
0:0:27.006,128.327,7.26018,0,0.000885,0,0
0:0:27.309,129.15,7.30844,0,0.000885,0,0
0:0:27.614,130.088,7.3636,0,0.000885,0,0
0:0:27.918,131.845,7.46013,0,0.000885,0,0
0:0:28.220,133.722,7.57044,0,0.000885,0,0
0:0:28.522,134.545,7.61181,0,0.000885,0,0
0:0:28.824,135.19,7.65318,0,0.000885,0,0
0:0:29.121,137.299,7.77039,0,0.000885,0,0
0:0:29.420,138.415,7.83244,0,0.000885,0,0
0:0:29.718,139.821,7.91518,0,0.000885,0,0
0:0:30.015,141.405,8.00481,0,0.000885,0,0
0:0:30.317,143.282,8.10823,0,0.000885,0,0
0:0:30.612,144.928,8.19787,0,0.000885,0,0
0:0:30.914,145.688,8.24613,0,0.000885,0,0
0:0:31.210,146.862,8.30818,0,0.000885,0,0
0:0:31.508,147.917,8.37024,0,0.000885,0,0
0:0:31.808,149.322,8.45297,0,0.000885,0,0
0:0:32.111,150.087,8.49434,0,0.000885,0,0
0:0:32.417,151.493,8.57018,0,0.000885,0,0
0:0:32.719,152.667,8.63913,0,0.000885,0,0
0:0:33.020,154.66,8.74945,0,0.000885,0,0
0:0:33.325,156.422,8.85287,0,0.000885,0,0
0:0:33.623,157.77,8.92871,0,0.000885,0,0
0:0:33.924,158.944,8.99766,0,0.000885,0,0
0:0:34.221,159.94,9.05282,0,0.000885,0,0
0:0:34.521,161.408,9.13555,0,0.000885,0,0
0:0:34.820,162.814,9.2114,0,0.000885,0,0
0:0:35.117,163.695,9.26655,0,0.000885,0,0
0:0:35.418,164.691,9.32171,0,0.000885,0,0
0:0:35.713,166.097,9.39755,0,0.000885,0,0
0:0:36.016,167.974,9.50787,0,0.000885,0,0
0:0:36.313,169.326,9.58371,0,0.000885,0,0
0:0:36.613,170.38,9.63887,0,0.000885,0,0
0:0:36.910,171.964,9.7285,0,0.000885,0,0
0:0:37.214,172.96,9.79056,0,0.000885,0,0
0:0:37.520,174.486,9.87329,0,0.000885,0,0
0:0:37.823,175.892,9.95603,0,0.000885,0,0
0:0:38.126,177.302,10.0319,0,0.000885,0,0
0:0:38.428,178.182,10.0801,0,0.000885,0,0
0:0:38.727,180.411,10.2111,0,0.000885,0,0
0:0:39.027,181.229,10.2525,0,0.000885,0,0
0:0:39.323,182.168,10.3077,0,0.000885,0,0
0:0:39.626,183.516,10.3835,0,0.000885,0,0
0:0:39.921,184.984,10.4662,0,0.000885,0,0
0:0:40.222,187.212,10.5972,0,0.000885,0,0
0:0:40.520,187.857,10.6317,0,0.000885,0,0
0:0:40.817,189.032,10.6938,0,0.000885,0,0
0:0:41.118,190.495,10.7765,0,0.000885,0,0
0:0:41.415,191.785,10.8523,0,0.000885,0,0
0:0:41.715,193.311,10.942,0,0.000885,0,0
0:0:42.009,194.663,11.0178,0,0.000885,0,0
0:0:42.310,195.717,11.073,0,0.000885,0,0
0:0:42.613,196.829,11.135,0,0.000885,0,0
0:0:42.915,198.591,11.2385,0,0.000885,0,0
0:0:43.214,199.996,11.3143,0,0.000885,0,0
0:0:43.516,201.286,11.3901,0,0.000885,0,0
0:0:43.814,202.812,11.4798,0,0.000885,0,0
0:0:44.109,203.457,11.5142,0,0.000885,0,0
0:0:44.404,205.334,11.6177,0,0.000885,0,0
0:0:44.703,206.273,11.6728,0,0.000885,0,0
0:0:44.997,207.269,11.728,0,0.000885,0,0
0:0:45.296,208.501,11.7969,0,0.000885,0,0
0:0:45.590,209.791,11.8728,0,0.000885,0,0
0:0:45.888,211.433,11.9624,0,0.000885,0,0
0:0:46.195,213.488,12.0796,0,0.000885,0,0
0:0:46.488,214.427,12.1348,0,0.000885,0,0
0:0:46.788,215.601,12.2037,0,0.000885,0,0
0:0:47.092,216.361,12.2451,0,0.000885,0,0
0:0:47.393,218.474,12.3623,0,0.000885,0,0
0:0:47.697,219.764,12.4381,0,0.000885,0,0
0:0:47.998,220.819,12.4933,0,0.000885,0,0
0:0:48.298,221.935,12.5622,0,0.000885,0,0
0:0:48.598,223.519,12.6519,0,0.000885,0,0
0:0:48.897,224.631,12.7139,0,0.000885,0,0
0:0:49.192,226.334,12.8105,0,0.000885,0,0
0:0:49.489,227.74,12.8863,0,0.000885,0,0
0:0:49.783,228.327,12.9208,0,0.000885,0,0
0:0:50.090,229.911,13.0104,0,0.000885,0,0
0:0:50.390,231.085,13.0794,0,0.000885,0,0
0:0:50.693,232.727,13.169,0,0.000885,0,0
0:0:50.992,233.896,13.2379,0,0.000885,0,0
0:0:51.288,234.897,13.2931,0,0.000885,0,0
0:0:51.593,237.064,13.4172,0,0.000885,0,0
0:0:51.891,238.064,13.4724,0,0.000885,0,0
0:0:52.191,239.47,13.5482,0,0.000885,0,0
0:0:52.494,240.293,13.5965,0,0.000885,0,0
0:0:52.795,242.17,13.7068,0,0.000885,0,0
0:0:53.095,243.224,13.7619,0,0.000885,0,0
0:0:53.396,244.456,13.8309,0,0.000885,0,0
0:0:53.691,245.862,13.9136,0,0.000885,0,0
0:0:53.991,247.036,13.9826,0,0.000885,0,0
0:0:54.283,248.211,14.0446,0,0.000885,0,0
0:0:54.594,249.794,14.1343,0,0.000885,0,0
0:0:54.889,251.084,14.2101,0,0.000885,0,0
0:0:55.183,252.432,14.2859,0,0.000885,0,0
0:0:55.493,253.429,14.3411,0,0.000885,0,0
0:0:55.784,255.599,14.4652,0,0.000885,0,0
0:0:56.084,256.653,14.5204,0,0.000885,0,0
0:0:56.391,257.65,14.5824,0,0.000885,0,0
0:0:56.688,258.882,14.6514,0,0.000885,0,0
0:0:56.993,261.111,14.7755,0,0.000885,0,0
0:0:57.294,262.227,14.8375,0,0.000885,0,0
0:0:57.597,263.339,14.8996,0,0.000885,0,0
0:0:57.898,264.278,14.9547,0,0.000885,0,0
0:0:58.199,265.101,15.003,0,0.000885,0,0
0:0:58.500,267.329,15.1271,0,0.000885,0,0
0:0:58.796,268.504,15.196,0,0.000885,0,0
0:0:59.095,269.736,15.265,0,0.000885,0,0
0:0:59.388,270.261,15.2926,0,0.000885,0,0
0:0:59.697,272.841,15.4374,0,0.000885,0,0
0:0:59.992,273.663,15.4856,0,0.000885,0,0
0:1:0.285,275.011,15.5615,0,0.000885,0,0
0:1:0.584,276.715,15.658,0,0.000885,0,0
0:1:0.889,277.711,15.7132,0,0.000885,0,0
0:1:1.189,279.117,15.7959,0,0.000885,0,0
0:1:1.492,280.407,15.8648,0,0.000885,0,0
0:1:1.789,281.697,15.9407,0,0.000885,0,0
0:1:2.096,282.462,15.982,0,0.000885,0,0
0:1:2.398,284.571,16.1062,0,0.000885,0,0
0:1:2.699,285.861,16.1751,0,0.000885,0,0
0:1:3.001,286.448,16.2096,0,0.000885,0,0
0:1:3.302,287.444,16.2647,0,0.000885,0,0
0:1:3.603,289.321,16.375,0,0.000885,0,0
0:1:3.898,291.083,16.4716,0,0.000885,0,0
0:1:4.197,292.431,16.5474,0,0.000885,0,0
0:1:4.489,293.841,16.6302,0,0.000885,0,0
0:1:4.788,295.131,16.6991,0,0.000885,0,0
0:1:5.081,296.069,16.7543,0,0.000885,0,0
0:1:5.377,297.359,16.8301,0,0.000885,0,0
0:1:5.688,298.765,16.9059,0,0.000885,0,0
0:1:5.992,300.348,16.9956,0,0.000885,0,0
0:1:6.291,301.696,17.0714,0,0.000885,0,0
0:1:6.584,302.697,17.1266,0,0.000885,0,0
0:1:6.892,304.805,17.2507,0,0.000885,0,0
0:1:7.191,305.628,17.2921,0,0.000885,0,0
0:1:7.495,306.861,17.3679,0,0.000885,0,0
0:1:7.796,308.386,17.4506,0,0.000885,0,0
0:1:8.098,309.792,17.5334,0,0.000885,0,0
0:1:8.397,310.846,17.5885,0,0.000885,0,0
0:1:8.699,311.785,17.6437,0,0.000885,0,0
0:1:8.993,313.017,17.7126,0,0.000885,0,0
0:1:9.294,315.366,17.8436,0,0.000885,0,0
0:1:9.597,316.184,17.8919,0,0.000885,0,0
0:1:9.894,317.474,17.9677,0,0.000885,0,0
0:1:10.192,318.591,18.0298,0,0.000885,0,0
0:1:10.485,319.703,18.0918,0,0.000885,0,0
0:1:10.784,322.167,18.2297,0,0.000885,0,0
0:1:11.089,323.048,18.278,0,0.000885,0,0
0:1:11.386,324.28,18.3538,0,0.000885,0,0
0:1:11.694,325.392,18.4159,0,0.000885,0,0
0:1:11.996,326.624,18.4848,0,0.000885,0,0
0:1:12.296,329.146,18.6227,0,0.000885,0,0
0:1:12.598,329.791,18.6641,0,0.000885,0,0
0:1:12.900,330.965,18.7262,0,0.000885,0,0
0:1:13.201,332.198,18.7951,0,0.000885,0,0
0:1:13.500,333.194,18.8572,0,0.000885,0,0
0:1:13.801,334.6,18.933,0,0.000885,0,0
0:1:14.093,335.774,19.002,0,0.000885,0,0
0:1:14.395,337.122,19.0778,0,0.000885,0,0
0:1:14.690,338.532,19.1536,0,0.000885,0,0
0:1:14.983,340.347,19.2571,0,0.000885,0,0
0:1:15.292,341.699,19.3329,0,0.000885,0,0
0:1:15.584,342.869,19.4018,0,0.000885,0,0
0:1:15.884,344.573,19.4984,0,0.000885,0,0
0:1:16.189,345.511,19.5535,0,0.000885,0,0
0:1:16.485,346.272,19.5949,0,0.000885,0,0
0:1:16.781,347.975,19.6914,0,0.000885,0,0
0:1:17.084,349.439,19.7742,0,0.000885,0,0
0:1:17.386,350.262,19.8224,0,0.000885,0,0
0:1:17.687,352.726,19.9603,0,0.000885,0,0
0:1:17.989,353.309,19.9948,0,0.000885,0,0
0:1:18.290,354.368,20.05,0,0.000885,0,0
0:1:18.583,355.364,20.112,0,0.000885,0,0
0:1:18.883,356.77,20.1878,0,0.000885,0,0
0:1:19.186,358.647,20.2982,0,0.000885,0,0
0:1:19.484,360.173,20.3809,0,0.000885,0,0
0:1:19.780,361.462,20.4567,0,0.000885,0,0
0:1:20.096,362.752,20.5257,0,0.000885,0,0
0:1:20.397,364.22,20.6084,0,0.000885,0,0
0:1:20.687,365.332,20.6705,0,0.000885,0,0
0:1:20.986,366.622,20.7463,0,0.000885,0,0
0:1:21.294,367.912,20.8222,0,0.000885,0,0
0:1:21.597,369.029,20.8842,0,0.000885,0,0
0:1:21.896,370.377,20.9601,0,0.000885,0,0
0:1:22.198,371.609,21.029,0,0.000885,0,0
0:1:22.499,372.957,21.1049,0,0.000885,0,0
0:1:22.800,374.247,21.1807,0,0.000885,0,0
0:1:23.100,376.302,21.291,0,0.000885,0,0
0:1:23.400,377.534,21.3669,0,0.000885,0,0
0:1:23.693,378.824,21.4358,0,0.000885,0,0
0:1:23.994,379.469,21.4703,0,0.000885,0,0
0:1:24.286,380.643,21.5392,0,0.000885,0,0
0:1:24.584,382.458,21.6426,0,0.000885,0,0
0:1:24.892,383.926,21.7254,0,0.000885,0,0
0:1:25.186,385.216,21.8012,0,0.000885,0,0
0:1:25.485,386.332,21.8633,0,0.000885,0,0
0:1:25.787,387.387,21.9184,0,0.000885,0,0
0:1:26.085,388.792,22.0012,0,0.000885,0,0
0:1:26.395,390.26,22.0839,0,0.000885,0,0
0:1:26.697,391.377,22.146,0,0.000885,0,0
0:1:26.997,392.489,22.208,0,0.000885,0,0
0:1:27.300,394.775,22.339,0,0.000885,0,0
0:1:27.602,395.95,22.408,0,0.000885,0,0
0:1:27.903,397.355,22.4838,0,0.000885,0,0
0:1:28.202,398.294,22.539,0,0.000885,0,0
0:1:28.504,399.41,22.601,0,0.000885,0,0
0:1:28.797,401.461,22.7182,0,0.000885,0,0
0:1:29.096,402.813,22.7941,0,0.000885,0,0
0:1:29.393,403.632,22.8423,0,0.000885,0,0
0:1:29.698,404.628,22.8975,0,0.000885,0,0
0:1:29.996,406.332,22.994,0,0.000885,0,0
0:1:30.290,407.795,23.0768,0,0.000885,0,0
0:1:30.588,408.912,23.1388,0,0.000885,0,0
0:1:30.891,409.614,23.1802,0,0.000885,0,0
0:1:31.187,411.082,23.2629,0,0.000885,0,0
0:1:31.483,413.253,23.387,0,0.000885,0,0
0:1:31.791,414.481,23.456,0,0.000885,0,0
0:1:32.087,415.655,23.518,0,0.000885,0,0
0:1:32.388,416.652,23.5801,0,0.000885,0,0
0:1:32.693,418.062,23.6559,0,0.000885,0,0
0:1:32.995,420.348,23.7869,0,0.000885,0,0
0:1:33.295,421.465,23.849,0,0.000885,0,0
0:1:33.596,422.755,23.9248,0,0.000885,0,0
0:1:33.899,423.631,23.9731,0,0.000885,0,0
0:1:34.199,424.69,24.0351,0,0.000885,0,0
0:1:34.492,425.922,24.1041,0,0.000885,0,0
0:1:34.791,427.269,24.1799,0,0.000885,0,0
0:1:35.095,428.444,24.242,0,0.000885,0,0
0:1:35.391,429.614,24.3109,0,0.000885,0,0
0:1:35.687,431.611,24.4212,0,0.000885,0,0
0:1:35.992,432.723,24.4902,0,0.000885,0,0
0:1:36.291,434.191,24.5729,0,0.000885,0,0
0:1:36.580,435.009,24.6143,0,0.000885,0,0
0:1:36.881,436.362,24.6901,0,0.000885,0,0
0:1:37.188,438.528,24.8142,0,0.000885,0,0
0:1:37.488,439.88,24.8901,0,0.000885,0,0
0:1:37.795,440.819,24.9452,0,0.000885,0,0
0:1:38.095,442.051,25.0142,0,0.000885,0,0
0:1:38.396,443.457,25.0969,0,0.000885,0,0
0:1:38.697,444.804,25.1728,0,0.000885,0,0
0:1:38.992,445.507,25.2072,0,0.000885,0,0
0:1:39.300,446.859,25.29,0,0.000885,0,0
0:1:39.591,447.798,25.3382,0,0.000885,0,0
0:1:39.893,450.845,25.5106,0,0.000885,0,0
0:1:40.184,451.726,25.5658,0,0.000885,0,0
0:1:40.494,453.016,25.6347,0,0.000885,0,0
0:1:40.788,453.781,25.6761,0,0.000885,0,0
0:1:41.084,456.303,25.8209,0,0.000885,0,0
0:1:41.380,457.064,25.8622,0,0.000885,0,0
0:1:41.695,457.709,25.9036,0,0.000885,0,0
0:1:41.997,458.941,25.9726,0,0.000885,0,0
0:1:42.298,459.995,26.0277,0,0.000885,0,0
0:1:42.601,462.517,26.1725,0,0.000885,0,0
0:1:42.900,463.22,26.2139,0,0.000885,0,0
0:1:43.199,464.572,26.2897,0,0.000885,0,0
0:1:43.501,465.862,26.3656,0,0.000885,0,0
0:1:43.794,467.797,26.469,0,0.000885,0,0
0:1:44.094,468.794,26.531,0,0.000885,0,0
0:1:44.399,469.968,26.5931,0,0.000885,0,0
0:1:44.693,470.671,26.6344,0,0.000885,0,0
0:1:44.989,471.903,26.7034,0,0.000885,0,0
0:1:45.294,474.189,26.8344,0,0.000885,0,0
0:1:45.595,475.537,26.9102,0,0.000885,0,0
0:1:45.897,476.769,26.9792,0,0.000885,0,0
0:1:46.195,477.592,27.0274,0,0.000885,0,0
0:1:46.489,478.882,27.0964,0,0.000885,0,0
0:1:46.784,480.114,27.1722,0,0.000885,0,0
0:1:47.083,481.284,27.2343,0,0.000885,0,0
0:1:47.385,483.219,27.3446,0,0.000885,0,0
0:1:47.687,484.923,27.4411,0,0.000885,0,0
0:1:47.987,486.035,27.5032,0,0.000885,0,0
0:1:48.288,487.094,27.5652,0,0.000885,0,0
0:1:48.589,488.619,27.648,0,0.000885,0,0
0:1:48.893,489.438,27.6962,0,0.000885,0,0
0:1:49.201,491.786,27.8272,0,0.000885,0,0
0:1:49.498,493.076,27.9031,0,0.000885,0,0
0:1:49.794,493.837,27.9445,0,0.000885,0,0
0:1:50.089,495.127,28.0203,0,0.000885,0,0
0:1:50.395,496.066,28.0686,0,0.000885,0,0
0:1:50.697,497.765,28.1651,0,0.000885,0,0
0:1:50.997,498.997,28.2409,0,0.000885,0,0
0:1:51.296,500.523,28.3237,0,0.000885,0,0
0:1:51.593,501.813,28.3995,0,0.000885,0,0
0:1:51.886,502.578,28.4409,0,0.000885,0,0
0:1:52.185,504.393,28.5443,0,0.000885,0,0
0:1:52.487,505.861,28.627,0,0.000885,0,0
0:1:52.789,507.151,28.696,0,0.000885,0,0
0:1:53.090,508.619,28.7787,0,0.000885,0,0
0:1:53.389,509.909,28.8546,0,0.000885,0,0
0:1:53.689,510.963,28.9166,0,0.000885,0,0
0:1:53.983,512.079,28.9787,0,0.000885,0,0
0:1:54.283,513.191,29.0407,0,0.000885,0,0
0:1:54.585,514.659,29.1235,0,0.000885,0,0
0:1:54.885,517.239,29.2682,0,0.000885,0,0
0:1:55.188,518.471,29.3372,0,0.000885,0,0
0:1:55.494,519.116,29.3786,0,0.000885,0,0
0:1:55.790,519.819,29.413,0,0.000885,0,0
0:1:56.096,521.287,29.4958,0,0.000885,0,0
0:1:56.395,522.986,29.5923,0,0.000885,0,0
0:1:56.700,524.276,29.6681,0,0.000885,0,0
0:1:57.001,525.566,29.744,0,0.000885,0,0
0:1:57.303,526.389,29.7854,0,0.000885,0,0
0:1:57.604,528.618,29.9164,0,0.000885,0,0
0:1:57.906,529.85,29.9853,0,0.000885,0,0
0:1:58.205,531.371,30.068,0,0.000885,0,0
0:1:58.503,532.252,30.1163,0,0.000885,0,0
0:1:58.801,533.368,30.1852,0,0.000885,0,0
0:1:59.095,535.303,30.2887,0,0.000885,0,0
0:1:59.396,536.3,30.3507,0,0.000885,0,0
0:1:59.696,537.648,30.4266,0,0.000885,0,0
0:1:59.996,538.235,30.461,0,0.000885,0,0
0:2:0.301,540.521,30.5851,0,0.000885,0,0
0:2:0.596,541.873,30.661,0,0.000885,0,0
0:2:0.895,543.043,30.7299,0,0.000885,0,0
0:2:1.198,544.102,30.792,0,0.000885,0,0
0:2:1.499,545.392,30.8609,0,0.000885,0,0
0:2:1.801,546.682,30.9368,0,0.000885,0,0
0:2:2.103,548.03,31.0126,0,0.000885,0,0
0:2:2.405,549.498,31.0954,0,0.000885,0,0
0:2:2.707,550.258,31.1367,0,0.000885,0,0
0:2:3.006,553.074,31.2953,0,0.000885,0,0
0:2:3.308,554.191,31.3574,0,0.000885,0,0
0:2:3.605,554.951,31.4056,0,0.000885,0,0
0:2:3.901,556.299,31.4815,0,0.000885,0,0
0:2:4.196,557.358,31.5366,0,0.000885,0,0
0:2:4.496,558.354,31.5987,0,0.000885,0,0
0:2:4.797,559.996,31.6883,0,0.000885,0,0
0:2:5.098,561.285,31.7641,0,0.000885,0,0
0:2:5.402,562.691,31.84,0,0.000885,0,0
0:2:5.699,564.159,31.9227,0,0.000885,0,0
0:2:5.996,566.21,32.0399,0,0.000885,0,0
0:2:6.288,567.09,32.0882,0,0.000885,0,0
0:2:6.588,567.913,32.1365,0,0.000885,0,0
0:2:6.889,569.025,32.1985,0,0.000885,0,0
0:2:7.192,570.671,32.295,0,0.000885,0,0
0:2:7.495,571.668,32.3502,0,0.000885,0,0
0:2:7.798,572.664,32.4054,0,0.000885,0,0
0:2:8.098,574.19,32.495,0,0.000885,0,0
0:2:8.398,575.773,32.5846,0,0.000885,0,0
0:2:8.700,577.651,32.688,0,0.000885,0,0
0:2:9.003,578.94,32.7639,0,0.000885,0,0
0:2:9.300,580.173,32.8328,0,0.000885,0,0
0:2:9.596,581.52,32.9087,0,0.000885,0,0
0:2:9.901,582.401,32.9569,0,0.000885,0,0
0:2:10.200,583.691,33.0328,0,0.000885,0,0
0:2:10.502,585.155,33.1155,0,0.000885,0,0
0:2:10.802,586.565,33.1914,0,0.000885,0,0
0:2:11.096,587.383,33.2396,0,0.000885,0,0
0:2:11.390,589.612,33.3637,0,0.000885,0,0
0:2:11.699,590.786,33.4327,0,0.000885,0,0
0:2:11.991,591.667,33.4809,0,0.000885,0,0
0:2:12.292,593.135,33.5637,0,0.000885,0,0
0:2:12.598,594.425,33.6395,0,0.000885,0,0
0:2:12.901,596.008,33.7292,0,0.000885,0,0
0:2:13.203,597.361,33.805,0,0.000885,0,0
0:2:13.503,598.766,33.8808,0,0.000885,0,0
0:2:13.805,600.176,33.9636,0,0.000885,0,0
0:2:14.099,601.76,34.0532,0,0.000885,0,0
0:2:14.399,602.053,34.067,0,0.000885,0,0
0:2:14.696,602.996,34.1222,0,0.000885,0,0
0:2:14.992,604.286,34.198,0,0.000885,0,0
0:2:15.291,606.284,34.3083,0,0.000885,0,0
0:2:15.585,607.396,34.3704,0,0.000885,0,0
0:2:15.887,609.277,34.4807,0,0.000885,0,0
0:2:16.191,610.096,34.522,0,0.000885,0,0
0:2:16.491,611.155,34.5841,0,0.000885,0,0
0:2:16.788,612.68,34.6737,0,0.000885,0,0
0:2:17.091,614.678,34.7841,0,0.000885,0,0
0:2:17.396,616.141,34.8668,0,0.000885,0,0
0:2:17.698,617.2,34.9288,0,0.000885,0,0
0:2:17.999,618.49,34.9978,0,0.000885,0,0
0:2:18.303,620.193,35.0943,0,0.000885,0,0
0:2:18.600,620.838,35.1357,0,0.000885,0,0
0:2:18.900,622.248,35.2115,0,0.000885,0,0
0:2:19.192,623.129,35.2598,0,0.000885,0,0
0:2:19.496,624.771,35.3563,0,0.000885,0,0
0:2:19.799,626.946,35.4804,0,0.000885,0,0
0:2:20.098,627.884,35.5287,0,0.000885,0,0
0:2:20.396,628.823,35.5838,0,0.000885,0,0
0:2:20.691,630.464,35.6804,0,0.000885,0,0
0:2:20.990,631.229,35.7217,0,0.000885,0,0
0:2:21.285,632.461,35.7907,0,0.000885,0,0
0:2:21.586,633.987,35.8734,0,0.000885,0,0
0:2:21.890,634.574,35.9079,0,0.000885,0,0
0:2:22.193,635.807,35.9768,0,0.000885,0,0
0:2:22.500,638.627,36.1354,0,0.000885,0,0
0:2:22.802,640.152,36.2251,0,0.000885,0,0
0:2:23.104,641.033,36.2733,0,0.000885,0,0
0:2:23.406,642.208,36.3423,0,0.000885,0,0
0:2:23.706,643.965,36.4388,0,0.000885,0,0
0:2:24.004,645.023,36.5008,0,0.000885,0,0
0:2:24.300,646.371,36.5767,0,0.000885,0,0
0:2:24.600,647.545,36.6456,0,0.000885,0,0
0:2:24.893,648.72,36.7077,0,0.000885,0,0
0:2:25.197,650.366,36.8042,0,0.000885,0,0
0:2:25.491,651.949,36.8938,0,0.000885,0,0
0:2:25.790,652.946,36.949,0,0.000885,0,0
0:2:26.088,654.591,37.0455,0,0.000885,0,0
0:2:26.392,655.708,37.1076,0,0.000885,0,0
0:2:26.694,656.94,37.1765,0,0.000885,0,0
0:2:27.000,658.23,37.2455,0,0.000885,0,0
0:2:27.304,659.111,37.3006,0,0.000885,0,0
0:2:27.608,660.169,37.3558,0,0.000885,0,0
0:2:27.912,662.634,37.5006,0,0.000885,0,0
0:2:28.213,663.75,37.5626,0,0.000885,0,0
0:2:28.514,665.334,37.6523,0,0.000885,0,0
0:2:28.816,666.508,37.7143,0,0.000885,0,0
0:2:29.111,667.389,37.7695,0,0.000885,0,0
0:2:29.409,668.092,37.804,0,0.000885,0,0
0:2:29.708,669.795,37.9005,0,0.000885,0,0
0:2:30.004,671.085,37.9763,0,0.000885,0,0
0:2:30.305,672.375,38.0522,0,0.000885,0,0
0:2:30.598,673.434,38.1073,0,0.000885,0,0
0:2:30.899,675.605,38.2314,0,0.000885,0,0
0:2:31.194,676.957,38.3073,0,0.000885,0,0
0:2:31.491,678.069,38.3693,0,0.000885,0,0
0:2:31.792,679.421,38.4452,0,0.000885,0,0
0:2:32.095,680.711,38.521,0,0.000885,0,0
0:2:32.400,682.531,38.6244,0,0.000885,0,0
0:2:32.702,683.354,38.6727,0,0.000885,0,0
0:2:33.004,684.937,38.7623,0,0.000885,0,0
0:2:33.308,686.232,38.8313,0,0.000885,0,0
0:2:33.604,687.522,38.9071,0,0.000885,0,0
0:2:33.905,689.225,39.0036,0,0.000885,0,0
0:2:34.201,689.928,39.045,0,0.000885,0,0
0:2:34.499,691.338,39.1209,0,0.000885,0,0
0:2:34.794,692.392,39.1829,0,0.000885,0,0
0:2:35.091,693.687,39.2519,0,0.000885,0,0
0:2:35.393,694.741,39.3139,0,0.000885,0,0
0:2:35.698,695.915,39.3829,0,0.000885,0,0
0:2:35.999,697.383,39.4656,0,0.000885,0,0
0:2:36.294,700.083,39.6173,0,0.000885,0,0
0:2:36.603,701.138,39.6793,0,0.000885,0,0
0:2:36.902,702.312,39.7414,0,0.000885,0,0
0:2:37.204,703.255,39.7965,0,0.000885,0,0
0:2:37.509,705.19,39.9069,0,0.000885,0,0
0:2:37.810,705.719,39.9344,0,0.000885,0,0
0:2:38.112,707.187,40.0172,0,0.000885,0,0
0:2:38.413,708.126,40.0723,0,0.000885,0,0
0:2:38.709,709.531,40.1482,0,0.000885,0,0
0:2:39.010,711.707,40.2723,0,0.000885,0,0
0:2:39.305,712.939,40.3412,0,0.000885,0,0
0:2:39.605,714.055,40.4102,0,0.000885,0,0
0:2:39.902,715.167,40.4722,0,0.000885,0,0
0:2:40.198,716.226,40.5274,0,0.000885,0,0
0:2:40.498,718.103,40.6377,0,0.000885,0,0
0:2:40.791,719.513,40.7135,0,0.000885,0,0
0:2:41.093,720.861,40.7894,0,0.000885,0,0
0:2:41.389,722.213,40.8721,0,0.000885,0,0
0:2:41.687,723.388,40.9342,0,0.000885,0,0
0:2:41.986,724.62,41.0031,0,0.000885,0,0
0:2:42.289,725.968,41.079,0,0.000885,0,0
0:2:42.591,727.084,41.1479,0,0.000885,0,0
0:2:42.893,728.374,41.2169,0,0.000885,0,0
0:2:43.198,729.433,41.2789,0,0.000885,0,0
0:2:43.500,730.607,41.341,0,0.000885,0,0
0:2:43.795,731.839,41.4168,0,0.000885,0,0
0:2:44.094,732.604,41.4582,0,0.000885,0,0
0:2:44.387,734.188,41.5478,0,0.000885,0,0
0:2:44.689,736.537,41.6788,0,0.000885,0,0
0:2:44.984,737.297,41.7202,0,0.000885,0,0
0:2:45.292,738.414,41.7822,0,0.000885,0,0
0:2:45.603,739.704,41.8581,0,0.000885,0,0
0:2:45.896,742.172,41.996,0,0.000885,0,0
0:2:46.200,743.462,42.0718,0,0.000885,0,0
0:2:46.492,744.285,42.1201,0,0.000885,0,0
0:2:46.792,745.517,42.189,0,0.000885,0,0
0:2:47.091,746.398,42.2373,0,0.000885,0,0
0:2:47.392,749.036,42.389,0,0.000885,0,0
0:2:47.700,750.21,42.451,0,0.000885,0,0
0:2:48.001,750.975,42.4993,0,0.000885,0,0
0:2:48.304,752.03,42.5544,0,0.000885,0,0
0:2:48.605,754.441,42.6923,0,0.000885,0,0
0:2:48.901,755.379,42.7475,0,0.000885,0,0
0:2:49.202,756.963,42.8371,0,0.000885,0,0
0:2:49.494,757.492,42.8647,0,0.000885,0,0
0:2:49.795,758.898,42.9474,0,0.000885,0,0
0:2:50.103,760.308,43.0233,0,0.000885,0,0
0:2:50.401,761.54,43.0922,0,0.000885,0,0
0:2:50.700,762.599,43.1543,0,0.000885,0,0
0:2:51.003,763.595,43.2094,0,0.000885,0,0
0:2:51.305,764.534,43.2646,0,0.000885,0,0
0:2:51.601,767.118,43.4094,0,0.000885,0,0
0:2:51.897,768.528,43.4921,0,0.000885,0,0
0:2:52.196,769.818,43.5611,0,0.000885,0,0
0:2:52.501,770.935,43.6231,0,0.000885,0,0
0:2:52.804,771.989,43.6852,0,0.000885,0,0
0:2:53.107,773.635,43.7817,0,0.000885,0,0
0:2:53.408,774.453,43.8231,0,0.000885,0,0
0:2:53.711,775.921,43.9058,0,0.000885,0,0
0:2:54.008,777.331,43.9886,0,0.000885,0,0
0:2:54.308,779.15,44.092,0,0.000885,0,0
0:2:54.603,780.209,44.154,0,0.000885,0,0
0:2:54.903,781.379,44.2161,0,0.000885,0,0
0:2:55.197,782.086,44.2574,0,0.000885,0,0
0:2:55.495,783.434,44.3333,0,0.000885,0,0
0:2:55.794,785.489,44.4505,0,0.000885,0,0
0:2:56.089,786.841,44.5263,0,0.000885,0,0
0:2:56.390,788.131,44.6022,0,0.000885,0,0
0:2:56.687,789.421,44.6711,0,0.000885,0,0
0:2:56.990,791.009,44.7608,0,0.000885,0,0
0:2:57.295,791.89,44.809,0,0.000885,0,0
0:2:57.597,793.71,44.9124,0,0.000885,0,0
0:2:57.900,794.884,44.9814,0,0.000885,0,0
0:2:58.202,796.058,45.0503,0,0.000885,0,0
0:2:58.501,797.464,45.1262,0,0.000885,0,0
0:2:58.802,798.287,45.1744,0,0.000885,0,0
0:2:59.093,799.461,45.2434,0,0.000885,0,0
0:2:59.394,800.871,45.3192,0,0.000885,0,0
0:2:59.703,803.335,45.4571,0,0.000885,0,0
0:3:0.009,803.98,45.4985,0,0.000885,0,0
0:3:0.308,805.155,45.5606,0,0.000885,0,0
0:3:0.604,806.445,45.6364,0,0.000885,0,0
0:3:0.905,807.561,45.6985,0,0.000885,0,0
0:3:1.197,809.381,45.8019,0,0.000885,0,0
0:3:1.497,810.733,45.8777,0,0.000885,0,0
0:3:1.795,811.965,45.9467,0,0.000885,0,0
0:3:2.097,813.077,46.0087,0,0.000885,0,0
0:3:2.404,814.896,46.1121,0,0.000885,0,0
0:3:2.707,815.897,46.1673,0,0.000885,0,0
0:3:3.007,817.423,46.2569,0,0.000885,0,0
0:3:3.309,818.771,46.3328,0,0.000885,0,0
0:3:3.606,819.478,46.3741,0,0.000885,0,0
0:3:3.904,821.591,46.4913,0,0.000885,0,0
0:3:4.201,822.472,46.5396,0,0.000885,0,0
0:3:4.501,823.059,46.5741,0,0.000885,0,0
0:3:4.792,824.113,46.6361,0,0.000885,0,0
0:3:5.094,825.408,46.7051,0,0.000885,0,0
0:3:5.398,827.343,46.8154,0,0.000885,0,0
0:3:5.696,828.988,46.9119,0,0.000885,0,0
0:3:5.994,829.749,46.9533,0,0.000885,0,0
0:3:6.301,831.568,47.0567,0,0.000885,0,0
0:3:6.603,833.623,47.1739,0,0.000885,0,0
0:3:6.907,834.62,47.2291,0,0.000885,0,0
0:3:7.210,835.678,47.2911,0,0.000885,0,0
0:3:7.513,836.675,47.3463,0,0.000885,0,0
0:3:7.817,839.024,47.4773,0,0.000885,0,0
0:3:8.118,840.549,47.5669,0,0.000885,0,0
0:3:8.420,841.724,47.629,0,0.000885,0,0
0:3:8.720,842.956,47.7048,0,0.000885,0,0
0:3:9.017,843.837,47.7531,0,0.000885,0,0
0:3:9.315,845.304,47.8358,0,0.000885,0,0
0:3:9.615,846.363,47.891,0,0.000885,0,0
0:3:9.909,847.769,47.9737,0,0.000885,0,0
0:3:10.210,848.476,48.0151,0,0.000885,0,0
0:3:10.507,850.762,48.1461,0,0.000885,0,0
0:3:10.805,851.47,48.1806,0,0.000885,0,0
0:3:11.103,852.938,48.2633,0,0.000885,0,0
0:3:11.396,853.876,48.3185,0,0.000885,0,0
0:3:11.698,854.93,48.3805,0,0.000885,0,0
0:3:12.003,857.924,48.546,0,0.000885,0,0
0:3:12.306,858.569,48.5874,0,0.000885,0,0
0:3:12.610,860.331,48.6839,0,0.000885,0,0
0:3:12.912,861.211,48.7321,0,0.000885,0,0
0:3:13.213,862.212,48.7942,0,0.000885,0,0
0:3:13.515,863.676,48.8769,0,0.000885,0,0
0:3:13.818,864.325,48.9114,0,0.000885,0,0
0:3:14.113,865.731,48.9873,0,0.000885,0,0
0:3:14.411,867.55,49.0907,0,0.000885,0,0
0:3:14.711,869.018,49.1734,0,0.000885,0,0
0:3:15.005,870.312,49.2493,0,0.000885,0,0
0:3:15.307,871.718,49.332,0,0.000885,0,0
0:3:15.602,872.599,49.3803,0,0.000885,0,0
0:3:15.902,873.773,49.4423,0,0.000885,0,0
0:3:16.207,875.77,49.5595,0,0.000885,0,0
0:3:16.504,877.296,49.6423,0,0.000885,0,0
0:3:16.804,878.413,49.7112,0,0.000885,0,0
0:3:17.106,879.231,49.7526,0,0.000885,0,0
0:3:17.411,881.286,49.8698,0,0.000885,0,0
0:3:17.712,882.696,49.9525,0,0.000885,0,0
0:3:18.014,883.813,50.0146,0,0.000885,0,0
0:3:18.316,884.751,50.0697,0,0.000885,0,0
0:3:18.610,886.161,50.1456,0,0.000885,0,0
0:3:18.911,888.506,50.2766,0,0.000885,0,0
0:3:19.206,888.861,50.2973,0,0.000885,0,0
0:3:19.507,889.68,50.3455,0,0.000885,0,0
0:3:19.799,890.209,50.3731,0,0.000885,0,0
0:3:20.098,891.793,50.4627,0,0.000885,0,0
0:3:20.396,894.084,50.5937,0,0.000885,0,0
0:3:20.703,895.258,50.6627,0,0.000885,0,0
0:3:21.004,896.606,50.7385,0,0.000885,0,0
0:3:21.299,898.194,50.8282,0,0.000885,0,0
0:3:21.597,899.72,50.9109,0,0.000885,0,0
0:3:21.896,901.01,50.9867,0,0.000885,0,0
0:3:22.197,901.89,51.035,0,0.000885,0,0
0:3:22.505,903.243,51.1108,0,0.000885,0,0
0:3:22.806,903.83,51.1453,0,0.000885,0,0
0:3:23.109,906.645,51.3039,0,0.000885,0,0
0:3:23.409,907.642,51.359,0,0.000885,0,0
0:3:23.708,908.407,51.4073,0,0.000885,0,0
0:3:24.007,909.99,51.4969,0,0.000885,0,0
0:3:24.303,912.223,51.621,0,0.000885,0,0
0:3:24.603,913.042,51.6693,0,0.000885,0,0
0:3:24.895,913.923,51.7176,0,0.000885,0,0
0:3:25.195,914.688,51.7589,0,0.000885,0,0
0:3:25.492,916.449,51.8624,0,0.000885,0,0
0:3:25.789,917.504,51.9175,0,0.000885,0,0
0:3:26.088,919.385,52.0278,0,0.000885,0,0
0:3:26.394,920.969,52.1175,0,0.000885,0,0
0:3:26.694,922.437,52.2002,0,0.000885,0,0
0:3:26.998,923.491,52.2623,0,0.000885,0,0
0:3:27.303,924.55,52.3174,0,0.000885,0,0
0:3:27.606,925.137,52.3519,0,0.000885,0,0
0:3:27.910,926.662,52.4415,0,0.000885,0,0
0:3:28.211,927.837,52.5036,0,0.000885,0,0
0:3:28.512,930.007,52.6277,0,0.000885,0,0
0:3:28.814,930.946,52.6828,0,0.000885,0,0
0:3:29.111,932.005,52.738,0,0.000885,0,0
0:3:29.409,933.53,52.8276,0,0.000885,0,0
0:3:29.709,934.647,52.8897,0,0.000885,0,0
0:3:30.003,936.404,52.9931,0,0.000885,0,0
0:3:30.304,937.698,53.0621,0,0.000885,0,0
0:3:30.599,939.282,53.1517,0,0.000885,0,0
0:3:30.897,940.75,53.2344,0,0.000885,0,0
0:3:31.196,941.866,53.2965,0,0.000885,0,0
0:3:31.491,943.334,53.3792,0,0.000885,0,0
0:3:31.794,944.86,53.4688,0,0.000885,0,0
0:3:32.109,946.034,53.5378,0,0.000885,0,0
0:3:32.411,946.911,53.5861,0,0.000885,0,0
0:3:32.716,948.908,53.6964,0,0.000885,0,0
0:3:33.019,950.554,53.7929,0,0.000885,0,0
0:3:33.322,950.727,53.7998,0,0.000885,0,0
0:3:33.624,952.08,53.8756,0,0.000885,0,0
0:3:33.924,953.134,53.9377,0,0.000885,0,0
0:3:34.222,955.367,54.0618,0,0.000885,0,0
0:3:34.518,956.599,54.1307,0,0.000885,0,0
0:3:34.819,957.595,54.1859,0,0.000885,0,0
0:3:35.114,959.063,54.2686,0,0.000885,0,0
0:3:35.414,960.709,54.3652,0,0.000885,0,0
0:3:35.711,962.293,54.4548,0,0.000885,0,0
0:3:36.008,963.231,54.51,0,0.000885,0,0
0:3:36.308,964.406,54.572,0,0.000885,0,0
0:3:36.600,965.522,54.6341,0,0.000885,0,0
0:3:36.905,967.284,54.7375,0,0.000885,0,0
0:3:37.209,968.689,54.8133,0,0.000885,0,0
0:3:37.511,969.921,54.8892,0,0.000885,0,0
0:3:37.814,970.509,54.9167,0,0.000885,0,0
0:3:38.115,972.915,55.0546,0,0.000885,0,0
0:3:38.418,974.147,55.1236,0,0.000885,0,0
0:3:38.714,975.442,55.1994,0,0.000885,0,0
0:3:39.013,976.38,55.2546,0,0.000885,0,0
0:3:39.312,977.377,55.3097,0,0.000885,0,0
0:3:39.606,979.022,55.3994,0,0.000885,0,0
0:3:39.908,980.548,55.489,0,0.000885,0,0
0:3:40.205,981.665,55.5511,0,0.000885,0,0
0:3:40.501,982.777,55.6131,0,0.000885,0,0
0:3:40.799,983.893,55.6752,0,0.000885,0,0
0:3:41.096,985.183,55.751,0,0.000885,0,0
0:3:41.396,987.003,55.8544,0,0.000885,0,0
0:3:41.699,988.533,55.9372,0,0.000885,0,0
0:3:42.001,989.529,55.9992,0,0.000885,0,0
0:3:42.306,991.171,56.0889,0,0.000885,0,0
0:3:42.610,992.345,56.1578,0,0.000885,0,0
0:3:42.912,993.871,56.2405,0,0.000885,0,0
0:3:43.213,995.223,56.3164,0,0.000885,0,0
0:3:43.515,996.277,56.3784,0,0.000885,0,0
0:3:43.810,997.923,56.4681,0,0.000885,0,0
0:3:44.108,999.213,56.5439,0,0.000885,0,0
0:3:44.408,1000.51,56.6197,0,0.000885,0,0
0:3:44.711,1001.38,56.668,0,0.000885,0,0
0:3:45.013,1002.15,56.7094,0,0.000885,0,0
0:3:45.308,1003.73,56.799,0,0.000885,0,0
0:3:45.608,1004.96,56.868,0,0.000885,0,0
0:3:45.906,1006.79,56.9714,0,0.000885,0,0
0:3:46.198,1008.31,57.061,0,0.000885,0,0
0:3:46.500,1009.96,57.1506,0,0.000885,0,0
0:3:46.794,1011.31,57.2265,0,0.000885,0,0
0:3:47.097,1012.78,57.3092,0,0.000885,0,0
0:3:47.401,1013.59,57.3575,0,0.000885,0,0
0:3:47.702,1014.65,57.4195,0,0.000885,0,0
0:3:48.007,1015.18,57.4471,0,0.000885,0,0
0:3:48.308,1016.53,57.523,0,0.000885,0,0
0:3:48.610,1017.7,57.5919,0,0.000885,0,0
0:3:48.906,1019.82,57.7091,0,0.000885,0,0
0:3:49.201,1021.69,57.8194,0,0.000885,0,0
0:3:49.500,1022.99,57.8884,0,0.000885,0,0
0:3:49.808,1024.22,57.9573,0,0.000885,0,0
0:3:50.109,1025.22,58.0125,0,0.000885,0,0
0:3:50.402,1026.33,58.0814,0,0.000885,0,0
0:3:50.701,1028.21,58.1849,0,0.000885,0,0
0:3:51.012,1029.27,58.2469,0,0.000885,0,0
0:3:51.314,1029.97,58.2814,0,0.000885,0,0
0:3:51.616,1031.15,58.3503,0,0.000885,0,0
0:3:51.912,1032.91,58.4538,0,0.000885,0,0
0:3:52.214,1033.79,58.502,0,0.000885,0,0
0:3:52.520,1035.67,58.6054,0,0.000885,0,0
0:3:52.821,1037.49,58.7089,0,0.000885,0,0
0:3:53.124,1039.42,58.8192,0,0.000885,0,0
0:3:53.427,1040.71,58.895,0,0.000885,0,0
0:3:53.726,1041.48,58.9364,0,0.000885,0,0
0:3:54.025,1042.42,58.9915,0,0.000885,0,0
0:3:54.320,1043.65,59.0605,0,0.000885,0,0
0:3:54.621,1045.35,59.157,0,0.000885,0,0
0:3:54.915,1046.11,59.1984,0,0.000885,0,0
0:3:55.216,1047.35,59.2673,0,0.000885,0,0
0:3:55.513,1048.46,59.3294,0,0.000885,0,0
0:3:55.809,1049.46,59.3845,0,0.000885,0,0
0:3:56.109,1051.4,59.4949,0,0.000885,0,0
0:3:56.402,1053.51,59.619,0,0.000885,0,0
0:3:56.703,1054.45,59.6672,0,0.000885,0,0
0:3:56.998,1055.56,59.7362,0,0.000885,0,0
0:3:57.300,1057.44,59.8396,0,0.000885,0,0
0:3:57.606,1058.97,59.9223,0,0.000885,0,0
0:3:57.909,1059.79,59.9706,0,0.000885,0,0
0:3:58.209,1060.44,60.0051,0,0.000885,0,0
0:3:58.512,1062.02,60.1016,0,0.000885,0,0
0:3:58.811,1063.31,60.1705,0,0.000885,0,0
0:3:59.109,1064.49,60.2395,0,0.000885,0,0
0:3:59.404,1066.13,60.3291,0,0.000885,0,0
0:3:59.707,1067.54,60.4119,0,0.000885,0,0
0:4:0.000,1068.77,60.4808,0,0.000885,0,0
0:4:0.300,1070.89,60.598,0,0.000885,0,0
0:4:0.609,1071.35,60.6256,0,0.000885,0,0
0:4:0.903,1073,60.7221,0,0.000885,0,0
0:4:1.204,1074.23,60.7911,0,0.000885,0,0
0:4:1.499,1075.58,60.8669,0,0.000885,0,0
0:4:1.799,1077.28,60.9634,0,0.000885,0,0
0:4:2.096,1078.46,61.0255,0,0.000885,0,0
0:4:2.399,1079.63,61.0944,0,0.000885,0,0
0:4:2.702,1080.75,61.1565,0,0.000885,0,0
0:4:3.008,1082.27,61.2461,0,0.000885,0,0
0:4:3.310,1083.8,61.3289,0,0.000885,0,0
0:4:3.611,1084.8,61.384,0,0.000885,0,0
0:4:3.909,1086.21,61.4668,0,0.000885,0,0
0:4:4.207,1086.97,61.5081,0,0.000885,0,0
0:4:4.501,1089.32,61.646,0,0.000885,0,0
0:4:4.803,1090.43,61.7081,0,0.000885,0,0
0:4:5.097,1091.96,61.7908,0,0.000885,0,0
0:4:5.397,1093.19,61.8598,0,0.000885,0,0
0:4:5.694,1094.01,61.908,0,0.000885,0,0
0:4:6.001,1096.18,62.0321,0,0.000885,0,0
0:4:6.301,1097.42,62.1011,0,0.000885,0,0
0:4:6.595,1098.53,62.1631,0,0.000885,0,0
0:4:6.896,1099.65,62.2252,0,0.000885,0,0
0:4:7.200,1101,62.301,0,0.000885,0,0
0:4:7.504,1102.52,62.3907,0,0.000885,0,0
0:4:7.807,1102.94,62.4113,0,0.000885,0,0
0:4:8.108,1103.88,62.4665,0,0.000885,0,0
0:4:8.411,1106.16,62.5975,0,0.000885,0,0
0:4:8.703,1107.69,62.6802,0,0.000885,0,0
0:4:9.004,1109.28,62.7699,0,0.000885,0,0
0:4:9.300,1110.33,62.8319,0,0.000885,0,0
0:4:9.596,1111.45,62.894,0,0.000885,0,0
0:4:9.896,1112.68,62.9629,0,0.000885,0,0
0:4:10.191,1114.38,63.0595,0,0.000885,0,0
0:4:10.492,1115.38,63.1146,0,0.000885,0,0
0:4:10.797,1116.55,63.1836,0,0.000885,0,0
0:4:11.096,1118.79,63.3077,0,0.000885,0,0
0:4:11.404,1120.31,63.3973,0,0.000885,0,0
0:4:11.699,1120.78,63.4249,0,0.000885,0,0
0:4:12.000,1122.01,63.4938,0,0.000885,0,0
0:4:12.303,1123.25,63.5628,0,0.000885,0,0
0:4:12.610,1124.42,63.6317,0,0.000885,0,0
0:4:12.910,1125.65,63.7007,0,0.000885,0,0
0:4:13.213,1127.06,63.7765,0,0.000885,0,0
0:4:13.514,1128.53,63.8592,0,0.000885,0,0
0:4:13.809,1128.76,63.873,0,0.000885,0,0
0:4:14.110,1131.23,64.0178,0,0.000885,0,0
0:4:14.404,1132.58,64.0937,0,0.000885,0,0
0:4:14.713,1134.75,64.2109,0,0.000885,0,0
0:4:15.011,1135.69,64.266,0,0.000885,0,0
0:4:15.308,1137.45,64.3695,0,0.000885,0,0
0:4:15.609,1138.86,64.4453,0,0.000885,0,0
0:4:15.903,1139.62,64.4867,0,0.000885,0,0
0:4:16.202,1140.27,64.528,0,0.000885,0,0
0:4:16.500,1141.5,64.597,0,0.000885,0,0
0:4:16.805,1143.32,64.7004,0,0.000885,0,0
0:4:17.105,1144.08,64.7418,0,0.000885,0,0
0:4:17.409,1145.02,64.7969,0,0.000885,0,0
0:4:17.713,1146.14,64.859,0,0.000885,0,0
0:4:18.015,1148.31,64.9831,0,0.000885,0,0
0:4:18.318,1149.54,65.052,0,0.000885,0,0
0:4:18.618,1150.36,65.1003,0,0.000885,0,0
0:4:18.915,1152.36,65.2106,0,0.000885,0,0
0:4:19.215,1154.36,65.3209,0,0.000885,0,0
0:4:19.510,1156.12,65.4244,0,0.000885,0,0
0:4:19.810,1156.64,65.4519,0,0.000885,0,0
0:4:20.104,1157.7,65.514,0,0.000885,0,0
0:4:20.412,1158.64,65.5622,0,0.000885,0,0
0:4:20.713,1159.93,65.6381,0,0.000885,0,0
0:4:21.005,1162.04,65.7553,0,0.000885,0,0
0:4:21.309,1163.22,65.8242,0,0.000885,0,0
0:4:21.601,1164.51,65.9001,0,0.000885,0,0
0:4:21.901,1165.57,65.9552,0,0.000885,0,0
0:4:22.199,1166.45,66.0104,0,0.000885,0,0
0:4:22.501,1168.45,66.1207,0,0.000885,0,0
0:4:22.806,1169.68,66.1897,0,0.000885,0,0
0:4:23.109,1171.67,66.3,0,0.000885,0,0
0:4:23.411,1172.32,66.3414,0,0.000885,0,0
0:4:23.713,1174.43,66.4586,0,0.000885,0,0
0:4:24.010,1175.37,66.5137,0,0.000885,0,0
0:4:24.310,1176.02,66.5482,0,0.000885,0,0
0:4:24.601,1176.48,66.5758,0,0.000885,0,0
0:4:24.904,1178.24,66.6723,0,0.000885,0,0
0:4:25.200,1180.24,66.7895,0,0.000885,0,0
0:4:25.498,1181.83,66.8791,0,0.000885,0,0
0:4:25.795,1182.88,66.9343,0,0.000885,0,0
0:4:26.102,1184.65,67.0377,0,0.000885,0,0
0:4:26.402,1186.17,67.1205,0,0.000885,0,0
0:4:26.695,1187.35,67.1894,0,0.000885,0,0
0:4:26.999,1188.16,67.2377,0,0.000885,0,0
0:4:27.303,1189.28,67.2997,0,0.000885,0,0
0:4:27.606,1190.22,67.3549,0,0.000885,0,0
0:4:27.911,1192.33,67.4721,0,0.000885,0,0
0:4:28.213,1193.28,67.5273,0,0.000885,0,0
0:4:28.513,1193.92,67.5617,0,0.000885,0,0
0:4:28.805,1195.68,67.6583,0,0.000885,0,0
0:4:29.107,1197.73,67.7755,0,0.000885,0,0
0:4:29.405,1198.44,67.8168,0,0.000885,0,0
0:4:29.711,1200.49,67.934,0,0.000885,0,0
0:4:30.011,1201.38,67.9823,0,0.000885,0,0
0:4:30.303,1201.55,67.9961,0,0.000885,0,0
0:4:30.605,1203.31,68.0926,0,0.000885,0,0
0:4:30.901,1203.66,68.1133,0,0.000885,0,0
0:4:31.198,1205.07,68.196,0,0.000885,0,0
0:4:31.497,1206.42,68.2719,0,0.000885,0,0
0:4:31.813,1209.06,68.4167,0,0.000885,0,0
0:4:32.115,1210.65,68.5063,0,0.000885,0,0
0:4:32.420,1211.59,68.5615,0,0.000885,0,0
0:4:32.722,1212.18,68.5959,0,0.000885,0,0
0:4:33.023,1213.11,68.6511,0,0.000885,0,0
0:4:33.326,1215.11,68.7614,0,0.000885,0,0
0:4:33.629,1216.99,68.8648,0,0.000885,0,0
0:4:33.922,1218.92,68.9752,0,0.000885,0,0
0:4:34.223,1221.51,69.1199,0,0.000885,0,0
0:4:34.522,1223.97,69.2647,0,0.000885,0,0
0:4:34.819,1225.15,69.3268,0,0.000885,0,0
0:4:35.118,1226.5,69.4026,0,0.000885,0,0
0:4:35.413,1227.14,69.444,0,0.000885,0,0
0:4:35.715,1227.5,69.4647,0,0.000885,0,0
0:4:36.007,1229.02,69.5474,0,0.000885,0,0
0:4:36.306,1229.72,69.5888,0,0.000885,0,0
0:4:36.605,1230.31,69.6233,0,0.000885,0,0
0:4:36.901,1231.78,69.706,0,0.000885,0,0
0:4:37.201,1232.13,69.7267,0,0.000885,0,0
0:4:37.505,1233.78,69.8163,0,0.000885,0,0
0:4:37.811,1235.07,69.8922,0,0.000885,0,0
0:4:38.112,1237.06,70.0025,0,0.000885,0,0
0:4:38.415,1237.94,70.0507,0,0.000885,0,0
0:4:38.715,1239.35,70.1335,0,0.000885,0,0
0:4:39.007,1240.41,70.1955,0,0.000885,0,0
0:4:39.311,1242.17,70.2921,0,0.000885,0,0
0:4:39.603,1238.18,70.0645,0,0.000885,0,0
0:4:39.902,1239.29,70.1266,0,0.000885,0,0
0:4:40.199,1243.17,70.3472,0,0.000885,0,0
0:4:40.504,1242.34,70.3058,0,0.000885,0,0
0:4:40.804,1244.4,70.4162,0,0.000885,0,0
0:4:41.098,1246.87,70.5609,0,0.000885,0,0
0:4:41.400,1249.33,70.6988,0,0.000885,0,0
0:4:41.696,1252.33,70.8643,0,0.000885,0,0
0:4:41.997,1248.04,70.623,0,0.000885,0,0
0:4:42.301,1248.51,70.6506,0,0.000885,0,0
0:4:42.604,1239.23,70.1266,0,0.000885,0,0
0:4:42.895,1030.8,58.3296,0,0.000885,0,0