File: DataFile2021-06-06_051051.csv
Test ID:,Date Tested:,Time:,Test Type:,Diameter Avg. (mm):,Cyl. Corr. Factor:,Height (mm):,Age (days):,Weight (kN):,Break Type:,Ramp Rate (MPa/s):,Load at Break (kN):,Stress at Break (MPa):
12,6/6/2021,05:10,Cylinder,150,1,300,0,13.39,3,0.24,770.93,43.62
Sample Time,Load (kN),Stress (MPa),Long. Strain,Trans. Strain,Chan1 Deflection (mm),Chan2 Deflection (mm)
0:0:17.660,8.26924,0.468843,0,0.000885,0,0
0:0:17.858,15.8357,0.896318,0,0.000885,0,0
0:0:18.057,16.3027,0.923897,0,0.000885,0,0
0:0:18.257,15.9513,0.903213,0,0.000885,0,0
0:0:18.454,15.2485,0.861845,0,0.000885,0,0
0:0:18.652,15.0127,0.848055,0,0.000885,0,0
0:0:18.851,15.075,0.85495,0,0.000885,0,0
0:0:19.047,14.8393,0.84116,0,0.000885,0,0
0:0:19.249,14.43,0.813581,0,0.000885,0,0
0:0:19.445,14.1943,0.799792,0,0.000885,0,0
0:0:19.646,14.3678,0.813581,0,0.000885,0,0
0:0:19.845,14.8393,0.84116,0,0.000885,0,0
0:0:20.039,15.1328,0.85495,0,0.000885,0,0
0:0:20.241,15.1328,0.85495,0,0.000885,0,0
0:0:20.438,15.8357,0.896318,0,0.000885,0,0
0:0:20.636,16.7164,0.944582,0,0.000885,0,0
0:0:20.838,17.9486,1.01353,0,0.000885,0,0
0:0:21.031,18.5357,1.048,0,0.000885,0,0
0:0:21.233,19.5321,1.10316,0,0.000885,0,0
0:0:21.434,21.2892,1.20658,0,0.000885,0,0
0:0:21.630,21.6406,1.22727,0,0.000885,0,0
0:0:21.831,22.9306,1.29621,0,0.000885,0,0
0:0:22.027,23.6378,1.33758,0,0.000885,0,0
0:0:22.229,25.515,1.441,0,0.000885,0,0
0:0:22.429,26.2178,1.48237,0,0.000885,0,0
0:0:22.625,27.9749,1.58579,0,0.000885,0,0
0:0:22.828,28.4464,1.60648,0,0.000885,0,0
0:0:23.030,30.3235,1.71679,0,0.000885,0,0
0:0:23.234,30.8484,1.74437,0,0.000885,0,0
0:0:23.438,32.5521,1.8409,0,0.000885,0,0
0:0:23.640,33.0191,1.86848,0,0.000885,0,0
0:0:23.841,34.0156,1.92364,0,0.000885,0,0
0:0:24.043,34.8963,1.9719,0,0.000885,0,0
0:0:24.244,35.777,2.02706,0,0.000885,0,0
0:0:24.447,35.8349,2.02706,0,0.000885,0,0
0:0:24.645,37.1827,2.1029,0,0.000885,0,0
0:0:24.846,37.3606,2.11669,0,0.000885,0,0
0:0:25.044,38.1835,2.15806,0,0.000885,0,0
0:0:25.240,38.7084,2.19253,0,0.000885,0,0
0:0:25.443,40.4121,2.28906,0,0.000885,0,0
0:0:25.639,40.6434,2.30285,0,0.000885,0,0
0:0:25.840,42.1113,2.38559,0,0.000885,0,0
0:0:26.040,42.227,2.39248,0,0.000885,0,0
0:0:26.236,42.8141,2.42006,0,0.000885,0,0
0:0:26.438,44.4555,2.51659,0,0.000885,0,0
0:0:26.637,45.0427,2.55106,0,0.000885,0,0
0:0:26.836,46.0391,2.60622,0,0.000885,0,0
0:0:27.037,46.6841,2.64069,0,0.000885,0,0
0:0:27.231,48.152,2.72343,0,0.000885,0,0
0:0:27.433,48.5612,2.75101,0,0.000885,0,0
0:0:27.633,49.3842,2.79238,0,0.000885,0,0
0:0:27.830,49.8512,2.81996,0,0.000885,0,0
0:0:28.032,51.4971,2.91648,0,0.000885,0,0
0:0:28.234,52.0798,2.94406,0,0.000885,0,0
0:0:28.438,53.1385,3.00611,0,0.000885,0,0
0:0:28.642,53.8413,3.04748,0,0.000885,0,0
0:0:28.843,55.1891,3.12333,0,0.000885,0,0
0:0:29.046,55.7763,3.1578,0,0.000885,0,0
0:0:29.247,57.2442,3.24054,0,0.000885,0,0
0:0:29.450,57.5956,3.26122,0,0.000885,0,0
0:0:29.650,58.9434,3.33706,0,0.000885,0,0
0:0:29.848,59.4149,3.36464,0,0.000885,0,0
0:0:30.051,60.7049,3.43359,0,0.000885,0,0
0:0:30.247,61.2298,3.46806,0,0.000885,0,0
0:0:30.447,62.6399,3.54391,0,0.000885,0,0
0:0:30.648,62.9913,3.56459,0,0.000885,0,0
0:0:30.844,63.4583,3.59217,0,0.000885,0,0
0:0:31.046,64.4547,3.64733,0,0.000885,0,0
0:0:31.245,64.9841,3.67491,0,0.000885,0,0
0:0:31.441,66.2162,3.74385,0,0.000885,0,0
0:0:31.643,67.2126,3.80591,0,0.000885,0,0
0:0:31.838,68.4448,3.87485,0,0.000885,0,0
0:0:32.040,68.7962,3.89554,0,0.000885,0,0
0:0:32.239,70.3219,3.97827,0,0.000885,0,0
0:0:32.436,70.9091,4.01275,0,0.000885,0,0
0:0:32.639,71.9633,4.0748,0,0.000885,0,0
0:0:32.834,72.6083,4.10928,0,0.000885,0,0
0:0:33.036,73.4312,4.15754,0,0.000885,0,0
0:0:33.238,74.1919,4.19891,0,0.000885,0,0
0:0:33.442,75.2506,4.26096,0,0.000885,0,0
0:0:33.645,75.8956,4.29543,0,0.000885,0,0
0:0:33.848,77.0654,4.36438,0,0.000885,0,0
0:0:34.050,77.4791,4.38507,0,0.000885,0,0
0:0:34.252,78.7691,4.45401,0,0.000885,0,0
0:0:34.455,79.1205,4.4747,0,0.000885,0,0
0:0:34.656,80.2904,4.54365,0,0.000885,0,0
0:0:34.852,80.9977,4.58501,0,0.000885,0,0
0:0:35.052,82.5812,4.67465,0,0.000885,0,0
0:0:35.252,82.9905,4.69533,0,0.000885,0,0
0:0:35.448,84.2805,4.77117,0,0.000885,0,0
0:0:35.650,84.9254,4.80565,0,0.000885,0,0
0:0:35.847,85.8062,4.85391,0,0.000885,0,0
0:0:36.046,87.0384,4.92286,0,0.000885,0,0
0:0:36.248,87.5054,4.95044,0,0.000885,0,0
0:0:36.446,88.6219,5.01249,0,0.000885,0,0
0:0:36.646,89.5605,5.06765,0,0.000885,0,0
0:0:36.847,90.9661,5.15038,0,0.000885,0,0
0:0:37.042,91.1441,5.15728,0,0.000885,0,0
0:0:37.244,92.0248,5.20554,0,0.000885,0,0
0:0:37.443,92.2561,5.21933,0,0.000885,0,0
0:0:37.641,93.7819,5.30896,0,0.000885,0,0
0:0:37.842,94.6048,5.35033,0,0.000885,0,0
0:0:38.046,95.7168,5.41928,0,0.000885,0,0
0:0:38.250,96.2462,5.44686,0,0.000885,0,0
0:0:38.452,97.5362,5.5227,0,0.000885,0,0
0:0:38.655,98.0655,5.55028,0,0.000885,0,0
0:0:38.857,99.1197,5.61233,0,0.000885,0,0
0:0:39.059,99.5868,5.63302,0,0.000885,0,0
0:0:39.262,100.997,5.71575,0,0.000885,0,0
0:0:39.461,101.642,5.75023,0,0.000885,0,0
0:0:39.658,103.11,5.83296,0,0.000885,0,0
0:0:39.860,103.577,5.86054,0,0.000885,0,0
0:0:40.056,104.809,5.92949,0,0.000885,0,0
0:0:40.257,105.396,5.96397,0,0.000885,0,0
0:0:40.458,106.744,6.03981,0,0.000885,0,0
0:0:40.654,107.567,6.08807,0,0.000885,0,0
0:0:40.856,107.918,6.10875,0,0.000885,0,0
0:0:41.053,108.505,6.14323,0,0.000885,0,0
0:0:41.251,109.324,6.1846,0,0.000885,0,0
0:0:41.453,110.147,6.23286,0,0.000885,0,0
0:0:41.649,111.201,6.29491,0,0.000885,0,0
0:0:41.851,112.433,6.36386,0,0.000885,0,0
0:0:42.048,112.963,6.39144,0,0.000885,0,0
0:0:42.246,114.368,6.47418,0,0.000885,0,0
0:0:42.448,115.013,6.50865,0,0.000885,0,0
0:0:42.646,116.245,6.5776,0,0.000885,0,0
0:0:42.847,116.775,6.60518,0,0.000885,0,0
0:0:43.049,117.887,6.67413,0,0.000885,0,0
0:0:43.253,118.652,6.71549,0,0.000885,0,0
0:0:43.457,120,6.79134,0,0.000885,0,0
0:0:43.658,120.351,6.81202,0,0.000885,0,0
0:0:43.861,121.992,6.90165,0,0.000885,0,0
0:0:44.062,122.695,6.94302,0,0.000885,0,0
0:0:44.264,123.518,6.99128,0,0.000885,0,0
0:0:44.466,124.048,7.01886,0,0.000885,0,0
0:0:44.665,124.986,7.07402,0,0.000885,0,0
0:0:44.865,125.338,7.09471,0,0.000885,0,0
0:0:45.065,126.334,7.14986,0,0.000885,0,0
0:0:45.261,127.388,7.21192,0,0.000885,0,0
0:0:45.461,128.442,7.26707,0,0.000885,0,0
0:0:45.659,128.736,7.28776,0,0.000885,0,0
0:0:45.859,129.795,7.34292,0,0.000885,0,0
0:0:46.061,130.791,7.39807,0,0.000885,0,0
0:0:46.256,131.258,7.42565,0,0.000885,0,0
0:0:46.458,132.904,7.52218,0,0.000885,0,0
0:0:46.657,133.607,7.56355,0,0.000885,0,0
0:0:46.856,134.777,7.6256,0,0.000885,0,0
0:0:47.058,135.133,7.64629,0,0.000885,0,0
0:0:47.253,136.187,7.70834,0,0.000885,0,0
0:0:47.453,136.947,7.74971,0,0.000885,0,0
0:0:47.654,138.18,7.81865,0,0.000885,0,0
0:0:47.849,138.767,7.85313,0,0.000885,0,0
0:0:48.052,140.35,7.94276,0,0.000885,0,0
0:0:48.255,140.644,7.95655,0,0.000885,0,0
0:0:48.459,141.698,8.0186,0,0.000885,0,0
0:0:48.662,142.579,8.06687,0,0.000885,0,0
0:0:48.865,143.575,8.12202,0,0.000885,0,0
0:0:49.066,144.278,8.16339,0,0.000885,0,0
0:0:49.268,145.337,8.22545,0,0.000885,0,0
0:0:49.470,145.573,8.23923,0,0.000885,0,0
0:0:49.672,146.862,8.30818,0,0.000885,0,0
0:0:49.866,147.445,8.34266,0,0.000885,0,0
0:0:50.068,148.62,8.4116,0,0.000885,0,0
0:0:50.268,149.207,8.44608,0,0.000885,0,0
0:0:50.465,149.967,8.48745,0,0.000885,0,0
0:0:50.667,151.493,8.57018,0,0.000885,0,0
0:0:50.864,151.965,8.59776,0,0.000885,0,0
0:0:51.064,153.077,8.65982,0,0.000885,0,0
0:0:51.264,153.779,8.70118,0,0.000885,0,0
0:0:51.460,154.896,8.76324,0,0.000885,0,0
0:0:51.661,155.19,8.78392,0,0.000885,0,0
0:0:51.859,156.657,8.86666,0,0.000885,0,0
0:0:52.058,157.24,8.90113,0,0.000885,0,0
0:0:52.260,158.063,8.9425,0,0.000885,0,0
0:0:52.455,158.65,8.97697,0,0.000885,0,0
0:0:52.658,159.589,9.03213,0,0.000885,0,0
0:0:52.855,160.114,9.05971,0,0.000885,0,0
0:0:53.052,161.524,9.14245,0,0.000885,0,0
0:0:53.255,162.462,9.19071,0,0.000885,0,0
0:0:53.458,163.343,9.24587,0,0.000885,0,0
0:0:53.661,164.219,9.29413,0,0.000885,0,0
0:0:53.864,165.394,9.35619,0,0.000885,0,0
0:0:54.065,166.275,9.41134,0,0.000885,0,0
0:0:54.267,167.68,9.48719,0,0.000885,0,0
0:0:54.468,168.094,9.51477,0,0.000885,0,0
0:0:54.671,169.09,9.56992,0,0.000885,0,0
0:0:54.872,169.615,9.5975,0,0.000885,0,0
0:0:55.068,171.083,9.68024,0,0.000885,0,0
0:0:55.270,171.555,9.70782,0,0.000885,0,0
0:0:55.468,172.2,9.74229,0,0.000885,0,0
0:0:55.668,173.254,9.80434,0,0.000885,0,0
0:0:55.869,173.957,9.84571,0,0.000885,0,0
0:0:56.062,174.837,9.89398,0,0.000885,0,0
0:0:56.264,175.367,9.92156,0,0.000885,0,0
0:0:56.464,176.714,9.9974,0,0.000885,0,0
0:0:56.661,177.417,10.0388,0,0.000885,0,0
0:0:56.863,178.472,10.1008,0,0.000885,0,0
0:0:57.059,178.943,10.1284,0,0.000885,0,0
0:0:57.259,180.7,10.2249,0,0.000885,0,0
0:0:57.460,180.82,10.2318,0,0.000885,0,0
0:0:57.657,182.168,10.3077,0,0.000885,0,0
0:0:57.859,182.519,10.3283,0,0.000885,0,0
0:0:58.060,184.223,10.4249,0,0.000885,0,0
0:0:58.264,184.984,10.4662,0,0.000885,0,0
0:0:58.468,185.335,10.4869,0,0.000885,0,0
0:0:58.669,186.332,10.5421,0,0.000885,0,0
0:0:58.871,187.679,10.6179,0,0.000885,0,0
0:0:59.072,187.915,10.6317,0,0.000885,0,0
0:0:59.275,188.912,10.6869,0,0.000885,0,0
0:0:59.476,189.383,10.7145,0,0.000885,0,0
0:0:59.672,189.677,10.7351,0,0.000885,0,0
0:0:59.873,190.028,10.7558,0,0.000885,0,0
0:1:0.071,190.028,10.7558,0,0.000885,0,0
0:1:0.269,191.669,10.8455,0,0.000885,0,0
0:1:0.470,192.257,10.8799,0,0.000885,0,0
0:1:0.667,193.84,10.9696,0,0.000885,0,0
0:1:0.867,194.837,11.0247,0,0.000885,0,0
0:1:1.064,195.891,11.0868,0,0.000885,0,0
0:1:1.260,196.478,11.1212,0,0.000885,0,0
0:1:1.460,198.475,11.2316,0,0.000885,0,0
0:1:1.653,199.178,11.2729,0,0.000885,0,0
0:1:1.855,200.935,11.3695,0,0.000885,0,0
0:1:2.053,201.874,11.4246,0,0.000885,0,0
0:1:2.249,203.457,11.5142,0,0.000885,0,0
0:1:2.449,204.222,11.5556,0,0.000885,0,0
0:1:2.644,205.628,11.6384,0,0.000885,0,0
0:1:2.842,206.802,11.7004,0,0.000885,0,0
0:1:3.043,207.799,11.7556,0,0.000885,0,0
0:1:3.246,209.498,11.8521,0,0.000885,0,0
0:1:3.447,210.379,11.9072,0,0.000885,0,0
0:1:3.649,211.024,11.9417,0,0.000885,0,0
0:1:3.850,212.14,12.0038,0,0.000885,0,0
0:1:4.050,213.079,12.0589,0,0.000885,0,0
0:1:4.250,213.372,12.0727,0,0.000885,0,0
0:1:4.451,214.191,12.121,0,0.000885,0,0
0:1:4.647,215.014,12.1692,0,0.000885,0,0
0:1:4.844,215.894,12.2175,0,0.000885,0,0
0:1:5.045,216.184,12.2313,0,0.000885,0,0
0:1:5.239,216.949,12.2796,0,0.000885,0,0
0:1:5.440,217.242,12.2934,0,0.000885,0,0
0:1:5.637,218.181,12.3485,0,0.000885,0,0
0:1:5.832,219.177,12.4037,0,0.000885,0,0
0:1:6.033,220.116,12.4588,0,0.000885,0,0
0:1:6.227,220.583,12.4795,0,0.000885,0,0
0:1:6.427,220.997,12.5071,0,0.000885,0,0
0:1:6.626,222.051,12.5622,0,0.000885,0,0
0:1:6.819,222.402,12.5829,0,0.000885,0,0
0:1:7.020,223.519,12.6519,0,0.000885,0,0
0:1:7.217,224.222,12.6864,0,0.000885,0,0
0:1:7.412,224.924,12.7277,0,0.000885,0,0
0:1:7.612,225.569,12.7622,0,0.000885,0,0
0:1:7.807,227.095,12.8518,0,0.000885,0,0
0:1:8.007,227.624,12.8794,0,0.000885,0,0
0:1:8.207,229.266,12.9759,0,0.000885,0,0
0:1:8.410,229.791,13.0035,0,0.000885,0,0
0:1:8.610,230.965,13.0725,0,0.000885,0,0
0:1:8.811,231.846,13.1207,0,0.000885,0,0
0:1:9.012,232.727,13.169,0,0.000885,0,0
0:1:9.211,233.545,13.2172,0,0.000885,0,0
0:1:9.411,234.835,13.2862,0,0.000885,0,0
0:1:9.612,235.542,13.3276,0,0.000885,0,0
0:1:9.818,236.712,13.3965,0,0.000885,0,0
0:1:10.017,237.241,13.4241,0,0.000885,0,0
0:1:10.214,237.709,13.4517,0,0.000885,0,0
0:1:10.409,239.176,13.5344,0,0.000885,0,0
0:1:10.610,239.937,13.5758,0,0.000885,0,0
0:1:10.806,241.054,13.6378,0,0.000885,0,0
0:1:11.011,241.463,13.6654,0,0.000885,0,0
0:1:11.211,242.753,13.7344,0,0.000885,0,0
0:1:11.406,243.104,13.755,0,0.000885,0,0
0:1:11.607,244.043,13.8102,0,0.000885,0,0
0:1:11.813,245.044,13.8654,0,0.000885,0,0
0:1:12.020,246.334,13.9412,0,0.000885,0,0
0:1:12.221,246.391,13.9412,0,0.000885,0,0
0:1:12.415,247.33,13.9964,0,0.000885,0,0
0:1:12.614,248.326,14.0515,0,0.000885,0,0
0:1:12.812,249.674,14.1274,0,0.000885,0,0
0:1:13.019,250.088,14.1549,0,0.000885,0,0
0:1:13.220,251.258,14.217,0,0.000885,0,0
0:1:13.422,251.436,14.2308,0,0.000885,0,0
0:1:13.624,252.49,14.2859,0,0.000885,0,0
0:1:13.826,253.606,14.348,0,0.000885,0,0
0:1:14.025,254.834,14.4238,0,0.000885,0,0
0:1:14.226,255.306,14.4445,0,0.000885,0,0
0:1:14.427,256.186,14.4997,0,0.000885,0,0
0:1:14.628,256.889,14.5341,0,0.000885,0,0
0:1:14.828,258.295,14.6169,0,0.000885,0,0
0:1:15.022,258.824,14.6445,0,0.000885,0,0
0:1:15.221,259.527,14.6858,0,0.000885,0,0
0:1:15.418,260.879,14.7617,0,0.000885,0,0
0:1:15.624,261.346,14.7893,0,0.000885,0,0
0:1:15.825,262.401,14.8513,0,0.000885,0,0
0:1:16.019,262.872,14.8789,0,0.000885,0,0
0:1:16.219,264.456,14.9685,0,0.000885,0,0
0:1:16.417,265.158,15.003,0,0.000885,0,0
0:1:16.609,266.333,15.0719,0,0.000885,0,0
0:1:16.809,266.684,15.0926,0,0.000885,0,0
0:1:17.006,268.032,15.1685,0,0.000885,0,0
0:1:17.213,268.855,15.2167,0,0.000885,0,0
0:1:17.413,269.736,15.265,0,0.000885,0,0
0:1:17.617,270.381,15.2995,0,0.000885,0,0
0:1:17.819,271.671,15.3753,0,0.000885,0,0
0:1:18.020,272.316,15.4098,0,0.000885,0,0
0:1:18.222,273.37,15.4718,0,0.000885,0,0
0:1:18.422,274.308,15.5201,0,0.000885,0,0
0:1:18.623,275.363,15.5822,0,0.000885,0,0
0:1:18.824,275.95,15.6166,0,0.000885,0,0
0:1:19.024,276.421,15.6442,0,0.000885,0,0
0:1:19.223,277.36,15.6925,0,0.000885,0,0
0:1:19.425,278.178,15.7407,0,0.000885,0,0
0:1:19.619,279.059,15.789,0,0.000885,0,0
0:1:19.820,279.704,15.8304,0,0.000885,0,0
0:1:20.015,280.701,15.8855,0,0.000885,0,0
0:1:20.211,281.639,15.9407,0,0.000885,0,0
0:1:20.412,282.813,16.0027,0,0.000885,0,0
0:1:20.615,283.516,16.0441,0,0.000885,0,0
0:1:20.815,284.864,16.1199,0,0.000885,0,0
0:1:21.015,285.336,16.1475,0,0.000885,0,0
0:1:21.210,286.154,16.1958,0,0.000885,0,0
0:1:21.411,287.271,16.2578,0,0.000885,0,0
0:1:21.606,288.209,16.3061,0,0.000885,0,0
0:1:21.804,289.263,16.3682,0,0.000885,0,0
0:1:22.003,290.496,16.4371,0,0.000885,0,0
0:1:22.199,290.847,16.4578,0,0.000885,0,0
0:1:22.400,291.786,16.5129,0,0.000885,0,0
0:1:22.596,292.257,16.5405,0,0.000885,0,0
0:1:22.793,292.96,16.575,0,0.000885,0,0
0:1:22.993,294.25,16.6508,0,0.000885,0,0
0:1:23.195,294.837,16.6853,0,0.000885,0,0
0:1:23.398,296.007,16.7474,0,0.000885,0,0
0:1:23.599,296.714,16.7887,0,0.000885,0,0
0:1:23.800,297.768,16.8508,0,0.000885,0,0
0:1:24.000,298.004,16.8646,0,0.000885,0,0
0:1:24.199,299.236,16.9335,0,0.000885,0,0
0:1:24.399,299.823,16.968,0,0.000885,0,0
0:1:24.598,301.113,17.0369,0,0.000885,0,0
0:1:24.794,302.168,17.099,0,0.000885,0,0
0:1:24.995,302.928,17.1404,0,0.000885,0,0
0:1:25.189,303.636,17.1817,0,0.000885,0,0
0:1:25.390,305.157,17.2714,0,0.000885,0,0
0:1:25.588,305.744,17.2989,0,0.000885,0,0
0:1:25.784,306.918,17.3679,0,0.000885,0,0
0:1:25.983,307.799,17.4162,0,0.000885,0,0
0:1:26.178,308.444,17.4575,0,0.000885,0,0
0:1:26.377,309.792,17.5334,0,0.000885,0,0
0:1:26.577,310.259,17.5541,0,0.000885,0,0
0:1:26.772,311.843,17.6437,0,0.000885,0,0
0:1:26.971,312.198,17.6644,0,0.000885,0,0
0:1:27.167,312.781,17.6988,0,0.000885,0,0
0:1:27.365,313.195,17.7264,0,0.000885,0,0
0:1:27.565,314.249,17.7816,0,0.000885,0,0
0:1:27.760,314.894,17.8161,0,0.000885,0,0
0:1:27.961,316.068,17.885,0,0.000885,0,0
0:1:28.161,316.593,17.9126,0,0.000885,0,0
0:1:28.365,317.652,17.9746,0,0.000885,0,0
0:1:28.566,318.413,18.016,0,0.000885,0,0
0:1:28.766,320.116,18.1125,0,0.000885,0,0
0:1:28.967,320.116,18.1125,0,0.000885,0,0
0:1:29.167,321.931,18.2159,0,0.000885,0,0
0:1:29.367,322.283,18.2366,0,0.000885,0,0
0:1:29.568,323.283,18.2918,0,0.000885,0,0
0:1:29.765,323.986,18.3332,0,0.000885,0,0
0:1:29.962,324.747,18.3745,0,0.000885,0,0
0:1:30.161,325.863,18.4366,0,0.000885,0,0
0:1:30.355,326.451,18.4711,0,0.000885,0,0
0:1:30.557,328.034,18.5607,0,0.000885,0,0
0:1:30.752,328.501,18.5883,0,0.000885,0,0
0:1:30.949,329.675,18.6572,0,0.000885,0,0
0:1:31.149,330.2,18.6848,0,0.000885,0,0
0:1:31.343,331.317,18.7468,0,0.000885,0,0
0:1:31.543,332.078,18.7951,0,0.000885,0,0
0:1:31.741,332.958,18.8434,0,0.000885,0,0
0:1:31.938,333.723,18.8847,0,0.000885,0,0
0:1:32.139,335.596,18.9882,0,0.000885,0,0
0:1:32.333,336.01,19.0157,0,0.000885,0,0
0:1:32.531,336.419,19.0364,0,0.000885,0,0
0:1:32.730,337.3,19.0847,0,0.000885,0,0
0:1:32.925,338.003,19.1261,0,0.000885,0,0
0:1:33.126,339.528,19.2157,0,0.000885,0,0
0:1:33.326,339.88,19.2364,0,0.000885,0,0
0:1:33.529,340.76,19.2846,0,0.000885,0,0
0:1:33.731,341.521,19.326,0,0.000885,0,0
0:1:33.931,342.575,19.3881,0,0.000885,0,0
0:1:34.131,343.163,19.4225,0,0.000885,0,0
0:1:34.332,344.159,19.4777,0,0.000885,0,0
0:1:34.531,344.982,19.5191,0,0.000885,0,0
0:1:34.732,345.978,19.5811,0,0.000885,0,0
0:1:34.925,346.508,19.6087,0,0.000885,0,0
0:1:35.126,347.855,19.6845,0,0.000885,0,0
0:1:35.322,348.149,19.6983,0,0.000885,0,0
0:1:35.516,348.852,19.7397,0,0.000885,0,0
0:1:35.720,350.262,19.8224,0,0.000885,0,0
0:1:35.913,350.849,19.8569,0,0.000885,0,0
0:1:36.112,351.961,19.919,0,0.000885,0,0
0:1:36.311,352.312,19.9396,0,0.000885,0,0
0:1:36.515,353.723,20.0155,0,0.000885,0,0
0:1:36.715,354.483,20.0568,0,0.000885,0,0
0:1:36.911,355.773,20.1327,0,0.000885,0,0
0:1:37.109,356.654,20.181,0,0.000885,0,0
0:1:37.309,357.708,20.243,0,0.000885,0,0
0:1:37.513,358.18,20.2706,0,0.000885,0,0
0:1:37.713,359.643,20.3533,0,0.000885,0,0
0:1:37.913,360.408,20.3947,0,0.000885,0,0
0:1:38.115,361.756,20.4705,0,0.000885,0,0
0:1:38.320,362.165,20.4912,0,0.000885,0,0
0:1:38.521,362.873,20.5326,0,0.000885,0,0
0:1:38.721,363.633,20.5809,0,0.000885,0,0
0:1:38.922,364.923,20.6498,0,0.000885,0,0
0:1:39.121,365.51,20.6843,0,0.000885,0,0
0:1:39.322,367.152,20.7739,0,0.000885,0,0
0:1:39.516,367.21,20.7808,0,0.000885,0,0
0:1:39.713,368.148,20.836,0,0.000885,0,0
0:1:39.913,368.442,20.8497,0,0.000885,0,0
0:1:40.116,369.732,20.9256,0,0.000885,0,0
0:1:40.317,370.083,20.9394,0,0.000885,0,0
0:1:40.515,371.609,21.029,0,0.000885,0,0
0:1:40.711,372.138,21.0566,0,0.000885,0,0
0:1:40.911,372.841,21.098,0,0.000885,0,0
0:1:41.105,373.722,21.1462,0,0.000885,0,0
0:1:41.304,374.66,21.2014,0,0.000885,0,0
0:1:41.503,375.83,21.2703,0,0.000885,0,0
0:1:41.698,376.538,21.3048,0,0.000885,0,0
0:1:41.899,377.827,21.3806,0,0.000885,0,0
0:1:42.094,378.766,21.4358,0,0.000885,0,0
0:1:42.291,379.998,21.5047,0,0.000885,0,0
0:1:42.491,380.701,21.5461,0,0.000885,0,0
0:1:42.687,381.582,21.5944,0,0.000885,0,0
0:1:42.887,381.875,21.6082,0,0.000885,0,0
0:1:43.088,383.397,21.6978,0,0.000885,0,0
0:1:43.291,383.575,21.7047,0,0.000885,0,0
0:1:43.493,385.043,21.7874,0,0.000885,0,0
0:1:43.692,385.51,21.815,0,0.000885,0,0
0:1:43.893,386.332,21.8633,0,0.000885,0,0
0:1:44.094,387.329,21.9184,0,0.000885,0,0
0:1:44.293,387.68,21.9391,0,0.000885,0,0
0:1:44.494,389.615,22.0494,0,0.000885,0,0
0:1:44.690,390.318,22.0908,0,0.000885,0,0
0:1:44.888,391.141,22.1322,0,0.000885,0,0
0:1:45.087,391.728,22.1666,0,0.000885,0,0
0:1:45.283,392.725,22.2218,0,0.000885,0,0
0:1:45.484,392.725,22.2218,0,0.000885,0,0
0:1:45.679,394.66,22.3321,0,0.000885,0,0
0:1:45.877,395.011,22.3528,0,0.000885,0,0
0:1:46.076,396.359,22.4286,0,0.000885,0,0
0:1:46.270,396.946,22.4631,0,0.000885,0,0
0:1:46.471,397.711,22.5045,0,0.000885,0,0
0:1:46.668,398.062,22.5252,0,0.000885,0,0
0:1:46.864,398.707,22.5596,0,0.000885,0,0
0:1:47.065,400.464,22.6631,0,0.000885,0,0
0:1:47.259,401.403,22.7182,0,0.000885,0,0
0:1:47.459,402.577,22.7803,0,0.000885,0,0
0:1:47.657,403.165,22.8148,0,0.000885,0,0
0:1:47.850,404.277,22.8768,0,0.000885,0,0
0:1:48.051,404.984,22.9182,0,0.000885,0,0
0:1:48.252,405.567,22.9526,0,0.000885,0,0
0:1:48.456,406.332,22.994,0,0.000885,0,0
0:1:48.658,407.15,23.0423,0,0.000885,0,0
0:1:48.859,408.031,23.0905,0,0.000885,0,0
0:1:49.060,409.379,23.1664,0,0.000885,0,0
0:1:49.260,410.38,23.2215,0,0.000885,0,0
0:1:49.459,411.549,23.2905,0,0.000885,0,0
0:1:49.660,412.079,23.3181,0,0.000885,0,0
0:1:49.856,413.075,23.3732,0,0.000885,0,0
0:1:50.056,413.836,23.4215,0,0.000885,0,0
0:1:50.252,414.895,23.4766,0,0.000885,0,0
0:1:50.447,415.304,23.5042,0,0.000885,0,0
0:1:50.648,416.064,23.5456,0,0.000885,0,0
0:1:50.845,417.648,23.6352,0,0.000885,0,0
0:1:51.044,418.062,23.6559,0,0.000885,0,0
0:1:51.243,419.174,23.718,0,0.000885,0,0
0:1:51.436,419.703,23.7524,0,0.000885,0,0
0:1:51.637,420.877,23.8145,0,0.000885,0,0
0:1:51.833,421.109,23.8283,0,0.000885,0,0
0:1:52.031,422.399,23.9041,0,0.000885,0,0
0:1:52.231,423.573,23.9662,0,0.000885,0,0
0:1:52.425,424.69,24.0351,0,0.000885,0,0
0:1:52.625,425.214,24.0627,0,0.000885,0,0
0:1:52.825,426.153,24.1179,0,0.000885,0,0
0:1:53.027,426.504,24.1385,0,0.000885,0,0
0:1:53.230,427.621,24.2006,0,0.000885,0,0
0:1:53.431,428.444,24.242,0,0.000885,0,0
0:1:53.632,429.792,24.3178,0,0.000885,0,0
0:1:53.830,430.379,24.3523,0,0.000885,0,0
0:1:54.031,430.966,24.3868,0,0.000885,0,0
0:1:54.232,431.962,24.4419,0,0.000885,0,0
0:1:54.428,432.136,24.4557,0,0.000885,0,0
0:1:54.627,433.777,24.5453,0,0.000885,0,0
0:1:54.827,434.422,24.5867,0,0.000885,0,0
0:1:55.021,436.126,24.6763,0,0.000885,0,0
0:1:55.218,436.713,24.7108,0,0.000885,0,0
0:1:55.417,437.883,24.7798,0,0.000885,0,0
0:1:55.613,438.528,24.8142,0,0.000885,0,0
0:1:55.812,439.467,24.8694,0,0.000885,0,0
0:1:56.027,439.996,24.897,0,0.000885,0,0
0:1:56.227,441.286,24.9728,0,0.000885,0,0
0:1:56.426,441.579,24.9866,0,0.000885,0,0
0:1:56.619,442.812,25.0555,0,0.000885,0,0
0:1:56.818,443.047,25.0693,0,0.000885,0,0
0:1:57.015,444.631,25.159,0,0.000885,0,0
0:1:57.212,445.334,25.2003,0,0.000885,0,0
0:1:57.413,446.508,25.2693,0,0.000885,0,0
0:1:57.617,447.269,25.3107,0,0.000885,0,0
0:1:57.817,447.562,25.3244,0,0.000885,0,0
0:1:58.018,448.501,25.3796,0,0.000885,0,0
0:1:58.223,449.382,25.4279,0,0.000885,0,0
0:1:58.425,450.845,25.5106,0,0.000885,0,0
0:1:58.626,451.49,25.552,0,0.000885,0,0
0:1:58.826,452.842,25.6278,0,0.000885,0,0
0:1:59.025,453.309,25.6554,0,0.000885,0,0
0:1:59.226,454.715,25.7312,0,0.000885,0,0
0:1:59.427,455.302,25.7657,0,0.000885,0,0
0:1:59.630,456.361,25.8278,0,0.000885,0,0
0:1:59.830,457.299,25.876,0,0.000885,0,0
0:2:0.027,458.118,25.9243,0,0.000885,0,0
0:2:0.223,458.647,25.9519,0,0.000885,0,0
0:2:0.422,459.35,25.9932,0,0.000885,0,0
0:2:0.628,460.404,26.0553,0,0.000885,0,0
0:2:0.828,461.521,26.1173,0,0.000885,0,0
0:2:1.026,461.757,26.1311,0,0.000885,0,0
0:2:1.219,462.695,26.1863,0,0.000885,0,0
0:2:1.422,463.514,26.2277,0,0.000885,0,0
0:2:1.616,465.217,26.3242,0,0.000885,0,0
0:2:1.825,465.92,26.3656,0,0.000885,0,0
0:2:2.025,466.739,26.4138,0,0.000885,0,0
0:2:2.228,466.974,26.4276,0,0.000885,0,0
0:2:2.428,467.913,26.4759,0,0.000885,0,0
0:2:2.627,468.972,26.5379,0,0.000885,0,0
0:2:2.823,469.439,26.5655,0,0.000885,0,0
0:2:3.023,471.08,26.6551,0,0.000885,0,0
0:2:3.224,471.609,26.6896,0,0.000885,0,0
0:2:3.427,473.135,26.7723,0,0.000885,0,0
0:2:3.629,473.838,26.8137,0,0.000885,0,0
0:2:3.829,474.599,26.8551,0,0.000885,0,0
0:2:4.030,474.892,26.8758,0,0.000885,0,0
0:2:4.229,476.654,26.9723,0,0.000885,0,0
0:2:4.430,477.766,27.0343,0,0.000885,0,0
0:2:4.629,478.762,27.0895,0,0.000885,0,0
0:2:4.823,479.469,27.1309,0,0.000885,0,0
0:2:5.025,479.936,27.1584,0,0.000885,0,0
0:2:5.229,480.991,27.2205,0,0.000885,0,0
0:2:5.426,481.698,27.2619,0,0.000885,0,0
0:2:5.627,481.871,27.2688,0,0.000885,0,0
0:2:5.819,483.104,27.3377,0,0.000885,0,0
0:2:6.019,484.158,27.3998,0,0.000885,0,0
0:2:6.217,485.39,27.4687,0,0.000885,0,0
0:2:6.412,485.804,27.4894,0,0.000885,0,0
0:2:6.614,486.386,27.5239,0,0.000885,0,0
0:2:6.807,487.387,27.579,0,0.000885,0,0
0:2:7.008,488.384,27.6342,0,0.000885,0,0
0:2:7.206,490.083,27.7307,0,0.000885,0,0
0:2:7.410,490.203,27.7376,0,0.000885,0,0
0:2:7.611,491.199,27.7928,0,0.000885,0,0
0:2:7.812,491.551,27.8135,0,0.000885,0,0
0:2:8.015,493.25,27.91,0,0.000885,0,0
0:2:8.216,494.073,27.9582,0,0.000885,0,0
0:2:8.417,494.954,28.0065,0,0.000885,0,0
0:2:8.618,495.479,28.041,0,0.000885,0,0
0:2:8.818,496.595,28.103,0,0.000885,0,0
0:2:9.019,497.534,28.1513,0,0.000885,0,0
0:2:9.218,498.881,28.234,0,0.000885,0,0
0:2:9.413,499.411,28.2616,0,0.000885,0,0
0:2:9.615,500.114,28.303,0,0.000885,0,0
0:2:9.830,500.701,28.3306,0,0.000885,0,0
0:2:10.029,502.284,28.4202,0,0.000885,0,0
0:2:10.228,503.281,28.4822,0,0.000885,0,0
0:2:10.424,503.632,28.5029,0,0.000885,0,0
0:2:10.625,503.806,28.5098,0,0.000885,0,0
0:2:10.818,505.567,28.6063,0,0.000885,0,0
0:2:11.016,506.27,28.6477,0,0.000885,0,0
0:2:11.217,507.738,28.7305,0,0.000885,0,0
0:2:11.420,507.738,28.7305,0,0.000885,0,0
0:2:11.624,509.264,28.8201,0,0.000885,0,0
0:2:11.816,510.26,28.8752,0,0.000885,0,0
0:2:12.024,510.905,28.9097,0,0.000885,0,0
0:2:12.225,511.256,28.9304,0,0.000885,0,0
0:2:12.430,512.604,29.0062,0,0.000885,0,0
0:2:12.631,513.485,29.0545,0,0.000885,0,0
0:2:12.832,514.481,29.1166,0,0.000885,0,0
0:2:13.035,515.184,29.151,0,0.000885,0,0
0:2:13.237,515.891,29.1924,0,0.000885,0,0
0:2:13.438,516.71,29.2407,0,0.000885,0,0
0:2:13.638,518.529,29.3441,0,0.000885,0,0
0:2:13.838,519.059,29.3717,0,0.000885,0,0
0:2:14.039,519.583,29.3992,0,0.000885,0,0
0:2:14.240,519.997,29.4268,0,0.000885,0,0
0:2:14.434,520.758,29.4682,0,0.000885,0,0
0:2:14.635,522.871,29.5854,0,0.000885,0,0
0:2:14.832,523.809,29.6406,0,0.000885,0,0
0:2:15.029,524.276,29.6681,0,0.000885,0,0
0:2:15.230,524.921,29.7026,0,0.000885,0,0
0:2:15.425,526.096,29.7716,0,0.000885,0,0
0:2:15.625,526.976,29.8198,0,0.000885,0,0
0:2:15.831,527.973,29.875,0,0.000885,0,0
0:2:16.027,527.679,29.8612,0,0.000885,0,0
0:2:16.228,529.321,29.9508,0,0.000885,0,0
0:2:16.423,529.85,29.9853,0,0.000885,0,0
0:2:16.621,530.726,30.0336,0,0.000885,0,0
0:2:16.818,531.491,30.0749,0,0.000885,0,0
0:2:17.013,532.252,30.1163,0,0.000885,0,0
0:2:17.215,533.604,30.199,0,0.000885,0,0
0:2:17.410,534.129,30.2266,0,0.000885,0,0
0:2:17.610,535.419,30.2956,0,0.000885,0,0
0:2:17.809,535.833,30.3231,0,0.000885,0,0
0:2:18.012,537.181,30.399,0,0.000885,0,0
0:2:18.213,537.941,30.4404,0,0.000885,0,0
0:2:18.414,538.938,30.4955,0,0.000885,0,0
0:2:18.615,539.467,30.53,0,0.000885,0,0
0:2:18.816,540.348,30.5782,0,0.000885,0,0
0:2:19.016,541.228,30.6265,0,0.000885,0,0
0:2:19.217,542.576,30.7024,0,0.000885,0,0
0:2:19.424,542.928,30.723,0,0.000885,0,0
0:2:19.620,544.396,30.8058,0,0.000885,0,0
0:2:19.819,544.978,30.8402,0,0.000885,0,0
0:2:20.014,546.153,30.9092,0,0.000885,0,0
0:2:20.214,547.033,30.9575,0,0.000885,0,0
0:2:20.420,548.323,31.0264,0,0.000885,0,0
0:2:20.618,548.559,31.0402,0,0.000885,0,0
0:2:20.817,549.907,31.116,0,0.000885,0,0
0:2:21.032,550.143,31.1298,0,0.000885,0,0
0:2:21.233,551.784,31.2264,0,0.000885,0,0
0:2:21.429,552.723,31.2746,0,0.000885,0,0
0:2:21.627,553.483,31.3229,0,0.000885,0,0
0:2:21.828,553.719,31.3367,0,0.000885,0,0
0:2:22.031,554.773,31.3918,0,0.000885,0,0
0:2:22.231,555.654,31.447,0,0.000885,0,0
0:2:22.428,556.593,31.4953,0,0.000885,0,0
0:2:22.622,558.412,31.5987,0,0.000885,0,0
0:2:22.825,558.706,31.6194,0,0.000885,0,0
0:2:23.027,559.466,31.6607,0,0.000885,0,0
0:2:23.229,560.169,31.7021,0,0.000885,0,0
0:2:23.430,561.637,31.7848,0,0.000885,0,0
0:2:23.631,561.93,31.7986,0,0.000885,0,0
0:2:23.832,562.398,31.8262,0,0.000885,0,0
0:2:24.031,563.105,31.8676,0,0.000885,0,0
0:2:24.232,564.982,31.971,0,0.000885,0,0
0:2:24.431,565.449,31.9986,0,0.000885,0,0
0:2:24.627,566.152,32.0399,0,0.000885,0,0
0:2:24.826,566.797,32.0744,0,0.000885,0,0
0:2:25.032,568.558,32.1709,0,0.000885,0,0
0:2:25.231,569.261,32.2123,0,0.000885,0,0
0:2:25.428,569.964,32.2537,0,0.000885,0,0
0:2:25.621,570.551,32.2881,0,0.000885,0,0
0:2:25.822,571.49,32.3364,0,0.000885,0,0
0:2:26.019,572.313,32.3847,0,0.000885,0,0
0:2:26.217,573.896,32.4743,0,0.000885,0,0
0:2:26.417,574.541,32.5157,0,0.000885,0,0
0:2:26.621,575.186,32.5501,0,0.000885,0,0
0:2:26.821,576.005,32.5984,0,0.000885,0,0
0:2:27.017,576.298,32.6122,0,0.000885,0,0
0:2:27.214,578.527,32.7363,0,0.000885,0,0
0:2:27.414,579.172,32.7777,0,0.000885,0,0
0:2:27.609,579.465,32.7915,0,0.000885,0,0
0:2:27.808,579.879,32.8121,0,0.000885,0,0
0:2:28.009,581.463,32.9018,0,0.000885,0,0
0:2:28.211,582.045,32.9363,0,0.000885,0,0
0:2:28.414,583.162,32.9983,0,0.000885,0,0
0:2:28.615,583.691,33.0328,0,0.000885,0,0
0:2:28.815,584.688,33.0879,0,0.000885,0,0
0:2:29.015,585.155,33.1155,0,0.000885,0,0
0:2:29.216,587.152,33.2258,0,0.000885,0,0
0:2:29.417,587.677,33.2534,0,0.000885,0,0
0:2:29.612,588.735,33.3155,0,0.000885,0,0
0:2:29.811,589.38,33.3499,0,0.000885,0,0
0:2:30.010,590.55,33.4189,0,0.000885,0,0
0:2:30.203,590.902,33.4396,0,0.000885,0,0
0:2:30.405,591.903,33.4947,0,0.000885,0,0
0:2:30.602,593.366,33.5775,0,0.000885,0,0
0:2:30.801,593.717,33.5982,0,0.000885,0,0
0:2:31.001,594.776,33.6602,0,0.000885,0,0
0:2:31.196,594.656,33.6533,0,0.000885,0,0
0:2:31.397,596.124,33.736,0,0.000885,0,0
0:2:31.597,597.063,33.7843,0,0.000885,0,0
0:2:31.793,598.237,33.8533,0,0.000885,0,0
0:2:31.995,598.53,33.867,0,0.000885,0,0
0:2:32.190,599.767,33.9429,0,0.000885,0,0
0:2:32.390,600.061,33.9567,0,0.000885,0,0
0:2:32.590,601.996,34.067,0,0.000885,0,0
0:2:32.787,602.819,34.1153,0,0.000885,0,0
0:2:32.989,603.993,34.1773,0,0.000885,0,0
0:2:33.190,604.166,34.1911,0,0.000885,0,0
0:2:33.393,604.874,34.2256,0,0.000885,0,0
0:2:33.596,605.576,34.2669,0,0.000885,0,0
0:2:33.798,607.28,34.3635,0,0.000885,0,0
0:2:33.999,607.925,34.4048,0,0.000885,0,0
0:2:34.201,609.215,34.4738,0,0.000885,0,0
0:2:34.401,609.273,34.4807,0,0.000885,0,0
0:2:34.602,610.154,34.5289,0,0.000885,0,0
0:2:34.797,611.386,34.5979,0,0.000885,0,0
0:2:34.998,612.093,34.6393,0,0.000885,0,0
0:2:35.196,613.619,34.722,0,0.000885,0,0
0:2:35.392,613.912,34.7427,0,0.000885,0,0
0:2:35.594,614.615,34.7772,0,0.000885,0,0
0:2:35.790,615.496,34.8323,0,0.000885,0,0
0:2:35.991,616.555,34.8875,0,0.000885,0,0
0:2:36.190,617.315,34.9357,0,0.000885,0,0
0:2:36.386,618.668,35.0116,0,0.000885,0,0
0:2:36.587,619.548,35.0598,0,0.000885,0,0
0:2:36.786,620.429,35.1081,0,0.000885,0,0
0:2:36.984,621.19,35.1495,0,0.000885,0,0
0:2:37.185,622.186,35.2115,0,0.000885,0,0
0:2:37.379,622.836,35.246,0,0.000885,0,0
0:2:37.579,623.129,35.2598,0,0.000885,0,0
0:2:37.781,624.713,35.3494,0,0.000885,0,0
0:2:37.984,625.473,35.3977,0,0.000885,0,0
0:2:38.188,626.296,35.4391,0,0.000885,0,0
0:2:38.388,626.941,35.4804,0,0.000885,0,0
0:2:38.590,627.586,35.5149,0,0.000885,0,0
0:2:38.791,628.409,35.5632,0,0.000885,0,0
0:2:38.992,629.877,35.6459,0,0.000885,0,0
0:2:39.194,630.522,35.6804,0,0.000885,0,0
0:2:39.389,631.754,35.7493,0,0.000885,0,0
0:2:39.590,632.519,35.7907,0,0.000885,0,0
0:2:39.789,632.991,35.8183,0,0.000885,0,0
0:2:39.985,633.574,35.8527,0,0.000885,0,0
0:2:40.188,634.868,35.9286,0,0.000885,0,0
0:2:40.384,635.629,35.9699,0,0.000885,0,0
0:2:40.581,637.332,36.0665,0,0.000885,0,0
0:2:40.781,638.155,36.1147,0,0.000885,0,0
0:2:40.978,639.272,36.1768,0,0.000885,0,0
0:2:41.180,639.797,36.2044,0,0.000885,0,0
0:2:41.377,641.029,36.2733,0,0.000885,0,0
0:2:41.575,641.558,36.3078,0,0.000885,0,0
0:2:41.775,641.91,36.3216,0,0.000885,0,0
0:2:41.971,643.377,36.4112,0,0.000885,0,0
0:2:42.171,643.849,36.4319,0,0.000885,0,0
0:2:42.370,644.61,36.4802,0,0.000885,0,0
0:2:42.566,645.081,36.5008,0,0.000885,0,0
0:2:42.768,646.02,36.556,0,0.000885,0,0
0:2:42.969,646.722,36.5974,0,0.000885,0,0
0:2:43.172,648.542,36.7008,0,0.000885,0,0
0:2:43.375,649.191,36.7353,0,0.000885,0,0
0:2:43.577,649.894,36.7766,0,0.000885,0,0
0:2:43.779,650.366,36.8042,0,0.000885,0,0
0:2:43.980,651.771,36.8801,0,0.000885,0,0
0:2:44.181,652.652,36.9352,0,0.000885,0,0
0:2:44.383,654.413,37.0317,0,0.000885,0,0
0:2:44.578,655.179,37.0731,0,0.000885,0,0
0:2:44.779,655.939,37.1214,0,0.000885,0,0
0:2:44.976,656.233,37.1352,0,0.000885,0,0
0:2:45.175,657.994,37.2317,0,0.000885,0,0
0:2:45.374,658.172,37.2455,0,0.000885,0,0
0:2:45.571,659.226,37.3075,0,0.000885,0,0
0:2:45.770,659.226,37.3075,0,0.000885,0,0
0:2:45.968,660.401,37.3696,0,0.000885,0,0
0:2:46.165,661.224,37.4178,0,0.000885,0,0
0:2:46.365,661.575,37.4385,0,0.000885,0,0
0:2:46.564,663.279,37.5351,0,0.000885,0,0
0:2:46.762,664.097,37.5833,0,0.000885,0,0
0:2:46.963,665.565,37.6661,0,0.000885,0,0
0:2:47.157,666.272,37.7005,0,0.000885,0,0
0:2:47.359,667.447,37.7695,0,0.000885,0,0
0:2:47.558,668.265,37.8177,0,0.000885,0,0
0:2:47.753,668.852,37.8522,0,0.000885,0,0
0:2:47.956,669.088,37.866,0,0.000885,0,0
0:2:48.159,670.498,37.9418,0,0.000885,0,0
0:2:48.362,670.85,37.9625,0,0.000885,0,0
0:2:48.564,672.197,38.0384,0,0.000885,0,0
0:2:48.766,672.963,38.0797,0,0.000885,0,0
0:2:48.968,674.373,38.1625,0,0.000885,0,0
0:2:49.169,674.666,38.1763,0,0.000885,0,0
0:2:49.370,675.956,38.2521,0,0.000885,0,0
0:2:49.570,676.486,38.2797,0,0.000885,0,0
0:2:49.767,677.718,38.3486,0,0.000885,0,0
0:2:49.969,678.247,38.3831,0,0.000885,0,0
0:2:50.165,679.008,38.4245,0,0.000885,0,0
0:2:50.363,679.595,38.459,0,0.000885,0,0
0:2:50.564,680.476,38.5072,0,0.000885,0,0
0:2:50.759,681.828,38.5831,0,0.000885,0,0
0:2:50.961,682.589,38.6244,0,0.000885,0,0
0:2:51.159,683.941,38.7003,0,0.000885,0,0
0:2:51.354,684.701,38.7485,0,0.000885,0,0
0:2:51.557,685.934,38.8175,0,0.000885,0,0
0:2:51.752,686.463,38.8451,0,0.000885,0,0
0:2:51.953,687.17,38.8864,0,0.000885,0,0
0:2:52.152,687.989,38.9347,0,0.000885,0,0
0:2:52.347,689.163,38.9967,0,0.000885,0,0
0:2:52.549,689.457,39.0174,0,0.000885,0,0
0:2:52.751,690.689,39.0864,0,0.000885,0,0
0:2:52.956,691.218,39.114,0,0.000885,0,0
0:2:53.159,692.45,39.1829,0,0.000885,0,0
0:2:53.360,693.095,39.2243,0,0.000885,0,0
0:2:53.563,694.683,39.3139,0,0.000885,0,0
0:2:53.763,697.148,39.4518,0,0.000885,0,0
0:2:53.963,698.789,39.5414,0,0.000885,0,0
0:2:54.165,699.203,39.569,0,0.000885,0,0
0:2:54.359,698.851,39.5483,0,0.000885,0,0
0:2:54.561,699.434,39.5828,0,0.000885,0,0
0:2:54.758,699.26,39.569,0,0.000885,0,0
0:2:54.956,700.435,39.638,0,0.000885,0,0
0:2:55.158,700.671,39.6517,0,0.000885,0,0
0:2:55.351,700.902,39.6655,0,0.000885,0,0
0:2:55.551,701.489,39.6931,0,0.000885,0,0
0:2:55.750,703.25,39.7965,0,0.000885,0,0
0:2:55.947,703.838,39.831,0,0.000885,0,0
0:2:56.149,705.07,39.9,0,0.000885,0,0
0:2:56.346,705.426,39.9206,0,0.000885,0,0
0:2:56.544,706.889,40.0034,0,0.000885,0,0
0:2:56.745,707.303,40.0241,0,0.000885,0,0
0:2:56.940,709.238,40.1344,0,0.000885,0,0
0:2:57.141,709.767,40.162,0,0.000885,0,0
0:2:57.338,710.826,40.224,0,0.000885,0,0
0:2:57.536,711.409,40.2585,0,0.000885,0,0
0:2:57.738,712.467,40.3205,0,0.000885,0,0
0:2:57.939,713.112,40.355,0,0.000885,0,0
0:2:58.142,714.816,40.4515,0,0.000885,0,0
0:2:58.345,715.283,40.4791,0,0.000885,0,0
0:2:58.547,716.399,40.5412,0,0.000885,0,0
0:2:58.748,717.107,40.5825,0,0.000885,0,0
0:2:58.950,718.455,40.6584,0,0.000885,0,0
0:2:59.151,718.864,40.6791,0,0.000885,0,0
0:2:59.351,719.922,40.7411,0,0.000885,0,0
0:2:59.547,721.155,40.8101,0,0.000885,0,0
0:2:59.749,721.857,40.8514,0,0.000885,0,0
0:2:59.945,722.68,40.8928,0,0.000885,0,0
0:3:0.145,723.388,40.9342,0,0.000885,0,0
0:3:0.346,724.5,40.9962,0,0.000885,0,0
0:3:0.539,725.087,41.0307,0,0.000885,0,0
0:3:0.741,725.732,41.0652,0,0.000885,0,0
0:3:0.937,726.261,41.0996,0,0.000885,0,0
0:3:1.137,727.32,41.1548,0,0.000885,0,0
0:3:1.338,728.374,41.2169,0,0.000885,0,0
0:3:1.533,729.255,41.2651,0,0.000885,0,0
0:3:1.733,730.078,41.3134,0,0.000885,0,0
0:3:1.931,731.074,41.3685,0,0.000885,0,0
0:3:2.126,731.546,41.3961,0,0.000885,0,0
0:3:2.330,732.248,41.4375,0,0.000885,0,0
0:3:2.524,733.481,41.5064,0,0.000885,0,0
0:3:2.722,734.419,41.5616,0,0.000885,0,0
0:3:2.923,735.651,41.6305,0,0.000885,0,0
0:3:3.129,736.416,41.6719,0,0.000885,0,0
0:3:3.331,737.119,41.7133,0,0.000885,0,0
0:3:3.533,737.649,41.7409,0,0.000885,0,0
0:3:3.735,739.117,41.8236,0,0.000885,0,0
0:3:3.935,739.704,41.8581,0,0.000885,0,0
0:3:4.137,740.642,41.9132,0,0.000885,0,0
0:3:4.338,741.523,41.9615,0,0.000885,0,0
0:3:4.538,742.226,42.0029,0,0.000885,0,0
0:3:4.736,743.107,42.0511,0,0.000885,0,0
0:3:4.938,744.281,42.1201,0,0.000885,0,0
0:3:5.132,745.162,42.1683,0,0.000885,0,0
0:3:5.333,746.1,42.2235,0,0.000885,0,0
0:3:5.533,746.807,42.258,0,0.000885,0,0
0:3:5.726,747.452,42.2993,0,0.000885,0,0
0:3:5.930,748.569,42.3614,0,0.000885,0,0
0:3:6.136,749.387,42.4097,0,0.000885,0,0
0:3:6.334,750.388,42.4648,0,0.000885,0,0
0:3:6.535,751.091,42.5062,0,0.000885,0,0
0:3:6.731,751.563,42.5269,0,0.000885,0,0
0:3:6.933,752.559,42.5889,0,0.000885,0,0
0:3:7.129,752.91,42.6027,0,0.000885,0,0
0:3:7.324,753.791,42.6579,0,0.000885,0,0
0:3:7.526,755.023,42.7268,0,0.000885,0,0
0:3:7.730,755.553,42.7544,0,0.000885,0,0
0:3:7.933,756.491,42.8095,0,0.000885,0,0
0:3:8.136,756.785,42.8233,0,0.000885,0,0
0:3:8.337,758.195,42.9061,0,0.000885,0,0
0:3:8.539,758.546,42.9268,0,0.000885,0,0
0:3:8.739,759.894,43.0026,0,0.000885,0,0
0:3:8.942,760.13,43.0164,0,0.000885,0,0
0:3:9.142,761.656,43.0991,0,0.000885,0,0
0:3:9.337,762.421,43.1474,0,0.000885,0,0
0:3:9.539,762.83,43.1681,0,0.000885,0,0
0:3:9.736,762.888,43.1681,0,0.000885,0,0
0:3:9.935,764.062,43.237,0,0.000885,0,0
0:3:10.134,764.062,43.237,0,0.000885,0,0
0:3:10.327,765.708,43.3335,0,0.000885,0,0
0:3:10.530,765.824,43.3335,0,0.000885,0,0
0:3:10.726,766.998,43.4025,0,0.000885,0,0
0:3:10.925,767.176,43.4163,0,0.000885,0,0
0:3:11.126,768.408,43.4852,0,0.000885,0,0
0:3:11.321,769.231,43.5266,0,0.000885,0,0
0:3:11.520,769.698,43.5542,0,0.000885,0,0
0:3:11.730,770.637,43.6093,0,0.000885,0,0
0:3:11.926,770.757,43.6162,0,0.000885,0,0
0:3:12.127,770.699,43.6093,0,0.000885,0,0
0:3:12.333,770.463,43.6024,0,0.000885,0,0
0:3:12.533,770.343,43.5956,0,0.000885,0,0
0:3:12.734,770.285,43.5887,0,0.000885,0,0
0:3:12.937,770.637,43.6093,0,0.000885,0,0
0:3:13.139,770.93,43.6231,0,0.000885,0,0
0:3:13.341,771.224,43.6438,0,0.000885,0,0
0:3:13.541,770.93,43.6231,0,0.000885,0,0
0:3:13.741,770.285,43.5887,0,0.000885,0,0
0:3:13.942,769.462,43.5404,0,0.000885,0,0
0:3:14.144,766.762,43.3887,0,0.000885,0,0
0:3:14.341,765.063,43.2922,0,0.000885,0,0
0:3:14.538,761.424,43.0853,0,0.000885,0,0
0:3:14.739,759.663,42.9888,0,0.000885,0,0
0:3:14.934,756.433,42.8027,0,0.000885,0,0
0:3:15.136,754.494,42.6923,0,0.000885,0,0
0:3:15.332,749.681,42.4234,0,0.000885,0,0
0:3:15.527,746.572,42.2442,0,0.000885,0,0
0:3:15.730,739.588,41.8512,0,0.000885,0,0
0:3:15.933,734.539,41.5685,0,0.000885,0,0
0:3:16.134,721.92,40.8514,0,0.000885,0,0
0:3:16.333,713.17,40.355,0,0.000885,0,0
0:3:16.527,700.728,39.6517,0,0.000885,0,0
0:3:16.727,666.682,37.7281,0,0.000885,0,0
0:3:16.924,645.49,36.5284,0,0.000885,0,0
0:3:17.120,580.053,32.8259,0,0.000885,0,0
0:3:17.212,580.053,32.8259,0,0.000885,0,0