File: DataFile2021-06-07_045215.csv
Test ID:,Date Tested:,Time:,Test Type:,Diameter Avg. (mm):,Cyl. Corr. Factor:,Height (mm):,Age (days):,Weight (kN):,Break Type:,Ramp Rate (MPa/s):,Load at Break (kN):,Stress at Break (MPa):
12,6/7/2021,04:52,Cylinder,100,1,200,0,3.6,3,0.25,655.77,83.5
Sample Time,Load (kN),Stress (MPa),Long. Strain,Trans. Strain,Chan1 Deflection (mm),Chan2 Deflection (mm)
0:0:12.801,5.04428,0.641212,0,0.000885,0,0
0:0:13.102,6.97926,0.889424,0,0.000885,0,0
0:0:13.420,8.505,1.08248,0,0.000885,0,0
0:0:13.718,7.68208,0.979056,0,0.000885,0,0
0:0:14.017,7.97566,1.01353,0,0.000885,0,0
0:0:14.313,8.62065,1.09627,0,0.000885,0,0
0:0:14.613,8.67848,1.10316,0,0.000885,0,0
0:0:14.907,9.03434,1.15142,0,0.000885,0,0
0:0:15.207,9.96846,1.26864,0,0.000885,0,0
0:0:15.516,10.44,1.33069,0,0.000885,0,0
0:0:15.809,10.262,1.31,0,0.000885,0,0
0:0:16.114,12.2015,1.55132,0,0.000885,0,0
0:0:16.418,11.7878,1.50306,0,0.000885,0,0
0:0:16.718,12.2593,1.55822,0,0.000885,0,0
0:0:17.015,13.4915,1.71679,0,0.000885,0,0
0:0:17.314,12.9621,1.64785,0,0.000885,0,0
0:0:17.613,14.6613,1.86848,0,0.000885,0,0
0:0:17.906,14.6613,1.86848,0,0.000885,0,0
0:0:18.207,15.075,1.91674,0,0.000885,0,0
0:0:18.513,15.72,1.99948,0,0.000885,0,0
0:0:18.817,16.3027,2.07532,0,0.000885,0,0
0:0:19.119,17.1257,2.17874,0,0.000885,0,0
0:0:19.422,17.8863,2.27527,0,0.000885,0,0
0:0:19.723,18.5936,2.3649,0,0.000885,0,0
0:0:20.020,18.767,2.39248,0,0.000885,0,0
0:0:20.324,19.8257,2.52348,0,0.000885,0,0
0:0:20.620,20.702,2.6338,0,0.000885,0,0
0:0:20.919,20.88,2.66138,0,0.000885,0,0
0:0:21.217,21.7029,2.7648,0,0.000885,0,0
0:0:21.523,22.4635,2.86132,0,0.000885,0,0
0:0:21.824,23.0507,2.93717,0,0.000885,0,0
0:0:22.118,23.5177,2.99232,0,0.000885,0,0
0:0:22.421,23.8692,3.04059,0,0.000885,0,0
0:0:22.718,24.3407,3.09575,0,0.000885,0,0
0:0:23.017,25.8664,3.29569,0,0.000885,0,0
0:0:23.316,26.0399,3.31638,0,0.000885,0,0
0:0:23.619,26.6271,3.39222,0,0.000885,0,0
0:0:23.922,27.2142,3.46806,0,0.000885,0,0
0:0:24.225,27.6235,3.51633,0,0.000885,0,0
0:0:24.527,28.6199,3.64733,0,0.000885,0,0
0:0:24.830,29.3271,3.73696,0,0.000885,0,0
0:0:25.125,29.9098,3.80591,0,0.000885,0,0
0:0:25.427,29.852,3.79901,0,0.000885,0,0
0:0:25.722,30.7328,3.91622,0,0.000885,0,0
0:0:26.024,31.2621,3.97827,0,0.000885,0,0
0:0:26.320,31.6713,4.03343,0,0.000885,0,0
0:0:26.620,32.7256,4.16443,0,0.000885,0,0
0:0:26.920,33.1393,4.21959,0,0.000885,0,0
0:0:27.214,33.8421,4.30922,0,0.000885,0,0
0:0:27.516,34.3091,4.37128,0,0.000885,0,0
0:0:27.822,34.4871,4.39196,0,0.000885,0,0
0:0:28.125,35.0164,4.46091,0,0.000885,0,0
0:0:28.430,35.8349,4.56433,0,0.000885,0,0
0:0:28.733,37.067,4.72291,0,0.000885,0,0
0:0:29.036,37.1827,4.7367,0,0.000885,0,0
0:0:29.339,37.3606,4.75738,0,0.000885,0,0
0:0:29.638,38.2414,4.8677,0,0.000885,0,0
0:0:29.938,38.5928,4.91596,0,0.000885,0,0
0:0:30.234,39.0598,4.97112,0,0.000885,0,0
0:0:30.536,39.7671,5.06075,0,0.000885,0,0
0:0:30.831,40.3498,5.13659,0,0.000885,0,0
0:0:31.131,41.3507,5.26759,0,0.000885,0,0
0:0:31.430,41.9334,5.33654,0,0.000885,0,0
0:0:31.726,42.3471,5.3917,0,0.000885,0,0
0:0:32.028,42.5784,5.41928,0,0.000885,0,0
0:0:32.323,42.9921,5.47444,0,0.000885,0,0
0:0:32.625,44.1041,5.61233,0,0.000885,0,0
0:0:32.922,44.5178,5.66749,0,0.000885,0,0
0:0:33.224,44.8692,5.71575,0,0.000885,0,0
0:0:33.530,45.8656,5.83986,0,0.000885,0,0
0:0:33.832,46.5684,5.92949,0,0.000885,0,0
0:0:34.134,47.2134,6.01223,0,0.000885,0,0
0:0:34.438,48.152,6.12944,0,0.000885,0,0
0:0:34.737,48.6191,6.19149,0,0.000885,0,0
0:0:35.034,48.7392,6.20528,0,0.000885,0,0
0:0:35.332,49.7356,6.32939,0,0.000885,0,0
0:0:35.632,49.9135,6.35697,0,0.000885,0,0
0:0:35.927,50.4384,6.41902,0,0.000885,0,0
0:0:36.230,50.6741,6.45349,0,0.000885,0,0
0:0:36.527,51.377,6.54312,0,0.000885,0,0
0:0:36.824,52.4356,6.67413,0,0.000885,0,0
0:0:37.125,53.3698,6.79823,0,0.000885,0,0
0:0:37.420,53.7256,6.8396,0,0.000885,0,0
0:0:37.723,53.8991,6.86028,0,0.000885,0,0
0:0:38.018,54.6642,6.95681,0,0.000885,0,0
0:0:38.322,55.2469,7.03265,0,0.000885,0,0
0:0:38.626,55.7184,7.09471,0,0.000885,0,0
0:0:38.930,56.2478,7.16365,0,0.000885,0,0
0:0:39.232,56.7148,7.21881,0,0.000885,0,0
0:0:39.534,57.8892,7.3705,0,0.000885,0,0
0:0:39.837,58.1205,7.39807,0,0.000885,0,0
0:0:40.133,59.1213,7.52907,0,0.000885,0,0
0:0:40.433,59.5305,7.57734,0,0.000885,0,0
0:0:40.732,60.2334,7.66697,0,0.000885,0,0
0:0:41.027,60.7049,7.72902,0,0.000885,0,0
0:0:41.329,61.2876,7.80487,0,0.000885,0,0
0:0:41.627,61.8748,7.88071,0,0.000885,0,0
0:0:41.925,62.2262,7.92208,0,0.000885,0,0
0:0:42.226,63.3427,8.06687,0,0.000885,0,0
0:0:42.521,63.4005,8.07376,0,0.000885,0,0
0:0:42.824,63.872,8.12892,0,0.000885,0,0
0:0:43.119,64.1656,8.17029,0,0.000885,0,0
0:0:43.421,64.9262,8.26681,0,0.000885,0,0
0:0:43.727,65.9226,8.39092,0,0.000885,0,0
0:0:44.030,66.3942,8.45297,0,0.000885,0,0
0:0:44.333,67.2126,8.55639,0,0.000885,0,0
0:0:44.634,67.3327,8.57018,0,0.000885,0,0
0:0:44.937,68.854,8.77013,0,0.000885,0,0
0:0:45.234,69.2677,8.81839,0,0.000885,0,0
0:0:45.531,69.5613,8.85976,0,0.000885,0,0
0:0:45.833,70.0284,8.91492,0,0.000885,0,0
0:0:46.127,70.4999,8.97697,0,0.000885,0,0
0:0:46.429,71.0826,9.05282,0,0.000885,0,0
0:0:46.726,71.9055,9.15624,0,0.000885,0,0
0:0:47.025,72.3726,9.21829,0,0.000885,0,0
0:0:47.325,73.0798,9.30792,0,0.000885,0,0
0:0:47.620,73.1955,9.32171,0,0.000885,0,0
0:0:47.923,73.9561,9.41824,0,0.000885,0,0
0:0:48.220,74.8947,9.53545,0,0.000885,0,0
0:0:48.524,75.3662,9.5975,0,0.000885,0,0
0:0:48.827,75.6598,9.63198,0,0.000885,0,0
0:0:49.131,76.4783,9.7354,0,0.000885,0,0
0:0:49.433,76.892,9.79056,0,0.000885,0,0
0:0:49.736,77.2434,9.83192,0,0.000885,0,0
0:0:50.036,78.1241,9.94913,0,0.000885,0,0
0:0:50.337,78.8269,10.0388,0,0.000885,0,0
0:0:50.631,79.0004,10.0595,0,0.000885,0,0
0:0:50.934,80.0013,10.1836,0,0.000885,0,0
0:0:51.231,80.7041,10.2732,0,0.000885,0,0
0:0:51.530,81.0555,10.3215,0,0.000885,0,0
0:0:51.828,81.9941,10.4387,0,0.000885,0,0
0:0:52.126,82.3455,10.4869,0,0.000885,0,0
0:0:52.427,82.6969,10.5283,0,0.000885,0,0
0:0:52.721,83.5198,10.6317,0,0.000885,0,0
0:0:53.023,84.3961,10.7489,0,0.000885,0,0
0:0:53.321,84.9254,10.811,0,0.000885,0,0
0:0:53.625,85.397,10.873,0,0.000885,0,0
0:0:53.928,86.042,10.9558,0,0.000885,0,0
0:0:54.232,86.5668,11.0247,0,0.000885,0,0
0:0:54.533,86.9805,11.073,0,0.000885,0,0
0:0:54.836,87.3898,11.1281,0,0.000885,0,0
0:0:55.133,88.3862,11.2522,0,0.000885,0,0
0:0:55.436,89.0312,11.335,0,0.000885,0,0
0:0:55.730,89.5027,11.397,0,0.000885,0,0
0:0:56.032,89.9697,11.4522,0,0.000885,0,0
0:0:56.329,90.379,11.5073,0,0.000885,0,0
0:0:56.629,90.9083,11.5763,0,0.000885,0,0
0:0:56.927,91.7312,11.6797,0,0.000885,0,0
0:0:57.224,92.7855,11.8107,0,0.000885,0,0
0:0:57.527,93.2525,11.8728,0,0.000885,0,0
0:0:57.822,93.5461,11.9141,0,0.000885,0,0
0:0:58.123,94.0754,11.9762,0,0.000885,0,0
0:0:58.429,94.4268,12.0245,0,0.000885,0,0
0:0:58.733,95.3654,12.1417,0,0.000885,0,0
0:0:59.034,95.7747,12.1968,0,0.000885,0,0
0:0:59.337,96.5976,12.3002,0,0.000885,0,0
0:0:59.640,97.3004,12.3899,0,0.000885,0,0
0:0:59.935,97.4783,12.4106,0,0.000885,0,0
0:1:0.235,98.3591,12.5209,0,0.000885,0,0
0:1:0.533,98.884,12.5898,0,0.000885,0,0
0:1:0.830,99.529,12.6726,0,0.000885,0,0
0:1:1.132,99.9426,12.7277,0,0.000885,0,0
0:1:1.428,100.468,12.7898,0,0.000885,0,0
0:1:1.730,100.761,12.8311,0,0.000885,0,0
0:1:2.028,101.17,12.8794,0,0.000885,0,0
0:1:2.325,102.287,13.0242,0,0.000885,0,0
0:1:2.626,102.523,13.0518,0,0.000885,0,0
0:1:2.922,103.692,13.2035,0,0.000885,0,0
0:1:3.224,104.28,13.2793,0,0.000885,0,0
0:1:3.530,104.867,13.3551,0,0.000885,0,0
0:1:3.832,104.982,13.3689,0,0.000885,0,0
0:1:4.136,106.041,13.4999,0,0.000885,0,0
0:1:4.436,106.335,13.5413,0,0.000885,0,0
0:1:4.739,106.86,13.6034,0,0.000885,0,0
0:1:5.034,107.976,13.7481,0,0.000885,0,0
0:1:5.334,108.385,13.8033,0,0.000885,0,0
0:1:5.632,109.502,13.9412,0,0.000885,0,0
0:1:5.931,109.56,13.9481,0,0.000885,0,0
0:1:6.231,110.089,14.017,0,0.000885,0,0
0:1:6.527,110.672,14.0929,0,0.000885,0,0
0:1:6.828,111.437,14.1894,0,0.000885,0,0
0:1:7.125,111.788,14.2308,0,0.000885,0,0
0:1:7.424,112.375,14.3066,0,0.000885,0,0
0:1:7.723,112.9,14.3756,0,0.000885,0,0
0:1:8.019,113.02,14.3894,0,0.000885,0,0
0:1:8.320,113.723,14.479,0,0.000885,0,0
0:1:8.625,114.31,14.5548,0,0.000885,0,0
0:1:8.930,115.249,14.672,0,0.000885,0,0
0:1:9.231,115.485,14.7065,0,0.000885,0,0
0:1:9.533,116.361,14.8168,0,0.000885,0,0
0:1:9.836,117.242,14.9271,0,0.000885,0,0
0:1:10.132,117.771,14.9961,0,0.000885,0,0
0:1:10.434,118.652,15.1064,0,0.000885,0,0
0:1:10.729,118.825,15.1271,0,0.000885,0,0
0:1:11.029,119.235,15.1823,0,0.000885,0,0
0:1:11.329,120.293,15.3133,0,0.000885,0,0
0:1:11.625,120.76,15.3753,0,0.000885,0,0
0:1:11.926,121.463,15.4649,0,0.000885,0,0
0:1:12.223,121.935,15.527,0,0.000885,0,0
0:1:12.523,121.699,15.4925,0,0.000885,0,0
0:1:12.821,122.931,15.6511,0,0.000885,0,0
0:1:13.122,123.812,15.7614,0,0.000885,0,0
0:1:13.428,124.63,15.8717,0,0.000885,0,0
0:1:13.729,124.63,15.8717,0,0.000885,0,0
0:1:14.033,125.925,16.0303,0,0.000885,0,0
0:1:14.335,126.276,16.0786,0,0.000885,0,0
0:1:14.634,126.334,16.0855,0,0.000885,0,0
0:1:14.933,126.801,16.1475,0,0.000885,0,0
0:1:15.228,127.566,16.244,0,0.000885,0,0
0:1:15.531,128.736,16.3888,0,0.000885,0,0
0:1:15.827,128.62,16.375,0,0.000885,0,0
0:1:16.127,129.207,16.4509,0,0.000885,0,0
0:1:16.424,129.91,16.5405,0,0.000885,0,0
0:1:16.724,131.085,16.6922,0,0.000885,0,0
0:1:17.023,130.907,16.6646,0,0.000885,0,0
0:1:17.315,131.142,16.6991,0,0.000885,0,0
0:1:17.620,132.023,16.8094,0,0.000885,0,0
0:1:17.912,132.61,16.8853,0,0.000885,0,0
0:1:18.214,133.549,17.0025,0,0.000885,0,0
0:1:18.523,134.252,17.0921,0,0.000885,0,0
0:1:18.826,135.07,17.1955,0,0.000885,0,0
0:1:19.128,135.364,17.2369,0,0.000885,0,0
0:1:19.431,135.715,17.2783,0,0.000885,0,0
0:1:19.733,136.245,17.3472,0,0.000885,0,0
0:1:20.030,137.241,17.4713,0,0.000885,0,0
0:1:20.328,137.592,17.5196,0,0.000885,0,0
0:1:20.628,138.237,17.6023,0,0.000885,0,0
0:1:20.923,139.118,17.7126,0,0.000885,0,0
0:1:21.225,139.59,17.7747,0,0.000885,0,0
0:1:21.516,139.821,17.8023,0,0.000885,0,0
0:1:21.820,140.115,17.8367,0,0.000885,0,0
0:1:22.127,140.586,17.8988,0,0.000885,0,0
0:1:22.425,142.05,18.0849,0,0.000885,0,0
0:1:22.724,142.695,18.1677,0,0.000885,0,0
0:1:23.021,143.344,18.2504,0,0.000885,0,0
0:1:23.325,143.46,18.2642,0,0.000885,0,0
0:1:23.628,144.162,18.3538,0,0.000885,0,0
0:1:23.932,144.807,18.4366,0,0.000885,0,0
0:1:24.234,145.452,18.5193,0,0.000885,0,0
0:1:24.535,146.04,18.5952,0,0.000885,0,0
0:1:24.838,146.8,18.6917,0,0.000885,0,0
0:1:25.132,146.627,18.671,0,0.000885,0,0
0:1:25.432,147.33,18.7606,0,0.000885,0,0
0:1:25.731,147.975,18.8434,0,0.000885,0,0
0:1:26.029,148.504,18.9054,0,0.000885,0,0
0:1:26.331,149.852,19.0778,0,0.000885,0,0
0:1:26.626,150.323,19.1398,0,0.000885,0,0
0:1:26.926,150.675,19.1812,0,0.000885,0,0
0:1:27.224,151.142,19.2433,0,0.000885,0,0
0:1:27.521,151.787,19.326,0,0.000885,0,0
0:1:27.822,152.783,19.4501,0,0.000885,0,0
0:1:28.117,153.197,19.5053,0,0.000885,0,0
0:1:28.421,153.37,19.526,0,0.000885,0,0
0:1:28.727,153.957,19.6018,0,0.000885,0,0
0:1:29.030,154.838,19.7121,0,0.000885,0,0
0:1:29.333,155.95,19.8569,0,0.000885,0,0
0:1:29.634,156.537,19.9327,0,0.000885,0,0
0:1:29.936,156.715,19.9534,0,0.000885,0,0
0:1:30.230,157.067,20.0017,0,0.000885,0,0
0:1:30.533,157.596,20.0637,0,0.000885,0,0
0:1:30.829,158.472,20.1741,0,0.000885,0,0
0:1:31.127,159.237,20.2775,0,0.000885,0,0
0:1:31.427,159.531,20.312,0,0.000885,0,0
0:1:31.723,159.825,20.3464,0,0.000885,0,0
0:1:32.025,160.47,20.4292,0,0.000885,0,0
0:1:32.329,161.582,20.574,0,0.000885,0,0
0:1:32.631,161.933,20.6153,0,0.000885,0,0
0:1:32.928,162.52,20.6912,0,0.000885,0,0
0:1:33.231,162.872,20.7394,0,0.000885,0,0
0:1:33.534,163.401,20.8015,0,0.000885,0,0
0:1:33.838,164.046,20.8842,0,0.000885,0,0
0:1:34.139,164.749,20.9739,0,0.000885,0,0
0:1:34.443,165.63,21.0911,0,0.000885,0,0
0:1:34.742,166.159,21.1531,0,0.000885,0,0
0:1:35.042,166.39,21.1876,0,0.000885,0,0
0:1:35.338,166.742,21.229,0,0.000885,0,0
0:1:35.640,167.742,21.36,0,0.000885,0,0
0:1:35.936,168.619,21.4703,0,0.000885,0,0
0:1:36.236,169.264,21.553,0,0.000885,0,0
0:1:36.534,169.851,21.6289,0,0.000885,0,0
0:1:36.831,170.202,21.6702,0,0.000885,0,0
0:1:37.134,170.91,21.7599,0,0.000885,0,0
0:1:37.428,171.492,21.8357,0,0.000885,0,0
0:1:37.730,172.315,21.9391,0,0.000885,0,0
0:1:38.027,172.845,22.0081,0,0.000885,0,0
0:1:38.331,173.138,22.0425,0,0.000885,0,0
0:1:38.635,173.605,22.1046,0,0.000885,0,0
0:1:38.938,174.25,22.1873,0,0.000885,0,0
0:1:39.240,174.135,22.1735,0,0.000885,0,0
0:1:39.541,175.367,22.3252,0,0.000885,0,0
0:1:39.841,175.482,22.3459,0,0.000885,0,0
0:1:40.141,176.537,22.4769,0,0.000885,0,0
0:1:40.436,176.95,22.5321,0,0.000885,0,0
0:1:40.738,177.417,22.5872,0,0.000885,0,0
0:1:41.033,178.12,22.6769,0,0.000885,0,0
0:1:41.335,178.943,22.7803,0,0.000885,0,0
0:1:41.631,179.646,22.8699,0,0.000885,0,0
0:1:41.931,180.055,22.9251,0,0.000885,0,0
0:1:42.231,180.82,23.0216,0,0.000885,0,0
0:1:42.527,181.35,23.0905,0,0.000885,0,0
0:1:42.828,181.523,23.1112,0,0.000885,0,0
0:1:43.124,182.871,23.2836,0,0.000885,0,0
0:1:43.427,183.222,23.3319,0,0.000885,0,0
0:1:43.733,183.752,23.3939,0,0.000885,0,0
0:1:44.036,184.454,23.4835,0,0.000885,0,0
0:1:44.338,184.806,23.5318,0,0.000885,0,0
0:1:44.641,185.277,23.587,0,0.000885,0,0
0:1:44.943,186.274,23.718,0,0.000885,0,0
0:1:45.239,186.332,23.7249,0,0.000885,0,0
0:1:45.538,187.506,23.8765,0,0.000885,0,0
0:1:45.838,187.973,23.9317,0,0.000885,0,0
0:1:46.132,188.093,23.9455,0,0.000885,0,0
0:1:46.434,188.738,24.0282,0,0.000885,0,0
0:1:46.730,189.205,24.0903,0,0.000885,0,0
0:1:47.031,190.437,24.2489,0,0.000885,0,0
0:1:47.327,190.557,24.2627,0,0.000885,0,0
0:1:47.625,191.26,24.3523,0,0.000885,0,0
0:1:47.926,191.785,24.4212,0,0.000885,0,0
0:1:48.231,191.905,24.435,0,0.000885,0,0
0:1:48.533,193.431,24.6281,0,0.000885,0,0
0:1:48.834,193.84,24.6832,0,0.000885,0,0
0:1:49.133,193.84,24.6832,0,0.000885,0,0
0:1:49.432,194.894,24.8142,0,0.000885,0,0
0:1:49.728,195.424,24.8832,0,0.000885,0,0
0:1:50.027,196.247,24.9866,0,0.000885,0,0
0:1:50.318,196.714,25.0487,0,0.000885,0,0
0:1:50.618,196.892,25.0693,0,0.000885,0,0
0:1:50.913,197.83,25.1865,0,0.000885,0,0
0:1:51.209,198.707,25.2969,0,0.000885,0,0
0:1:51.514,199.12,25.352,0,0.000885,0,0
0:1:51.807,199.529,25.4072,0,0.000885,0,0
0:1:52.108,200.232,25.4968,0,0.000885,0,0
0:1:52.409,200.935,25.5864,0,0.000885,0,0
0:1:52.708,201.171,25.614,0,0.000885,0,0
0:1:53.013,201.931,25.7105,0,0.000885,0,0
0:1:53.315,202.225,25.745,0,0.000885,0,0
0:1:53.618,202.754,25.814,0,0.000885,0,0
0:1:53.922,203.515,25.9105,0,0.000885,0,0
0:1:54.220,203.987,25.9726,0,0.000885,0,0
0:1:54.519,205.099,26.1173,0,0.000885,0,0
0:1:54.816,205.334,26.1449,0,0.000885,0,0
0:1:55.113,205.57,26.1725,0,0.000885,0,0
0:1:55.408,206.624,26.3104,0,0.000885,0,0
0:1:55.707,207.212,26.3862,0,0.000885,0,0
0:1:56.010,207.389,26.4069,0,0.000885,0,0
0:1:56.318,208.501,26.5448,0,0.000885,0,0
0:1:56.626,208.679,26.5724,0,0.000885,0,0
0:1:56.918,209.498,26.6758,0,0.000885,0,0
0:1:57.218,210.321,26.7792,0,0.000885,0,0
0:1:57.510,210.788,26.8413,0,0.000885,0,0
0:1:57.809,211.202,26.8896,0,0.000885,0,0
0:1:58.104,211.259,26.8964,0,0.000885,0,0
0:1:58.405,212.549,27.0619,0,0.000885,0,0
0:1:58.709,212.901,27.1102,0,0.000885,0,0
0:1:59.012,213.372,27.1653,0,0.000885,0,0
0:1:59.311,213.955,27.2412,0,0.000885,0,0
0:1:59.612,215.539,27.4411,0,0.000885,0,0
0:1:59.910,215.832,27.4825,0,0.000885,0,0
0:2:0.205,216.539,27.5721,0,0.000885,0,0
0:2:0.510,217.064,27.6342,0,0.000885,0,0
0:2:0.809,217.416,27.6825,0,0.000885,0,0
0:2:1.120,218.181,27.779,0,0.000885,0,0
0:2:1.423,218.474,27.8135,0,0.000885,0,0
0:2:1.715,219.062,27.8893,0,0.000885,0,0
0:2:2.020,219.351,27.9307,0,0.000885,0,0
0:2:2.329,219.822,27.9858,0,0.000885,0,0
0:2:2.623,220.645,28.0961,0,0.000885,0,0
0:2:2.920,220.997,28.1375,0,0.000885,0,0
0:2:3.225,221.699,28.2271,0,0.000885,0,0
0:2:3.525,222.229,28.2961,0,0.000885,0,0
0:2:3.828,222.754,28.365,0,0.000885,0,0
0:2:4.129,223.692,28.4822,0,0.000885,0,0
0:2:4.431,223.87,28.5029,0,0.000885,0,0
0:2:4.730,224.924,28.6408,0,0.000885,0,0
0:2:5.029,225.511,28.7098,0,0.000885,0,0
0:2:5.326,225.685,28.7373,0,0.000885,0,0
0:2:5.620,226.566,28.8477,0,0.000885,0,0
0:2:5.919,227.446,28.958,0,0.000885,0,0
0:2:6.220,227.562,28.9718,0,0.000885,0,0
0:2:6.521,228.443,29.089,0,0.000885,0,0
0:2:6.826,228.972,29.151,0,0.000885,0,0
0:2:7.125,229.266,29.1924,0,0.000885,0,0
0:2:7.419,230.147,29.3027,0,0.000885,0,0
0:2:7.727,230.671,29.3717,0,0.000885,0,0
0:2:8.025,231.437,29.4682,0,0.000885,0,0
0:2:8.327,231.61,29.4889,0,0.000885,0,0
0:2:8.627,232.139,29.5578,0,0.000885,0,0
0:2:8.928,232.842,29.6475,0,0.000885,0,0
0:2:9.228,233.781,29.7647,0,0.000885,0,0
0:2:9.528,233.839,29.7716,0,0.000885,0,0
0:2:9.832,235.013,29.9232,0,0.000885,0,0
0:2:10.133,235.836,30.0267,0,0.000885,0,0
0:2:10.425,236.245,30.0818,0,0.000885,0,0
0:2:10.721,236.361,30.0956,0,0.000885,0,0
0:2:11.018,237.006,30.1784,0,0.000885,0,0
0:2:11.324,237.886,30.2887,0,0.000885,0,0
0:2:11.620,238.941,30.4197,0,0.000885,0,0
0:2:11.915,239.528,30.4955,0,0.000885,0,0
0:2:12.215,240.057,30.5645,0,0.000885,0,0
0:2:12.508,240.173,30.5782,0,0.000885,0,0
0:2:12.813,240.996,30.6817,0,0.000885,0,0
0:2:13.112,241.699,30.7713,0,0.000885,0,0
0:2:13.413,241.756,30.7782,0,0.000885,0,0
0:2:13.715,242.459,30.8678,0,0.000885,0,0
0:2:14.016,242.931,30.9299,0,0.000885,0,0
0:2:14.315,243.046,30.9437,0,0.000885,0,0
0:2:14.615,244.399,31.116,0,0.000885,0,0
0:2:14.911,244.808,31.1712,0,0.000885,0,0
0:2:15.210,245.453,31.2539,0,0.000885,0,0
0:2:15.504,245.982,31.316,0,0.000885,0,0
0:2:15.803,246.565,31.3918,0,0.000885,0,0
0:2:16.097,247.33,31.4884,0,0.000885,0,0
0:2:16.394,247.681,31.5366,0,0.000885,0,0
0:2:16.690,248.211,31.6056,0,0.000885,0,0
0:2:16.985,248.971,31.7021,0,0.000885,0,0
0:2:17.284,249.616,31.7848,0,0.000885,0,0
0:2:17.577,250.204,31.8538,0,0.000885,0,0
0:2:17.877,250.671,31.9158,0,0.000885,0,0
0:2:18.171,251.436,32.0124,0,0.000885,0,0
0:2:18.471,251.729,32.0537,0,0.000885,0,0
0:2:18.775,252.374,32.1365,0,0.000885,0,0
0:2:19.076,253.251,32.2468,0,0.000885,0,0
0:2:19.377,254.016,32.3433,0,0.000885,0,0
0:2:19.677,254.483,32.4054,0,0.000885,0,0
0:2:19.976,254.954,32.4605,0,0.000885,0,0
0:2:20.271,255.306,32.5088,0,0.000885,0,0
0:2:20.567,256.066,32.6053,0,0.000885,0,0
0:2:20.865,256.418,32.6467,0,0.000885,0,0
0:2:21.157,256.711,32.688,0,0.000885,0,0
0:2:21.458,257.183,32.7432,0,0.000885,0,0
0:2:21.751,258.295,32.888,0,0.000885,0,0
0:2:22.048,258.94,32.9707,0,0.000885,0,0
0:2:22.345,259.585,33.0535,0,0.000885,0,0
0:2:22.640,260.586,33.1776,0,0.000885,0,0
0:2:22.939,260.759,33.1983,0,0.000885,0,0
0:2:23.242,261.231,33.2603,0,0.000885,0,0
0:2:23.544,262.107,33.3706,0,0.000885,0,0
0:2:23.845,262.694,33.4465,0,0.000885,0,0
0:2:24.143,263.046,33.4947,0,0.000885,0,0
0:2:24.443,263.517,33.5499,0,0.000885,0,0
0:2:24.739,263.459,33.543,0,0.000885,0,0
0:2:25.039,265.101,33.7567,0,0.000885,0,0
0:2:25.332,265.51,33.805,0,0.000885,0,0
0:2:25.630,265.568,33.8119,0,0.000885,0,0
0:2:25.927,266.275,33.9015,0,0.000885,0,0
0:2:26.231,267.036,33.998,0,0.000885,0,0
0:2:26.530,267.445,34.0532,0,0.000885,0,0
0:2:26.821,268.268,34.1566,0,0.000885,0,0
0:2:27.122,268.735,34.2187,0,0.000885,0,0
0:2:27.427,269.086,34.26,0,0.000885,0,0
0:2:27.721,270.087,34.391,0,0.000885,0,0
0:2:28.018,270.439,34.4324,0,0.000885,0,0
0:2:28.319,270.79,34.4807,0,0.000885,0,0
0:2:28.625,271.377,34.5496,0,0.000885,0,0
0:2:28.926,272.253,34.6668,0,0.000885,0,0
0:2:29.227,273.192,34.7841,0,0.000885,0,0
0:2:29.527,273.721,34.853,0,0.000885,0,0
0:2:29.820,274.131,34.9013,0,0.000885,0,0
0:2:30.118,274.896,34.9978,0,0.000885,0,0
0:2:30.422,275.305,35.0529,0,0.000885,0,0
0:2:30.722,275.95,35.1357,0,0.000885,0,0
0:2:31.014,276.831,35.246,0,0.000885,0,0
0:2:31.314,277.24,35.3012,0,0.000885,0,0
0:2:31.609,277.711,35.3563,0,0.000885,0,0
0:2:31.914,278.178,35.4184,0,0.000885,0,0
0:2:32.213,278.944,35.5149,0,0.000885,0,0
0:2:32.516,279.589,35.5976,0,0.000885,0,0
0:2:32.815,280.291,35.6873,0,0.000885,0,0
0:2:33.118,280.821,35.7562,0,0.000885,0,0
0:2:33.420,281.755,35.8734,0,0.000885,0,0
0:2:33.722,281.466,35.8389,0,0.000885,0,0
0:2:34.024,282.462,35.9631,0,0.000885,0,0
0:2:34.327,283.107,36.0458,0,0.000885,0,0
0:2:34.624,283.516,36.1009,0,0.000885,0,0
0:2:34.921,284.339,36.2044,0,0.000885,0,0
0:2:35.228,284.922,36.2802,0,0.000885,0,0
0:2:35.534,285.278,36.3216,0,0.000885,0,0
0:2:35.833,285.981,36.4112,0,0.000885,0,0
0:2:36.123,286.216,36.4388,0,0.000885,0,0
0:2:36.423,286.683,36.5008,0,0.000885,0,0
0:2:36.718,287.386,36.5905,0,0.000885,0,0
0:2:37.015,288.151,36.687,0,0.000885,0,0
0:2:37.321,288.739,36.7628,0,0.000885,0,0
0:2:37.616,289.908,36.9145,0,0.000885,0,0
0:2:37.915,290.322,36.9628,0,0.000885,0,0
0:2:38.217,290.496,36.9904,0,0.000885,0,0
0:2:38.519,290.967,37.0455,0,0.000885,0,0
0:2:38.820,292.195,37.2041,0,0.000885,0,0
0:2:39.120,292.137,37.1972,0,0.000885,0,0
0:2:39.420,293.196,37.3282,0,0.000885,0,0
0:2:39.715,293.489,37.3696,0,0.000885,0,0
0:2:40.013,294.072,37.4454,0,0.000885,0,0
0:2:40.308,294.601,37.5075,0,0.000885,0,0
0:2:40.613,295.131,37.5764,0,0.000885,0,0
0:2:40.912,295.718,37.6523,0,0.000885,0,0
0:2:41.224,296.3,37.7281,0,0.000885,0,0
0:2:41.525,297.123,37.8315,0,0.000885,0,0
0:2:41.819,297.768,37.9143,0,0.000885,0,0
0:2:42.118,298.24,37.9694,0,0.000885,0,0
0:2:42.413,298.765,38.0384,0,0.000885,0,0
0:2:42.717,299.588,38.1418,0,0.000885,0,0
0:2:43.017,299.881,38.1832,0,0.000885,0,0
0:2:43.320,300.82,38.3004,0,0.000885,0,0
0:2:43.621,301.345,38.3693,0,0.000885,0,0
0:2:43.921,301.523,38.39,0,0.000885,0,0
0:2:44.222,302.11,38.4659,0,0.000885,0,0
0:2:44.522,302.928,38.5693,0,0.000885,0,0
0:2:44.815,303.867,38.6865,0,0.000885,0,0
0:2:45.115,304.281,38.7416,0,0.000885,0,0
0:2:45.418,304.805,38.8106,0,0.000885,0,0
0:2:45.728,305.157,38.852,0,0.000885,0,0
0:2:46.034,305.864,38.9416,0,0.000885,0,0
0:2:46.329,306.331,39.0036,0,0.000885,0,0
0:2:46.628,307.154,39.1071,0,0.000885,0,0
0:2:46.919,307.973,39.2105,0,0.000885,0,0
0:2:47.219,308.444,39.2725,0,0.000885,0,0
0:2:47.534,308.738,39.307,0,0.000885,0,0
0:2:47.831,309.792,39.4449,0,0.000885,0,0
0:2:48.125,310.201,39.4932,0,0.000885,0,0
0:2:48.429,311.024,39.6035,0,0.000885,0,0
0:2:48.731,311.26,39.6311,0,0.000885,0,0
0:2:49.033,311.785,39.7,0,0.000885,0,0
0:2:49.332,312.136,39.7414,0,0.000885,0,0
0:2:49.634,313.195,39.8793,0,0.000885,0,0
0:2:49.929,313.488,39.9137,0,0.000885,0,0
0:2:50.226,313.72,39.9413,0,0.000885,0,0
0:2:50.531,314.427,40.031,0,0.000885,0,0
0:2:50.832,315.072,40.1137,0,0.000885,0,0
0:2:51.134,315.833,40.2102,0,0.000885,0,0
0:2:51.433,316.535,40.2999,0,0.000885,0,0
0:2:51.730,317.18,40.3826,0,0.000885,0,0
0:2:52.022,317.301,40.3964,0,0.000885,0,0
0:2:52.321,318.355,40.5343,0,0.000885,0,0
0:2:52.615,318.706,40.5756,0,0.000885,0,0
0:2:52.914,319.645,40.6998,0,0.000885,0,0
0:2:53.219,320.468,40.8032,0,0.000885,0,0
0:2:53.519,321.406,40.9204,0,0.000885,0,0
0:2:53.821,321.228,40.8997,0,0.000885,0,0
0:2:54.123,322.051,41.0031,0,0.000885,0,0
0:2:54.423,322.638,41.079,0,0.000885,0,0
0:2:54.722,322.812,41.0996,0,0.000885,0,0
0:2:55.021,323.341,41.1686,0,0.000885,0,0
0:2:55.317,323.75,41.2238,0,0.000885,0,0
0:2:55.612,324.867,41.3616,0,0.000885,0,0
0:2:55.912,325.156,41.403,0,0.000885,0,0
0:2:56.214,325.921,41.4995,0,0.000885,0,0
0:2:56.511,326.388,41.5547,0,0.000885,0,0
0:2:56.808,327.327,41.6788,0,0.000885,0,0
0:2:57.121,327.678,41.7202,0,0.000885,0,0
0:2:57.420,328.092,41.7753,0,0.000885,0,0
0:2:57.723,328.737,41.8581,0,0.000885,0,0
0:2:58.024,329.618,41.9684,0,0.000885,0,0
0:2:58.326,329.791,41.9891,0,0.000885,0,0
0:2:58.630,330.263,42.0511,0,0.000885,0,0
0:2:58.930,330.908,42.1339,0,0.000885,0,0
0:2:59.232,331.668,42.2304,0,0.000885,0,0
0:2:59.533,332.785,42.3683,0,0.000885,0,0
0:2:59.834,333.368,42.4441,0,0.000885,0,0
0:3:0.134,334.306,42.5682,0,0.000885,0,0
0:3:0.429,334.893,42.6372,0,0.000885,0,0
0:3:0.722,334.778,42.6234,0,0.000885,0,0
0:3:1.021,335.716,42.7475,0,0.000885,0,0
0:3:1.315,336.01,42.782,0,0.000885,0,0
0:3:1.615,336.597,42.8578,0,0.000885,0,0
0:3:1.918,336.77,42.8785,0,0.000885,0,0
0:3:2.218,337.829,43.0164,0,0.000885,0,0
0:3:2.524,338.238,43.0647,0,0.000885,0,0
0:3:2.817,338.941,43.1543,0,0.000885,0,0
0:3:3.115,338.825,43.1405,0,0.000885,0,0
0:3:3.415,339.528,43.2301,0,0.000885,0,0
0:3:3.718,340.703,43.3818,0,0.000885,0,0
0:3:4.019,341.285,43.4508,0,0.000885,0,0
0:3:4.320,341.815,43.5197,0,0.000885,0,0
0:3:4.621,342.46,43.6024,0,0.000885,0,0
0:3:4.924,343.34,43.7128,0,0.000885,0,0
0:3:5.225,343.87,43.7817,0,0.000885,0,0
0:3:5.520,344.279,43.8369,0,0.000885,0,0
0:3:5.825,344.982,43.9265,0,0.000885,0,0
0:3:6.122,345.453,43.9817,0,0.000885,0,0
0:3:6.426,346.036,44.0575,0,0.000885,0,0
0:3:6.725,346.45,44.1127,0,0.000885,0,0
0:3:7.030,346.681,44.1402,0,0.000885,0,0
0:3:7.327,347.446,44.2368,0,0.000885,0,0
0:3:7.624,347.975,44.3057,0,0.000885,0,0
0:3:7.918,348.852,44.416,0,0.000885,0,0
0:3:8.218,349.733,44.5263,0,0.000885,0,0
0:3:8.520,350.204,44.5884,0,0.000885,0,0
0:3:8.823,350.204,44.5884,0,0.000885,0,0
0:3:9.122,351.374,44.7401,0,0.000885,0,0
0:3:9.423,352.077,44.8297,0,0.000885,0,0
0:3:9.723,352.664,44.9056,0,0.000885,0,0
0:3:10.027,353.015,44.9469,0,0.000885,0,0
0:3:10.335,353.896,45.0572,0,0.000885,0,0
0:3:10.634,354.132,45.0917,0,0.000885,0,0
0:3:10.936,354.777,45.1744,0,0.000885,0,0
0:3:11.237,355.658,45.2848,0,0.000885,0,0
0:3:11.531,356.125,45.3399,0,0.000885,0,0
0:3:11.828,356.476,45.3882,0,0.000885,0,0
0:3:12.133,356.654,45.4089,0,0.000885,0,0
0:3:12.428,357.241,45.4847,0,0.000885,0,0
0:3:12.726,358.06,45.5881,0,0.000885,0,0
0:3:13.019,359.118,45.726,0,0.000885,0,0
0:3:13.320,359.995,45.8363,0,0.000885,0,0
0:3:13.625,360.408,45.8915,0,0.000885,0,0
0:3:13.924,360.933,45.9536,0,0.000885,0,0
0:3:14.225,361.698,46.0501,0,0.000885,0,0
0:3:14.526,362.107,46.1052,0,0.000885,0,0
0:3:14.828,362.81,46.1949,0,0.000885,0,0
0:3:15.133,362.81,46.1949,0,0.000885,0,0
0:3:15.431,363.749,46.3121,0,0.000885,0,0
0:3:15.725,363.985,46.3466,0,0.000885,0,0
0:3:16.021,364.687,46.4362,0,0.000885,0,0
0:3:16.321,364.923,46.4638,0,0.000885,0,0
0:3:16.625,365.92,46.5879,0,0.000885,0,0
0:3:16.922,366.271,46.6361,0,0.000885,0,0
0:3:17.218,367.21,46.7533,0,0.000885,0,0
0:3:17.513,367.797,46.8292,0,0.000885,0,0
0:3:17.812,368.268,46.8912,0,0.000885,0,0
0:3:18.116,368.913,46.974,0,0.000885,0,0
0:3:18.416,369.38,47.0291,0,0.000885,0,0
0:3:18.719,369.91,47.0981,0,0.000885,0,0
0:3:19.022,371.022,47.2429,0,0.000885,0,0
0:3:19.323,371.493,47.298,0,0.000885,0,0
0:3:19.624,372.018,47.367,0,0.000885,0,0
0:3:19.923,372.725,47.4566,0,0.000885,0,0
0:3:20.220,373.37,47.5394,0,0.000885,0,0
0:3:20.525,374.015,47.6221,0,0.000885,0,0
0:3:20.824,374.425,47.6704,0,0.000885,0,0
0:3:21.127,374.776,47.7186,0,0.000885,0,0
0:3:21.427,375.421,47.8014,0,0.000885,0,0
0:3:21.732,376.244,47.9048,0,0.000885,0,0
0:3:22.028,376.711,47.9668,0,0.000885,0,0
0:3:22.326,377.183,48.022,0,0.000885,0,0
0:3:22.628,377.707,48.0909,0,0.000885,0,0
0:3:22.932,378.53,48.1944,0,0.000885,0,0
0:3:23.235,379.175,48.2771,0,0.000885,0,0
0:3:23.537,379.936,48.3736,0,0.000885,0,0
0:3:23.838,380.407,48.4357,0,0.000885,0,0
0:3:24.139,380.875,48.4977,0,0.000885,0,0
0:3:24.439,381.462,48.5667,0,0.000885,0,0
0:3:24.733,381.991,48.6356,0,0.000885,0,0
0:3:25.039,382.342,48.6839,0,0.000885,0,0
0:3:25.337,382.752,48.7321,0,0.000885,0,0
0:3:25.632,383.868,48.8769,0,0.000885,0,0
0:3:25.932,384.104,48.9045,0,0.000885,0,0
0:3:26.221,384.513,48.9597,0,0.000885,0,0
0:3:26.522,384.922,49.0079,0,0.000885,0,0
0:3:26.816,385.688,49.1045,0,0.000885,0,0
0:3:27.133,386.448,49.201,0,0.000885,0,0
0:3:27.433,386.915,49.263,0,0.000885,0,0
0:3:27.735,387.565,49.3458,0,0.000885,0,0
0:3:28.037,388.267,49.4354,0,0.000885,0,0
0:3:28.341,389.557,49.6009,0,0.000885,0,0
0:3:28.643,389.967,49.6491,0,0.000885,0,0
0:3:28.942,390.438,49.7112,0,0.000885,0,0
0:3:29.243,390.318,49.6974,0,0.000885,0,0
0:3:29.542,390.67,49.7388,0,0.000885,0,0
0:3:29.839,392.373,49.9594,0,0.000885,0,0
0:3:30.134,392.898,50.0284,0,0.000885,0,0
0:3:30.430,393.312,50.0766,0,0.000885,0,0
0:3:30.735,394.015,50.1663,0,0.000885,0,0
0:3:31.036,394.424,50.2214,0,0.000885,0,0
0:3:31.327,394.895,50.2766,0,0.000885,0,0
0:3:31.637,395.42,50.3455,0,0.000885,0,0
0:3:31.934,396.243,50.4489,0,0.000885,0,0
0:3:32.239,396.772,50.5179,0,0.000885,0,0
0:3:32.536,397.066,50.5524,0,0.000885,0,0
0:3:32.827,397.649,50.6282,0,0.000885,0,0
0:3:33.129,398,50.6765,0,0.000885,0,0
0:3:33.434,398.765,50.773,0,0.000885,0,0
0:3:33.736,399.41,50.8557,0,0.000885,0,0
0:3:34.036,400.055,50.9385,0,0.000885,0,0
0:3:34.336,400.816,51.035,0,0.000885,0,0
0:3:34.635,401.287,51.0902,0,0.000885,0,0
0:3:34.926,401.581,51.1315,0,0.000885,0,0
0:3:35.224,403.222,51.3384,0,0.000885,0,0
0:3:35.530,403.458,51.3728,0,0.000885,0,0
0:3:35.834,403.983,51.4349,0,0.000885,0,0
0:3:36.133,404.334,51.4832,0,0.000885,0,0
0:3:36.425,404.922,51.559,0,0.000885,0,0
0:3:36.724,405.335,51.6073,0,0.000885,0,0
0:3:37.028,406.212,51.7176,0,0.000885,0,0
0:3:37.325,406.567,51.7658,0,0.000885,0,0
0:3:37.633,406.799,51.7934,0,0.000885,0,0
0:3:37.925,407.622,51.8968,0,0.000885,0,0
0:3:38.227,408.734,52.0416,0,0.000885,0,0
0:3:38.528,409.147,52.0968,0,0.000885,0,0
0:3:38.833,409.614,52.1519,0,0.000885,0,0
0:3:39.134,409.966,52.2002,0,0.000885,0,0
0:3:39.434,411.14,52.345,0,0.000885,0,0
0:3:39.735,411.549,52.4002,0,0.000885,0,0
0:3:40.037,411.607,52.4071,0,0.000885,0,0
0:3:40.338,412.546,52.5243,0,0.000885,0,0
0:3:40.630,412.724,52.5518,0,0.000885,0,0
0:3:40.927,413.72,52.6759,0,0.000885,0,0
0:3:41.224,414.365,52.7587,0,0.000885,0,0
0:3:41.518,414.717,52.8001,0,0.000885,0,0
0:3:41.819,415.597,52.9173,0,0.000885,0,0
0:3:42.120,416.064,52.9724,0,0.000885,0,0
0:3:42.418,416.772,53.0621,0,0.000885,0,0
0:3:42.724,417.297,53.131,0,0.000885,0,0
0:3:43.028,418.119,53.2344,0,0.000885,0,0
0:3:43.326,418.413,53.2758,0,0.000885,0,0
0:3:43.629,419.174,53.3723,0,0.000885,0,0
0:3:43.931,419.587,53.4206,0,0.000885,0,0
0:3:44.234,419.881,53.4619,0,0.000885,0,0
0:3:44.535,420.17,53.4964,0,0.000885,0,0
0:3:44.835,421.171,53.6274,0,0.000885,0,0
0:3:45.128,422.167,53.7515,0,0.000885,0,0
0:3:45.427,422.461,53.786,0,0.000885,0,0
0:3:45.731,423.222,53.8894,0,0.000885,0,0
0:3:46.041,423.751,53.9515,0,0.000885,0,0
0:3:46.336,424.396,54.0342,0,0.000885,0,0
0:3:46.630,425.041,54.1169,0,0.000885,0,0
0:3:46.929,425.979,54.2342,0,0.000885,0,0
0:3:47.230,425.859,54.2204,0,0.000885,0,0
0:3:47.529,426.331,54.2824,0,0.000885,0,0
0:3:47.824,427.212,54.3927,0,0.000885,0,0
0:3:48.126,427.679,54.4548,0,0.000885,0,0
0:3:48.427,428.559,54.5651,0,0.000885,0,0
0:3:48.730,428.795,54.5927,0,0.000885,0,0
0:3:49.028,429.382,54.6685,0,0.000885,0,0
0:3:49.330,430.317,54.7926,0,0.000885,0,0
0:3:49.627,430.552,54.8202,0,0.000885,0,0
0:3:49.923,431.139,54.8961,0,0.000885,0,0
0:3:50.228,431.9,54.9926,0,0.000885,0,0
0:3:50.528,432.723,55.096,0,0.000885,0,0
0:3:50.820,433.195,55.1581,0,0.000885,0,0
0:3:51.121,433.777,55.2339,0,0.000885,0,0
0:3:51.424,434.249,55.2891,0,0.000885,0,0
0:3:51.720,435.067,55.3925,0,0.000885,0,0
0:3:52.017,435.948,55.5097,0,0.000885,0,0
0:3:52.331,436.126,55.5304,0,0.000885,0,0
0:3:52.630,436.535,55.5786,0,0.000885,0,0
0:3:52.923,437.18,55.6614,0,0.000885,0,0
0:3:53.223,438.003,55.7648,0,0.000885,0,0
0:3:53.527,438.47,55.8268,0,0.000885,0,0
0:3:53.827,439.115,55.9096,0,0.000885,0,0
0:3:54.130,439.818,55.9992,0,0.000885,0,0
0:3:54.429,440.232,56.0544,0,0.000885,0,0
0:3:54.730,440.819,56.1233,0,0.000885,0,0
0:3:55.035,441.228,56.1785,0,0.000885,0,0
0:3:55.331,442.109,56.2888,0,0.000885,0,0
0:3:55.639,442.224,56.3026,0,0.000885,0,0
0:3:55.942,443.399,56.4543,0,0.000885,0,0
0:3:56.243,443.924,56.5232,0,0.000885,0,0
0:3:56.536,444.159,56.5508,0,0.000885,0,0
0:3:56.831,444.747,56.6266,0,0.000885,0,0
0:3:57.126,445.449,56.7163,0,0.000885,0,0
0:3:57.423,446.388,56.8335,0,0.000885,0,0
0:3:57.721,446.682,56.8749,0,0.000885,0,0
0:3:58.024,447.327,56.9576,0,0.000885,0,0
0:3:58.323,447.798,57.0127,0,0.000885,0,0
0:3:58.626,448.265,57.0748,0,0.000885,0,0
0:3:58.927,449.03,57.1713,0,0.000885,0,0
0:3:59.228,449.204,57.192,0,0.000885,0,0
0:3:59.527,449.733,57.261,0,0.000885,0,0
0:3:59.829,450.787,57.3989,0,0.000885,0,0
0:4:0.142,451.374,57.4678,0,0.000885,0,0
0:4:0.441,451.784,57.523,0,0.000885,0,0
0:4:0.738,452.78,57.6471,0,0.000885,0,0
0:4:1.030,453.487,57.7367,0,0.000885,0,0
0:4:1.330,454.19,57.8263,0,0.000885,0,0
0:4:1.632,455.071,57.9435,0,0.000885,0,0
0:4:1.932,455.187,57.9573,0,0.000885,0,0
0:4:2.236,455.422,57.9849,0,0.000885,0,0
0:4:2.542,455.596,58.0056,0,0.000885,0,0
0:4:2.840,456.361,58.1021,0,0.000885,0,0
0:4:3.142,456.654,58.1435,0,0.000885,0,0
0:4:3.444,457.651,58.2676,0,0.000885,0,0
0:4:3.745,458.354,58.3572,0,0.000885,0,0
0:4:4.044,458.763,58.4124,0,0.000885,0,0
0:4:4.345,459.879,58.5503,0,0.000885,0,0
0:4:4.639,460.346,58.6123,0,0.000885,0,0
0:4:4.938,461.112,58.7089,0,0.000885,0,0
0:4:5.241,461.757,58.7916,0,0.000885,0,0
0:4:5.541,462.166,58.8468,0,0.000885,0,0
0:4:5.844,462.811,58.9295,0,0.000885,0,0
0:4:6.142,463.282,58.9846,0,0.000885,0,0
0:4:6.439,463.514,59.0191,0,0.000885,0,0
0:4:6.742,464.101,59.0881,0,0.000885,0,0
0:4:7.042,464.982,59.2053,0,0.000885,0,0
0:4:7.334,465.626,59.288,0,0.000885,0,0
0:4:7.632,465.804,59.3087,0,0.000885,0,0
0:4:7.939,466.214,59.357,0,0.000885,0,0
0:4:8.241,467.152,59.4811,0,0.000885,0,0
0:4:8.543,467.797,59.5638,0,0.000885,0,0
0:4:8.845,468.206,59.6121,0,0.000885,0,0
0:4:9.146,469.145,59.7362,0,0.000885,0,0
0:4:9.447,469.674,59.7982,0,0.000885,0,0
0:4:9.744,470.199,59.8672,0,0.000885,0,0
0:4:10.042,470.964,59.9637,0,0.000885,0,0
0:4:10.336,471.609,60.0464,0,0.000885,0,0
0:4:10.636,472.139,60.1154,0,0.000885,0,0
0:4:10.938,472.784,60.1981,0,0.000885,0,0
0:4:11.238,473.193,60.2464,0,0.000885,0,0
0:4:11.531,473.954,60.3429,0,0.000885,0,0
0:4:11.826,474.776,60.4532,0,0.000885,0,0
0:4:12.125,474.892,60.467,0,0.000885,0,0
0:4:12.428,475.537,60.5498,0,0.000885,0,0
0:4:12.729,476.418,60.6601,0,0.000885,0,0
0:4:13.031,476.827,60.7083,0,0.000885,0,0
0:4:13.332,476.947,60.729,0,0.000885,0,0
0:4:13.636,477.592,60.8118,0,0.000885,0,0
0:4:13.938,478.411,60.9152,0,0.000885,0,0
0:4:14.238,478.824,60.9634,0,0.000885,0,0
0:4:14.539,479.643,61.0669,0,0.000885,0,0
0:4:14.838,480.23,61.1427,0,0.000885,0,0
0:4:15.131,480.875,61.2254,0,0.000885,0,0
0:4:15.427,481.169,61.2668,0,0.000885,0,0
0:4:15.726,481.756,61.3358,0,0.000885,0,0
0:4:16.018,482.343,61.4116,0,0.000885,0,0
0:4:16.318,483.397,61.5495,0,0.000885,0,0
0:4:16.623,484.042,61.6322,0,0.000885,0,0
0:4:16.920,484.278,61.6598,0,0.000885,0,0
0:4:17.225,485.159,61.7701,0,0.000885,0,0
0:4:17.528,485.684,61.8391,0,0.000885,0,0
0:4:17.829,486.155,61.9011,0,0.000885,0,0
0:4:18.122,487.094,62.0183,0,0.000885,0,0
0:4:18.423,487.036,62.0114,0,0.000885,0,0
0:4:18.724,487.796,62.108,0,0.000885,0,0
0:4:19.026,488.263,62.17,0,0.000885,0,0
0:4:19.327,489.264,62.2941,0,0.000885,0,0
0:4:19.628,489.789,62.3631,0,0.000885,0,0
0:4:19.927,490.434,62.4458,0,0.000885,0,0
0:4:20.231,491.021,62.5217,0,0.000885,0,0
0:4:20.530,491.609,62.5906,0,0.000885,0,0
0:4:20.834,492.076,62.6527,0,0.000885,0,0
0:4:21.129,492.547,62.7147,0,0.000885,0,0
0:4:21.430,493.134,62.7906,0,0.000885,0,0
0:4:21.730,493.837,62.8802,0,0.000885,0,0
0:4:22.031,494.246,62.9284,0,0.000885,0,0
0:4:22.325,495.127,63.0388,0,0.000885,0,0
0:4:22.622,495.243,63.0595,0,0.000885,0,0
0:4:22.918,496.181,63.1767,0,0.000885,0,0
0:4:23.221,496.417,63.2042,0,0.000885,0,0
0:4:23.523,497.24,63.3077,0,0.000885,0,0
0:4:23.825,497.885,63.3904,0,0.000885,0,0
0:4:24.124,498.352,63.4525,0,0.000885,0,0
0:4:24.425,498.881,63.5214,0,0.000885,0,0
0:4:24.720,499.411,63.5835,0,0.000885,0,0
0:4:25.019,500.523,63.7282,0,0.000885,0,0
0:4:25.312,500.932,63.7834,0,0.000885,0,0
0:4:25.612,501.577,63.8661,0,0.000885,0,0
0:4:25.905,502.222,63.942,0,0.000885,0,0
0:4:26.203,502.342,63.9627,0,0.000885,0,0
0:4:26.500,503.396,64.0937,0,0.000885,0,0
0:4:26.793,503.748,64.1419,0,0.000885,0,0
0:4:27.093,504.571,64.2453,0,0.000885,0,0
0:4:27.387,505.1,64.3143,0,0.000885,0,0
0:4:27.685,505.273,64.335,0,0.000885,0,0
0:4:27.980,505.918,64.4177,0,0.000885,0,0
0:4:28.281,506.857,64.5349,0,0.000885,0,0
0:4:28.584,507.386,64.6039,0,0.000885,0,0
0:4:28.885,507.738,64.6452,0,0.000885,0,0
0:4:29.185,508.383,64.728,0,0.000885,0,0
0:4:29.485,509.321,64.8521,0,0.000885,0,0
0:4:29.783,509.851,64.9141,0,0.000885,0,0
0:4:30.079,510.318,64.9762,0,0.000885,0,0
0:4:30.374,510.554,65.0038,0,0.000885,0,0
0:4:30.674,511.372,65.1072,0,0.000885,0,0
0:4:30.966,512.195,65.2175,0,0.000885,0,0
0:4:31.266,512.311,65.2313,0,0.000885,0,0
0:4:31.562,512.724,65.2796,0,0.000885,0,0
0:4:31.859,513.307,65.3554,0,0.000885,0,0
0:4:32.154,513.894,65.4312,0,0.000885,0,0
0:4:32.449,514.833,65.5485,0,0.000885,0,0
0:4:32.748,515.42,65.6243,0,0.000885,0,0
0:4:33.041,516.301,65.7346,0,0.000885,0,0
0:4:33.342,516.358,65.7415,0,0.000885,0,0
0:4:33.645,516.888,65.8105,0,0.000885,0,0
0:4:33.945,517.769,65.9208,0,0.000885,0,0
0:4:34.247,518.471,66.0104,0,0.000885,0,0
0:4:34.547,519.29,66.1207,0,0.000885,0,0
0:4:34.847,519.704,66.169,0,0.000885,0,0
0:4:35.136,520.113,66.2241,0,0.000885,0,0
0:4:35.436,520.7,66.3,0,0.000885,0,0
0:4:35.732,521.051,66.3414,0,0.000885,0,0
0:4:36.028,521.461,66.3965,0,0.000885,0,0
0:4:36.325,522.341,66.5068,0,0.000885,0,0
0:4:36.618,522.751,66.562,0,0.000885,0,0
0:4:36.920,523.983,66.7137,0,0.000885,0,0
0:4:37.232,524.863,66.8309,0,0.000885,0,0
0:4:37.529,524.921,66.8378,0,0.000885,0,0
0:4:37.834,525.041,66.8516,0,0.000885,0,0
0:4:38.136,525.918,66.9619,0,0.000885,0,0
0:4:38.440,526.741,67.0653,0,0.000885,0,0
0:4:38.742,527.208,67.1274,0,0.000885,0,0
0:4:39.043,527.853,67.2101,0,0.000885,0,0
0:4:39.345,528.209,67.2515,0,0.000885,0,0
0:4:39.640,529.263,67.3894,0,0.000885,0,0
0:4:39.936,529.792,67.4583,0,0.000885,0,0
0:4:40.241,530.437,67.5341,0,0.000885,0,0
0:4:40.542,530.962,67.6031,0,0.000885,0,0
0:4:40.833,531.256,67.6445,0,0.000885,0,0
0:4:41.130,532.194,67.7617,0,0.000885,0,0
0:4:41.440,532.666,67.8237,0,0.000885,0,0
0:4:41.742,533.017,67.8651,0,0.000885,0,0
0:4:42.042,533.604,67.9409,0,0.000885,0,0
0:4:42.334,534.365,68.0375,0,0.000885,0,0
0:4:42.633,534.658,68.0719,0,0.000885,0,0
0:4:42.928,535.597,68.196,0,0.000885,0,0
0:4:43.226,535.948,68.2374,0,0.000885,0,0
0:4:43.531,536.536,68.3133,0,0.000885,0,0
0:4:43.832,537.532,68.4374,0,0.000885,0,0
0:4:44.133,537.59,68.4512,0,0.000885,0,0
0:4:44.432,538.177,68.5201,0,0.000885,0,0
0:4:44.731,538.706,68.589,0,0.000885,0,0
0:4:45.036,539.231,68.658,0,0.000885,0,0
0:4:45.331,539.996,68.7545,0,0.000885,0,0
0:4:45.631,540.583,68.8304,0,0.000885,0,0
0:4:45.933,541.402,68.9338,0,0.000885,0,0
0:4:46.232,542.341,69.051,0,0.000885,0,0
0:4:46.549,542.75,69.1062,0,0.000885,0,0
0:4:46.845,543.043,69.1406,0,0.000885,0,0
0:4:47.143,543.457,69.1958,0,0.000885,0,0
0:4:47.446,544.218,69.2923,0,0.000885,0,0
0:4:47.746,545.272,69.4233,0,0.000885,0,0
0:4:48.048,545.565,69.4647,0,0.000885,0,0
0:4:48.348,545.623,69.4716,0,0.000885,0,0
0:4:48.650,546.624,69.5957,0,0.000885,0,0
0:4:48.952,547.149,69.6646,0,0.000885,0,0
0:4:49.254,547.856,69.7543,0,0.000885,0,0
0:4:49.554,548.03,69.7749,0,0.000885,0,0
0:4:49.853,549.026,69.9059,0,0.000885,0,0
0:4:50.148,549.44,69.9542,0,0.000885,0,0
0:4:50.444,550.201,70.0507,0,0.000885,0,0
0:4:50.744,550.961,70.1542,0,0.000885,0,0
0:4:51.046,551.548,70.2231,0,0.000885,0,0
0:4:51.345,551.842,70.2645,0,0.000885,0,0
0:4:51.638,552.136,70.2989,0,0.000885,0,0
0:4:51.946,553.19,70.4368,0,0.000885,0,0
0:4:52.244,553.777,70.5058,0,0.000885,0,0
0:4:52.547,554.306,70.5747,0,0.000885,0,0
0:4:52.847,554.6,70.6161,0,0.000885,0,0
0:4:53.149,555.481,70.7264,0,0.000885,0,0
0:4:53.452,556.241,70.8229,0,0.000885,0,0
0:4:53.752,556.828,70.8988,0,0.000885,0,0
0:4:54.052,557.238,70.9471,0,0.000885,0,0
0:4:54.353,558.061,71.0574,0,0.000885,0,0
0:4:54.645,558.47,71.1056,0,0.000885,0,0
0:4:54.946,558.999,71.1746,0,0.000885,0,0
0:4:55.242,559.702,71.2642,0,0.000885,0,0
0:4:55.548,559.818,71.278,0,0.000885,0,0
0:4:55.844,560.525,71.3676,0,0.000885,0,0
0:4:56.138,561.17,71.4504,0,0.000885,0,0
0:4:56.438,561.873,71.54,0,0.000885,0,0
0:4:56.741,562.398,71.6089,0,0.000885,0,0
0:4:57.042,562.927,71.671,0,0.000885,0,0
0:4:57.335,563.572,71.7537,0,0.000885,0,0
0:4:57.642,564.337,71.8503,0,0.000885,0,0
0:4:57.948,564.862,71.9192,0,0.000885,0,0
0:4:58.250,565.449,71.9951,0,0.000885,0,0
0:4:58.553,565.743,72.0295,0,0.000885,0,0
0:4:58.854,566.859,72.1743,0,0.000885,0,0
0:4:59.154,567.504,72.2571,0,0.000885,0,0
0:4:59.456,567.971,72.3191,0,0.000885,0,0
0:4:59.750,568.91,72.4363,0,0.000885,0,0
0:5:0.050,569.025,72.4501,0,0.000885,0,0
0:5:0.345,569.555,72.5191,0,0.000885,0,0
0:5:0.643,570.2,72.6018,0,0.000885,0,0
0:5:0.946,570.671,72.657,0,0.000885,0,0
0:5:1.246,570.96,72.6983,0,0.000885,0,0
0:5:1.544,572.077,72.8362,0,0.000885,0,0
0:5:1.835,572.664,72.9121,0,0.000885,0,0
0:5:2.135,573.073,72.9672,0,0.000885,0,0
0:5:2.430,573.66,73.0431,0,0.000885,0,0
0:5:2.728,574.305,73.1258,0,0.000885,0,0
0:5:3.024,574.835,73.1878,0,0.000885,0,0
0:5:3.323,575.653,73.2913,0,0.000885,0,0
0:5:3.627,576.298,73.374,0,0.000885,0,0
0:5:3.927,576.534,73.4085,0,0.000885,0,0
0:5:4.229,577.295,73.505,0,0.000885,0,0
0:5:4.529,577.944,73.5877,0,0.000885,0,0
0:5:4.836,578.411,73.6429,0,0.000885,0,0
0:5:5.145,578.589,73.6705,0,0.000885,0,0
0:5:5.438,579.292,73.7601,0,0.000885,0,0
0:5:5.739,580.698,73.9394,0,0.000885,0,0
0:5:6.043,580.875,73.9601,0,0.000885,0,0
0:5:6.342,581.343,74.0221,0,0.000885,0,0
0:5:6.637,582.045,74.1117,0,0.000885,0,0
0:5:6.943,582.575,74.1738,0,0.000885,0,0
0:5:7.242,583.278,74.2634,0,0.000885,0,0
0:5:7.534,583.513,74.2979,0,0.000885,0,0
0:5:7.835,584.158,74.3806,0,0.000885,0,0
0:5:8.138,584.803,74.4565,0,0.000885,0,0
0:5:8.442,585.862,74.5944,0,0.000885,0,0
0:5:8.743,586.445,74.6702,0,0.000885,0,0
0:5:9.042,587.383,74.7874,0,0.000885,0,0
0:5:9.343,587.561,74.8081,0,0.000885,0,0
0:5:9.632,587.677,74.8288,0,0.000885,0,0
0:5:9.933,588.558,74.9391,0,0.000885,0,0
0:5:10.237,589.38,75.0425,0,0.000885,0,0
0:5:10.532,589.612,75.0701,0,0.000885,0,0
0:5:10.831,590.261,75.1529,0,0.000885,0,0
0:5:11.126,590.728,75.2149,0,0.000885,0,0
0:5:11.428,591.493,75.3114,0,0.000885,0,0
0:5:11.725,591.725,75.339,0,0.000885,0,0
0:5:12.023,592.138,75.3942,0,0.000885,0,0
0:5:12.330,592.726,75.47,0,0.000885,0,0
0:5:12.625,593.313,75.5459,0,0.000885,0,0
0:5:12.927,594.193,75.6562,0,0.000885,0,0
0:5:13.230,594.838,75.7389,0,0.000885,0,0
0:5:13.533,594.954,75.7527,0,0.000885,0,0
0:5:13.836,595.955,75.8768,0,0.000885,0,0
0:5:14.137,596.836,75.994,0,0.000885,0,0
0:5:14.443,597.245,76.0423,0,0.000885,0,0
0:5:14.735,597.832,76.1181,0,0.000885,0,0
0:5:15.037,598.361,76.1871,0,0.000885,0,0
0:5:15.333,598.828,76.2422,0,0.000885,0,0
0:5:15.631,599.829,76.3732,0,0.000885,0,0
0:5:15.938,599.945,76.387,0,0.000885,0,0
0:5:16.235,600.706,76.4835,0,0.000885,0,0
0:5:16.536,601.235,76.5525,0,0.000885,0,0
0:5:16.831,602.236,76.6766,0,0.000885,0,0
0:5:17.131,602.587,76.7249,0,0.000885,0,0
0:5:17.429,603.406,76.8283,0,0.000885,0,0
0:5:17.735,604.055,76.911,0,0.000885,0,0
0:5:18.033,604.286,76.9386,0,0.000885,0,0
0:5:18.338,605.052,77.0351,0,0.000885,0,0
0:5:18.640,605.581,77.1041,0,0.000885,0,0
0:5:18.945,606.284,77.1937,0,0.000885,0,0
0:5:19.246,606.462,77.2144,0,0.000885,0,0
0:5:19.549,607.222,77.3109,0,0.000885,0,0
0:5:19.844,607.987,77.4143,0,0.000885,0,0
0:5:20.145,608.223,77.4419,0,0.000885,0,0
0:5:20.438,608.69,77.504,0,0.000885,0,0
0:5:20.738,609.749,77.635,0,0.000885,0,0
0:5:21.035,610.336,77.7108,0,0.000885,0,0
0:5:21.332,610.981,77.7935,0,0.000885,0,0
0:5:21.633,611.39,77.8418,0,0.000885,0,0
0:5:21.927,611.92,77.9108,0,0.000885,0,0
0:5:22.228,612.449,77.9797,0,0.000885,0,0
0:5:22.525,612.858,78.0349,0,0.000885,0,0
0:5:22.832,613.561,78.1245,0,0.000885,0,0
0:5:23.131,614.562,78.2486,0,0.000885,0,0
0:5:23.433,614.735,78.2693,0,0.000885,0,0
0:5:23.736,615.558,78.3727,0,0.000885,0,0
0:5:24.037,616.261,78.4623,0,0.000885,0,0
0:5:24.340,616.617,78.5106,0,0.000885,0,0
0:5:24.645,617.204,78.5864,0,0.000885,0,0
0:5:24.941,617.965,78.683,0,0.000885,0,0
0:5:25.244,618.788,78.7864,0,0.000885,0,0
0:5:25.535,618.788,78.7864,0,0.000885,0,0
0:5:25.837,619.611,78.8898,0,0.000885,0,0
0:5:26.133,620.313,78.9794,0,0.000885,0,0
0:5:26.431,621.368,79.1173,0,0.000885,0,0
0:5:26.730,621.603,79.1449,0,0.000885,0,0
0:5:27.026,622.248,79.2277,0,0.000885,0,0
0:5:27.327,622.311,79.2346,0,0.000885,0,0
0:5:27.621,622.662,79.2828,0,0.000885,0,0
0:5:27.924,623.307,79.3587,0,0.000885,0,0
0:5:28.227,624.303,79.4897,0,0.000885,0,0
0:5:28.531,625.242,79.6069,0,0.000885,0,0
0:5:28.834,625.42,79.6276,0,0.000885,0,0
0:5:29.134,626.416,79.7586,0,0.000885,0,0
0:5:29.437,626.888,79.8206,0,0.000885,0,0
0:5:29.733,627.591,79.9102,0,0.000885,0,0
0:5:30.033,628.004,79.9585,0,0.000885,0,0
0:5:30.340,628.649,80.0412,0,0.000885,0,0
0:5:30.636,629.294,80.124,0,0.000885,0,0
0:5:30.935,629.53,80.1516,0,0.000885,0,0
0:5:31.231,630.349,80.2619,0,0.000885,0,0
0:5:31.531,630.878,80.3239,0,0.000885,0,0
0:5:31.829,631.585,80.4136,0,0.000885,0,0
0:5:32.135,631.759,80.4411,0,0.000885,0,0
0:5:32.435,632.404,80.517,0,0.000885,0,0
0:5:32.739,633.578,80.6687,0,0.000885,0,0
0:5:33.040,633.636,80.6756,0,0.000885,0,0
0:5:33.347,634.401,80.7721,0,0.000885,0,0
0:5:33.649,635.046,80.8548,0,0.000885,0,0
0:5:33.952,635.282,80.8893,0,0.000885,0,0
0:5:34.253,636.105,80.9927,0,0.000885,0,0
0:5:34.557,636.75,81.0755,0,0.000885,0,0
0:5:34.851,637.572,81.1789,0,0.000885,0,0
0:5:35.150,637.804,81.2065,0,0.000885,0,0
0:5:35.449,638.391,81.2823,0,0.000885,0,0
0:5:35.742,638.978,81.3581,0,0.000885,0,0
0:5:36.042,639.565,81.434,0,0.000885,0,0
0:5:36.338,640.21,81.5167,0,0.000885,0,0
0:5:36.640,640.918,81.6063,0,0.000885,0,0
0:5:36.945,641.74,81.7098,0,0.000885,0,0
0:5:37.242,642.034,81.7442,0,0.000885,0,0
0:5:37.541,642.795,81.8408,0,0.000885,0,0
0:5:37.836,643.03,81.8752,0,0.000885,0,0
0:5:38.136,644.085,82.0062,0,0.000885,0,0
0:5:38.441,644.378,82.0476,0,0.000885,0,0
0:5:38.747,645.143,82.1441,0,0.000885,0,0
0:5:39.048,645.846,82.2338,0,0.000885,0,0
0:5:39.349,645.904,82.2407,0,0.000885,0,0
0:5:39.653,647.256,82.413,0,0.000885,0,0
0:5:39.948,647.492,82.4406,0,0.000885,0,0
0:5:40.248,648.195,82.5302,0,0.000885,0,0
0:5:40.543,648.96,82.6268,0,0.000885,0,0
0:5:40.841,649.427,82.6888,0,0.000885,0,0
0:5:41.140,649.778,82.7302,0,0.000885,0,0
0:5:41.434,650.192,82.7854,0,0.000885,0,0
0:5:41.736,650.837,82.8681,0,0.000885,0,0
0:5:42.032,651.189,82.9095,0,0.000885,0,0
0:5:42.329,651.309,82.9301,0,0.000885,0,0
0:5:42.636,651.66,82.9715,0,0.000885,0,0
0:5:42.940,652.127,83.0336,0,0.000885,0,0
0:5:43.243,653.244,83.1715,0,0.000885,0,0
0:5:43.549,654.067,83.2749,0,0.000885,0,0
0:5:43.852,654.591,83.3438,0,0.000885,0,0
0:5:44.155,655.766,83.4955,0,0.000885,0,0
0:5:44.457,653.422,83.199,0,0.000885,0,0
0:5:44.759,652.478,83.0749,0,0.000885,0,0
0:5:45.053,647.728,82.4682,0,0.000885,0,0
0:5:45.352,631.292,80.3791,0,0.000885,0,0
0:5:45.648,630.998,80.3377,0,0.000885,0,0
0:5:45.943,626.359,79.7517,0,0.000885,0,0
0:5:46.246,626.185,79.731,0,0.000885,0,0
0:5:46.537,623.307,79.3587,0,0.000885,0,0
0:5:46.835,620.665,79.0277,0,0.000885,0,0
0:5:47.133,618.08,78.6968,0,0.000885,0,0
0:5:47.429,608.868,77.5247,0,0.000885,0,0
0:5:47.727,607.342,77.3316,0,0.000885,0,0
0:5:48.029,606.342,77.2006,0,0.000885,0,0
0:5:48.332,606.871,77.2695,0,0.000885,0,0
0:5:48.634,591.2,75.277,0,0.000885,0,0
0:5:48.935,577.295,73.505,0,0.000885,0,0
0:5:49.233,567.971,72.3191,0,0.000885,0,0
0:5:49.537,550.552,70.099,0,0.000885,0,0
0:5:49.836,526.389,67.0239,0,0.000885,0,0
0:5:49.955,526.389,67.0239,0,0.000885,0,0