File: DataFile2021-07-15_061632.csv
Test ID:,Date Tested:,Time:,Test Type:,Diameter Avg. (mm):,Cyl. Corr. Factor:,Height (mm):,Age (days):,Weight (kN):,Break Type:,Ramp Rate (MPa/s):,Load at Break (kN):,Stress at Break (MPa):
12,7/15/2021,06:16,Cylinder,150,1,300,0,3.6,3,0.25,1628,92.13
Sample Time,Load (kN),Stress (MPa),Long. Strain,Trans. Strain,Chan1 Deflection (mm),Chan2 Deflection (mm)
0:0:10.683,6.86361,0.386106,0,0.000885,0,0
0:0:11.083,10.1464,0.572265,0,0.000885,0,0
0:0:11.479,10.1464,0.572265,0,0.000885,0,0
0:0:11.874,10.44,0.592949,0,0.000885,0,0
0:0:12.281,11.3207,0.641212,0,0.000885,0,0
0:0:12.680,13.785,0.779108,0,0.000885,0,0
0:0:13.078,14.9549,0.848055,0,0.000885,0,0
0:0:13.475,16.8321,0.951477,0,0.000885,0,0
0:0:13.880,18.5357,1.048,0,0.000885,0,0
0:0:14.280,21.5249,1.22037,0,0.000885,0,0
0:0:14.680,23.4599,1.33069,0,0.000885,0,0
0:0:15.075,23.7535,1.34448,0,0.000885,0,0
0:0:15.483,25.8041,1.46169,0,0.000885,0,0
0:0:15.878,27.5078,1.55822,0,0.000885,0,0
0:0:16.283,28.9713,1.64095,0,0.000885,0,0
0:0:16.688,31.142,1.76506,0,0.000885,0,0
0:0:17.093,33.6063,1.90295,0,0.000885,0,0
0:0:17.495,36.0706,2.04085,0,0.000885,0,0
0:0:17.897,38.5928,2.18564,0,0.000885,0,0
0:0:18.297,40.5277,2.29595,0,0.000885,0,0
0:0:18.696,42.4627,2.40627,0,0.000885,0,0
0:0:19.091,44.3977,2.50969,0,0.000885,0,0
0:0:19.489,45.4519,2.57174,0,0.000885,0,0
0:0:19.888,46.7464,2.64759,0,0.000885,0,0
0:0:20.287,48.3299,2.73722,0,0.000885,0,0
0:0:20.686,49.7356,2.81306,0,0.000885,0,0
0:0:21.091,51.4348,2.90959,0,0.000885,0,0
0:0:21.496,52.7248,2.98543,0,0.000885,0,0
0:0:21.899,54.3083,3.07506,0,0.000885,0,0
0:0:22.303,56.4212,3.19227,0,0.000885,0,0
0:0:22.699,58.592,3.31638,0,0.000885,0,0
0:0:23.096,60.7627,3.44048,0,0.000885,0,0
0:0:23.496,62.7555,3.5508,0,0.000885,0,0
0:0:23.895,64.8684,3.66801,0,0.000885,0,0
0:0:24.292,66.0383,3.73696,0,0.000885,0,0
0:0:24.688,68.2713,3.86106,0,0.000885,0,0
0:0:25.088,69.3255,3.92312,0,0.000885,0,0
0:0:25.489,71.1449,4.02654,0,0.000885,0,0
0:0:25.885,72.9019,4.12306,0,0.000885,0,0
0:0:26.292,74.1341,4.19201,0,0.000885,0,0
0:0:26.696,75.7176,4.28164,0,0.000885,0,0
0:0:27.100,77.5948,4.39196,0,0.000885,0,0
0:0:27.504,79.1783,4.48159,0,0.000885,0,0
0:0:27.901,81.5848,4.61949,0,0.000885,0,0
0:0:28.298,83.6355,4.7298,0,0.000885,0,0
0:0:28.697,85.2769,4.82633,0,0.000885,0,0
0:0:29.097,86.9805,4.92286,0,0.000885,0,0
0:0:29.495,88.5641,5.01249,0,0.000885,0,0
0:0:29.891,90.3211,5.10902,0,0.000885,0,0
0:0:30.290,92.3139,5.22623,0,0.000885,0,0
0:0:30.690,94.2534,5.33654,0,0.000885,0,0
0:0:31.089,95.7747,5.41928,0,0.000885,0,0
0:0:31.495,97.5362,5.5227,0,0.000885,0,0
0:0:31.901,99.3555,5.61923,0,0.000885,0,0
0:0:32.303,100.588,5.69507,0,0.000885,0,0
0:0:32.707,102.58,5.80539,0,0.000885,0,0
0:0:33.103,104.809,5.92949,0,0.000885,0,0
0:0:33.501,106.628,6.03291,0,0.000885,0,0
0:0:33.897,108.15,6.12254,0,0.000885,0,0
0:0:34.298,110.734,6.26733,0,0.000885,0,0
0:0:34.698,112.14,6.34318,0,0.000885,0,0
0:0:35.093,113.314,6.41212,0,0.000885,0,0
0:0:35.490,115.129,6.51555,0,0.000885,0,0
0:0:35.890,116.89,6.61207,0,0.000885,0,0
0:0:36.291,118.18,6.68791,0,0.000885,0,0
0:0:36.697,120.173,6.79823,0,0.000885,0,0
0:0:37.101,122.228,6.91544,0,0.000885,0,0
0:0:37.504,123.927,7.01197,0,0.000885,0,0
0:0:37.906,125.983,7.12918,0,0.000885,0,0
0:0:38.306,127.918,7.2395,0,0.000885,0,0
0:0:38.703,129.559,7.32913,0,0.000885,0,0
0:0:39.099,130.733,7.39807,0,0.000885,0,0
0:0:39.499,132.784,7.51529,0,0.000885,0,0
0:0:39.900,135.012,7.63939,0,0.000885,0,0
0:0:40.297,136.716,7.73592,0,0.000885,0,0
0:0:40.693,138.3,7.82555,0,0.000885,0,0
0:0:41.098,140.466,7.94966,0,0.000885,0,0
0:0:41.504,142.112,8.03929,0,0.000885,0,0
0:0:41.907,143.695,8.12892,0,0.000885,0,0
0:0:42.310,145.043,8.20476,0,0.000885,0,0
0:0:42.706,147.094,8.32197,0,0.000885,0,0
0:0:43.106,149.029,8.43229,0,0.000885,0,0
0:0:43.506,150.439,8.51503,0,0.000885,0,0
0:0:43.904,152.316,8.61845,0,0.000885,0,0
0:0:44.301,154.015,8.71497,0,0.000885,0,0
0:0:44.697,155.132,8.77703,0,0.000885,0,0
0:0:45.099,157.009,8.88734,0,0.000885,0,0
0:0:45.497,159.117,9.00455,0,0.000885,0,0
0:0:45.893,160.937,9.10797,0,0.000885,0,0
0:0:46.299,162.929,9.21829,0,0.000885,0,0
0:0:46.703,164.513,9.30792,0,0.000885,0,0
0:0:47.106,166.51,9.42513,0,0.000885,0,0
0:0:47.510,167.916,9.50098,0,0.000885,0,0
0:0:47.907,170.438,9.64577,0,0.000885,0,0
0:0:48.306,171.786,9.72161,0,0.000885,0,0
0:0:48.706,173.547,9.81813,0,0.000885,0,0
0:0:49.105,175.011,9.90087,0,0.000885,0,0
0:0:49.503,177.066,10.0181,0,0.000885,0,0
0:0:49.898,178.534,10.1008,0,0.000885,0,0
0:0:50.300,180.469,10.2111,0,0.000885,0,0
0:0:50.699,182.462,10.3283,0,0.000885,0,0
0:0:51.096,184.045,10.418,0,0.000885,0,0
0:0:51.501,185.864,10.5145,0,0.000885,0,0
0:0:51.907,187.506,10.611,0,0.000885,0,0
0:0:52.310,189.441,10.7213,0,0.000885,0,0
0:0:52.714,191.496,10.8386,0,0.000885,0,0
0:0:53.110,192.724,10.9075,0,0.000885,0,0
0:0:53.504,194.427,11.004,0,0.000885,0,0
0:0:53.901,196.184,11.1006,0,0.000885,0,0
0:0:54.298,197.888,11.1971,0,0.000885,0,0
0:0:54.691,199.472,11.2867,0,0.000885,0,0
0:0:55.085,201.58,11.4039,0,0.000885,0,0
0:0:55.479,202.99,11.4867,0,0.000885,0,0
0:0:55.879,205.454,11.6246,0,0.000885,0,0
0:0:56.283,207.038,11.7142,0,0.000885,0,0
0:0:56.684,209.031,11.8314,0,0.000885,0,0
0:0:57.084,210.85,11.9348,0,0.000885,0,0
0:0:57.483,212.314,12.0176,0,0.000885,0,0
0:0:57.878,213.955,12.1072,0,0.000885,0,0
0:0:58.283,216.246,12.2382,0,0.000885,0,0
0:0:58.672,217.767,12.3209,0,0.000885,0,0
0:0:59.071,219.351,12.4106,0,0.000885,0,0
0:0:59.468,221.29,12.5209,0,0.000885,0,0
0:0:59.872,222.874,12.6105,0,0.000885,0,0
0:1:0.278,224.515,12.707,0,0.000885,0,0
0:1:0.681,226.686,12.8311,0,0.000885,0,0
0:1:1.080,227.976,12.9001,0,0.000885,0,0
0:1:1.486,230.262,13.0311,0,0.000885,0,0
0:1:1.887,231.61,13.1069,0,0.000885,0,0
0:1:2.288,233.723,13.2241,0,0.000885,0,0
0:1:2.684,235.422,13.3207,0,0.000885,0,0
0:1:3.081,237.184,13.4241,0,0.000885,0,0
0:1:3.487,238.883,13.5206,0,0.000885,0,0
0:1:3.879,240.818,13.6309,0,0.000885,0,0
0:1:4.285,242.401,13.7206,0,0.000885,0,0
0:1:4.681,243.985,13.8102,0,0.000885,0,0
0:1:5.077,246.04,13.9205,0,0.000885,0,0
0:1:5.483,247.797,14.0239,0,0.000885,0,0
0:1:5.884,249.732,14.1343,0,0.000885,0,0
0:1:6.285,251.142,14.2101,0,0.000885,0,0
0:1:6.688,252.668,14.2997,0,0.000885,0,0
0:1:7.089,254.189,14.3825,0,0.000885,0,0
0:1:7.490,256.129,14.4928,0,0.000885,0,0
0:1:7.885,257.77,14.5893,0,0.000885,0,0
0:1:8.281,259.821,14.6996,0,0.000885,0,0
0:1:8.679,261.524,14.7961,0,0.000885,0,0
0:1:9.083,263.633,14.9203,0,0.000885,0,0
0:1:9.485,265.043,14.9961,0,0.000885,0,0
0:1:9.881,267.036,15.1133,0,0.000885,0,0
0:1:10.289,269.264,15.2374,0,0.000885,0,0
0:1:10.684,270.848,15.327,0,0.000885,0,0
0:1:11.086,272.431,15.4167,0,0.000885,0,0
0:1:11.490,274.776,15.5477,0,0.000885,0,0
0:1:11.892,276.243,15.6304,0,0.000885,0,0
0:1:12.293,278.356,15.7545,0,0.000885,0,0
0:1:12.693,279.704,15.8304,0,0.000885,0,0
0:1:13.086,281.23,15.9131,0,0.000885,0,0
0:1:13.481,282.929,16.0096,0,0.000885,0,0
0:1:13.881,284.633,16.1062,0,0.000885,0,0
0:1:14.285,286.568,16.2165,0,0.000885,0,0
0:1:14.687,287.973,16.2992,0,0.000885,0,0
0:1:15.083,289.615,16.3888,0,0.000885,0,0
0:1:15.488,291.55,16.4992,0,0.000885,0,0
0:1:15.885,293.018,16.5819,0,0.000885,0,0
0:1:16.288,294.486,16.6646,0,0.000885,0,0
0:1:16.690,296.83,16.7956,0,0.000885,0,0
0:1:17.090,298.591,16.8991,0,0.000885,0,0
0:1:17.490,300.348,16.9956,0,0.000885,0,0
0:1:17.884,302.283,17.1059,0,0.000885,0,0
0:1:18.289,304.574,17.2369,0,0.000885,0,0
0:1:18.683,306.625,17.3541,0,0.000885,0,0
0:1:19.080,308.03,17.4299,0,0.000885,0,0
0:1:19.474,309.734,17.5265,0,0.000885,0,0
0:1:19.880,311.553,17.6299,0,0.000885,0,0
0:1:20.284,313.72,17.754,0,0.000885,0,0
0:1:20.679,315.539,17.8574,0,0.000885,0,0
0:1:21.088,317.007,17.9402,0,0.000885,0,0
0:1:21.491,319.178,18.0643,0,0.000885,0,0
0:1:21.892,319.823,18.0987,0,0.000885,0,0
0:1:22.293,321.286,18.1815,0,0.000885,0,0
0:1:22.692,322.754,18.2642,0,0.000885,0,0
0:1:23.088,324.805,18.3814,0,0.000885,0,0
0:1:23.480,326.566,18.4779,0,0.000885,0,0
0:1:23.885,328.15,18.5676,0,0.000885,0,0
0:1:24.281,330.143,18.6848,0,0.000885,0,0
0:1:24.677,332.198,18.7951,0,0.000885,0,0
0:1:25.070,334.013,18.8985,0,0.000885,0,0
0:1:25.486,336.01,19.0157,0,0.000885,0,0
0:1:25.880,337.473,19.0985,0,0.000885,0,0
0:1:26.280,339.235,19.195,0,0.000885,0,0
0:1:26.684,341.17,19.3053,0,0.000885,0,0
0:1:27.085,343.225,19.4225,0,0.000885,0,0
0:1:27.486,345.218,19.5328,0,0.000885,0,0
0:1:27.884,346.392,19.6018,0,0.000885,0,0
0:1:28.277,348.5,19.719,0,0.000885,0,0
0:1:28.685,350.493,19.8362,0,0.000885,0,0
0:1:29.087,352.197,19.9327,0,0.000885,0,0
0:1:29.480,353.371,19.9948,0,0.000885,0,0
0:1:29.880,355.364,20.112,0,0.000885,0,0
0:1:30.285,357.121,20.2085,0,0.000885,0,0
0:1:30.675,358.473,20.2844,0,0.000885,0,0
0:1:31.078,360.057,20.374,0,0.000885,0,0
0:1:31.483,362.517,20.5119,0,0.000885,0,0
0:1:31.885,364.456,20.6222,0,0.000885,0,0
0:1:32.286,366.213,20.7256,0,0.000885,0,0
0:1:32.688,367.975,20.8222,0,0.000885,0,0
0:1:33.084,369.79,20.9256,0,0.000885,0,0
0:1:33.481,371.435,21.0221,0,0.000885,0,0
0:1:33.885,372.841,21.098,0,0.000885,0,0
0:1:34.290,374.776,21.2083,0,0.000885,0,0
0:1:34.681,376.48,21.3048,0,0.000885,0,0
0:1:35.077,378.179,21.4013,0,0.000885,0,0
0:1:35.474,379.762,21.491,0,0.000885,0,0
0:1:35.868,381.11,21.5668,0,0.000885,0,0
0:1:36.271,383.632,21.7116,0,0.000885,0,0
0:1:36.673,385.745,21.8288,0,0.000885,0,0
0:1:37.073,388.032,21.9598,0,0.000885,0,0
0:1:37.473,389.437,22.0356,0,0.000885,0,0
0:1:37.877,391.021,22.1253,0,0.000885,0,0
0:1:38.271,392.489,22.208,0,0.000885,0,0
0:1:38.677,395.069,22.3597,0,0.000885,0,0
0:1:39.087,396.537,22.4424,0,0.000885,0,0
0:1:39.491,398.12,22.5321,0,0.000885,0,0
0:1:39.884,399.82,22.6286,0,0.000885,0,0
0:1:40.290,401.581,22.7251,0,0.000885,0,0
0:1:40.687,402.987,22.8079,0,0.000885,0,0
0:1:41.081,404.922,22.9113,0,0.000885,0,0
0:1:41.486,406.625,23.0078,0,0.000885,0,0
0:1:41.888,408.382,23.1112,0,0.000885,0,0
0:1:42.288,410.317,23.2215,0,0.000885,0,0
0:1:42.689,411.843,23.3043,0,0.000885,0,0
0:1:43.083,413.836,23.4215,0,0.000885,0,0
0:1:43.487,415.655,23.518,0,0.000885,0,0
0:1:43.892,417.532,23.6283,0,0.000885,0,0
0:1:44.288,419.116,23.718,0,0.000885,0,0
0:1:44.682,420.406,23.7869,0,0.000885,0,0
0:1:45.086,422.692,23.9179,0,0.000885,0,0
0:1:45.478,424.396,24.0144,0,0.000885,0,0
0:1:45.876,426.331,24.1248,0,0.000885,0,0
0:1:46.285,428.15,24.2282,0,0.000885,0,0
0:1:46.688,429.907,24.3247,0,0.000885,0,0
0:1:47.090,431.024,24.3937,0,0.000885,0,0
0:1:47.491,433.195,24.5109,0,0.000885,0,0
0:1:47.890,434.542,24.5867,0,0.000885,0,0
0:1:48.286,436.184,24.6832,0,0.000885,0,0
0:1:48.687,438.003,24.7867,0,0.000885,0,0
0:1:49.080,439.996,24.897,0,0.000885,0,0
0:1:49.488,441.757,25.0004,0,0.000885,0,0
0:1:49.884,443.399,25.09,0,0.000885,0,0
0:1:50.290,445.334,25.2003,0,0.000885,0,0
0:1:50.680,447.447,25.3175,0,0.000885,0,0
0:1:51.084,449.204,25.421,0,0.000885,0,0
0:1:51.488,450.965,25.5175,0,0.000885,0,0
0:1:51.888,453.136,25.6416,0,0.000885,0,0
0:1:52.289,454.835,25.7381,0,0.000885,0,0
0:1:52.684,456.477,25.8347,0,0.000885,0,0
0:1:53.090,458.002,25.9174,0,0.000885,0,0
0:1:53.487,459.644,26.0139,0,0.000885,0,0
0:1:53.891,461.405,26.1104,0,0.000885,0,0
0:1:54.287,463.104,26.207,0,0.000885,0,0
0:1:54.690,464.688,26.2966,0,0.000885,0,0
0:1:55.086,466.739,26.4138,0,0.000885,0,0
0:1:55.485,468.794,26.531,0,0.000885,0,0
0:1:55.888,470.551,26.6276,0,0.000885,0,0
0:1:56.291,472.254,26.7241,0,0.000885,0,0
0:1:56.693,474.483,26.8482,0,0.000885,0,0
0:1:57.094,475.831,26.924,0,0.000885,0,0
0:1:57.495,478.295,27.0688,0,0.000885,0,0
0:1:57.890,479.994,27.1653,0,0.000885,0,0
0:1:58.291,481.698,27.2619,0,0.000885,0,0
0:1:58.688,482.868,27.3239,0,0.000885,0,0
0:1:59.084,483.869,27.3791,0,0.000885,0,0
0:1:59.490,485.684,27.4825,0,0.000885,0,0
0:1:59.881,488.263,27.6273,0,0.000885,0,0
0:2:0.287,489.731,27.71,0,0.000885,0,0
0:2:0.693,491.493,27.8135,0,0.000885,0,0
0:2:1.091,492.841,27.8893,0,0.000885,0,0
0:2:1.496,494.482,27.9789,0,0.000885,0,0
0:2:1.896,496.181,28.0755,0,0.000885,0,0
0:2:2.297,498.121,28.1858,0,0.000885,0,0
0:2:2.695,500.638,28.3306,0,0.000885,0,0
0:2:3.093,501.813,28.3995,0,0.000885,0,0
0:2:3.486,503.984,28.5167,0,0.000885,0,0
0:2:3.889,505.803,28.6201,0,0.000885,0,0
0:2:4.293,507.502,28.7167,0,0.000885,0,0
0:2:4.691,509.086,28.8063,0,0.000885,0,0
0:2:5.089,510.789,28.9028,0,0.000885,0,0
0:2:5.491,512.898,29.0269,0,0.000885,0,0
0:2:5.894,514.539,29.1166,0,0.000885,0,0
0:2:6.295,516.536,29.2269,0,0.000885,0,0
0:2:6.700,518.236,29.3234,0,0.000885,0,0
0:2:7.101,519.935,29.4199,0,0.000885,0,0
0:2:7.503,521.874,29.5302,0,0.000885,0,0
0:2:7.896,523.689,29.6337,0,0.000885,0,0
0:2:8.295,525.566,29.744,0,0.000885,0,0
0:2:8.691,526.683,29.806,0,0.000885,0,0
0:2:9.094,528.266,29.8957,0,0.000885,0,0
0:2:9.488,530.375,30.0129,0,0.000885,0,0
0:2:9.893,532.372,30.1232,0,0.000885,0,0
0:2:10.291,533.836,30.2059,0,0.000885,0,0
0:2:10.688,535.655,30.3094,0,0.000885,0,0
0:2:11.077,537.238,30.399,0,0.000885,0,0
0:2:11.481,539.351,30.5231,0,0.000885,0,0
0:2:11.881,540.815,30.6058,0,0.000885,0,0
0:2:12.282,542.341,30.6886,0,0.000885,0,0
0:2:12.682,544.16,30.792,0,0.000885,0,0
0:2:13.090,546.21,30.9092,0,0.000885,0,0
0:2:13.494,548.323,31.0264,0,0.000885,0,0
0:2:13.891,549.613,31.1023,0,0.000885,0,0
0:2:14.289,551.842,31.2264,0,0.000885,0,0
0:2:14.693,553.425,31.316,0,0.000885,0,0
0:2:15.082,555.654,31.447,0,0.000885,0,0
0:2:15.490,557.295,31.5366,0,0.000885,0,0
0:2:15.887,558.999,31.6331,0,0.000885,0,0
0:2:16.280,560.641,31.7228,0,0.000885,0,0
0:2:16.687,562.633,31.84,0,0.000885,0,0
0:2:17.088,564.217,31.9296,0,0.000885,0,0
0:2:17.488,564.804,31.9641,0,0.000885,0,0
0:2:17.889,567.148,32.0951,0,0.000885,0,0
0:2:18.280,569.088,32.2054,0,0.000885,0,0
0:2:18.689,571.196,32.3226,0,0.000885,0,0
0:2:19.091,572.37,32.3916,0,0.000885,0,0
0:2:19.488,574.19,32.495,0,0.000885,0,0
0:2:19.886,576.298,32.6122,0,0.000885,0,0
0:2:20.291,577.882,32.7018,0,0.000885,0,0
0:2:20.681,579.585,32.7984,0,0.000885,0,0
0:2:21.086,581.988,32.9363,0,0.000885,0,0
0:2:21.489,583.571,33.0259,0,0.000885,0,0
0:2:21.889,585.506,33.1362,0,0.000885,0,0
0:2:22.289,587.325,33.2327,0,0.000885,0,0
0:2:22.694,588.558,33.3086,0,0.000885,0,0
0:2:23.092,590.906,33.4396,0,0.000885,0,0
0:2:23.491,592.254,33.5154,0,0.000885,0,0
0:2:23.888,593.722,33.5982,0,0.000885,0,0
0:2:24.294,596.071,33.7292,0,0.000885,0,0
0:2:24.689,597.654,33.8188,0,0.000885,0,0
0:2:25.089,599.358,33.9153,0,0.000885,0,0
0:2:25.496,601.413,34.0325,0,0.000885,0,0
0:2:25.891,602.881,34.1153,0,0.000885,0,0
0:2:26.297,604.7,34.2187,0,0.000885,0,0
0:2:26.701,606.755,34.3359,0,0.000885,0,0
0:2:27.104,608.81,34.4531,0,0.000885,0,0
0:2:27.507,610.51,34.5496,0,0.000885,0,0
0:2:27.902,611.862,34.6255,0,0.000885,0,0
0:2:28.299,613.503,34.7151,0,0.000885,0,0
0:2:28.698,615.091,34.8047,0,0.000885,0,0
0:2:29.096,616.439,34.8806,0,0.000885,0,0
0:2:29.493,618.672,35.0116,0,0.000885,0,0
0:2:29.888,620.313,35.1012,0,0.000885,0,0
0:2:30.287,621.897,35.1908,0,0.000885,0,0
0:2:30.684,623.543,35.2874,0,0.000885,0,0
0:2:31.091,626.007,35.4253,0,0.000885,0,0
0:2:31.495,627.591,35.5149,0,0.000885,0,0
0:2:31.899,629.352,35.6114,0,0.000885,0,0
0:2:32.301,630.94,35.7011,0,0.000885,0,0
0:2:32.704,632.933,35.8183,0,0.000885,0,0
0:2:33.100,635.339,35.9562,0,0.000885,0,0
0:2:33.496,636.514,36.0182,0,0.000885,0,0
0:2:33.894,638.275,36.1216,0,0.000885,0,0
0:2:34.294,639.859,36.2113,0,0.000885,0,0
0:2:34.691,641.563,36.3078,0,0.000885,0,0
0:2:35.095,643.796,36.4319,0,0.000885,0,0
0:2:35.491,645.379,36.5215,0,0.000885,0,0
0:2:35.891,646.789,36.5974,0,0.000885,0,0
0:2:36.290,648.315,36.687,0,0.000885,0,0
0:2:36.694,650.837,36.8318,0,0.000885,0,0
0:2:37.098,652.247,36.9076,0,0.000885,0,0
0:2:37.500,654.009,37.0111,0,0.000885,0,0
0:2:37.903,655.477,37.0938,0,0.000885,0,0
0:2:38.300,657.821,37.2248,0,0.000885,0,0
0:2:38.694,659.524,37.3213,0,0.000885,0,0
0:2:39.090,661.108,37.411,0,0.000885,0,0
0:2:39.490,662.638,37.5006,0,0.000885,0,0
0:2:39.898,664.751,37.6178,0,0.000885,0,0
0:2:40.294,666.393,37.7074,0,0.000885,0,0
0:2:40.689,668.27,37.8177,0,0.000885,0,0
0:2:41.092,669.973,37.9143,0,0.000885,0,0
0:2:41.496,671.971,38.0246,0,0.000885,0,0
0:2:41.899,673.612,38.1211,0,0.000885,0,0
0:2:42.300,675.258,38.2107,0,0.000885,0,0
0:2:42.699,677.544,38.3417,0,0.000885,0,0
0:2:43.099,679.19,38.4314,0,0.000885,0,0
0:2:43.496,680.716,38.521,0,0.000885,0,0
0:2:43.891,682.535,38.6244,0,0.000885,0,0
0:2:44.288,683.709,38.6934,0,0.000885,0,0
0:2:44.684,685.413,38.783,0,0.000885,0,0
0:2:45.082,687.642,38.914,0,0.000885,0,0
0:2:45.478,689.225,39.0036,0,0.000885,0,0
0:2:45.895,691.165,39.114,0,0.000885,0,0
0:2:46.298,692.748,39.2036,0,0.000885,0,0
0:2:46.704,694.332,39.2932,0,0.000885,0,0
0:2:47.107,696.387,39.4104,0,0.000885,0,0
0:2:47.510,698.268,39.5139,0,0.000885,0,0
0:2:47.906,699.732,39.5966,0,0.000885,0,0
0:2:48.306,701.32,39.6862,0,0.000885,0,0
0:2:48.706,703.313,39.7965,0,0.000885,0,0
0:2:49.101,705.546,39.9275,0,0.000885,0,0
0:2:49.496,707.365,40.031,0,0.000885,0,0
0:2:49.893,709.184,40.1344,0,0.000885,0,0
0:2:50.292,710.474,40.2033,0,0.000885,0,0
0:2:50.691,712.356,40.3136,0,0.000885,0,0
0:2:51.084,713.824,40.3964,0,0.000885,0,0
0:2:51.490,715.995,40.5136,0,0.000885,0,0
0:2:51.893,717.93,40.6239,0,0.000885,0,0
0:2:52.296,719.398,40.7066,0,0.000885,0,0
0:2:52.698,721.395,40.8239,0,0.000885,0,0
0:2:53.093,722.978,40.9135,0,0.000885,0,0
0:2:53.489,724.976,41.0238,0,0.000885,0,0
0:2:53.891,726.737,41.1272,0,0.000885,0,0
0:2:54.286,727.969,41.1962,0,0.000885,0,0
0:2:54.692,729.553,41.2858,0,0.000885,0,0
0:2:55.086,731.43,41.3892,0,0.000885,0,0
0:2:55.485,733.543,41.5133,0,0.000885,0,0
0:2:55.896,736.012,41.6512,0,0.000885,0,0
0:2:56.302,737.359,41.7271,0,0.000885,0,0
0:2:56.704,738.649,41.796,0,0.000885,0,0
0:2:57.107,740.762,41.9201,0,0.000885,0,0
0:2:57.508,742.466,42.0167,0,0.000885,0,0
0:2:57.905,743.876,42.0925,0,0.000885,0,0
0:2:58.303,745.695,42.1959,0,0.000885,0,0
0:2:58.697,747.573,42.3062,0,0.000885,0,0
0:2:59.096,749.334,42.4028,0,0.000885,0,0
0:2:59.496,751.153,42.5062,0,0.000885,0,0
0:2:59.891,752.679,42.5958,0,0.000885,0,0
0:3:0.285,754.734,42.7061,0,0.000885,0,0
0:3:0.693,756.789,42.8233,0,0.000885,0,0
0:3:1.094,758.493,42.9199,0,0.000885,0,0
0:3:1.499,760.37,43.0302,0,0.000885,0,0
0:3:1.903,762.132,43.1267,0,0.000885,0,0
0:3:2.305,763.773,43.2232,0,0.000885,0,0
0:3:2.705,765.77,43.3335,0,0.000885,0,0
0:3:3.102,767.474,43.4301,0,0.000885,0,0
0:3:3.500,769.115,43.5197,0,0.000885,0,0
0:3:3.894,770.703,43.6093,0,0.000885,0,0
0:3:4.291,771.935,43.6852,0,0.000885,0,0
0:3:4.690,773.928,43.7955,0,0.000885,0,0
0:3:5.096,775.868,43.9058,0,0.000885,0,0
0:3:5.493,777.745,44.0092,0,0.000885,0,0
0:3:5.885,779.684,44.1196,0,0.000885,0,0
0:3:6.291,781.326,44.2161,0,0.000885,0,0
0:3:6.696,783.439,44.3333,0,0.000885,0,0
0:3:7.099,784.964,44.4229,0,0.000885,0,0
0:3:7.501,786.61,44.5126,0,0.000885,0,0
0:3:7.898,788.078,44.5953,0,0.000885,0,0
0:3:8.296,789.777,44.6918,0,0.000885,0,0
0:3:8.695,791.832,44.809,0,0.000885,0,0
0:3:9.088,793.3,44.8918,0,0.000885,0,0
0:3:9.484,795.355,45.009,0,0.000885,0,0
0:3:9.894,797.468,45.1262,0,0.000885,0,0
0:3:10.294,799.639,45.2503,0,0.000885,0,0
0:3:10.687,800.462,45.2986,0,0.000885,0,0
0:3:11.093,802.633,45.4227,0,0.000885,0,0
0:3:11.497,804.572,45.5261,0,0.000885,0,0
0:3:11.903,806.098,45.6157,0,0.000885,0,0
0:3:12.305,808.446,45.7467,0,0.000885,0,0
0:3:12.707,809.621,45.8157,0,0.000885,0,0
0:3:13.104,811.965,45.9467,0,0.000885,0,0
0:3:13.503,812.966,46.0018,0,0.000885,0,0
0:3:13.901,814.843,46.1121,0,0.000885,0,0
0:3:14.297,816.253,46.188,0,0.000885,0,0
0:3:14.691,818.246,46.3052,0,0.000885,0,0
0:3:15.088,819.834,46.3948,0,0.000885,0,0
0:3:15.488,821.885,46.512,0,0.000885,0,0
0:3:15.895,823.766,46.6155,0,0.000885,0,0
0:3:16.300,825.759,46.7258,0,0.000885,0,0
0:3:16.703,827.289,46.8154,0,0.000885,0,0
0:3:17.104,829.282,46.9257,0,0.000885,0,0
0:3:17.508,831.101,47.0291,0,0.000885,0,0
0:3:17.903,832.689,47.1188,0,0.000885,0,0
0:3:18.300,834.215,47.2084,0,0.000885,0,0
0:3:18.697,835.914,47.3049,0,0.000885,0,0
0:3:19.097,838.263,47.4359,0,0.000885,0,0
0:3:19.495,840.14,47.5394,0,0.000885,0,0
0:3:19.898,841.608,47.6221,0,0.000885,0,0
0:3:20.294,843.134,47.7117,0,0.000885,0,0
0:3:20.694,844.722,47.8014,0,0.000885,0,0
0:3:21.102,846.715,47.9117,0,0.000885,0,0
0:3:21.508,848.77,48.0289,0,0.000885,0,0
0:3:21.911,850.825,48.1461,0,0.000885,0,0
0:3:22.314,852.177,48.2219,0,0.000885,0,0
0:3:22.716,854.112,48.3322,0,0.000885,0,0
0:3:23.112,855.695,48.4219,0,0.000885,0,0
0:3:23.508,857.106,48.5046,0,0.000885,0,0
0:3:23.905,858.983,48.608,0,0.000885,0,0
0:3:24.302,860.571,48.6977,0,0.000885,0,0
0:3:24.702,863.151,48.8425,0,0.000885,0,0
0:3:25.098,864.445,48.9183,0,0.000885,0,0
0:3:25.494,865.851,48.9941,0,0.000885,0,0
0:3:25.892,867.377,49.0838,0,0.000885,0,0
0:3:26.294,869.845,49.2217,0,0.000885,0,0
0:3:26.700,871.545,49.3182,0,0.000885,0,0
0:3:27.102,873.19,49.4147,0,0.000885,0,0
0:3:27.505,874.658,49.4975,0,0.000885,0,0
0:3:27.906,876.887,49.6216,0,0.000885,0,0
0:3:28.305,878.826,49.7319,0,0.000885,0,0
0:3:28.701,880.116,49.8077,0,0.000885,0,0
0:3:29.096,882.056,49.9111,0,0.000885,0,0
0:3:29.494,883.639,50.0008,0,0.000885,0,0
0:3:29.894,885.868,50.1318,0,0.000885,0,0
0:3:30.300,887.456,50.2214,0,0.000885,0,0
0:3:30.696,889.391,50.3317,0,0.000885,0,0
0:3:31.101,891.326,50.442,0,0.000885,0,0
0:3:31.505,893.029,50.5386,0,0.000885,0,0
0:3:31.906,894.146,50.6006,0,0.000885,0,0
0:3:32.309,896.023,50.704,0,0.000885,0,0
0:3:32.704,897.607,50.7937,0,0.000885,0,0
0:3:33.102,899.546,50.904,0,0.000885,0,0
0:3:33.502,901.543,51.0143,0,0.000885,0,0
0:3:33.897,903.243,51.1108,0,0.000885,0,0
0:3:34.302,905.355,51.2349,0,0.000885,0,0
0:3:34.697,907.175,51.3384,0,0.000885,0,0
0:3:35.098,908.878,51.4349,0,0.000885,0,0
0:3:35.495,910.289,51.5107,0,0.000885,0,0
0:3:35.900,912.05,51.6142,0,0.000885,0,0
0:3:36.305,913.869,51.7176,0,0.000885,0,0
0:3:36.708,915.689,51.8141,0,0.000885,0,0
0:3:37.111,917.036,51.8968,0,0.000885,0,0
0:3:37.514,919.149,52.014,0,0.000885,0,0
0:3:37.909,920.737,52.1037,0,0.000885,0,0
0:3:38.307,922.73,52.214,0,0.000885,0,0
0:3:38.705,924.26,52.3036,0,0.000885,0,0
0:3:39.102,925.844,52.3933,0,0.000885,0,0
0:3:39.499,927.957,52.5105,0,0.000885,0,0
0:3:39.890,930.248,52.6415,0,0.000885,0,0
0:3:40.290,931.418,52.7104,0,0.000885,0,0
0:3:40.689,933.121,52.8069,0,0.000885,0,0
0:3:41.084,934.705,52.8966,0,0.000885,0,0
0:3:41.489,936.938,53.0207,0,0.000885,0,0
0:3:41.895,938.699,53.1172,0,0.000885,0,0
0:3:42.296,940.341,53.2137,0,0.000885,0,0
0:3:42.700,942.338,53.3241,0,0.000885,0,0
0:3:43.096,943.806,53.4068,0,0.000885,0,0
0:3:43.500,945.389,53.4964,0,0.000885,0,0
0:3:43.898,947.56,53.6205,0,0.000885,0,0
0:3:44.297,949.379,53.7239,0,0.000885,0,0
0:3:44.692,951.083,53.8205,0,0.000885,0,0
0:3:45.087,953.138,53.9377,0,0.000885,0,0
0:3:45.495,954.313,53.9997,0,0.000885,0,0
0:3:45.895,956.016,54.0963,0,0.000885,0,0
0:3:46.290,958.067,54.2135,0,0.000885,0,0
0:3:46.698,959.828,54.3169,0,0.000885,0,0
0:3:47.101,961.296,54.3996,0,0.000885,0,0
0:3:47.504,962.884,54.4893,0,0.000885,0,0
0:3:47.906,965.113,54.6134,0,0.000885,0,0
0:3:48.303,966.696,54.703,0,0.000885,0,0
0:3:48.698,968.342,54.7995,0,0.000885,0,0
0:3:49.095,970.335,54.9098,0,0.000885,0,0
0:3:49.491,972.804,55.0477,0,0.000885,0,0
0:3:49.900,974.859,55.165,0,0.000885,0,0
0:3:50.296,975.62,55.2063,0,0.000885,0,0
0:3:50.688,977.265,55.3028,0,0.000885,0,0
0:3:51.091,978.907,55.3925,0,0.000885,0,0
0:3:51.498,980.49,55.4821,0,0.000885,0,0
0:3:51.902,982.43,55.5924,0,0.000885,0,0
0:3:52.304,984.365,55.7027,0,0.000885,0,0
0:3:52.700,986.068,55.7993,0,0.000885,0,0
0:3:53.099,988.297,55.9234,0,0.000885,0,0
0:3:53.496,989.707,56.0061,0,0.000885,0,0
0:3:53.890,991.584,56.1095,0,0.000885,0,0
0:3:54.285,993.639,56.2267,0,0.000885,0,0
0:3:54.693,995.285,56.3233,0,0.000885,0,0
0:3:55.093,996.984,56.4198,0,0.000885,0,0
0:3:55.501,998.982,56.5301,0,0.000885,0,0
0:3:55.893,1000.45,56.6129,0,0.000885,0,0
0:3:56.299,1002.27,56.7163,0,0.000885,0,0
0:3:56.704,1003.79,56.8059,0,0.000885,0,0
0:3:57.106,1005.5,56.9024,0,0.000885,0,0
0:3:57.508,1007.2,56.999,0,0.000885,0,0
0:3:57.905,1009.19,57.1093,0,0.000885,0,0
0:3:58.304,1010.9,57.2058,0,0.000885,0,0
0:3:58.703,1012.9,57.3161,0,0.000885,0,0
0:3:59.098,1014.24,57.392,0,0.000885,0,0
0:3:59.491,1016.24,57.5092,0,0.000885,0,0
0:3:59.888,1017.94,57.6057,0,0.000885,0,0
0:4:0.287,1019.94,57.716,0,0.000885,0,0
0:4:0.685,1021.35,57.7988,0,0.000885,0,0
0:4:1.090,1023.7,57.9298,0,0.000885,0,0
0:4:1.493,1025.75,58.047,0,0.000885,0,0
0:4:1.900,1026.92,58.109,0,0.000885,0,0
0:4:2.302,1028.39,58.1918,0,0.000885,0,0
0:4:2.705,1030.21,58.2952,0,0.000885,0,0
0:4:3.100,1031.97,58.3986,0,0.000885,0,0
0:4:3.496,1033.79,58.502,0,0.000885,0,0
0:4:3.897,1035.61,58.6054,0,0.000885,0,0
0:4:4.292,1037.61,58.7158,0,0.000885,0,0
0:4:4.687,1039.42,58.8192,0,0.000885,0,0
0:4:5.092,1040.95,58.9088,0,0.000885,0,0
0:4:5.492,1043.06,59.026,0,0.000885,0,0
0:4:5.903,1044.65,59.1156,0,0.000885,0,0
0:4:6.308,1046.29,59.2053,0,0.000885,0,0
0:4:6.711,1048.29,59.3225,0,0.000885,0,0
0:4:7.114,1049.64,59.3983,0,0.000885,0,0
0:4:7.515,1051.93,59.5293,0,0.000885,0,0
0:4:7.912,1053.86,59.6397,0,0.000885,0,0
0:4:8.309,1055.86,59.75,0,0.000885,0,0
0:4:8.702,1056.74,59.7982,0,0.000885,0,0
0:4:9.103,1058.74,59.9154,0,0.000885,0,0
0:4:9.502,1060.09,59.9913,0,0.000885,0,0
0:4:9.894,1062.32,60.1154,0,0.000885,0,0
0:4:10.290,1063.67,60.1912,0,0.000885,0,0
0:4:10.699,1065.9,60.3153,0,0.000885,0,0
0:4:11.100,1067.07,60.3843,0,0.000885,0,0
0:4:11.506,1068.84,60.4808,0,0.000885,0,0
0:4:11.909,1071.07,60.6118,0,0.000885,0,0
0:4:12.312,1072.48,60.6877,0,0.000885,0,0
0:4:12.711,1074.53,60.8049,0,0.000885,0,0
0:4:13.110,1076.41,60.9152,0,0.000885,0,0
0:4:13.507,1078.34,61.0186,0,0.000885,0,0
0:4:13.901,1079.75,61.1013,0,0.000885,0,0
0:4:14.300,1081.75,61.2117,0,0.000885,0,0
0:4:14.699,1083.51,61.3151,0,0.000885,0,0
0:4:15.094,1085.74,61.4392,0,0.000885,0,0
0:4:15.490,1086.97,61.5081,0,0.000885,0,0
0:4:15.894,1089.26,61.6391,0,0.000885,0,0
0:4:16.299,1091.08,61.7426,0,0.000885,0,0
0:4:16.705,1092.49,61.8253,0,0.000885,0,0
0:4:17.108,1094.25,61.9218,0,0.000885,0,0
0:4:17.510,1096.13,62.0252,0,0.000885,0,0
0:4:17.909,1097.89,62.1287,0,0.000885,0,0
0:4:18.308,1099.07,62.1976,0,0.000885,0,0
0:4:18.705,1100.94,62.301,0,0.000885,0,0
0:4:19.101,1103,62.4182,0,0.000885,0,0
0:4:19.494,1104.88,62.5217,0,0.000885,0,0
0:4:19.894,1106.11,62.5906,0,0.000885,0,0
0:4:20.303,1108.46,62.7285,0,0.000885,0,0
0:4:20.699,1110.04,62.8181,0,0.000885,0,0
0:4:21.092,1111.62,62.9078,0,0.000885,0,0
0:4:21.495,1113.56,63.0181,0,0.000885,0,0
0:4:21.902,1115.5,63.1215,0,0.000885,0,0
0:4:22.304,1117.14,63.218,0,0.000885,0,0
0:4:22.705,1118.73,63.3077,0,0.000885,0,0
0:4:23.102,1121.02,63.4387,0,0.000885,0,0
0:4:23.501,1122.78,63.5352,0,0.000885,0,0
0:4:23.896,1124.13,63.611,0,0.000885,0,0
0:4:24.292,1125.95,63.7145,0,0.000885,0,0
0:4:24.687,1127.65,63.811,0,0.000885,0,0
0:4:25.087,1129.41,63.9144,0,0.000885,0,0
0:4:25.495,1131.17,64.0109,0,0.000885,0,0
0:4:25.904,1133.34,64.135,0,0.000885,0,0
0:4:26.308,1135.4,64.2522,0,0.000885,0,0
0:4:26.712,1136.93,64.335,0,0.000885,0,0
0:4:27.115,1138.27,64.4108,0,0.000885,0,0
0:4:27.518,1140.33,64.528,0,0.000885,0,0
0:4:27.914,1142.27,64.6383,0,0.000885,0,0
0:4:28.309,1143.21,64.6935,0,0.000885,0,0
0:4:28.707,1145.08,64.7969,0,0.000885,0,0
0:4:29.105,1147.02,64.9072,0,0.000885,0,0
0:4:29.504,1148.66,65.0038,0,0.000885,0,0
0:4:29.899,1150.31,65.0934,0,0.000885,0,0
0:4:30.294,1152.19,65.2037,0,0.000885,0,0
0:4:30.692,1153.95,65.3002,0,0.000885,0,0
0:4:31.093,1155.83,65.4037,0,0.000885,0,0
0:4:31.500,1157.94,65.5278,0,0.000885,0,0
0:4:31.905,1159.88,65.6381,0,0.000885,0,0
0:4:32.306,1161.7,65.7415,0,0.000885,0,0
0:4:32.705,1163.22,65.8242,0,0.000885,0,0
0:4:33.104,1164.75,65.9139,0,0.000885,0,0
0:4:33.500,1166.92,66.0311,0,0.000885,0,0
0:4:33.894,1168.51,66.1207,0,0.000885,0,0
0:4:34.290,1169.91,66.2035,0,0.000885,0,0
0:4:34.690,1171.85,66.3138,0,0.000885,0,0
0:4:35.097,1173.91,66.431,0,0.000885,0,0
0:4:35.491,1175.79,66.5344,0,0.000885,0,0
0:4:35.887,1176.84,66.5965,0,0.000885,0,0
0:4:36.292,1178.01,66.6654,0,0.000885,0,0
0:4:36.700,1180.18,66.7826,0,0.000885,0,0
0:4:37.102,1182.36,66.9067,0,0.000885,0,0
0:4:37.505,1184.12,67.0101,0,0.000885,0,0
0:4:37.901,1185.88,67.1067,0,0.000885,0,0
0:4:38.308,1187.7,67.2101,0,0.000885,0,0
0:4:38.707,1188.99,67.2859,0,0.000885,0,0
0:4:39.105,1191.16,67.4031,0,0.000885,0,0
0:4:39.497,1193.04,67.5135,0,0.000885,0,0
0:4:39.895,1194.98,67.6238,0,0.000885,0,0
0:4:40.293,1196.5,67.7065,0,0.000885,0,0
0:4:40.691,1198.5,67.8237,0,0.000885,0,0
0:4:41.095,1200.32,67.9271,0,0.000885,0,0
0:4:41.502,1202.31,68.0375,0,0.000885,0,0
0:4:41.907,1203.67,68.1133,0,0.000885,0,0
0:4:42.308,1205.19,68.2029,0,0.000885,0,0
0:4:42.711,1206.95,68.2995,0,0.000885,0,0
0:4:43.109,1208.6,68.396,0,0.000885,0,0
0:4:43.504,1210.77,68.5132,0,0.000885,0,0
0:4:43.901,1212.59,68.6166,0,0.000885,0,0
0:4:44.302,1214.94,68.7545,0,0.000885,0,0
0:4:44.697,1216.46,68.8373,0,0.000885,0,0
0:4:45.103,1217.99,68.9269,0,0.000885,0,0
0:4:45.496,1218.99,68.982,0,0.000885,0,0
0:4:45.895,1221.04,69.0993,0,0.000885,0,0
0:4:46.296,1223.33,69.2234,0,0.000885,0,0
0:4:46.704,1224.97,69.3199,0,0.000885,0,0
0:4:47.105,1226.44,69.4026,0,0.000885,0,0
0:4:47.506,1228.02,69.4923,0,0.000885,0,0
0:4:47.907,1230.08,69.6095,0,0.000885,0,0
0:4:48.306,1231.66,69.6991,0,0.000885,0,0
0:4:48.703,1233.6,69.8094,0,0.000885,0,0
0:4:49.097,1235.42,69.9128,0,0.000885,0,0
0:4:49.494,1236.89,69.9956,0,0.000885,0,0
0:4:49.894,1238.77,70.099,0,0.000885,0,0
0:4:50.292,1240.82,70.2162,0,0.000885,0,0
0:4:50.697,1242.47,70.3058,0,0.000885,0,0
0:4:51.092,1244.52,70.4231,0,0.000885,0,0
0:4:51.496,1246.28,70.5265,0,0.000885,0,0
0:4:51.903,1248.22,70.6368,0,0.000885,0,0
0:4:52.306,1249.86,70.7264,0,0.000885,0,0
0:4:52.709,1251.51,70.8229,0,0.000885,0,0
0:4:53.105,1253.03,70.9057,0,0.000885,0,0
0:4:53.504,1255.26,71.0367,0,0.000885,0,0
0:4:53.903,1256.73,71.1194,0,0.000885,0,0
0:4:54.298,1258.61,71.2228,0,0.000885,0,0
0:4:54.691,1259.96,71.2987,0,0.000885,0,0
0:4:55.089,1261.48,71.3883,0,0.000885,0,0
0:4:55.487,1263.01,71.4711,0,0.000885,0,0
0:4:55.885,1265.47,71.6089,0,0.000885,0,0
0:4:56.289,1267.12,71.7055,0,0.000885,0,0
0:4:56.692,1269.23,71.8227,0,0.000885,0,0
0:4:57.093,1270.64,71.9054,0,0.000885,0,0
0:4:57.496,1272.34,72.002,0,0.000885,0,0
0:4:57.893,1274.46,72.1192,0,0.000885,0,0
0:4:58.289,1276.34,72.2226,0,0.000885,0,0
0:4:58.694,1277.92,72.3122,0,0.000885,0,0
0:4:59.094,1279.56,72.4087,0,0.000885,0,0
0:4:59.504,1281.44,72.5122,0,0.000885,0,0
0:4:59.909,1283.21,72.6156,0,0.000885,0,0
0:5:0.306,1285.02,72.719,0,0.000885,0,0
0:5:0.700,1286.67,72.8086,0,0.000885,0,0
0:5:1.104,1288.43,72.9121,0,0.000885,0,0
0:5:1.510,1289.95,72.9948,0,0.000885,0,0
0:5:1.912,1292.36,73.1327,0,0.000885,0,0
0:5:2.315,1293.65,73.2085,0,0.000885,0,0
0:5:2.713,1295.47,73.312,0,0.000885,0,0
0:5:3.112,1297.29,73.4085,0,0.000885,0,0
0:5:3.508,1299.81,73.5533,0,0.000885,0,0
0:5:3.900,1300.7,73.6015,0,0.000885,0,0
0:5:4.297,1302.34,73.6981,0,0.000885,0,0
0:5:4.697,1303.69,73.7739,0,0.000885,0,0
0:5:5.095,1306.15,73.9118,0,0.000885,0,0
0:5:5.490,1307.92,74.0152,0,0.000885,0,0
0:5:5.907,1309.85,74.1255,0,0.000885,0,0
0:5:6.311,1311.62,74.2221,0,0.000885,0,0
0:5:6.715,1313.14,74.3117,0,0.000885,0,0
0:5:7.118,1314.61,74.3944,0,0.000885,0,0
0:5:7.522,1316.43,74.4979,0,0.000885,0,0
0:5:7.917,1317.95,74.5806,0,0.000885,0,0
0:5:8.316,1320.24,74.7116,0,0.000885,0,0
0:5:8.713,1321.77,74.7943,0,0.000885,0,0
0:5:9.111,1323.76,74.9115,0,0.000885,0,0
0:5:9.506,1325.64,75.015,0,0.000885,0,0
0:5:9.905,1327.76,75.1391,0,0.000885,0,0
0:5:10.303,1329.16,75.2149,0,0.000885,0,0
0:5:10.696,1330.75,75.3045,0,0.000885,0,0
0:5:11.093,1332.75,75.4149,0,0.000885,0,0
0:5:11.496,1334.74,75.5321,0,0.000885,0,0
0:5:11.905,1336.33,75.6217,0,0.000885,0,0
0:5:12.305,1338.44,75.7389,0,0.000885,0,0
0:5:12.710,1340.44,75.8561,0,0.000885,0,0
0:5:13.104,1341.26,75.8975,0,0.000885,0,0
0:5:13.511,1343.02,76.0009,0,0.000885,0,0
0:5:13.911,1344.9,76.1043,0,0.000885,0,0
0:5:14.308,1346.66,76.2078,0,0.000885,0,0
0:5:14.700,1348.54,76.3112,0,0.000885,0,0
0:5:15.099,1350.18,76.4077,0,0.000885,0,0
0:5:15.498,1352,76.5042,0,0.000885,0,0
0:5:15.895,1353.29,76.5801,0,0.000885,0,0
0:5:16.299,1355.28,76.6904,0,0.000885,0,0
0:5:16.705,1356.75,76.7731,0,0.000885,0,0
0:5:17.107,1358.93,76.8972,0,0.000885,0,0
0:5:17.511,1360.98,77.0144,0,0.000885,0,0
0:5:17.907,1362.86,77.1248,0,0.000885,0,0
0:5:18.299,1364.27,77.2006,0,0.000885,0,0
0:5:18.696,1365.91,77.2971,0,0.000885,0,0
0:5:19.096,1367.79,77.4005,0,0.000885,0,0
0:5:19.493,1370.14,77.5315,0,0.000885,0,0
0:5:19.897,1372.49,77.6694,0,0.000885,0,0
0:5:20.302,1373.83,77.7453,0,0.000885,0,0
0:5:20.700,1375.77,77.8556,0,0.000885,0,0
0:5:21.101,1376.77,77.9108,0,0.000885,0,0
0:5:21.507,1378.65,78.0142,0,0.000885,0,0
0:5:21.911,1380.47,78.1176,0,0.000885,0,0
0:5:22.313,1382.05,78.2072,0,0.000885,0,0
0:5:22.715,1384.22,78.3313,0,0.000885,0,0
0:5:23.112,1385.63,78.4141,0,0.000885,0,0
0:5:23.506,1387.28,78.5037,0,0.000885,0,0
0:5:23.900,1389.16,78.6071,0,0.000885,0,0
0:5:24.300,1390.74,78.6968,0,0.000885,0,0
0:5:24.699,1392.85,78.8209,0,0.000885,0,0
0:5:25.096,1394.44,78.9105,0,0.000885,0,0
0:5:25.499,1396.84,79.0484,0,0.000885,0,0
0:5:25.898,1398.31,79.1311,0,0.000885,0,0
0:5:26.299,1400.13,79.2346,0,0.000885,0,0
0:5:26.708,1401.78,79.3242,0,0.000885,0,0
0:5:27.111,1403.6,79.4276,0,0.000885,0,0
0:5:27.514,1404.71,79.4897,0,0.000885,0,0
0:5:27.913,1406.47,79.5931,0,0.000885,0,0
0:5:28.313,1408.06,79.6827,0,0.000885,0,0
0:5:28.708,1409.76,79.7792,0,0.000885,0,0
0:5:29.114,1412.46,79.9309,0,0.000885,0,0
0:5:29.510,1413.69,79.9999,0,0.000885,0,0
0:5:29.909,1415.39,80.0964,0,0.000885,0,0
0:5:30.307,1418.09,80.2481,0,0.000885,0,0
0:5:30.700,1419.09,80.3032,0,0.000885,0,0
0:5:31.103,1421.26,80.4273,0,0.000885,0,0
0:5:31.510,1423.14,80.5308,0,0.000885,0,0
0:5:31.914,1425.31,80.6549,0,0.000885,0,0
0:5:32.316,1426.61,80.7307,0,0.000885,0,0
0:5:32.712,1427.95,80.8066,0,0.000885,0,0
0:5:33.109,1430.01,80.9238,0,0.000885,0,0
0:5:33.509,1432.06,81.041,0,0.000885,0,0
0:5:33.907,1433.83,81.1375,0,0.000885,0,0
0:5:34.301,1434.94,81.1996,0,0.000885,0,0
0:5:34.696,1436.53,81.2892,0,0.000885,0,0
0:5:35.094,1438.76,81.4202,0,0.000885,0,0
0:5:35.503,1440.4,81.5098,0,0.000885,0,0
0:5:35.910,1442.75,81.6408,0,0.000885,0,0
0:5:36.317,1444.39,81.7373,0,0.000885,0,0
0:5:36.721,1446.04,81.827,0,0.000885,0,0
0:5:37.122,1447.21,81.8959,0,0.000885,0,0
0:5:37.523,1448.85,81.9856,0,0.000885,0,0
0:5:37.920,1451.2,82.1235,0,0.000885,0,0
0:5:38.316,1452.67,82.2062,0,0.000885,0,0
0:5:38.715,1454.31,82.2958,0,0.000885,0,0
0:5:39.115,1455.72,82.3786,0,0.000885,0,0
0:5:39.510,1458.18,82.5165,0,0.000885,0,0
0:5:39.915,1460.48,82.6475,0,0.000885,0,0
0:5:40.313,1461.89,82.7233,0,0.000885,0,0
0:5:40.712,1463.35,82.806,0,0.000885,0,0
0:5:41.109,1465.4,82.9232,0,0.000885,0,0
0:5:41.514,1467.46,83.0405,0,0.000885,0,0
0:5:41.918,1468.4,83.0956,0,0.000885,0,0
0:5:42.319,1470.87,83.2335,0,0.000885,0,0
0:5:42.722,1472.86,83.3438,0,0.000885,0,0
0:5:43.119,1473.68,83.3921,0,0.000885,0,0
0:5:43.513,1476.03,83.5231,0,0.000885,0,0
0:5:43.911,1478.09,83.6403,0,0.000885,0,0
0:5:44.311,1479.97,83.7506,0,0.000885,0,0
0:5:44.707,1480.91,83.8058,0,0.000885,0,0
0:5:45.100,1483.33,83.9368,0,0.000885,0,0
0:5:45.496,1484.98,84.0333,0,0.000885,0,0
0:5:45.896,1486.15,84.1022,0,0.000885,0,0
0:5:46.303,1486.33,84.1091,0,0.000885,0,0
0:5:46.709,1486.68,84.1298,0,0.000885,0,0
0:5:47.113,1489.39,84.2815,0,0.000885,0,0
0:5:47.514,1491.51,84.4056,0,0.000885,0,0
0:5:47.913,1493.93,84.5366,0,0.000885,0,0
0:5:48.313,1496.28,84.6745,0,0.000885,0,0
0:5:48.708,1498.69,84.8055,0,0.000885,0,0
0:5:49.102,1501.23,84.9503,0,0.000885,0,0
0:5:49.513,1503.11,85.0606,0,0.000885,0,0
0:5:49.910,1505.17,85.1778,0,0.000885,0,0
0:5:50.304,1507.12,85.2881,0,0.000885,0,0
0:5:50.700,1508.65,85.3709,0,0.000885,0,0
0:5:51.104,1509.88,85.4398,0,0.000885,0,0
0:5:51.511,1511.83,85.5501,0,0.000885,0,0
0:5:51.915,1513.06,85.6191,0,0.000885,0,0
0:5:52.315,1515.47,85.757,0,0.000885,0,0
0:5:52.711,1517.12,85.8535,0,0.000885,0,0
0:5:53.111,1518.83,85.95,0,0.000885,0,0
0:5:53.510,1520.54,86.0466,0,0.000885,0,0
0:5:53.903,1521.78,86.1155,0,0.000885,0,0
0:5:54.297,1523.54,86.212,0,0.000885,0,0
0:5:54.698,1525.54,86.3293,0,0.000885,0,0
0:5:55.096,1527.31,86.4258,0,0.000885,0,0
0:5:55.493,1529.49,86.5499,0,0.000885,0,0
0:5:55.897,1531.02,86.6395,0,0.000885,0,0
0:5:56.301,1532.91,86.7429,0,0.000885,0,0
0:5:56.705,1535.14,86.8739,0,0.000885,0,0
0:5:57.110,1536.32,86.936,0,0.000885,0,0
0:5:57.513,1538.56,87.067,0,0.000885,0,0
0:5:57.909,1539.62,87.1222,0,0.000885,0,0
0:5:58.305,1540.73,87.1911,0,0.000885,0,0
0:5:58.705,1543.44,87.3428,0,0.000885,0,0
0:5:59.102,1545.39,87.4531,0,0.000885,0,0
0:5:59.496,1546.27,87.5014,0,0.000885,0,0
0:5:59.903,1547.8,87.591,0,0.000885,0,0
0:6:0.302,1549.86,87.7013,0,0.000885,0,0
0:6:0.711,1551.75,87.8116,0,0.000885,0,0
0:6:1.105,1553.51,87.9082,0,0.000885,0,0
0:6:1.512,1555.46,88.0185,0,0.000885,0,0
0:6:1.916,1556.87,88.1012,0,0.000885,0,0
0:6:2.318,1559.05,88.2253,0,0.000885,0,0
0:6:2.721,1560.4,88.3012,0,0.000885,0,0
0:6:3.117,1562.29,88.4046,0,0.000885,0,0
0:6:3.512,1563.7,88.4873,0,0.000885,0,0
0:6:3.912,1565.41,88.5838,0,0.000885,0,0
0:6:4.311,1567.18,88.6873,0,0.000885,0,0
0:6:4.703,1568.83,88.7769,0,0.000885,0,0
0:6:5.099,1570.65,88.8803,0,0.000885,0,0
0:6:5.497,1573,89.0113,0,0.000885,0,0
0:6:5.897,1574.77,89.1147,0,0.000885,0,0
0:6:6.302,1576.48,89.2113,0,0.000885,0,0
0:6:6.705,1578.07,89.3009,0,0.000885,0,0
0:6:7.106,1580.6,89.4457,0,0.000885,0,0
0:6:7.510,1581.96,89.5215,0,0.000885,0,0
0:6:7.917,1584.02,89.6387,0,0.000885,0,0
0:6:8.311,1585.84,89.7422,0,0.000885,0,0
0:6:8.705,1588.02,89.8663,0,0.000885,0,0
0:6:9.103,1589.79,89.9628,0,0.000885,0,0
0:6:9.502,1590.31,89.9904,0,0.000885,0,0
0:6:9.899,1591.91,90.08,0,0.000885,0,0
0:6:10.314,1593.85,90.1903,0,0.000885,0,0
0:6:10.711,1595.67,90.2937,0,0.000885,0,0
0:6:11.112,1597.56,90.4041,0,0.000885,0,0
0:6:11.517,1598.97,90.4799,0,0.000885,0,0
0:6:11.921,1600.79,90.5833,0,0.000885,0,0
0:6:12.322,1602.39,90.6798,0,0.000885,0,0
0:6:12.721,1604.27,90.7833,0,0.000885,0,0
0:6:13.121,1606.45,90.9074,0,0.000885,0,0
0:6:13.518,1608.81,91.0384,0,0.000885,0,0
0:6:13.913,1610.45,91.1349,0,0.000885,0,0
0:6:14.310,1612.34,91.2383,0,0.000885,0,0
0:6:14.707,1614.05,91.3348,0,0.000885,0,0
0:6:15.104,1615.4,91.4107,0,0.000885,0,0
0:6:15.500,1617.23,91.5141,0,0.000885,0,0
0:6:15.895,1619.11,91.6244,0,0.000885,0,0
0:6:16.300,1621.23,91.7416,0,0.000885,0,0
0:6:16.704,1622.94,91.8382,0,0.000885,0,0
0:6:17.110,1624.58,91.9347,0,0.000885,0,0
0:6:17.512,1626.65,92.0519,0,0.000885,0,0
0:6:17.906,1628,92.1277,0,0.000885,0,0
0:6:18.306,1627.59,92.1002,0,0.000885,0,0
0:6:18.714,1610.16,91.1142,0,0.000885,0,0
0:6:19.107,1599.56,90.5144,0,0.000885,0,0
0:6:19.511,1595.2,90.2731,0,0.000885,0,0
0:6:19.907,1592.55,90.1214,0,0.000885,0,0
0:6:20.305,1594.14,90.211,0,0.000885,0,0
0:6:20.699,1596.73,90.3558,0,0.000885,0,0
0:6:21.094,1599.91,90.5351,0,0.000885,0,0
0:6:21.406,1312.55,74.2772,0,0.000885,0,0