File: DataFile2021-06-08_052852.csv
Test ID:,Date Tested:,Time:,Test Type:,Diameter Avg. (mm):,Cyl. Corr. Factor:,Height (mm):,Age (days):,Weight (kN):,Break Type:,Ramp Rate (MPa/s):,Load at Break (kN):,Stress at Break (MPa):
12,6/8/2021,05:28,Cylinder,150,1,300,0,3.6,5,0.24,925.08,52.35
Sample Time,Load (kN),Stress (MPa),Long. Strain,Trans. Strain,Chan1 Deflection (mm),Chan2 Deflection (mm)
0:0:17.411,5.04428,0.282685,0,0.000885,0,0
0:0:17.607,10.7336,0.606739,0,0.000885,0,0
0:0:17.806,20.6442,1.16521,0,0.000885,0,0
0:0:18.007,21.1735,1.19969,0,0.000885,0,0
0:0:18.203,20.9956,1.1859,0,0.000885,0,0
0:0:18.404,20.6442,1.16521,0,0.000885,0,0
0:0:18.602,20.235,1.14453,0,0.000885,0,0
0:0:18.797,20.235,1.14453,0,0.000885,0,0
0:0:18.997,19.8257,1.12385,0,0.000885,0,0
0:0:19.204,19.6478,1.11006,0,0.000885,0,0
0:0:19.407,19.59,1.11006,0,0.000885,0,0
0:0:19.603,19.5321,1.10316,0,0.000885,0,0
0:0:19.797,19.7056,1.11695,0,0.000885,0,0
0:0:20.001,19.2964,1.08937,0,0.000885,0,0
0:0:20.205,19.412,1.09627,0,0.000885,0,0
0:0:20.405,19.8257,1.12385,0,0.000885,0,0
0:0:20.605,20.3506,1.15142,0,0.000885,0,0
0:0:20.797,20.057,1.13763,0,0.000885,0,0
0:0:21.001,20.9378,1.1859,0,0.000885,0,0
0:0:21.196,21.4093,1.21348,0,0.000885,0,0
0:0:21.394,21.347,1.20658,0,0.000885,0,0
0:0:21.596,22.4057,1.26864,0,0.000885,0,0
0:0:21.804,22.9306,1.29621,0,0.000885,0,0
0:0:22.007,24.3407,1.37895,0,0.000885,0,0
0:0:22.203,25.4527,1.441,0,0.000885,0,0
0:0:22.402,27.0363,1.53064,0,0.000885,0,0
0:0:22.603,28.1528,1.59269,0,0.000885,0,0
0:0:22.806,29.207,1.65474,0,0.000885,0,0
0:0:23.010,30.0878,1.70301,0,0.000885,0,0
0:0:23.212,30.7906,1.74437,0,0.000885,0,0
0:0:23.415,31.4934,1.77885,0,0.000885,0,0
0:0:23.618,32.6677,1.84779,0,0.000885,0,0
0:0:23.819,33.4907,1.89606,0,0.000885,0,0
0:0:24.021,34.7228,1.96501,0,0.000885,0,0
0:0:24.222,35.1321,1.98569,0,0.000885,0,0
0:0:24.419,36.2441,2.04774,0,0.000885,0,0
0:0:24.621,37.245,2.1098,0,0.000885,0,0
0:0:24.818,38.2992,2.16495,0,0.000885,0,0
0:0:25.018,38.6506,2.18564,0,0.000885,0,0
0:0:25.218,39.7671,2.24769,0,0.000885,0,0
0:0:25.415,40.4699,2.28906,0,0.000885,0,0
0:0:25.618,42.0535,2.37869,0,0.000885,0,0
0:0:25.815,42.8141,2.42006,0,0.000885,0,0
0:0:26.014,44.3399,2.50969,0,0.000885,0,0
0:0:26.216,44.6335,2.52348,0,0.000885,0,0
0:0:26.410,44.927,2.54417,0,0.000885,0,0
0:0:26.612,45.1005,2.55106,0,0.000885,0,0
0:0:26.810,46.5684,2.6338,0,0.000885,0,0
0:0:27.008,47.3914,2.68206,0,0.000885,0,0
0:0:27.210,47.7428,2.70274,0,0.000885,0,0
0:0:27.406,49.0327,2.77169,0,0.000885,0,0
0:0:27.606,49.9135,2.82685,0,0.000885,0,0
0:0:27.809,51.6127,2.92338,0,0.000885,0,0
0:0:28.012,52.0798,2.94406,0,0.000885,0,0
0:0:28.214,53.7834,3.04059,0,0.000885,0,0
0:0:28.417,54.4284,3.08196,0,0.000885,0,0
0:0:28.619,55.1313,3.11643,0,0.000885,0,0
0:0:28.820,55.2469,3.12333,0,0.000885,0,0
0:0:29.021,56.5369,3.19917,0,0.000885,0,0
0:0:29.223,57.3598,3.24743,0,0.000885,0,0
0:0:29.424,58.2984,3.29569,0,0.000885,0,0
0:0:29.621,58.7699,3.32327,0,0.000885,0,0
0:0:29.823,60.1755,3.40601,0,0.000885,0,0
0:0:30.018,60.7049,3.43359,0,0.000885,0,0
0:0:30.220,61.6435,3.48875,0,0.000885,0,0
0:0:30.418,62.2262,3.52322,0,0.000885,0,0
0:0:30.615,63.6363,3.59906,0,0.000885,0,0
0:0:30.817,64.2234,3.63354,0,0.000885,0,0
0:0:31.014,65.807,3.72317,0,0.000885,0,0
0:0:31.214,66.6877,3.77143,0,0.000885,0,0
0:0:31.415,67.3906,3.8128,0,0.000885,0,0
0:0:31.610,67.7998,3.83349,0,0.000885,0,0
0:0:31.812,68.854,3.89554,0,0.000885,0,0
0:0:32.010,69.499,3.93001,0,0.000885,0,0
0:0:32.209,70.2641,3.97827,0,0.000885,0,0
0:0:32.410,71.7276,4.06101,0,0.000885,0,0
0:0:32.606,72.2569,4.08859,0,0.000885,0,0
0:0:32.808,73.6047,4.16443,0,0.000885,0,0
0:0:33.009,74.0184,4.18512,0,0.000885,0,0
0:0:33.212,75.3084,4.26096,0,0.000885,0,0
0:0:33.416,75.5397,4.27475,0,0.000885,0,0
0:0:33.618,76.3626,4.32301,0,0.000885,0,0
0:0:33.820,77.0076,4.35749,0,0.000885,0,0
0:0:34.022,78.2976,4.43333,0,0.000885,0,0
0:0:34.224,79.0627,4.4747,0,0.000885,0,0
0:0:34.427,80.2904,4.54365,0,0.000885,0,0
0:0:34.623,80.7041,4.56433,0,0.000885,0,0
0:0:34.824,81.9941,4.64017,0,0.000885,0,0
0:0:35.024,82.9905,4.69533,0,0.000885,0,0
0:0:35.221,84.107,4.75738,0,0.000885,0,0
0:0:35.424,84.6319,4.79186,0,0.000885,0,0
0:0:35.621,86.2154,4.88149,0,0.000885,0,0
0:0:35.819,86.6869,4.90217,0,0.000885,0,0
0:0:36.020,87.7412,4.96423,0,0.000885,0,0
0:0:36.215,88.3862,4.9987,0,0.000885,0,0
0:0:36.418,88.9733,5.03317,0,0.000885,0,0
0:0:36.615,89.6761,5.07454,0,0.000885,0,0
0:0:36.814,90.379,5.11591,0,0.000885,0,0
0:0:37.016,91.669,5.18486,0,0.000885,0,0
0:0:37.210,92.2561,5.21933,0,0.000885,0,0
0:0:37.412,93.9598,5.31586,0,0.000885,0,0
0:0:37.612,94.4847,5.34344,0,0.000885,0,0
0:0:37.809,95.4232,5.39859,0,0.000885,0,0
0:0:38.010,96.2462,5.44686,0,0.000885,0,0
0:0:38.214,97.3582,5.50891,0,0.000885,0,0
0:0:38.416,97.8876,5.53649,0,0.000885,0,0
0:0:38.620,99.529,5.63302,0,0.000885,0,0
0:0:38.822,99.8804,5.6537,0,0.000885,0,0
0:0:39.024,100.525,5.68817,0,0.000885,0,0
0:0:39.225,101.406,5.73644,0,0.000885,0,0
0:0:39.428,102.638,5.80539,0,0.000885,0,0
0:0:39.628,103.399,5.85365,0,0.000885,0,0
0:0:39.825,104.337,5.90191,0,0.000885,0,0
0:0:40.027,105.045,5.94328,0,0.000885,0,0
0:0:40.225,106.041,5.99844,0,0.000885,0,0
0:0:40.422,106.744,6.03981,0,0.000885,0,0
0:0:40.625,107.567,6.08807,0,0.000885,0,0
0:0:40.819,108.27,6.12944,0,0.000885,0,0
0:0:41.021,109.088,6.17081,0,0.000885,0,0
0:0:41.219,109.675,6.20528,0,0.000885,0,0
0:0:41.417,111.673,6.32249,0,0.000885,0,0
0:0:41.619,112.491,6.36386,0,0.000885,0,0
0:0:41.815,113.314,6.41212,0,0.000885,0,0
0:0:42.016,114.426,6.47418,0,0.000885,0,0
0:0:42.215,115.191,6.51555,0,0.000885,0,0
0:0:42.411,115.894,6.55691,0,0.000885,0,0
0:0:42.614,115.894,6.55691,0,0.000885,0,0
0:0:42.815,117.184,6.63276,0,0.000885,0,0
0:0:43.019,117.357,6.63965,0,0.000885,0,0
0:0:43.222,119.177,6.74307,0,0.000885,0,0
0:0:43.425,119.942,6.78444,0,0.000885,0,0
0:0:43.628,120.702,6.8327,0,0.000885,0,0
0:0:43.829,121.405,6.86718,0,0.000885,0,0
0:0:44.032,122.931,6.95681,0,0.000885,0,0
0:0:44.234,123.225,6.9706,0,0.000885,0,0
0:0:44.430,125.044,7.07402,0,0.000885,0,0
0:0:44.631,125.511,7.1016,0,0.000885,0,0
0:0:44.831,126.743,7.17055,0,0.000885,0,0
0:0:45.029,126.921,7.18434,0,0.000885,0,0
0:0:45.231,128.505,7.27397,0,0.000885,0,0
0:0:45.426,128.856,7.29465,0,0.000885,0,0
0:0:45.628,130.088,7.3636,0,0.000885,0,0
0:0:45.828,130.965,7.41186,0,0.000885,0,0
0:0:46.026,132.023,7.47392,0,0.000885,0,0
0:0:46.227,132.726,7.50839,0,0.000885,0,0
0:0:46.425,133.371,7.54976,0,0.000885,0,0
0:0:46.622,134.074,7.58423,0,0.000885,0,0
0:0:46.823,133.958,7.57734,0,0.000885,0,0
0:0:47.019,135.778,7.68076,0,0.000885,0,0
0:0:47.221,136.654,7.73592,0,0.000885,0,0
0:0:47.419,138.064,7.81176,0,0.000885,0,0
0:0:47.616,138.651,7.84623,0,0.000885,0,0
0:0:47.818,139.883,7.91518,0,0.000885,0,0
0:0:48.020,140.235,7.93587,0,0.000885,0,0
0:0:48.225,141.525,8.01171,0,0.000885,0,0
0:0:48.427,142.521,8.06687,0,0.000885,0,0
0:0:48.630,143.46,8.11513,0,0.000885,0,0
0:0:48.832,144.162,8.1565,0,0.000885,0,0
0:0:49.033,145.452,8.23234,0,0.000885,0,0
0:0:49.235,145.924,8.25992,0,0.000885,0,0
0:0:49.437,147.156,8.32887,0,0.000885,0,0
0:0:49.632,147.565,8.34955,0,0.000885,0,0
0:0:49.835,148.74,8.4185,0,0.000885,0,0
0:0:50.033,148.74,8.4185,0,0.000885,0,0
0:0:50.232,149.794,8.47366,0,0.000885,0,0
0:0:50.433,150.261,8.50124,0,0.000885,0,0
0:0:50.629,151.844,8.59087,0,0.000885,0,0
0:0:50.830,152.489,8.63224,0,0.000885,0,0
0:0:51.028,153.9,8.70808,0,0.000885,0,0
0:0:51.228,154.718,8.75634,0,0.000885,0,0
0:0:51.430,155.892,8.81839,0,0.000885,0,0
0:0:51.626,155.95,8.82529,0,0.000885,0,0
0:0:51.827,156.831,8.87355,0,0.000885,0,0
0:0:52.026,158.063,8.9425,0,0.000885,0,0
0:0:52.224,158.708,8.98387,0,0.000885,0,0
0:0:52.427,159.998,9.05282,0,0.000885,0,0
0:0:52.622,160.47,9.0804,0,0.000885,0,0
0:0:52.822,161.639,9.14934,0,0.000885,0,0
0:0:53.024,162.169,9.17692,0,0.000885,0,0
0:0:53.228,163.343,9.24587,0,0.000885,0,0
0:0:53.431,164.282,9.29413,0,0.000885,0,0
0:0:53.634,165.278,9.35619,0,0.000885,0,0
0:0:53.836,165.923,9.39066,0,0.000885,0,0
0:0:54.038,167.155,9.45961,0,0.000885,0,0
0:0:54.240,168.209,9.52166,0,0.000885,0,0
0:0:54.442,168.912,9.55613,0,0.000885,0,0
0:0:54.641,169.971,9.61819,0,0.000885,0,0
0:0:54.838,170.732,9.65955,0,0.000885,0,0
0:0:55.039,171.555,9.70782,0,0.000885,0,0
0:0:55.235,172.551,9.76298,0,0.000885,0,0
0:0:55.436,172.902,9.78366,0,0.000885,0,0
0:0:55.636,174.722,9.88708,0,0.000885,0,0
0:0:55.834,175.073,9.90777,0,0.000885,0,0
0:0:56.036,176.421,9.98361,0,0.000885,0,0
0:0:56.231,176.83,10.0043,0,0.000885,0,0
0:0:56.432,177.417,10.0388,0,0.000885,0,0
0:0:56.633,178.004,10.0732,0,0.000885,0,0
0:0:56.827,179.059,10.1353,0,0.000885,0,0
0:0:57.030,180.055,10.1905,0,0.000885,0,0
0:0:57.227,180.527,10.218,0,0.000885,0,0
0:0:57.426,181.817,10.287,0,0.000885,0,0
0:0:57.628,182.462,10.3283,0,0.000885,0,0
0:0:57.831,183.93,10.4111,0,0.000885,0,0
0:0:58.035,184.045,10.418,0,0.000885,0,0
0:0:58.238,185.571,10.5007,0,0.000885,0,0
0:0:58.440,186.389,10.549,0,0.000885,0,0
0:0:58.642,187.742,10.6248,0,0.000885,0,0
0:0:58.843,188.035,10.6386,0,0.000885,0,0
0:0:59.045,189.325,10.7145,0,0.000885,0,0
0:0:59.244,189.97,10.7489,0,0.000885,0,0
0:0:59.442,191.376,10.8317,0,0.000885,0,0
0:0:59.644,191.785,10.8523,0,0.000885,0,0
0:0:59.842,193.253,10.9351,0,0.000885,0,0
0:1:0.040,193.311,10.942,0,0.000885,0,0
0:1:0.238,194.601,11.0109,0,0.000885,0,0
0:1:0.432,194.952,11.0316,0,0.000885,0,0
0:1:0.634,196.42,11.1143,0,0.000885,0,0
0:1:0.830,196.949,11.1419,0,0.000885,0,0
0:1:1.027,197.474,11.1764,0,0.000885,0,0
0:1:1.228,198.884,11.2522,0,0.000885,0,0
0:1:1.422,199.472,11.2867,0,0.000885,0,0
0:1:1.622,201.229,11.3901,0,0.000885,0,0
0:1:1.819,201.522,11.4039,0,0.000885,0,0
0:1:2.015,203.106,11.4936,0,0.000885,0,0
0:1:2.216,203.284,11.5005,0,0.000885,0,0
0:1:2.410,204.396,11.5694,0,0.000885,0,0
0:1:2.610,204.632,11.5832,0,0.000885,0,0
0:1:2.811,205.512,11.6315,0,0.000885,0,0
0:1:3.011,206.451,11.6797,0,0.000885,0,0
0:1:3.214,207.389,11.7349,0,0.000885,0,0
0:1:3.415,208.15,11.7762,0,0.000885,0,0
0:1:3.616,209.204,11.8383,0,0.000885,0,0
0:1:3.816,210.321,11.9004,0,0.000885,0,0
0:1:4.016,211.433,11.9624,0,0.000885,0,0
0:1:4.217,211.847,11.99,0,0.000885,0,0
0:1:4.415,212.314,12.0176,0,0.000885,0,0
0:1:4.610,213.955,12.1072,0,0.000885,0,0
0:1:4.810,214.311,12.1279,0,0.000885,0,0
0:1:5.007,215.307,12.183,0,0.000885,0,0
0:1:5.206,215.952,12.2175,0,0.000885,0,0
0:1:5.402,217.3,12.2934,0,0.000885,0,0
0:1:5.597,217.945,12.3347,0,0.000885,0,0
0:1:5.797,219.062,12.3968,0,0.000885,0,0
0:1:5.994,219.707,12.4312,0,0.000885,0,0
0:1:6.193,220.934,12.5002,0,0.000885,0,0
0:1:6.392,222.287,12.576,0,0.000885,0,0
0:1:6.597,222.989,12.6174,0,0.000885,0,0
0:1:6.798,223.577,12.6519,0,0.000885,0,0
0:1:7.001,224.689,12.7139,0,0.000885,0,0
0:1:7.199,225.102,12.7415,0,0.000885,0,0
0:1:7.400,226.392,12.8105,0,0.000885,0,0
0:1:7.602,226.686,12.8311,0,0.000885,0,0
0:1:7.806,228.207,12.9139,0,0.000885,0,0
0:1:8.006,228.443,12.9277,0,0.000885,0,0
0:1:8.209,229.617,12.9966,0,0.000885,0,0
0:1:8.411,230.671,13.0518,0,0.000885,0,0
0:1:8.610,230.792,13.0587,0,0.000885,0,0
0:1:8.811,232.433,13.1552,0,0.000885,0,0
0:1:9.011,232.549,13.1621,0,0.000885,0,0
0:1:9.212,234.016,13.2448,0,0.000885,0,0
0:1:9.413,234.484,13.2724,0,0.000885,0,0
0:1:9.607,235.894,13.3483,0,0.000885,0,0
0:1:9.806,236.654,13.3896,0,0.000885,0,0
0:1:10.002,237.535,13.4448,0,0.000885,0,0
0:1:10.208,238.416,13.493,0,0.000885,0,0
0:1:10.409,239.292,13.5413,0,0.000885,0,0
0:1:10.606,240.524,13.6103,0,0.000885,0,0
0:1:10.801,241.232,13.6516,0,0.000885,0,0
0:1:11.000,241.756,13.6792,0,0.000885,0,0
0:1:11.194,243.104,13.755,0,0.000885,0,0
0:1:11.395,243.166,13.7619,0,0.000885,0,0
0:1:11.593,244.75,13.8516,0,0.000885,0,0
0:1:11.791,245.511,13.8929,0,0.000885,0,0
0:1:11.989,246.391,13.9412,0,0.000885,0,0
0:1:12.193,247.739,14.017,0,0.000885,0,0
0:1:12.394,247.855,14.0239,0,0.000885,0,0
0:1:12.591,249.087,14.0929,0,0.000885,0,0
0:1:12.796,249.323,14.1067,0,0.000885,0,0
0:1:12.997,251.316,14.2239,0,0.000885,0,0
0:1:13.197,251.494,14.2308,0,0.000885,0,0
0:1:13.400,252.374,14.279,0,0.000885,0,0
0:1:13.601,253.313,14.3342,0,0.000885,0,0
0:1:13.801,254.309,14.3894,0,0.000885,0,0
0:1:14.001,254.839,14.4238,0,0.000885,0,0
0:1:14.201,256.066,14.4928,0,0.000885,0,0
0:1:14.400,255.893,14.479,0,0.000885,0,0
0:1:14.600,257.419,14.5686,0,0.000885,0,0
0:1:14.795,258.064,14.6031,0,0.000885,0,0
0:1:14.996,259.296,14.672,0,0.000885,0,0
0:1:15.201,260.056,14.7134,0,0.000885,0,0
0:1:15.399,260.995,14.7686,0,0.000885,0,0
0:1:15.599,261.991,14.8237,0,0.000885,0,0
0:1:15.813,263.691,14.9203,0,0.000885,0,0
0:1:16.014,264.162,14.9478,0,0.000885,0,0
0:1:16.211,265.158,15.003,0,0.000885,0,0
0:1:16.406,266.275,15.065,0,0.000885,0,0
0:1:16.608,267.151,15.1202,0,0.000885,0,0
0:1:16.813,268.032,15.1685,0,0.000885,0,0
0:1:17.011,268.971,15.2236,0,0.000885,0,0
0:1:17.210,269.264,15.2374,0,0.000885,0,0
0:1:17.402,270.318,15.2995,0,0.000885,0,0
0:1:17.603,270.67,15.3202,0,0.000885,0,0
0:1:17.806,272.253,15.4098,0,0.000885,0,0
0:1:18.009,273.018,15.4512,0,0.000885,0,0
0:1:18.211,273.779,15.4925,0,0.000885,0,0
0:1:18.411,274.838,15.5546,0,0.000885,0,0
0:1:18.612,275.247,15.5753,0,0.000885,0,0
0:1:18.812,276.537,15.6511,0,0.000885,0,0
0:1:19.011,277.004,15.6787,0,0.000885,0,0
0:1:19.211,277.654,15.7132,0,0.000885,0,0
0:1:19.415,278.881,15.7821,0,0.000885,0,0
0:1:19.616,279.94,15.8442,0,0.000885,0,0
0:1:19.812,280.936,15.8993,0,0.000885,0,0
0:1:20.009,281.875,15.9476,0,0.000885,0,0
0:1:20.209,282.226,15.9683,0,0.000885,0,0
0:1:20.402,283.574,16.0441,0,0.000885,0,0
0:1:20.600,283.926,16.0648,0,0.000885,0,0
0:1:20.799,284.922,16.1268,0,0.000885,0,0
0:1:20.995,285.803,16.1751,0,0.000885,0,0
0:1:21.197,286.977,16.2372,0,0.000885,0,0
0:1:21.401,288.383,16.3199,0,0.000885,0,0
0:1:21.599,288.97,16.3544,0,0.000885,0,0
0:1:21.798,289.673,16.3888,0,0.000885,0,0
0:1:22.002,291.141,16.4785,0,0.000885,0,0
0:1:22.203,291.612,16.4992,0,0.000885,0,0
0:1:22.400,291.906,16.5198,0,0.000885,0,0
0:1:22.596,292.84,16.5681,0,0.000885,0,0
0:1:22.798,293.956,16.637,0,0.000885,0,0
0:1:23.000,294.837,16.6853,0,0.000885,0,0
0:1:23.201,295.833,16.7405,0,0.000885,0,0
0:1:23.402,296.83,16.7956,0,0.000885,0,0
0:1:23.601,297.768,16.8508,0,0.000885,0,0
0:1:23.802,299.174,16.9266,0,0.000885,0,0
0:1:24.002,299.41,16.9404,0,0.000885,0,0
0:1:24.202,301.051,17.0369,0,0.000885,0,0
0:1:24.412,301.171,17.0438,0,0.000885,0,0
0:1:24.608,301.816,17.0783,0,0.000885,0,0
0:1:24.809,303.164,17.1542,0,0.000885,0,0
0:1:25.012,303.987,17.2024,0,0.000885,0,0
0:1:25.211,304.218,17.2162,0,0.000885,0,0
0:1:25.411,305.571,17.2921,0,0.000885,0,0
0:1:25.607,305.686,17.2989,0,0.000885,0,0
0:1:25.807,307.154,17.3817,0,0.000885,0,0
0:1:26.001,308.03,17.4299,0,0.000885,0,0
0:1:26.197,308.911,17.4782,0,0.000885,0,0
0:1:26.397,310.321,17.5609,0,0.000885,0,0
0:1:26.614,311.198,17.6092,0,0.000885,0,0
0:1:26.814,311.963,17.6506,0,0.000885,0,0
0:1:27.010,312.901,17.7057,0,0.000885,0,0
0:1:27.207,313.075,17.7195,0,0.000885,0,0
0:1:27.407,313.782,17.754,0,0.000885,0,0
0:1:27.612,315.13,17.8298,0,0.000885,0,0
0:1:27.812,315.948,17.8781,0,0.000885,0,0
0:1:28.012,317.123,17.9471,0,0.000885,0,0
0:1:28.215,318.119,18.0022,0,0.000885,0,0
0:1:28.418,319.236,18.0643,0,0.000885,0,0
0:1:28.617,319.587,18.0849,0,0.000885,0,0
0:1:28.818,320.819,18.1539,0,0.000885,0,0
0:1:29.018,321.055,18.1677,0,0.000885,0,0
0:1:29.219,322.167,18.2297,0,0.000885,0,0
0:1:29.420,323.105,18.2849,0,0.000885,0,0
0:1:29.615,324.453,18.3607,0,0.000885,0,0
0:1:29.816,324.867,18.3814,0,0.000885,0,0
0:1:30.012,325.921,18.4435,0,0.000885,0,0
0:1:30.209,326.975,18.5055,0,0.000885,0,0
0:1:30.409,327.678,18.54,0,0.000885,0,0
0:1:30.613,328.853,18.6089,0,0.000885,0,0
0:1:30.814,330.085,18.6779,0,0.000885,0,0
0:1:31.011,330.556,18.7055,0,0.000885,0,0
0:1:31.204,332.14,18.7951,0,0.000885,0,0
0:1:31.405,332.313,18.802,0,0.000885,0,0
0:1:31.612,333.43,18.871,0,0.000885,0,0
0:1:31.810,333.839,18.8916,0,0.000885,0,0
0:1:32.009,334.6,18.933,0,0.000885,0,0
0:1:32.202,336.068,19.0157,0,0.000885,0,0
0:1:32.402,336.125,19.0226,0,0.000885,0,0
0:1:32.599,337.358,19.0916,0,0.000885,0,0
0:1:32.796,337.709,19.1123,0,0.000885,0,0
0:1:32.998,339.119,19.1881,0,0.000885,0,0
0:1:33.200,340.289,19.2571,0,0.000885,0,0
0:1:33.402,341.17,19.3053,0,0.000885,0,0
0:1:33.603,341.873,19.3467,0,0.000885,0,0
0:1:33.803,343.163,19.4225,0,0.000885,0,0
0:1:34.003,343.283,19.4225,0,0.000885,0,0
0:1:34.203,344.452,19.4915,0,0.000885,0,0
0:1:34.404,344.866,19.5122,0,0.000885,0,0
0:1:34.613,345.805,19.5673,0,0.000885,0,0
0:1:34.808,347.037,19.6363,0,0.000885,0,0
0:1:35.010,347.913,19.6845,0,0.000885,0,0
0:1:35.203,348.736,19.7328,0,0.000885,0,0
0:1:35.402,349.848,19.7948,0,0.000885,0,0
0:1:35.610,349.848,19.7948,0,0.000885,0,0
0:1:35.805,352.019,19.919,0,0.000885,0,0
0:1:36.007,352.37,19.9396,0,0.000885,0,0
0:1:36.212,354.016,20.0362,0,0.000885,0,0
0:1:36.412,354.016,20.0362,0,0.000885,0,0
0:1:36.608,355.244,20.1051,0,0.000885,0,0
0:1:36.814,355.893,20.1396,0,0.000885,0,0
0:1:37.015,356.476,20.1741,0,0.000885,0,0
0:1:37.210,357.593,20.2361,0,0.000885,0,0
0:1:37.410,358.002,20.2568,0,0.000885,0,0
0:1:37.605,359.47,20.3395,0,0.000885,0,0
0:1:37.801,359.763,20.3602,0,0.000885,0,0
0:1:38.002,360.875,20.4223,0,0.000885,0,0
0:1:38.201,361.934,20.4843,0,0.000885,0,0
0:1:38.404,363.046,20.5464,0,0.000885,0,0
0:1:38.605,364.163,20.6084,0,0.000885,0,0
0:1:38.808,365.395,20.6774,0,0.000885,0,0
0:1:39.010,365.862,20.705,0,0.000885,0,0
0:1:39.209,366.743,20.7532,0,0.000885,0,0
0:1:39.410,367.036,20.767,0,0.000885,0,0
0:1:39.610,368.793,20.8704,0,0.000885,0,0
0:1:39.812,368.851,20.8704,0,0.000885,0,0
0:1:40.013,370.555,20.967,0,0.000885,0,0
0:1:40.209,371.022,20.9945,0,0.000885,0,0
0:1:40.406,372.138,21.0566,0,0.000885,0,0
0:1:40.605,372.841,21.098,0,0.000885,0,0
0:1:40.811,373.722,21.1462,0,0.000885,0,0
0:1:41.012,374.834,21.2083,0,0.000885,0,0
0:1:41.206,374.66,21.2014,0,0.000885,0,0
0:1:41.405,376.653,21.3117,0,0.000885,0,0
0:1:41.605,376.769,21.3186,0,0.000885,0,0
0:1:41.809,377.943,21.3875,0,0.000885,0,0
0:1:42.010,379.117,21.4565,0,0.000885,0,0
0:1:42.204,379.878,21.4979,0,0.000885,0,0
0:1:42.412,380.465,21.5323,0,0.000885,0,0
0:1:42.613,381.582,21.5944,0,0.000885,0,0
0:1:42.815,381.813,21.6082,0,0.000885,0,0
0:1:43.017,383.045,21.6771,0,0.000885,0,0
0:1:43.218,383.632,21.7116,0,0.000885,0,0
0:1:43.419,384.687,21.7667,0,0.000885,0,0
0:1:43.619,385.567,21.8219,0,0.000885,0,0
0:1:43.820,386.684,21.884,0,0.000885,0,0
0:1:44.019,387.387,21.9184,0,0.000885,0,0
0:1:44.217,388.792,22.0012,0,0.000885,0,0
0:1:44.415,389.086,22.015,0,0.000885,0,0
0:1:44.616,390.612,22.1046,0,0.000885,0,0
0:1:44.809,391.257,22.1391,0,0.000885,0,0
0:1:45.009,392.667,22.2218,0,0.000885,0,0
0:1:45.205,393.134,22.2494,0,0.000885,0,0
0:1:45.402,393.957,22.2908,0,0.000885,0,0
0:1:45.602,395.069,22.3597,0,0.000885,0,0
0:1:45.809,396.185,22.4218,0,0.000885,0,0
0:1:46.005,396.888,22.4562,0,0.000885,0,0
0:1:46.215,397.355,22.4838,0,0.000885,0,0
0:1:46.412,398.414,22.5459,0,0.000885,0,0
0:1:46.612,398.587,22.5528,0,0.000885,0,0
0:1:46.816,399.468,22.6079,0,0.000885,0,0
0:1:47.015,400.522,22.6631,0,0.000885,0,0
0:1:47.214,401.581,22.7251,0,0.000885,0,0
0:1:47.406,402.399,22.7734,0,0.000885,0,0
0:1:47.610,403.338,22.8216,0,0.000885,0,0
0:1:47.810,404.455,22.8906,0,0.000885,0,0
0:1:48.013,405.86,22.9664,0,0.000885,0,0
0:1:48.213,406.683,23.0147,0,0.000885,0,0
0:1:48.414,407.444,23.0561,0,0.000885,0,0
0:1:48.615,407.68,23.0699,0,0.000885,0,0
0:1:48.816,409.147,23.1526,0,0.000885,0,0
0:1:49.015,409.792,23.1871,0,0.000885,0,0
0:1:49.217,410.789,23.2491,0,0.000885,0,0
0:1:49.410,411.492,23.2836,0,0.000885,0,0
0:1:49.610,413.075,23.3732,0,0.000885,0,0
0:1:49.806,413.898,23.4215,0,0.000885,0,0
0:1:50.013,414.601,23.4629,0,0.000885,0,0
0:1:50.213,415.304,23.5042,0,0.000885,0,0
0:1:50.406,416.83,23.587,0,0.000885,0,0
0:1:50.604,417.003,23.6008,0,0.000885,0,0
0:1:50.805,417.768,23.6421,0,0.000885,0,0
0:1:50.999,418.649,23.6904,0,0.000885,0,0
0:1:51.199,419.645,23.7455,0,0.000885,0,0
0:1:51.396,420.815,23.8145,0,0.000885,0,0
0:1:51.602,420.877,23.8145,0,0.000885,0,0
0:1:51.802,422.225,23.8903,0,0.000885,0,0
0:1:52.005,422.461,23.9041,0,0.000885,0,0
0:1:52.206,423.867,23.9869,0,0.000885,0,0
0:1:52.403,424.632,24.0282,0,0.000885,0,0
0:1:52.600,425.744,24.0903,0,0.000885,0,0
0:1:52.799,426.153,24.1179,0,0.000885,0,0
0:1:53.001,427.679,24.2006,0,0.000885,0,0
0:1:53.201,427.563,24.1937,0,0.000885,0,0
0:1:53.403,429.262,24.2902,0,0.000885,0,0
0:1:53.604,429.734,24.3178,0,0.000885,0,0
0:1:53.804,431.317,24.4074,0,0.000885,0,0
0:1:54.004,432.194,24.4557,0,0.000885,0,0
0:1:54.205,432.487,24.4764,0,0.000885,0,0
0:1:54.406,433.426,24.5247,0,0.000885,0,0
0:1:54.599,434.542,24.5867,0,0.000885,0,0
0:1:54.800,435.597,24.6488,0,0.000885,0,0
0:1:54.998,435.717,24.6557,0,0.000885,0,0
0:1:55.203,436.829,24.7177,0,0.000885,0,0
0:1:55.404,437.3,24.7453,0,0.000885,0,0
0:1:55.598,439.057,24.8487,0,0.000885,0,0
0:1:55.798,439.467,24.8694,0,0.000885,0,0
0:1:55.995,440.756,24.9452,0,0.000885,0,0
0:1:56.191,441.464,24.9797,0,0.000885,0,0
0:1:56.392,442.282,25.028,0,0.000885,0,0
0:1:56.596,443.457,25.0969,0,0.000885,0,0
0:1:56.795,444.395,25.1452,0,0.000885,0,0
0:1:56.993,445.627,25.2141,0,0.000885,0,0
0:1:57.188,446.975,25.2969,0,0.000885,0,0
0:1:57.389,446.917,25.29,0,0.000885,0,0
0:1:57.584,448.207,25.3658,0,0.000885,0,0
0:1:57.781,448.385,25.3727,0,0.000885,0,0
0:1:57.981,449.613,25.4417,0,0.000885,0,0
0:1:58.182,450.378,25.483,0,0.000885,0,0
0:1:58.385,451.432,25.5451,0,0.000885,0,0
0:1:58.587,452.135,25.5864,0,0.000885,0,0
0:1:58.786,452.077,25.5795,0,0.000885,0,0
0:1:58.986,453.781,25.6761,0,0.000885,0,0
0:1:59.188,454.19,25.7037,0,0.000885,0,0
0:1:59.389,455.889,25.8002,0,0.000885,0,0
0:1:59.587,456.592,25.8347,0,0.000885,0,0
0:1:59.781,457.237,25.876,0,0.000885,0,0
0:1:59.981,458.296,25.9312,0,0.000885,0,0
0:2:0.176,459.466,26.0001,0,0.000885,0,0
0:2:0.376,460.053,26.0346,0,0.000885,0,0
0:2:0.576,461.405,26.1104,0,0.000885,0,0
0:2:0.769,461.227,26.1036,0,0.000885,0,0
0:2:0.969,462.575,26.1794,0,0.000885,0,0
0:2:1.166,463.162,26.207,0,0.000885,0,0
0:2:1.363,464.221,26.269,0,0.000885,0,0
0:2:1.564,465.217,26.3242,0,0.000885,0,0
0:2:1.759,465.862,26.3656,0,0.000885,0,0
0:2:1.957,467.152,26.4345,0,0.000885,0,0
0:2:2.156,467.268,26.4414,0,0.000885,0,0
0:2:2.350,468.616,26.5172,0,0.000885,0,0
0:2:2.550,469.087,26.5448,0,0.000885,0,0
0:2:2.751,470.786,26.6413,0,0.000885,0,0
0:2:2.953,471.2,26.662,0,0.000885,0,0
0:2:3.157,473.015,26.7654,0,0.000885,0,0
0:2:3.358,473.073,26.7723,0,0.000885,0,0
0:2:3.559,474.074,26.8275,0,0.000885,0,0
0:2:3.758,475.07,26.8827,0,0.000885,0,0
0:2:3.959,475.773,26.924,0,0.000885,0,0
0:2:4.159,477.121,26.9999,0,0.000885,0,0
0:2:4.355,477.944,27.0481,0,0.000885,0,0
0:2:4.553,478.469,27.0757,0,0.000885,0,0
0:2:4.752,480.114,27.1722,0,0.000885,0,0
0:2:4.948,480.172,27.1722,0,0.000885,0,0
0:2:5.149,481.698,27.2619,0,0.000885,0,0
0:2:5.344,481.756,27.2619,0,0.000885,0,0
0:2:5.543,482.752,27.317,0,0.000885,0,0
0:2:5.743,484.042,27.3929,0,0.000885,0,0
0:2:5.937,484.923,27.4411,0,0.000885,0,0
0:2:6.138,485.977,27.5032,0,0.000885,0,0
0:2:6.334,486.097,27.5101,0,0.000885,0,0
0:2:6.531,487.796,27.6066,0,0.000885,0,0
0:2:6.732,487.97,27.6135,0,0.000885,0,0
0:2:6.926,488.908,27.6687,0,0.000885,0,0
0:2:7.126,489.731,27.71,0,0.000885,0,0
0:2:7.324,491.137,27.7928,0,0.000885,0,0
0:2:7.517,492.138,27.8479,0,0.000885,0,0
0:2:7.719,492.605,27.8755,0,0.000885,0,0
0:2:7.918,493.37,27.9169,0,0.000885,0,0
0:2:8.120,493.544,27.9307,0,0.000885,0,0
0:2:8.322,495.305,28.0272,0,0.000885,0,0
0:2:8.521,495.714,28.0548,0,0.000885,0,0
0:2:8.721,496.889,28.1168,0,0.000885,0,0
0:2:8.921,498.058,28.1858,0,0.000885,0,0
0:2:9.122,498.646,28.2202,0,0.000885,0,0
0:2:9.321,499.526,28.2685,0,0.000885,0,0
0:2:9.516,500.523,28.3237,0,0.000885,0,0
0:2:9.716,500.638,28.3306,0,0.000885,0,0
0:2:9.913,502.4,28.4271,0,0.000885,0,0
0:2:10.119,502.871,28.4547,0,0.000885,0,0
0:2:10.320,503.748,28.5029,0,0.000885,0,0
0:2:10.515,504.393,28.5443,0,0.000885,0,0
0:2:10.713,505.509,28.6063,0,0.000885,0,0
0:2:10.912,506.799,28.6822,0,0.000885,0,0
0:2:11.117,507.444,28.7167,0,0.000885,0,0
0:2:11.317,508.441,28.7718,0,0.000885,0,0
0:2:11.513,509.206,28.8132,0,0.000885,0,0
0:2:11.708,510.433,28.8821,0,0.000885,0,0
0:2:11.908,511.434,28.9442,0,0.000885,0,0
0:2:12.103,512.311,28.9925,0,0.000885,0,0
0:2:12.304,512.431,28.9993,0,0.000885,0,0
0:2:12.501,513.836,29.0752,0,0.000885,0,0
0:2:12.697,514.308,29.1028,0,0.000885,0,0
0:2:12.898,515.362,29.1648,0,0.000885,0,0
0:2:13.098,516.065,29.2062,0,0.000885,0,0
0:2:13.300,517.061,29.2613,0,0.000885,0,0
0:2:13.501,517.942,29.3096,0,0.000885,0,0
0:2:13.703,518.823,29.3579,0,0.000885,0,0
0:2:13.903,520.113,29.4337,0,0.000885,0,0
0:2:14.103,520.936,29.482,0,0.000885,0,0
0:2:14.304,521.403,29.5027,0,0.000885,0,0
0:2:14.504,522.871,29.5854,0,0.000885,0,0
0:2:14.708,522.751,29.5785,0,0.000885,0,0
0:2:14.908,524.454,29.675,0,0.000885,0,0
0:2:15.105,524.806,29.6957,0,0.000885,0,0
0:2:15.303,526.096,29.7716,0,0.000885,0,0
0:2:15.503,526.914,29.8198,0,0.000885,0,0
0:2:15.706,527.559,29.8543,0,0.000885,0,0
0:2:15.906,529.143,29.9439,0,0.000885,0,0
0:2:16.115,529.436,29.9577,0,0.000885,0,0
0:2:16.321,530.726,30.0336,0,0.000885,0,0
0:2:16.522,531.665,30.0887,0,0.000885,0,0
0:2:16.716,532.959,30.1577,0,0.000885,0,0
0:2:16.915,533.72,30.199,0,0.000885,0,0
0:2:17.113,534.423,30.2404,0,0.000885,0,0
0:2:17.307,534.481,30.2473,0,0.000885,0,0
0:2:17.508,535.833,30.3231,0,0.000885,0,0
0:2:17.709,536.242,30.3438,0,0.000885,0,0
0:2:17.915,537.474,30.4128,0,0.000885,0,0
0:2:18.116,538.177,30.4541,0,0.000885,0,0
0:2:18.316,539.058,30.5024,0,0.000885,0,0
0:2:18.517,540.406,30.5782,0,0.000885,0,0
0:2:18.717,540.757,30.5989,0,0.000885,0,0
0:2:18.917,542.047,30.6748,0,0.000885,0,0
0:2:19.116,542.928,30.723,0,0.000885,0,0
0:2:19.308,543.395,30.7506,0,0.000885,0,0
0:2:19.510,544.569,30.8196,0,0.000885,0,0
0:2:19.718,544.92,30.8334,0,0.000885,0,0
0:2:19.915,546.21,30.9092,0,0.000885,0,0
0:2:20.115,546.562,30.9299,0,0.000885,0,0
0:2:20.307,548.266,31.0264,0,0.000885,0,0
0:2:20.508,548.795,31.054,0,0.000885,0,0
0:2:20.706,550.436,31.1505,0,0.000885,0,0
0:2:20.913,550.788,31.1712,0,0.000885,0,0
0:2:21.114,552.193,31.247,0,0.000885,0,0
0:2:21.306,552.487,31.2677,0,0.000885,0,0
0:2:21.505,553.425,31.316,0,0.000885,0,0
0:2:21.704,554.306,31.3643,0,0.000885,0,0
0:2:21.899,555.067,31.4125,0,0.000885,0,0
0:2:22.100,556.419,31.4884,0,0.000885,0,0
0:2:22.295,556.65,31.5021,0,0.000885,0,0
0:2:22.494,557.94,31.5711,0,0.000885,0,0
0:2:22.693,557.94,31.5711,0,0.000885,0,0
0:2:22.897,559.351,31.6538,0,0.000885,0,0
0:2:23.097,560.347,31.709,0,0.000885,0,0
0:2:23.298,561.285,31.7641,0,0.000885,0,0
0:2:23.498,562.34,31.8193,0,0.000885,0,0
0:2:23.698,563.105,31.8676,0,0.000885,0,0
0:2:23.898,563.923,31.9089,0,0.000885,0,0
0:2:24.100,564.92,31.971,0,0.000885,0,0
0:2:24.296,566.036,32.033,0,0.000885,0,0
0:2:24.495,566.975,32.0813,0,0.000885,0,0
0:2:24.695,567.268,32.102,0,0.000885,0,0
0:2:24.888,567.562,32.1158,0,0.000885,0,0
0:2:25.090,568.794,32.1847,0,0.000885,0,0
0:2:25.285,569.319,32.2192,0,0.000885,0,0
0:2:25.482,570.378,32.2744,0,0.000885,0,0
0:2:25.681,571.432,32.3364,0,0.000885,0,0
0:2:25.877,572.544,32.3985,0,0.000885,0,0
0:2:26.076,573.603,32.4605,0,0.000885,0,0
0:2:26.274,574.128,32.4881,0,0.000885,0,0
0:2:26.470,574.95,32.5364,0,0.000885,0,0
0:2:26.671,575.947,32.5915,0,0.000885,0,0
0:2:26.867,577.357,32.6743,0,0.000885,0,0
0:2:27.067,578.06,32.7087,0,0.000885,0,0
0:2:27.263,578.998,32.7639,0,0.000885,0,0
0:2:27.460,579.465,32.7915,0,0.000885,0,0
0:2:27.659,581.111,32.8811,0,0.000885,0,0
0:2:27.860,580.991,32.8742,0,0.000885,0,0
0:2:28.063,582.868,32.9845,0,0.000885,0,0
0:2:28.263,582.633,32.9707,0,0.000885,0,0
0:2:28.465,584.1,33.0535,0,0.000885,0,0
0:2:28.665,584.745,33.0879,0,0.000885,0,0
0:2:28.867,585.92,33.1569,0,0.000885,0,0
0:2:29.065,586.623,33.1983,0,0.000885,0,0
0:2:29.266,587.503,33.2465,0,0.000885,0,0
0:2:29.461,588.793,33.3155,0,0.000885,0,0
0:2:29.660,589.612,33.3637,0,0.000885,0,0
0:2:29.856,590.728,33.4258,0,0.000885,0,0
0:2:30.052,591.195,33.4534,0,0.000885,0,0
0:2:30.253,592.134,33.5085,0,0.000885,0,0
0:2:30.448,593.428,33.5844,0,0.000885,0,0
0:2:30.649,593.602,33.5913,0,0.000885,0,0
0:2:30.846,595.479,33.6947,0,0.000885,0,0
0:2:31.045,595.479,33.6947,0,0.000885,0,0
0:2:31.246,596.128,33.736,0,0.000885,0,0
0:2:31.443,597.125,33.7912,0,0.000885,0,0
0:2:31.642,598.063,33.8464,0,0.000885,0,0
0:2:31.839,598.473,33.867,0,0.000885,0,0
0:2:32.036,599.353,33.9153,0,0.000885,0,0
0:2:32.237,600.763,33.998,0,0.000885,0,0
0:2:32.435,601.76,34.0532,0,0.000885,0,0
0:2:32.634,602.934,34.1222,0,0.000885,0,0
0:2:32.835,604.051,34.1842,0,0.000885,0,0
0:2:33.039,604.931,34.2325,0,0.000885,0,0
0:2:33.241,605.576,34.2669,0,0.000885,0,0
0:2:33.444,606.987,34.3497,0,0.000885,0,0
0:2:33.644,606.987,34.3497,0,0.000885,0,0
0:2:33.845,608.161,34.4117,0,0.000885,0,0
0:2:34.046,607.867,34.3979,0,0.000885,0,0
0:2:34.248,609.451,34.4876,0,0.000885,0,0
0:2:34.447,610.389,34.5427,0,0.000885,0,0
0:2:34.645,610.977,34.5772,0,0.000885,0,0
0:2:34.845,611.742,34.6186,0,0.000885,0,0
0:2:35.039,612.444,34.6599,0,0.000885,0,0
0:2:35.241,613.677,34.7289,0,0.000885,0,0
0:2:35.439,613.797,34.7358,0,0.000885,0,0
0:2:35.637,615.496,34.8323,0,0.000885,0,0
0:2:35.838,616.141,34.8668,0,0.000885,0,0
0:2:36.032,617.609,34.9495,0,0.000885,0,0
0:2:36.233,618.432,34.9978,0,0.000885,0,0
0:2:36.433,619.606,35.0598,0,0.000885,0,0
0:2:36.631,620.665,35.1219,0,0.000885,0,0
0:2:36.832,621.425,35.1633,0,0.000885,0,0
0:2:37.027,622.484,35.2253,0,0.000885,0,0
0:2:37.228,623.129,35.2598,0,0.000885,0,0
0:2:37.427,624.477,35.3356,0,0.000885,0,0
0:2:37.624,625.122,35.377,0,0.000885,0,0
0:2:37.826,626.065,35.4253,0,0.000885,0,0
0:2:38.028,627.119,35.4873,0,0.000885,0,0
0:2:38.231,627.471,35.508,0,0.000885,0,0
0:2:38.435,628.823,35.5838,0,0.000885,0,0
0:2:38.635,628.765,35.5838,0,0.000885,0,0
0:2:38.837,630.233,35.6666,0,0.000885,0,0
0:2:39.038,630.642,35.6873,0,0.000885,0,0
0:2:39.240,631.581,35.7424,0,0.000885,0,0
0:2:39.438,632.346,35.7838,0,0.000885,0,0
0:2:39.637,633.284,35.8389,0,0.000885,0,0
0:2:39.839,634.281,35.8941,0,0.000885,0,0
0:2:40.034,634.984,35.9355,0,0.000885,0,0
0:2:40.234,636.22,36.0044,0,0.000885,0,0
0:2:40.434,637.097,36.0527,0,0.000885,0,0
0:2:40.629,637.977,36.1009,0,0.000885,0,0
0:2:40.831,638.507,36.1354,0,0.000885,0,0
0:2:41.027,640.152,36.2251,0,0.000885,0,0
0:2:41.225,640.09,36.2251,0,0.000885,0,0
0:2:41.427,641.207,36.2871,0,0.000885,0,0
0:2:41.624,641.62,36.3078,0,0.000885,0,0
0:2:41.827,643.146,36.3974,0,0.000885,0,0
0:2:42.022,643.44,36.4112,0,0.000885,0,0
0:2:42.221,645.317,36.5146,0,0.000885,0,0
0:2:42.422,645.433,36.5215,0,0.000885,0,0
0:2:42.627,647.136,36.6181,0,0.000885,0,0
0:2:42.828,647.021,36.6112,0,0.000885,0,0
0:2:43.031,649.071,36.7284,0,0.000885,0,0
0:2:43.232,649.191,36.7353,0,0.000885,0,0
0:2:43.433,650.308,36.7973,0,0.000885,0,0
0:2:43.635,651.126,36.8456,0,0.000885,0,0
0:2:43.836,651.949,36.8938,0,0.000885,0,0
0:2:44.035,653.123,36.9559,0,0.000885,0,0
0:2:44.231,653.653,36.9904,0,0.000885,0,0
0:2:44.433,654.413,37.0317,0,0.000885,0,0
0:2:44.628,654.765,37.0524,0,0.000885,0,0
0:2:44.829,656.233,37.1352,0,0.000885,0,0
0:2:45.028,656.704,37.1627,0,0.000885,0,0
0:2:45.225,658.114,37.2386,0,0.000885,0,0
0:2:45.426,658.288,37.2524,0,0.000885,0,0
0:2:45.622,660.107,37.3558,0,0.000885,0,0
0:2:45.821,660.872,37.3972,0,0.000885,0,0
0:2:46.022,662.576,37.4937,0,0.000885,0,0
0:2:46.217,662.807,37.5075,0,0.000885,0,0
0:2:46.419,663.866,37.5695,0,0.000885,0,0
0:2:46.616,664.689,37.6109,0,0.000885,0,0
0:2:46.812,665.979,37.6867,0,0.000885,0,0
0:2:47.012,666.33,37.7074,0,0.000885,0,0
0:2:47.208,666.566,37.7212,0,0.000885,0,0
0:2:47.409,667.74,37.7833,0,0.000885,0,0
0:2:47.611,668.385,37.8246,0,0.000885,0,0
0:2:47.816,669.208,37.866,0,0.000885,0,0
0:2:48.019,670.32,37.935,0,0.000885,0,0
0:2:48.219,671.263,37.9832,0,0.000885,0,0
0:2:48.421,672.26,38.0453,0,0.000885,0,0
0:2:48.622,673.198,38.0935,0,0.000885,0,0
0:2:48.823,673.785,38.128,0,0.000885,0,0
0:2:49.025,674.666,38.1763,0,0.000885,0,0
0:2:49.220,675.72,38.2383,0,0.000885,0,0
0:2:49.422,676.895,38.3073,0,0.000885,0,0
0:2:49.620,677.251,38.3211,0,0.000885,0,0
0:2:49.817,678.305,38.3831,0,0.000885,0,0
0:2:50.018,679.186,38.4314,0,0.000885,0,0
0:2:50.212,680.476,38.5072,0,0.000885,0,0
0:2:50.411,680.947,38.5348,0,0.000885,0,0
0:2:50.611,681.886,38.59,0,0.000885,0,0
0:2:50.808,682.882,38.6451,0,0.000885,0,0
0:2:51.008,683.825,38.6934,0,0.000885,0,0
0:2:51.205,684.879,38.7554,0,0.000885,0,0
0:2:51.405,685.289,38.7761,0,0.000885,0,0
0:2:51.605,686.583,38.852,0,0.000885,0,0
0:2:51.799,687.05,38.8795,0,0.000885,0,0
0:2:52.002,688.576,38.9623,0,0.000885,0,0
0:2:52.208,688.932,38.983,0,0.000885,0,0
0:2:52.408,690.164,39.0519,0,0.000885,0,0
0:2:52.609,690.809,39.0933,0,0.000885,0,0
0:2:52.812,692.45,39.1829,0,0.000885,0,0
0:2:53.017,692.806,39.2036,0,0.000885,0,0
0:2:53.219,694.154,39.2794,0,0.000885,0,0
0:2:53.420,694.39,39.2932,0,0.000885,0,0
0:2:53.621,695.68,39.3691,0,0.000885,0,0
0:2:53.822,696.267,39.4035,0,0.000885,0,0
0:2:54.024,697.499,39.4725,0,0.000885,0,0
0:2:54.221,697.85,39.4932,0,0.000885,0,0
0:2:54.418,698.851,39.5483,0,0.000885,0,0
0:2:54.620,699.025,39.5552,0,0.000885,0,0
0:2:54.825,700.728,39.6517,0,0.000885,0,0
0:2:55.025,701.022,39.6724,0,0.000885,0,0
0:2:55.224,702.548,39.7552,0,0.000885,0,0
0:2:55.419,702.605,39.7621,0,0.000885,0,0
0:2:55.620,704.603,39.8724,0,0.000885,0,0
0:2:55.819,705.012,39.8931,0,0.000885,0,0
0:2:56.018,706.538,39.9827,0,0.000885,0,0
0:2:56.217,706.773,39.9965,0,0.000885,0,0
0:2:56.411,707.125,40.0172,0,0.000885,0,0
0:2:56.611,708.419,40.0861,0,0.000885,0,0
0:2:56.820,709.825,40.1689,0,0.000885,0,0
0:2:57.019,710.941,40.2309,0,0.000885,0,0
0:2:57.220,711.293,40.2516,0,0.000885,0,0
0:2:57.413,712.294,40.3068,0,0.000885,0,0
0:2:57.613,712.231,40.3068,0,0.000885,0,0
0:2:57.814,713.642,40.3826,0,0.000885,0,0
0:2:58.020,714.407,40.424,0,0.000885,0,0
0:2:58.222,716.106,40.5205,0,0.000885,0,0
0:2:58.424,716.106,40.5205,0,0.000885,0,0
0:2:58.626,717.81,40.617,0,0.000885,0,0
0:2:58.825,717.752,40.617,0,0.000885,0,0
0:2:59.026,719.335,40.7066,0,0.000885,0,0
0:2:59.229,719.922,40.7411,0,0.000885,0,0
0:2:59.425,721.155,40.8101,0,0.000885,0,0
0:2:59.624,722.155,40.8652,0,0.000885,0,0
0:2:59.826,723.267,40.9273,0,0.000885,0,0
0:3:0.020,724.148,40.9755,0,0.000885,0,0
0:3:0.221,724.913,41.0238,0,0.000885,0,0
0:3:0.419,725.558,41.0583,0,0.000885,0,0
0:3:0.614,726.79,41.1272,0,0.000885,0,0
0:3:0.818,727.378,41.1617,0,0.000885,0,0
0:3:1.024,727.907,41.1893,0,0.000885,0,0
0:3:1.223,728.73,41.2375,0,0.000885,0,0
0:3:1.422,729.668,41.2927,0,0.000885,0,0
0:3:1.619,731.194,41.3754,0,0.000885,0,0
0:3:1.821,731.488,41.3961,0,0.000885,0,0
0:3:2.017,732.893,41.472,0,0.000885,0,0
0:3:2.218,733.249,41.4926,0,0.000885,0,0
0:3:2.417,734.424,41.5616,0,0.000885,0,0
0:3:2.621,734.833,41.5823,0,0.000885,0,0
0:3:2.823,736.243,41.665,0,0.000885,0,0
0:3:3.023,736.416,41.6719,0,0.000885,0,0
0:3:3.227,738.004,41.7615,0,0.000885,0,0
0:3:3.430,738.472,41.7891,0,0.000885,0,0
0:3:3.631,739.704,41.8581,0,0.000885,0,0
0:3:3.833,739.997,41.8788,0,0.000885,0,0
0:3:4.032,741.229,41.9477,0,0.000885,0,0
0:3:4.234,741.817,41.9753,0,0.000885,0,0
0:3:4.436,742.933,42.0442,0,0.000885,0,0
0:3:4.631,743.578,42.0787,0,0.000885,0,0
0:3:4.833,744.459,42.127,0,0.000885,0,0
0:3:5.031,745.811,42.2028,0,0.000885,0,0
0:3:5.229,746.807,42.258,0,0.000885,0,0
0:3:5.431,747.337,42.2924,0,0.000885,0,0
0:3:5.626,748.449,42.3545,0,0.000885,0,0
0:3:5.825,748.863,42.3752,0,0.000885,0,0
0:3:6.025,750.33,42.4579,0,0.000885,0,0
0:3:6.220,750.798,42.4855,0,0.000885,0,0
0:3:6.422,751.798,42.5407,0,0.000885,0,0
0:3:6.619,752.973,42.6096,0,0.000885,0,0
0:3:6.814,753.146,42.6165,0,0.000885,0,0
0:3:7.018,754.85,42.713,0,0.000885,0,0
0:3:7.212,755.201,42.7337,0,0.000885,0,0
0:3:7.414,756.963,42.8371,0,0.000885,0,0
0:3:7.617,756.963,42.8371,0,0.000885,0,0
0:3:7.821,758.782,42.9405,0,0.000885,0,0
0:3:8.024,758.84,42.9405,0,0.000885,0,0
0:3:8.225,760.25,43.0233,0,0.000885,0,0
0:3:8.427,760.486,43.0371,0,0.000885,0,0
0:3:8.628,762.011,43.1198,0,0.000885,0,0
0:3:8.828,762.069,43.1267,0,0.000885,0,0
0:3:9.030,763.537,43.2094,0,0.000885,0,0
0:3:9.225,764.298,43.2508,0,0.000885,0,0
0:3:9.426,765.534,43.3198,0,0.000885,0,0
0:3:9.625,766.237,43.3611,0,0.000885,0,0
0:3:9.821,766.824,43.3956,0,0.000885,0,0
0:3:10.022,767.763,43.4439,0,0.000885,0,0
0:3:10.219,768.586,43.4921,0,0.000885,0,0
0:3:10.418,769.525,43.5473,0,0.000885,0,0
0:3:10.619,769.934,43.568,0,0.000885,0,0
0:3:10.812,771.344,43.6507,0,0.000885,0,0
0:3:11.012,772.047,43.6921,0,0.000885,0,0
0:3:11.210,772.576,43.7197,0,0.000885,0,0
0:3:11.408,773.928,43.7955,0,0.000885,0,0
0:3:11.609,774.338,43.8162,0,0.000885,0,0
0:3:11.825,775.098,43.8644,0,0.000885,0,0
0:3:12.026,776.45,43.9403,0,0.000885,0,0
0:3:12.224,776.802,43.961,0,0.000885,0,0
0:3:12.421,778.328,44.0437,0,0.000885,0,0
0:3:12.623,778.915,44.0782,0,0.000885,0,0
0:3:12.825,780.561,44.1678,0,0.000885,0,0
0:3:13.029,781.148,44.2023,0,0.000885,0,0
0:3:13.231,781.966,44.2506,0,0.000885,0,0
0:3:13.433,783.025,44.3126,0,0.000885,0,0
0:3:13.634,783.728,44.3471,0,0.000885,0,0
0:3:13.834,784.608,44.4022,0,0.000885,0,0
0:3:14.036,785.138,44.4298,0,0.000885,0,0
0:3:14.237,786.428,44.5057,0,0.000885,0,0
0:3:14.432,787.251,44.547,0,0.000885,0,0
0:3:14.633,787.954,44.5884,0,0.000885,0,0
0:3:14.833,789.599,44.6849,0,0.000885,0,0
0:3:15.030,789.835,44.6987,0,0.000885,0,0
0:3:15.231,791.303,44.7814,0,0.000885,0,0
0:3:15.425,791.89,44.809,0,0.000885,0,0
0:3:15.627,792.944,44.8711,0,0.000885,0,0
0:3:15.825,793.296,44.8918,0,0.000885,0,0
0:3:16.022,793.532,44.9056,0,0.000885,0,0
0:3:16.224,795.057,44.9883,0,0.000885,0,0
0:3:16.419,795.115,44.9952,0,0.000885,0,0
0:3:16.618,796.703,45.0848,0,0.000885,0,0
0:3:16.819,797.29,45.1193,0,0.000885,0,0
0:3:17.023,798.345,45.1744,0,0.000885,0,0
0:3:17.225,799.225,45.2296,0,0.000885,0,0
0:3:17.423,800.578,45.3055,0,0.000885,0,0
0:3:17.620,801.458,45.3537,0,0.000885,0,0
0:3:17.822,802.864,45.4296,0,0.000885,0,0
0:3:18.024,803.509,45.4709,0,0.000885,0,0
0:3:18.227,804.625,45.533,0,0.000885,0,0
0:3:18.429,805.213,45.5675,0,0.000885,0,0
0:3:18.631,805.742,45.595,0,0.000885,0,0
0:3:18.833,807.032,45.6709,0,0.000885,0,0
0:3:19.031,807.619,45.7053,0,0.000885,0,0
0:3:19.234,808.033,45.726,0,0.000885,0,0
0:3:19.435,809.203,45.795,0,0.000885,0,0
0:3:19.630,809.616,45.8157,0,0.000885,0,0
0:3:19.832,811.258,45.9053,0,0.000885,0,0
0:3:20.028,811.903,45.9467,0,0.000885,0,0
0:3:20.227,813.019,46.0087,0,0.000885,0,0
0:3:20.427,813.664,46.0432,0,0.000885,0,0
0:3:20.623,814.251,46.0777,0,0.000885,0,0
0:3:20.825,815.546,46.1535,0,0.000885,0,0
0:3:21.022,816.249,46.188,0,0.000885,0,0
0:3:21.221,817.187,46.2431,0,0.000885,0,0
0:3:21.422,818.126,46.2983,0,0.000885,0,0
0:3:21.625,819.007,46.3466,0,0.000885,0,0
0:3:21.826,819.358,46.3672,0,0.000885,0,0
0:3:22.025,821.119,46.4638,0,0.000885,0,0
0:3:22.222,821.413,46.4845,0,0.000885,0,0
0:3:22.425,822.53,46.5465,0,0.000885,0,0
0:3:22.627,823.41,46.5948,0,0.000885,0,0
0:3:22.830,824.527,46.6568,0,0.000885,0,0
0:3:23.033,824.878,46.6775,0,0.000885,0,0
0:3:23.233,825.995,46.7396,0,0.000885,0,0
0:3:23.435,826.168,46.7533,0,0.000885,0,0
0:3:23.637,828.045,46.8568,0,0.000885,0,0
0:3:23.839,828.108,46.8637,0,0.000885,0,0
0:3:24.037,829.104,46.9188,0,0.000885,0,0
0:3:24.234,830.043,46.974,0,0.000885,0,0
0:3:24.437,831.746,47.0705,0,0.000885,0,0
0:3:24.632,832.333,47.0981,0,0.000885,0,0
0:3:24.831,833.508,47.167,0,0.000885,0,0
0:3:25.032,834.268,47.2084,0,0.000885,0,0
0:3:25.227,834.389,47.2153,0,0.000885,0,0
0:3:25.429,835.794,47.298,0,0.000885,0,0
0:3:25.626,836.911,47.3601,0,0.000885,0,0
0:3:25.823,838.085,47.429,0,0.000885,0,0
0:3:26.025,838.614,47.4566,0,0.000885,0,0
0:3:26.219,840.02,47.5325,0,0.000885,0,0
0:3:26.420,840.376,47.5531,0,0.000885,0,0
0:3:26.620,841.194,47.6014,0,0.000885,0,0
0:3:26.813,841.902,47.6428,0,0.000885,0,0
0:3:27.016,843.014,47.7048,0,0.000885,0,0
0:3:27.211,843.427,47.7255,0,0.000885,0,0
0:3:27.412,844.775,47.8014,0,0.000885,0,0
0:3:27.613,844.953,47.8151,0,0.000885,0,0
0:3:27.816,846.479,47.8979,0,0.000885,0,0
0:3:28.021,847.244,47.9461,0,0.000885,0,0
0:3:28.222,848.592,48.022,0,0.000885,0,0
0:3:28.423,849.237,48.0565,0,0.000885,0,0
0:3:28.624,850.295,48.1185,0,0.000885,0,0
0:3:28.826,850.353,48.1185,0,0.000885,0,0
0:3:29.028,852.23,48.2288,0,0.000885,0,0
0:3:29.225,853.231,48.284,0,0.000885,0,0
0:3:29.422,853.52,48.2978,0,0.000885,0,0
0:3:29.623,854.228,48.3391,0,0.000885,0,0
0:3:29.827,855.051,48.3874,0,0.000885,0,0
0:3:30.028,855.811,48.4288,0,0.000885,0,0
0:3:30.227,856.634,48.477,0,0.000885,0,0
0:3:30.422,857.515,48.5253,0,0.000885,0,0
0:3:30.623,858.218,48.5667,0,0.000885,0,0
0:3:30.822,859.45,48.6356,0,0.000885,0,0
0:3:31.019,859.979,48.6632,0,0.000885,0,0
0:3:31.220,860.918,48.7184,0,0.000885,0,0
0:3:31.413,861.505,48.7528,0,0.000885,0,0
0:3:31.614,863.151,48.8425,0,0.000885,0,0
0:3:31.813,864.147,48.8976,0,0.000885,0,0
0:3:32.009,865.615,48.9804,0,0.000885,0,0
0:3:32.210,866.082,49.0079,0,0.000885,0,0
0:3:32.406,866.611,49.0424,0,0.000885,0,0
0:3:32.606,867.55,49.0907,0,0.000885,0,0
0:3:32.807,869.254,49.1872,0,0.000885,0,0
0:3:33.010,869.369,49.1941,0,0.000885,0,0
0:3:33.213,870.077,49.2355,0,0.000885,0,0
0:3:33.415,870.722,49.2699,0,0.000885,0,0
0:3:33.617,871.545,49.3182,0,0.000885,0,0
0:3:33.820,872.363,49.3665,0,0.000885,0,0
0:3:34.021,872.95,49.4009,0,0.000885,0,0
0:3:34.223,874.067,49.463,0,0.000885,0,0
0:3:34.420,874.712,49.4975,0,0.000885,0,0
0:3:34.617,876.18,49.5802,0,0.000885,0,0
0:3:34.821,876.887,49.6216,0,0.000885,0,0
0:3:35.013,878.292,49.7043,0,0.000885,0,0
0:3:35.215,878.822,49.7319,0,0.000885,0,0
0:3:35.413,879.996,49.8008,0,0.000885,0,0
0:3:35.622,880.699,49.8353,0,0.000885,0,0
0:3:35.824,881.58,49.8905,0,0.000885,0,0
0:3:36.027,882.109,49.918,0,0.000885,0,0
0:3:36.229,883.457,49.9939,0,0.000885,0,0
0:3:36.427,884.044,50.0284,0,0.000885,0,0
0:3:36.624,884.867,50.0766,0,0.000885,0,0
0:3:36.826,885.748,50.1249,0,0.000885,0,0
0:3:37.022,886.686,50.1731,0,0.000885,0,0
0:3:37.222,887.216,50.2076,0,0.000885,0,0
0:3:37.422,888.506,50.2766,0,0.000885,0,0
0:3:37.614,889.386,50.3317,0,0.000885,0,0
0:3:37.816,890.618,50.4007,0,0.000885,0,0
0:3:38.017,891.206,50.4351,0,0.000885,0,0
0:3:38.223,893.145,50.5386,0,0.000885,0,0
0:3:38.426,893.848,50.5799,0,0.000885,0,0
0:3:38.629,894.493,50.6213,0,0.000885,0,0
0:3:38.829,895.08,50.6489,0,0.000885,0,0
0:3:39.030,895.667,50.6834,0,0.000885,0,0
0:3:39.232,897.077,50.7661,0,0.000885,0,0
0:3:39.434,897.549,50.7937,0,0.000885,0,0
0:3:39.627,898.016,50.8144,0,0.000885,0,0
0:3:39.828,898.309,50.835,0,0.000885,0,0
0:3:40.027,899.599,50.904,0,0.000885,0,0
0:3:40.224,900.249,50.9454,0,0.000885,0,0
0:3:40.427,901.245,51.0005,0,0.000885,0,0
0:3:40.622,902.006,51.0419,0,0.000885,0,0
0:3:40.822,903.474,51.1246,0,0.000885,0,0
0:3:41.021,903.652,51.1384,0,0.000885,0,0
0:3:41.215,905.235,51.228,0,0.000885,0,0
0:3:41.418,906.294,51.2832,0,0.000885,0,0
0:3:41.615,907.29,51.3453,0,0.000885,0,0
0:3:41.812,907.82,51.3728,0,0.000885,0,0
0:3:42.013,909.23,51.4487,0,0.000885,0,0
0:3:42.208,909.523,51.4694,0,0.000885,0,0
0:3:42.408,910.342,51.5176,0,0.000885,0,0
0:3:42.610,911.28,51.5659,0,0.000885,0,0
0:3:42.814,911.988,51.6073,0,0.000885,0,0
0:3:43.017,912.926,51.6624,0,0.000885,0,0
0:3:43.221,913.865,51.7176,0,0.000885,0,0
0:3:43.422,914.746,51.7658,0,0.000885,0,0
0:3:43.623,915.217,51.7934,0,0.000885,0,0
0:3:43.823,916.329,51.8555,0,0.000885,0,0
0:3:44.025,916.801,51.883,0,0.000885,0,0
0:3:44.219,917.561,51.9244,0,0.000885,0,0
0:3:44.419,917.739,51.9313,0,0.000885,0,0
0:3:44.619,919.443,52.0278,0,0.000885,0,0
0:3:44.814,920.261,52.0761,0,0.000885,0,0
0:3:45.016,920.675,52.0968,0,0.000885,0,0
0:3:45.212,920.791,52.1037,0,0.000885,0,0
0:3:45.412,921.672,52.1588,0,0.000885,0,0
0:3:45.613,921.907,52.1726,0,0.000885,0,0
0:3:45.816,923.024,52.2347,0,0.000885,0,0
0:3:46.017,923.255,52.2485,0,0.000885,0,0
0:3:46.216,924.078,52.2898,0,0.000885,0,0
0:3:46.425,924.492,52.3174,0,0.000885,0,0
0:3:46.625,924.785,52.3312,0,0.000885,0,0
0:3:46.822,925.195,52.3519,0,0.000885,0,0
0:3:47.019,925.079,52.3519,0,0.000885,0,0
0:3:47.218,925.43,52.3657,0,0.000885,0,0
0:3:47.412,925.43,52.3657,0,0.000885,0,0
0:3:47.614,925.252,52.3588,0,0.000885,0,0
0:3:47.814,924.843,52.3381,0,0.000885,0,0
0:3:48.017,922.668,52.214,0,0.000885,0,0
0:3:48.218,921.027,52.1175,0,0.000885,0,0
0:3:48.419,911.868,51.6004,0,0.000885,0,0
0:3:48.622,900.365,50.9523,0,0.000885,0,0
0:3:48.823,819.358,46.3672,0,0.000885,0,0
0:3:49.024,728.552,41.2306,0,0.000885,0,0
0:3:49.034,728.552,41.2306,0,0.000885,0,0