File: DataFile2021-07-15_053054.csv
Test ID:,Date Tested:,Time:,Test Type:,Diameter Avg. (mm):,Cyl. Corr. Factor:,Height (mm):,Age (days):,Weight (kN):,Break Type:,Ramp Rate (MPa/s):,Load at Break (kN):,Stress at Break (MPa):
12,7/15/2021,05:30,Cylinder,150,1,300,0,3.6,3,0.25,1709.08,96.71
Sample Time,Load (kN),Stress (MPa),Long. Strain,Trans. Strain,Chan1 Deflection (mm),Chan2 Deflection (mm)
0:0:11.699,5.57362,0.317159,0,0.000885,0,0
0:0:12.097,7.3885,0.42058,0,0.000885,0,0
0:0:12.495,9.5014,0.537791,0,0.000885,0,0
0:0:12.890,11.8456,0.668791,0,0.000885,0,0
0:0:13.288,13.6649,0.772213,0,0.000885,0,0
0:0:13.688,14.1943,0.799792,0,0.000885,0,0
0:0:14.093,14.6613,0.827371,0,0.000885,0,0
0:0:14.489,17.3036,0.979056,0,0.000885,0,0
0:0:14.895,19.7634,1.11695,0,0.000885,0,0
0:0:15.295,20.1193,1.13763,0,0.000885,0,0
0:0:15.693,22.0543,1.24795,0,0.000885,0,0
0:0:16.092,22.9306,1.29621,0,0.000885,0,0
0:0:16.488,24.5141,1.38585,0,0.000885,0,0
0:0:16.887,27.1564,1.53753,0,0.000885,0,0
0:0:17.288,28.9713,1.64095,0,0.000885,0,0
0:0:17.694,30.9685,1.75127,0,0.000885,0,0
0:0:18.097,32.9613,1.86848,0,0.000885,0,0
0:0:18.501,34.7228,1.96501,0,0.000885,0,0
0:0:18.902,36.9514,2.08911,0,0.000885,0,0
0:0:19.303,39.0598,2.21322,0,0.000885,0,0
0:0:19.700,41.0571,2.32353,0,0.000885,0,0
0:0:20.096,43.4591,2.46143,0,0.000885,0,0
0:0:20.493,45.2206,2.55795,0,0.000885,0,0
0:0:20.894,47.1556,2.66827,0,0.000885,0,0
0:0:21.292,49.1484,2.77859,0,0.000885,0,0
0:0:21.689,50.5585,2.86132,0,0.000885,0,0
0:0:22.095,52.4356,2.96475,0,0.000885,0,0
0:0:22.501,53.8991,3.04748,0,0.000885,0,0
0:0:22.903,55.4827,3.13711,0,0.000885,0,0
0:0:23.307,56.7727,3.21296,0,0.000885,0,0
0:0:23.702,58.3562,3.30259,0,0.000885,0,0
0:0:24.100,60.1755,3.40601,0,0.000885,0,0
0:0:24.500,62.0527,3.50943,0,0.000885,0,0
0:0:24.901,63.7519,3.60596,0,0.000885,0,0
0:0:25.296,65.4556,3.70248,0,0.000885,0,0
0:0:25.694,66.9769,3.79212,0,0.000885,0,0
0:0:26.094,69.1476,3.91622,0,0.000885,0,0
0:0:26.493,71.3762,4.04033,0,0.000885,0,0
0:0:26.890,72.9019,4.12306,0,0.000885,0,0
0:0:27.295,74.0762,4.19201,0,0.000885,0,0
0:0:27.700,75.6598,4.28164,0,0.000885,0,0
0:0:28.103,77.6526,4.39196,0,0.000885,0,0
0:0:28.506,79.6454,4.50917,0,0.000885,0,0
0:0:28.903,81.8161,4.63328,0,0.000885,0,0
0:0:29.300,83.8712,4.74359,0,0.000885,0,0
0:0:29.699,84.9254,4.80565,0,0.000885,0,0
0:0:30.100,86.9183,4.91596,0,0.000885,0,0
0:0:30.497,88.7376,5.01938,0,0.000885,0,0
0:0:30.892,90.4991,5.1228,0,0.000885,0,0
0:0:31.291,92.0248,5.20554,0,0.000885,0,0
0:0:31.691,93.5461,5.29517,0,0.000885,0,0
0:0:32.089,95.6012,5.41238,0,0.000885,0,0
0:0:32.495,97.0646,5.49512,0,0.000885,0,0
0:0:32.900,98.8261,5.59165,0,0.000885,0,0
0:0:33.302,100.819,5.70196,0,0.000885,0,0
0:0:33.705,102.874,5.81918,0,0.000885,0,0
0:0:34.104,105.338,5.96397,0,0.000885,0,0
0:0:34.501,106.802,6.0467,0,0.000885,0,0
0:0:34.899,107.976,6.10875,0,0.000885,0,0
0:0:35.301,109.969,6.22597,0,0.000885,0,0
0:0:35.699,111.61,6.3156,0,0.000885,0,0
0:0:36.093,113.02,6.39833,0,0.000885,0,0
0:0:36.490,114.72,6.49486,0,0.000885,0,0
0:0:36.891,116.361,6.58449,0,0.000885,0,0
0:0:37.290,117.829,6.66723,0,0.000885,0,0
0:0:37.697,120.058,6.79134,0,0.000885,0,0
0:0:38.101,121.992,6.90165,0,0.000885,0,0
0:0:38.503,123.985,7.01886,0,0.000885,0,0
0:0:38.907,125.631,7.10849,0,0.000885,0,0
0:0:39.305,127.682,7.22571,0,0.000885,0,0
0:0:39.701,129.617,7.33602,0,0.000885,0,0
0:0:40.097,130.791,7.39807,0,0.000885,0,0
0:0:40.499,132.842,7.51529,0,0.000885,0,0
0:0:40.899,134.603,7.61871,0,0.000885,0,0
0:0:41.296,136.423,7.72213,0,0.000885,0,0
0:0:41.692,137.944,7.80487,0,0.000885,0,0
0:0:42.096,139.763,7.90829,0,0.000885,0,0
0:0:42.501,141.405,8.00481,0,0.000885,0,0
0:0:42.905,143.46,8.11513,0,0.000885,0,0
0:0:43.308,145.452,8.23234,0,0.000885,0,0
0:0:43.705,146.862,8.30818,0,0.000885,0,0
0:0:44.104,147.975,8.37713,0,0.000885,0,0
0:0:44.504,150.03,8.48745,0,0.000885,0,0
0:0:44.901,151.907,8.59776,0,0.000885,0,0
0:0:45.299,153.842,8.70808,0,0.000885,0,0
0:0:45.697,155.657,8.8115,0,0.000885,0,0
0:0:46.097,157.36,8.90803,0,0.000885,0,0
0:0:46.495,159.353,9.01834,0,0.000885,0,0
0:0:46.890,160.763,9.09418,0,0.000885,0,0
0:0:47.296,162.462,9.19071,0,0.000885,0,0
0:0:47.702,164.34,9.30103,0,0.000885,0,0
0:0:48.105,165.981,9.39066,0,0.000885,0,0
0:0:48.509,167.68,9.48719,0,0.000885,0,0
0:0:48.906,169.793,9.61129,0,0.000885,0,0
0:0:49.306,171.492,9.70782,0,0.000885,0,0
0:0:49.704,173.369,9.81124,0,0.000885,0,0
0:0:50.101,175.482,9.92845,0,0.000885,0,0
0:0:50.500,177.417,10.0388,0,0.000885,0,0
0:0:50.896,178.472,10.1008,0,0.000885,0,0
0:0:51.296,180.762,10.2318,0,0.000885,0,0
0:0:51.696,182.697,10.3352,0,0.000885,0,0
0:0:52.090,184.69,10.4525,0,0.000885,0,0
0:0:52.495,185.099,10.4731,0,0.000885,0,0
0:0:52.899,187.212,10.5972,0,0.000885,0,0
0:0:53.303,189.147,10.7007,0,0.000885,0,0
0:0:53.706,190.731,10.7903,0,0.000885,0,0
0:0:54.102,192.257,10.8799,0,0.000885,0,0
0:0:54.498,194.485,11.004,0,0.000885,0,0
0:0:54.896,196.247,11.1075,0,0.000885,0,0
0:0:55.291,197.71,11.1902,0,0.000885,0,0
0:0:55.685,199.881,11.3143,0,0.000885,0,0
0:0:56.090,201.522,11.4039,0,0.000885,0,0
0:0:56.484,203.457,11.5142,0,0.000885,0,0
0:0:56.884,205.099,11.6039,0,0.000885,0,0
0:0:57.289,207.269,11.728,0,0.000885,0,0
0:0:57.690,208.679,11.8107,0,0.000885,0,0
0:0:58.092,210.027,11.8866,0,0.000885,0,0
0:0:58.486,212.14,12.0038,0,0.000885,0,0
0:0:58.883,213.488,12.0796,0,0.000885,0,0
0:0:59.290,215.187,12.1761,0,0.000885,0,0
0:0:59.693,217.594,12.314,0,0.000885,0,0
0:1:0.086,218.884,12.383,0,0.000885,0,0
0:1:0.494,221.29,12.5209,0,0.000885,0,0
0:1:0.891,222.874,12.6105,0,0.000885,0,0
0:1:1.282,224.164,12.6864,0,0.000885,0,0
0:1:1.675,226.041,12.7898,0,0.000885,0,0
0:1:2.076,227.976,12.9001,0,0.000885,0,0
0:1:2.479,229.675,12.9966,0,0.000885,0,0
0:1:2.882,231.73,13.1138,0,0.000885,0,0
0:1:3.282,233.603,13.2172,0,0.000885,0,0
0:1:3.678,235.422,13.3207,0,0.000885,0,0
0:1:4.085,237.829,13.4586,0,0.000885,0,0
0:1:4.493,239.412,13.5482,0,0.000885,0,0
0:1:4.896,240.876,13.6309,0,0.000885,0,0
0:1:5.290,242.637,13.7275,0,0.000885,0,0
0:1:5.683,243.985,13.8102,0,0.000885,0,0
0:1:6.082,245.689,13.8998,0,0.000885,0,0
0:1:6.477,247.797,14.0239,0,0.000885,0,0
0:1:6.890,249.323,14.1067,0,0.000885,0,0
0:1:7.293,251.142,14.2101,0,0.000885,0,0
0:1:7.696,252.726,14.2997,0,0.000885,0,0
0:1:8.097,254.131,14.3825,0,0.000885,0,0
0:1:8.497,256.008,14.4859,0,0.000885,0,0
0:1:8.893,257.77,14.5893,0,0.000885,0,0
0:1:9.286,259.941,14.7065,0,0.000885,0,0
0:1:9.683,261.582,14.803,0,0.000885,0,0
0:1:10.091,264.046,14.9409,0,0.000885,0,0
0:1:10.496,265.51,15.0237,0,0.000885,0,0
0:1:10.887,266.8,15.0995,0,0.000885,0,0
0:1:11.282,268.797,15.2098,0,0.000885,0,0
0:1:11.680,269.909,15.2719,0,0.000885,0,0
0:1:12.073,271.786,15.3822,0,0.000885,0,0
0:1:12.477,273.837,15.4994,0,0.000885,0,0
0:1:12.879,275.131,15.5684,0,0.000885,0,0
0:1:13.280,277.298,15.6925,0,0.000885,0,0
0:1:13.681,278.708,15.7683,0,0.000885,0,0
0:1:14.076,280.113,15.851,0,0.000885,0,0
0:1:14.478,282.168,15.9683,0,0.000885,0,0
0:1:14.876,284.277,16.0855,0,0.000885,0,0
0:1:15.272,286.39,16.2096,0,0.000885,0,0
0:1:15.669,288.561,16.3268,0,0.000885,0,0
0:1:16.062,290.202,16.4233,0,0.000885,0,0
0:1:16.456,292.257,16.5405,0,0.000885,0,0
0:1:16.853,293.721,16.6233,0,0.000885,0,0
0:1:17.249,295.011,16.6922,0,0.000885,0,0
0:1:17.653,296.714,16.7887,0,0.000885,0,0
0:1:18.056,298.12,16.8715,0,0.000885,0,0
0:1:18.457,300.291,16.9956,0,0.000885,0,0
0:1:18.859,302.341,17.1059,0,0.000885,0,0
0:1:19.252,303.809,17.1955,0,0.000885,0,0
0:1:19.645,305.744,17.2989,0,0.000885,0,0
0:1:20.040,307.506,17.4024,0,0.000885,0,0
0:1:20.438,309.147,17.492,0,0.000885,0,0
0:1:20.834,310.731,17.5816,0,0.000885,0,0
0:1:21.229,312.314,17.6713,0,0.000885,0,0
0:1:21.622,314.307,17.7885,0,0.000885,0,0
0:1:22.023,315.89,17.8781,0,0.000885,0,0
0:1:22.427,317.594,17.9746,0,0.000885,0,0
0:1:22.828,319.529,18.0849,0,0.000885,0,0
0:1:23.230,321.113,18.1746,0,0.000885,0,0
0:1:23.623,323.221,18.2918,0,0.000885,0,0
0:1:24.020,324.222,18.3469,0,0.000885,0,0
0:1:24.419,326.508,18.4779,0,0.000885,0,0
0:1:24.814,328.034,18.5607,0,0.000885,0,0
0:1:25.207,330.378,18.6986,0,0.000885,0,0
0:1:25.601,332.491,18.8158,0,0.000885,0,0
0:1:26.000,334.19,18.9123,0,0.000885,0,0
0:1:26.396,335.774,19.002,0,0.000885,0,0
0:1:26.789,337.473,19.0985,0,0.000885,0,0
0:1:27.196,339.702,19.2226,0,0.000885,0,0
0:1:27.598,340.703,19.2777,0,0.000885,0,0
0:1:27.998,342.224,19.3674,0,0.000885,0,0
0:1:28.398,344.337,19.4846,0,0.000885,0,0
0:1:28.794,346.098,19.588,0,0.000885,0,0
0:1:29.185,347.562,19.6707,0,0.000885,0,0
0:1:29.583,349.265,19.7673,0,0.000885,0,0
0:1:29.989,350.849,19.8569,0,0.000885,0,0
0:1:30.384,353.135,19.981,0,0.000885,0,0
0:1:30.777,354.541,20.0637,0,0.000885,0,0
0:1:31.182,356.125,20.1534,0,0.000885,0,0
0:1:31.581,358.06,20.2637,0,0.000885,0,0
0:1:31.984,359.763,20.3602,0,0.000885,0,0
0:1:32.388,361.872,20.4774,0,0.000885,0,0
0:1:32.790,363.575,20.574,0,0.000885,0,0
0:1:33.194,365.332,20.6705,0,0.000885,0,0
0:1:33.593,366.978,20.767,0,0.000885,0,0
0:1:33.987,368.735,20.8635,0,0.000885,0,0
0:1:34.380,370.67,20.9739,0,0.000885,0,0
0:1:34.777,372.196,21.0635,0,0.000885,0,0
0:1:35.173,373.895,21.16,0,0.000885,0,0
0:1:35.568,375.715,21.2634,0,0.000885,0,0
0:1:35.962,377.24,21.3462,0,0.000885,0,0
0:1:36.357,379.705,21.4841,0,0.000885,0,0
0:1:36.753,381.346,21.5806,0,0.000885,0,0
0:1:37.150,383.223,21.684,0,0.000885,0,0
0:1:37.553,384.807,21.7736,0,0.000885,0,0
0:1:37.957,386.506,21.8702,0,0.000885,0,0
0:1:38.358,388.912,22.0081,0,0.000885,0,0
0:1:38.758,390.082,22.077,0,0.000885,0,0
0:1:39.151,391.608,22.1597,0,0.000885,0,0
0:1:39.546,393.427,22.2632,0,0.000885,0,0
0:1:39.941,395.247,22.3666,0,0.000885,0,0
0:1:40.341,396.946,22.4631,0,0.000885,0,0
0:1:40.735,398.356,22.539,0,0.000885,0,0
0:1:41.129,400.233,22.6493,0,0.000885,0,0
0:1:41.523,402.168,22.7596,0,0.000885,0,0
0:1:41.923,403.689,22.8423,0,0.000885,0,0
0:1:42.328,405.335,22.9389,0,0.000885,0,0
0:1:42.730,407.564,23.063,0,0.000885,0,0
0:1:43.131,409.205,23.1595,0,0.000885,0,0
0:1:43.528,410.962,23.256,0,0.000885,0,0
0:1:43.925,413.253,23.387,0,0.000885,0,0
0:1:44.319,414.481,23.456,0,0.000885,0,0
0:1:44.713,416.536,23.5732,0,0.000885,0,0
0:1:45.107,417.59,23.6283,0,0.000885,0,0
0:1:45.506,419.645,23.7455,0,0.000885,0,0
0:1:45.902,421.465,23.849,0,0.000885,0,0
0:1:46.294,422.87,23.9317,0,0.000885,0,0
0:1:46.697,425.335,24.0696,0,0.000885,0,0
0:1:47.098,427.149,24.173,0,0.000885,0,0
0:1:47.503,428.853,24.2695,0,0.000885,0,0
0:1:47.904,430.73,24.373,0,0.000885,0,0
0:1:48.304,432.372,24.4695,0,0.000885,0,0
0:1:48.699,433.662,24.5384,0,0.000885,0,0
0:1:49.098,435.361,24.635,0,0.000885,0,0
0:1:49.491,437.007,24.7315,0,0.000885,0,0
0:1:49.884,438.942,24.8418,0,0.000885,0,0
0:1:50.277,440.819,24.9452,0,0.000885,0,0
0:1:50.674,442.869,25.0624,0,0.000885,0,0
0:1:51.073,443.692,25.1107,0,0.000885,0,0
0:1:51.466,445.801,25.2279,0,0.000885,0,0
0:1:51.860,447.798,25.3382,0,0.000885,0,0
0:1:52.261,449.382,25.4279,0,0.000885,0,0
0:1:52.666,451.196,25.5313,0,0.000885,0,0
0:1:53.066,452.958,25.6347,0,0.000885,0,0
0:1:53.468,454.657,25.7312,0,0.000885,0,0
0:1:53.863,457.179,25.8691,0,0.000885,0,0
0:1:54.260,458.999,25.9726,0,0.000885,0,0
0:1:54.656,460.231,26.0415,0,0.000885,0,0
0:1:55.049,462.166,26.1518,0,0.000885,0,0
0:1:55.443,463.749,26.2414,0,0.000885,0,0
0:1:55.841,465.511,26.3449,0,0.000885,0,0
0:1:56.239,467.268,26.4414,0,0.000885,0,0
0:1:56.631,469.203,26.5517,0,0.000885,0,0
0:1:57.034,470.964,26.6482,0,0.000885,0,0
0:1:57.437,473.015,26.7654,0,0.000885,0,0
0:1:57.838,474.892,26.8758,0,0.000885,0,0
0:1:58.239,476.066,26.9378,0,0.000885,0,0
0:1:58.632,477.824,27.0412,0,0.000885,0,0
0:1:59.026,479.936,27.1584,0,0.000885,0,0
0:1:59.425,481.169,27.2274,0,0.000885,0,0
0:1:59.821,482.93,27.3308,0,0.000885,0,0
0:2:0.214,484.629,27.4273,0,0.000885,0,0
0:2:0.608,486.916,27.5515,0,0.000885,0,0
0:2:1.004,488.557,27.648,0,0.000885,0,0
0:2:1.403,490.376,27.7514,0,0.000885,0,0
0:2:1.798,491.96,27.841,0,0.000885,0,0
0:2:2.200,493.895,27.9513,0,0.000885,0,0
0:2:2.603,495.714,28.0548,0,0.000885,0,0
0:2:3.003,497.534,28.1513,0,0.000885,0,0
0:2:3.404,498.881,28.234,0,0.000885,0,0
0:2:3.799,500.581,28.3306,0,0.000885,0,0
0:2:4.201,503.045,28.4685,0,0.000885,0,0
0:2:4.598,504.099,28.5236,0,0.000885,0,0
0:2:4.993,505.509,28.6063,0,0.000885,0,0
0:2:5.387,507.329,28.7098,0,0.000885,0,0
0:2:5.781,508.85,28.7925,0,0.000885,0,0
0:2:6.197,510.905,28.9097,0,0.000885,0,0
0:2:6.603,512.489,28.9993,0,0.000885,0,0
0:2:7.001,514.775,29.1303,0,0.000885,0,0
0:2:7.404,516.474,29.2269,0,0.000885,0,0
0:2:7.808,518.236,29.3234,0,0.000885,0,0
0:2:8.207,519.935,29.4199,0,0.000885,0,0
0:2:8.608,521.696,29.5234,0,0.000885,0,0
0:2:9.001,523.28,29.613,0,0.000885,0,0
0:2:9.397,525.273,29.7233,0,0.000885,0,0
0:2:9.789,527.328,29.8405,0,0.000885,0,0
0:2:10.188,529.321,29.9508,0,0.000885,0,0
0:2:10.591,530.788,30.0336,0,0.000885,0,0
0:2:10.994,532.488,30.1301,0,0.000885,0,0
0:2:11.388,534.129,30.2266,0,0.000885,0,0
0:2:11.789,535.77,30.3162,0,0.000885,0,0
0:2:12.193,537.883,30.4404,0,0.000885,0,0
0:2:12.594,540.054,30.5576,0,0.000885,0,0
0:2:12.994,542.105,30.6748,0,0.000885,0,0
0:2:13.401,543.866,30.7782,0,0.000885,0,0
0:2:13.799,544.747,30.8265,0,0.000885,0,0
0:2:14.203,546.095,30.9023,0,0.000885,0,0
0:2:14.595,547.678,30.9919,0,0.000885,0,0
0:2:14.988,549.44,31.0885,0,0.000885,0,0
0:2:15.387,551.433,31.2057,0,0.000885,0,0
0:2:15.783,553.252,31.3091,0,0.000885,0,0
0:2:16.185,555.187,31.4194,0,0.000885,0,0
0:2:16.581,557.18,31.5297,0,0.000885,0,0
0:2:16.982,558.999,31.6331,0,0.000885,0,0
0:2:17.386,560.876,31.7366,0,0.000885,0,0
0:2:17.788,562.633,31.84,0,0.000885,0,0
0:2:18.188,564.101,31.9227,0,0.000885,0,0
0:2:18.582,566.036,32.033,0,0.000885,0,0
0:2:18.989,567.735,32.1296,0,0.000885,0,0
0:2:19.394,569.261,32.2123,0,0.000885,0,0
0:2:19.801,571.49,32.3364,0,0.000885,0,0
0:2:20.203,573.073,32.426,0,0.000885,0,0
0:2:20.600,575.244,32.5501,0,0.000885,0,0
0:2:20.998,576.828,32.6398,0,0.000885,0,0
0:2:21.391,578.353,32.7294,0,0.000885,0,0
0:2:21.785,580.524,32.8535,0,0.000885,0,0
0:2:22.188,581.988,32.9363,0,0.000885,0,0
0:2:22.591,583.807,33.0397,0,0.000885,0,0
0:2:22.991,584.981,33.1017,0,0.000885,0,0
0:2:23.392,587.032,33.2189,0,0.000885,0,0
0:2:23.785,588.909,33.3224,0,0.000885,0,0
0:2:24.193,590.435,33.412,0,0.000885,0,0
0:2:24.592,592.254,33.5154,0,0.000885,0,0
0:2:24.989,594.073,33.6188,0,0.000885,0,0
0:2:25.394,595.893,33.7223,0,0.000885,0,0
0:2:25.790,597.89,33.8326,0,0.000885,0,0
0:2:26.190,599.122,33.9015,0,0.000885,0,0
0:2:26.590,600.768,33.998,0,0.000885,0,0
0:2:26.994,602.881,34.1153,0,0.000885,0,0
0:2:27.402,605.345,34.2532,0,0.000885,0,0
0:2:27.803,606.871,34.3428,0,0.000885,0,0
0:2:28.204,608.454,34.4324,0,0.000885,0,0
0:2:28.601,609.985,34.5152,0,0.000885,0,0
0:2:29.005,611.977,34.6324,0,0.000885,0,0
0:2:29.402,614.09,34.7496,0,0.000885,0,0
0:2:29.801,615.91,34.853,0,0.000885,0,0
0:2:30.200,617.498,34.9426,0,0.000885,0,0
0:2:30.607,618.966,35.0254,0,0.000885,0,0
0:2:31.001,620.723,35.1288,0,0.000885,0,0
0:2:31.400,622.191,35.2115,0,0.000885,0,0
0:2:31.803,624.597,35.3425,0,0.000885,0,0
0:2:32.208,626.065,35.4253,0,0.000885,0,0
0:2:32.612,628.062,35.5425,0,0.000885,0,0
0:2:33.013,630.117,35.6597,0,0.000885,0,0
0:2:33.411,631.821,35.7562,0,0.000885,0,0
0:2:33.812,633.284,35.8389,0,0.000885,0,0
0:2:34.207,634.81,35.9217,0,0.000885,0,0
0:2:34.602,636.34,36.0113,0,0.000885,0,0
0:2:35.000,638.453,36.1285,0,0.000885,0,0
0:2:35.397,639.921,36.2113,0,0.000885,0,0
0:2:35.793,641.563,36.3078,0,0.000885,0,0
0:2:36.188,643.56,36.4181,0,0.000885,0,0
0:2:36.593,644.965,36.5008,0,0.000885,0,0
0:2:36.996,647.198,36.625,0,0.000885,0,0
0:2:37.404,648.666,36.7077,0,0.000885,0,0
0:2:37.807,650.837,36.8318,0,0.000885,0,0
0:2:38.210,652.483,36.9214,0,0.000885,0,0
0:2:38.607,654.067,37.0111,0,0.000885,0,0
0:2:39.008,656.353,37.1421,0,0.000885,0,0
0:2:39.404,658.408,37.2593,0,0.000885,0,0
0:2:39.797,659.876,37.342,0,0.000885,0,0
0:2:40.205,661.637,37.4385,0,0.000885,0,0
0:2:40.603,663.047,37.5213,0,0.000885,0,0
0:2:41.003,665.103,37.6385,0,0.000885,0,0
0:2:41.400,667.038,37.7488,0,0.000885,0,0
0:2:41.793,668.977,37.8591,0,0.000885,0,0
0:2:42.195,669.916,37.9074,0,0.000885,0,0
0:2:42.602,672.144,38.0384,0,0.000885,0,0
0:2:43.005,673.203,38.0935,0,0.000885,0,0
0:2:43.408,674.964,38.197,0,0.000885,0,0
0:2:43.803,676.784,38.3004,0,0.000885,0,0
0:2:44.202,678.719,38.4107,0,0.000885,0,0
0:2:44.602,680.364,38.5003,0,0.000885,0,0
0:2:44.995,682.242,38.6037,0,0.000885,0,0
0:2:45.403,684.47,38.7347,0,0.000885,0,0
0:2:45.798,686.583,38.852,0,0.000885,0,0
0:2:46.197,688.287,38.9485,0,0.000885,0,0
0:2:46.594,689.577,39.0243,0,0.000885,0,0
0:2:47.002,691.222,39.114,0,0.000885,0,0
0:2:47.404,693.335,39.2381,0,0.000885,0,0
0:2:47.807,695.155,39.3346,0,0.000885,0,0
0:2:48.208,697.152,39.4518,0,0.000885,0,0
0:2:48.606,698.558,39.5276,0,0.000885,0,0
0:2:49.009,700.381,39.6311,0,0.000885,0,0
0:2:49.407,701.787,39.7138,0,0.000885,0,0
0:2:49.807,703.433,39.8034,0,0.000885,0,0
0:2:50.203,705.31,39.9137,0,0.000885,0,0
0:2:50.598,707.187,40.0172,0,0.000885,0,0
0:2:50.994,709.536,40.1482,0,0.000885,0,0
0:2:51.402,711.062,40.2378,0,0.000885,0,0
0:2:51.803,713.001,40.3481,0,0.000885,0,0
0:2:52.208,714.469,40.4309,0,0.000885,0,0
0:2:52.612,715.643,40.4998,0,0.000885,0,0
0:2:53.014,717.872,40.6239,0,0.000885,0,0
0:2:53.415,719.34,40.7066,0,0.000885,0,0
0:2:53.813,721.395,40.8239,0,0.000885,0,0
0:2:54.209,723.036,40.9135,0,0.000885,0,0
0:2:54.604,724.918,41.0238,0,0.000885,0,0
0:2:55.005,726.853,41.1341,0,0.000885,0,0
0:2:55.403,728.672,41.2375,0,0.000885,0,0
0:2:55.808,730.318,41.3272,0,0.000885,0,0
0:2:56.204,731.901,41.4168,0,0.000885,0,0
0:2:56.601,733.779,41.5202,0,0.000885,0,0
0:2:56.999,735.482,41.6168,0,0.000885,0,0
0:2:57.407,737.359,41.7271,0,0.000885,0,0
0:2:57.811,739.237,41.8305,0,0.000885,0,0
0:2:58.212,741.176,41.9408,0,0.000885,0,0
0:2:58.612,743.111,42.0511,0,0.000885,0,0
0:2:59.011,744.93,42.1545,0,0.000885,0,0
0:2:59.408,746.162,42.2235,0,0.000885,0,0
0:2:59.803,747.924,42.3269,0,0.000885,0,0
0:3:0.199,749.743,42.4303,0,0.000885,0,0
0:3:0.599,751.861,42.5475,0,0.000885,0,0
0:3:0.995,753.502,42.6372,0,0.000885,0,0
0:3:1.390,754.619,42.6992,0,0.000885,0,0
0:3:1.795,756.318,42.7958,0,0.000885,0,0
0:3:2.203,758.137,42.8992,0,0.000885,0,0
0:3:2.605,760.019,43.0095,0,0.000885,0,0
0:3:3.007,761.718,43.106,0,0.000885,0,0
0:3:3.403,763.479,43.2025,0,0.000885,0,0
0:3:3.799,765.183,43.2991,0,0.000885,0,0
0:3:4.198,767.767,43.4439,0,0.000885,0,0
0:3:4.595,769.235,43.5266,0,0.000885,0,0
0:3:4.989,770.761,43.6162,0,0.000885,0,0
0:3:5.385,772.696,43.7266,0,0.000885,0,0
0:3:5.786,774.28,43.8162,0,0.000885,0,0
0:3:6.184,776.393,43.9334,0,0.000885,0,0
0:3:6.580,778.39,44.0506,0,0.000885,0,0
0:3:6.984,779.622,44.1196,0,0.000885,0,0
0:3:7.389,781.326,44.2161,0,0.000885,0,0
0:3:7.791,783.261,44.3264,0,0.000885,0,0
0:3:8.194,784.377,44.3884,0,0.000885,0,0
0:3:8.598,786.432,44.5057,0,0.000885,0,0
0:3:8.995,788.309,44.6091,0,0.000885,0,0
0:3:9.394,790.422,44.7263,0,0.000885,0,0
0:3:9.793,792.304,44.8366,0,0.000885,0,0
0:3:10.189,793.536,44.9056,0,0.000885,0,0
0:3:10.593,795.591,45.0228,0,0.000885,0,0
0:3:10.992,797.348,45.1193,0,0.000885,0,0
0:3:11.390,799.11,45.2227,0,0.000885,0,0
0:3:11.788,800.813,45.3192,0,0.000885,0,0
0:3:12.193,802.575,45.4158,0,0.000885,0,0
0:3:12.595,804.572,45.5261,0,0.000885,0,0
0:3:12.997,805.978,45.6088,0,0.000885,0,0
0:3:13.404,807.681,45.7053,0,0.000885,0,0
0:3:13.797,809.852,45.8295,0,0.000885,0,0
0:3:14.204,811.671,45.9329,0,0.000885,0,0
0:3:14.599,813.433,46.0294,0,0.000885,0,0
0:3:14.999,815.137,46.1259,0,0.000885,0,0
0:3:15.396,816.547,46.2087,0,0.000885,0,0
0:3:15.801,818.424,46.3121,0,0.000885,0,0
0:3:16.197,820.007,46.4017,0,0.000885,0,0
0:3:16.596,822.178,46.5258,0,0.000885,0,0
0:3:17.005,824.291,46.643,0,0.000885,0,0
0:3:17.410,825.821,46.7327,0,0.000885,0,0
0:3:17.813,827.405,46.8223,0,0.000885,0,0
0:3:18.216,829.633,46.9464,0,0.000885,0,0
0:3:18.617,831.221,47.036,0,0.000885,0,0
0:3:19.015,833.45,47.167,0,0.000885,0,0
0:3:19.411,834.273,47.2084,0,0.000885,0,0
0:3:19.806,836.559,47.3394,0,0.000885,0,0
0:3:20.201,837.912,47.4152,0,0.000885,0,0
0:3:20.601,839.322,47.498,0,0.000885,0,0
0:3:20.995,840.847,47.5807,0,0.000885,0,0
0:3:21.390,842.84,47.6979,0,0.000885,0,0
0:3:21.794,844.78,47.8014,0,0.000885,0,0
0:3:22.200,846.483,47.8979,0,0.000885,0,0
0:3:22.601,848.89,48.0358,0,0.000885,0,0
0:3:23.006,850.651,48.1392,0,0.000885,0,0
0:3:23.399,852.177,48.2219,0,0.000885,0,0
0:3:23.798,854.17,48.3391,0,0.000885,0,0
0:3:24.208,855.758,48.4288,0,0.000885,0,0
0:3:24.601,857.163,48.5046,0,0.000885,0,0
0:3:24.997,858.867,48.6011,0,0.000885,0,0
0:3:25.394,860.393,48.6908,0,0.000885,0,0
0:3:25.792,862.741,48.8218,0,0.000885,0,0
0:3:26.211,864.325,48.9114,0,0.000885,0,0
0:3:26.607,866.087,49.0079,0,0.000885,0,0
0:3:27.011,868.026,49.1183,0,0.000885,0,0
0:3:27.416,870.197,49.2424,0,0.000885,0,0
0:3:27.819,871.607,49.3251,0,0.000885,0,0
0:3:28.220,873.542,49.4354,0,0.000885,0,0
0:3:28.617,875.712,49.5526,0,0.000885,0,0
0:3:29.014,877.301,49.6423,0,0.000885,0,0
0:3:29.412,878.884,49.7319,0,0.000885,0,0
0:3:29.809,880.588,49.8284,0,0.000885,0,0
0:3:30.202,881.526,49.8836,0,0.000885,0,0
0:3:30.597,883.461,49.9939,0,0.000885,0,0
0:3:30.995,885.338,50.0973,0,0.000885,0,0
0:3:31.395,886.926,50.1869,0,0.000885,0,0
0:3:31.790,889.155,50.3179,0,0.000885,0,0
0:3:32.194,890.681,50.4007,0,0.000885,0,0
0:3:32.598,892.794,50.5248,0,0.000885,0,0
0:3:33.000,894.44,50.6144,0,0.000885,0,0
0:3:33.401,896.259,50.7178,0,0.000885,0,0
0:3:33.798,897.9,50.8075,0,0.000885,0,0
0:3:34.192,899.84,50.9178,0,0.000885,0,0
0:3:34.590,901.837,51.035,0,0.000885,0,0
0:3:34.999,903.42,51.1246,0,0.000885,0,0
0:3:35.393,905.355,51.2349,0,0.000885,0,0
0:3:35.788,906.881,51.3177,0,0.000885,0,0
0:3:36.185,908.643,51.4211,0,0.000885,0,0
0:3:36.585,910.346,51.5176,0,0.000885,0,0
0:3:36.982,912.281,51.6279,0,0.000885,0,0
0:3:37.387,914.279,51.7383,0,0.000885,0,0
0:3:37.790,916.156,51.8417,0,0.000885,0,0
0:3:38.192,917.036,51.8968,0,0.000885,0,0
0:3:38.594,919.505,52.0347,0,0.000885,0,0
0:3:39.012,921.618,52.1519,0,0.000885,0,0
0:3:39.403,922.73,52.214,0,0.000885,0,0
0:3:39.800,924.492,52.3174,0,0.000885,0,0
0:3:40.198,926.017,52.4002,0,0.000885,0,0
0:3:40.597,928.308,52.5312,0,0.000885,0,0
0:3:41.001,930.306,52.6415,0,0.000885,0,0
0:3:41.396,931.831,52.7311,0,0.000885,0,0
0:3:41.797,933.121,52.8069,0,0.000885,0,0
0:3:42.203,935.234,52.9242,0,0.000885,0,0
0:3:42.607,937.111,53.0276,0,0.000885,0,0
0:3:43.010,938.993,53.1379,0,0.000885,0,0
0:3:43.406,940.754,53.2344,0,0.000885,0,0
0:3:43.814,942.454,53.3309,0,0.000885,0,0
0:3:44.214,944.393,53.4413,0,0.000885,0,0
0:3:44.609,945.625,53.5102,0,0.000885,0,0
0:3:45.003,947.387,53.6136,0,0.000885,0,0
0:3:45.399,949.793,53.7446,0,0.000885,0,0
0:3:45.797,951.319,53.8343,0,0.000885,0,0
0:3:46.208,952.551,53.9032,0,0.000885,0,0
0:3:46.600,954.135,53.9928,0,0.000885,0,0
0:3:47.008,956.31,54.1169,0,0.000885,0,0
0:3:47.413,957.951,54.2066,0,0.000885,0,0
0:3:47.816,960.887,54.3721,0,0.000885,0,0
0:3:48.219,962.297,54.4548,0,0.000885,0,0
0:3:48.615,963.823,54.5444,0,0.000885,0,0
0:3:49.010,965.464,54.6341,0,0.000885,0,0
0:3:49.410,966.817,54.7099,0,0.000885,0,0
0:3:49.818,969.045,54.834,0,0.000885,0,0
0:3:50.212,970.513,54.9167,0,0.000885,0,0
0:3:50.609,971.803,54.9926,0,0.000885,0,0
0:3:51.014,973.622,55.096,0,0.000885,0,0
0:3:51.414,975.913,55.227,0,0.000885,0,0
0:3:51.813,977.559,55.3166,0,0.000885,0,0
0:3:52.218,980.139,55.4614,0,0.000885,0,0
0:3:52.622,980.904,55.5097,0,0.000885,0,0
0:3:53.025,983.662,55.6614,0,0.000885,0,0
0:3:53.426,984.894,55.7303,0,0.000885,0,0
0:3:53.824,986.246,55.8131,0,0.000885,0,0
0:3:54.218,987.772,55.8958,0,0.000885,0,0
0:3:54.615,989.823,56.013,0,0.000885,0,0
0:3:55.015,992.643,56.1716,0,0.000885,0,0
0:3:55.413,993.817,56.2405,0,0.000885,0,0
0:3:55.811,996.224,56.3715,0,0.000885,0,0
0:3:56.215,997.047,56.4198,0,0.000885,0,0
0:3:56.612,999.391,56.5508,0,0.000885,0,0
0:3:57.015,1000.74,56.6335,0,0.000885,0,0
0:3:57.421,1002.91,56.7507,0,0.000885,0,0
0:3:57.825,1004.32,56.8335,0,0.000885,0,0
0:3:58.226,1006.09,56.93,0,0.000885,0,0
0:3:58.624,1008.2,57.0541,0,0.000885,0,0
0:3:59.024,1009.61,57.13,0,0.000885,0,0
0:3:59.420,1011.13,57.2196,0,0.000885,0,0
0:3:59.815,1013.01,57.323,0,0.000885,0,0
0:4:0.212,1014.42,57.4057,0,0.000885,0,0
0:4:0.611,1016.41,57.5161,0,0.000885,0,0
0:4:1.011,1018.06,57.6126,0,0.000885,0,0
0:4:1.405,1020,57.7229,0,0.000885,0,0
0:4:1.799,1021.81,57.8263,0,0.000885,0,0
0:4:2.203,1023.7,57.9298,0,0.000885,0,0
0:4:2.610,1025.4,58.0263,0,0.000885,0,0
0:4:3.014,1026.98,58.1159,0,0.000885,0,0
0:4:3.416,1028.51,58.1986,0,0.000885,0,0
0:4:3.811,1030.92,58.3365,0,0.000885,0,0
0:4:4.211,1032.32,58.4193,0,0.000885,0,0
0:4:4.610,1034.2,58.5227,0,0.000885,0,0
0:4:5.015,1036.14,58.633,0,0.000885,0,0
0:4:5.411,1038.43,58.764,0,0.000885,0,0
0:4:5.816,1040.07,58.8536,0,0.000885,0,0
0:4:6.217,1041.48,58.9364,0,0.000885,0,0
0:4:6.616,1043.48,59.0467,0,0.000885,0,0
0:4:7.022,1045.53,59.1639,0,0.000885,0,0
0:4:7.425,1047.35,59.2673,0,0.000885,0,0
0:4:7.827,1048.58,59.3363,0,0.000885,0,0
0:4:8.229,1050.35,59.4397,0,0.000885,0,0
0:4:8.626,1051.93,59.5293,0,0.000885,0,0
0:4:9.021,1053.75,59.6328,0,0.000885,0,0
0:4:9.416,1055.16,59.7086,0,0.000885,0,0
0:4:9.817,1057.04,59.8189,0,0.000885,0,0
0:4:10.215,1058.74,59.9154,0,0.000885,0,0
0:4:10.611,1060.26,59.9982,0,0.000885,0,0
0:4:11.004,1062.55,60.1292,0,0.000885,0,0
0:4:11.402,1064.73,60.2533,0,0.000885,0,0
0:4:11.803,1066.37,60.3429,0,0.000885,0,0
0:4:12.211,1068.24,60.4532,0,0.000885,0,0
0:4:12.615,1069.48,60.5222,0,0.000885,0,0
0:4:13.018,1071.01,60.6049,0,0.000885,0,0
0:4:13.415,1072.88,60.7152,0,0.000885,0,0
0:4:13.814,1074.94,60.8324,0,0.000885,0,0
0:4:14.211,1076.76,60.929,0,0.000885,0,0
0:4:14.603,1078.87,61.0531,0,0.000885,0,0
0:4:15.003,1080.22,61.1289,0,0.000885,0,0
0:4:15.401,1082.22,61.2392,0,0.000885,0,0
0:4:15.796,1084.21,61.3564,0,0.000885,0,0
0:4:16.192,1085.27,61.4116,0,0.000885,0,0
0:4:16.589,1086.79,61.5012,0,0.000885,0,0
0:4:16.991,1088.68,61.6047,0,0.000885,0,0
0:4:17.395,1090.49,61.7081,0,0.000885,0,0
0:4:17.800,1091.9,61.7908,0,0.000885,0,0
0:4:18.202,1093.55,61.8804,0,0.000885,0,0
0:4:18.602,1095.54,61.9977,0,0.000885,0,0
0:4:19.002,1098.18,62.1424,0,0.000885,0,0
0:4:19.398,1099.18,62.1976,0,0.000885,0,0
0:4:19.793,1101.59,62.3355,0,0.000885,0,0
0:4:20.191,1103.41,62.4389,0,0.000885,0,0
0:4:20.591,1104.99,62.5286,0,0.000885,0,0
0:4:20.987,1106.46,62.6113,0,0.000885,0,0
0:4:21.383,1108.34,62.7216,0,0.000885,0,0
0:4:21.786,1110.39,62.8388,0,0.000885,0,0
0:4:22.192,1111.86,62.9216,0,0.000885,0,0
0:4:22.594,1113.86,63.0319,0,0.000885,0,0
0:4:22.994,1115.15,63.1077,0,0.000885,0,0
0:4:23.400,1117.5,63.2387,0,0.000885,0,0
0:4:23.797,1119.31,63.3421,0,0.000885,0,0
0:4:24.194,1121.49,63.4662,0,0.000885,0,0
0:4:24.602,1122.6,63.5283,0,0.000885,0,0
0:4:24.997,1124.31,63.6248,0,0.000885,0,0
0:4:25.395,1126.3,63.7351,0,0.000885,0,0
0:4:25.802,1128.12,63.8386,0,0.000885,0,0
0:4:26.201,1129.41,63.9144,0,0.000885,0,0
0:4:26.606,1131.47,64.0247,0,0.000885,0,0
0:4:27.013,1133.17,64.1212,0,0.000885,0,0
0:4:27.417,1134.46,64.1971,0,0.000885,0,0
0:4:27.820,1136.69,64.3212,0,0.000885,0,0
0:4:28.223,1137.81,64.3832,0,0.000885,0,0
0:4:28.618,1140.27,64.528,0,0.000885,0,0
0:4:29.014,1141.85,64.6177,0,0.000885,0,0
0:4:29.412,1143.62,64.7142,0,0.000885,0,0
0:4:29.812,1145.08,64.7969,0,0.000885,0,0
0:4:30.205,1147.2,64.921,0,0.000885,0,0
0:4:30.609,1149.37,65.0382,0,0.000885,0,0
0:4:31.008,1150.9,65.1279,0,0.000885,0,0
0:4:31.406,1152.6,65.2244,0,0.000885,0,0
0:4:31.804,1154.01,65.3002,0,0.000885,0,0
0:4:32.208,1155.94,65.4106,0,0.000885,0,0
0:4:32.614,1158.41,65.5554,0,0.000885,0,0
0:4:33.015,1160.23,65.6588,0,0.000885,0,0
0:4:33.417,1161.99,65.7553,0,0.000885,0,0
0:4:33.815,1163.81,65.8587,0,0.000885,0,0
0:4:34.207,1165.1,65.9346,0,0.000885,0,0
0:4:34.605,1167.45,66.0656,0,0.000885,0,0
0:4:35.004,1168.62,66.1276,0,0.000885,0,0
0:4:35.401,1169.56,66.1828,0,0.000885,0,0
0:4:35.795,1171.67,66.3,0,0.000885,0,0
0:4:36.193,1173.61,66.4103,0,0.000885,0,0
0:4:36.591,1174.85,66.4792,0,0.000885,0,0
0:4:36.991,1177.19,66.6171,0,0.000885,0,0
0:4:37.394,1178.72,66.6999,0,0.000885,0,0
0:4:37.799,1180.6,66.8102,0,0.000885,0,0
0:4:38.202,1182.77,66.9343,0,0.000885,0,0
0:4:38.602,1185,67.0584,0,0.000885,0,0
0:4:39.000,1186.64,67.148,0,0.000885,0,0
0:4:39.396,1187.76,67.2101,0,0.000885,0,0
0:4:39.792,1189.64,67.3204,0,0.000885,0,0
0:4:40.191,1190.75,67.3825,0,0.000885,0,0
0:4:40.591,1193.1,67.5135,0,0.000885,0,0
0:4:40.985,1195.09,67.6307,0,0.000885,0,0
0:4:41.381,1196.8,67.7272,0,0.000885,0,0
0:4:41.784,1198.27,67.8099,0,0.000885,0,0
0:4:42.190,1200.44,67.934,0,0.000885,0,0
0:4:42.593,1202.84,68.065,0,0.000885,0,0
0:4:42.997,1204.2,68.1409,0,0.000885,0,0
0:4:43.392,1205.66,68.2236,0,0.000885,0,0
0:4:43.792,1207.48,68.327,0,0.000885,0,0
0:4:44.200,1210.01,68.4718,0,0.000885,0,0
0:4:44.615,1211.42,68.5546,0,0.000885,0,0
0:4:45.009,1212.41,68.6097,0,0.000885,0,0
0:4:45.406,1214.29,68.7132,0,0.000885,0,0
0:4:45.805,1215.7,68.7959,0,0.000885,0,0
0:4:46.204,1217.7,68.9062,0,0.000885,0,0
0:4:46.598,1219.81,69.0303,0,0.000885,0,0
0:4:47.001,1221.69,69.1337,0,0.000885,0,0
0:4:47.406,1223.27,69.2234,0,0.000885,0,0
0:4:47.809,1225.38,69.3406,0,0.000885,0,0
0:4:48.214,1226.97,69.4302,0,0.000885,0,0
0:4:48.618,1228.55,69.5198,0,0.000885,0,0
0:4:49.016,1230.14,69.6095,0,0.000885,0,0
0:4:49.414,1232.19,69.7267,0,0.000885,0,0
0:4:49.810,1233.9,69.8232,0,0.000885,0,0
0:4:50.206,1235.72,69.9266,0,0.000885,0,0
0:4:50.602,1237.71,70.0369,0,0.000885,0,0
0:4:51.001,1239.53,70.1404,0,0.000885,0,0
0:4:51.401,1241.47,70.2507,0,0.000885,0,0
0:4:51.795,1242.58,70.3127,0,0.000885,0,0
0:4:52.200,1244.46,70.4231,0,0.000885,0,0
0:4:52.604,1246.04,70.5127,0,0.000885,0,0
0:4:53.006,1248.22,70.6368,0,0.000885,0,0
0:4:53.408,1250.04,70.7402,0,0.000885,0,0
0:4:53.817,1251.97,70.8505,0,0.000885,0,0
0:4:54.211,1253.74,70.9471,0,0.000885,0,0
0:4:54.610,1254.91,71.016,0,0.000885,0,0
0:4:55.008,1256.49,71.1056,0,0.000885,0,0
0:4:55.403,1258.84,71.2366,0,0.000885,0,0
0:4:55.799,1260.43,71.3263,0,0.000885,0,0
0:4:56.198,1262.25,71.4297,0,0.000885,0,0
0:4:56.598,1263.78,71.5124,0,0.000885,0,0
0:4:57.004,1265.95,71.6365,0,0.000885,0,0
0:4:57.408,1267.82,71.7468,0,0.000885,0,0
0:4:57.810,1269.53,71.8434,0,0.000885,0,0
0:4:58.209,1271.23,71.9399,0,0.000885,0,0
0:4:58.619,1273.34,72.0571,0,0.000885,0,0
0:4:59.023,1274.63,72.1261,0,0.000885,0,0
0:4:59.418,1276.34,72.2226,0,0.000885,0,0
0:4:59.818,1278.1,72.326,0,0.000885,0,0
0:5:0.217,1280.03,72.4363,0,0.000885,0,0
0:5:0.610,1281.27,72.5053,0,0.000885,0,0
0:5:1.007,1283.5,72.6294,0,0.000885,0,0
0:5:1.411,1285.26,72.7328,0,0.000885,0,0
0:5:1.815,1286.9,72.8224,0,0.000885,0,0
0:5:2.221,1288.66,72.9258,0,0.000885,0,0
0:5:2.625,1290.89,73.05,0,0.000885,0,0
0:5:3.026,1293,73.1672,0,0.000885,0,0
0:5:3.425,1294.41,73.2499,0,0.000885,0,0
0:5:3.825,1296.35,73.3602,0,0.000885,0,0
0:5:4.222,1298,73.4498,0,0.000885,0,0
0:5:4.617,1299.46,73.5326,0,0.000885,0,0
0:5:5.022,1301.1,73.6291,0,0.000885,0,0
0:5:5.422,1302.57,73.7119,0,0.000885,0,0
0:5:5.820,1304.45,73.8153,0,0.000885,0,0
0:5:6.216,1305.86,73.898,0,0.000885,0,0
0:5:6.610,1307.51,73.9876,0,0.000885,0,0
0:5:7.012,1310.26,74.1462,0,0.000885,0,0
0:5:7.420,1312.08,74.2496,0,0.000885,0,0
0:5:7.824,1313.32,74.3186,0,0.000885,0,0
0:5:8.226,1315.55,74.4427,0,0.000885,0,0
0:5:8.622,1317.6,74.5599,0,0.000885,0,0
0:5:9.022,1319.01,74.6426,0,0.000885,0,0
0:5:9.422,1320.24,74.7116,0,0.000885,0,0
0:5:9.816,1321.83,74.8012,0,0.000885,0,0
0:5:10.211,1324.24,74.9391,0,0.000885,0,0
0:5:10.609,1325.76,75.0219,0,0.000885,0,0
0:5:11.008,1327.7,75.1322,0,0.000885,0,0
0:5:11.403,1330.1,75.2701,0,0.000885,0,0
0:5:11.809,1331.4,75.339,0,0.000885,0,0
0:5:12.215,1333.04,75.4355,0,0.000885,0,0
0:5:12.621,1335.33,75.5665,0,0.000885,0,0
0:5:13.024,1336.86,75.6493,0,0.000885,0,0
0:5:13.427,1338.15,75.7251,0,0.000885,0,0
0:5:13.822,1339.61,75.8079,0,0.000885,0,0
0:5:14.220,1341.32,75.9044,0,0.000885,0,0
0:5:14.621,1343.55,76.0285,0,0.000885,0,0
0:5:15.017,1345.6,76.1457,0,0.000885,0,0
0:5:15.409,1347.66,76.2629,0,0.000885,0,0
0:5:15.818,1348.83,76.325,0,0.000885,0,0
0:5:16.217,1350.3,76.4146,0,0.000885,0,0
0:5:16.611,1352.65,76.5456,0,0.000885,0,0
0:5:17.018,1353.94,76.6145,0,0.000885,0,0
0:5:17.423,1356.05,76.7386,0,0.000885,0,0
0:5:17.824,1357.46,76.8145,0,0.000885,0,0
0:5:18.227,1359.1,76.911,0,0.000885,0,0
0:5:18.623,1361.21,77.0282,0,0.000885,0,0
0:5:19.019,1363.5,77.1592,0,0.000885,0,0
0:5:19.425,1364.74,77.2282,0,0.000885,0,0
0:5:19.825,1366.67,77.3385,0,0.000885,0,0
0:5:20.224,1368.32,77.4281,0,0.000885,0,0
0:5:20.619,1369.73,77.5109,0,0.000885,0,0
0:5:21.013,1372.08,77.6419,0,0.000885,0,0
0:5:21.411,1373.66,77.7315,0,0.000885,0,0
0:5:21.823,1376.01,77.8694,0,0.000885,0,0
0:5:22.226,1377.36,77.9452,0,0.000885,0,0
0:5:22.630,1378.71,78.0211,0,0.000885,0,0
0:5:23.033,1380.99,78.1452,0,0.000885,0,0
0:5:23.433,1382.52,78.2348,0,0.000885,0,0
0:5:23.832,1384.99,78.3727,0,0.000885,0,0
0:5:24.227,1385.87,78.421,0,0.000885,0,0
0:5:24.621,1387.57,78.5175,0,0.000885,0,0
0:5:25.021,1389.74,78.6416,0,0.000885,0,0
0:5:25.420,1390.74,78.6968,0,0.000885,0,0
0:5:25.814,1393.15,78.8347,0,0.000885,0,0
0:5:26.210,1394.5,78.9105,0,0.000885,0,0
0:5:26.608,1397.14,79.0622,0,0.000885,0,0
0:5:27.008,1397.96,79.1104,0,0.000885,0,0
0:5:27.413,1399.9,79.2208,0,0.000885,0,0
0:5:27.815,1401.78,79.3242,0,0.000885,0,0
0:5:28.220,1403.6,79.4276,0,0.000885,0,0
0:5:28.620,1406,79.5655,0,0.000885,0,0
0:5:29.019,1407.06,79.6207,0,0.000885,0,0
0:5:29.413,1409.41,79.7586,0,0.000885,0,0
0:5:29.808,1410.93,79.8413,0,0.000885,0,0
0:5:30.205,1412.81,79.9516,0,0.000885,0,0
0:5:30.605,1414.4,80.0412,0,0.000885,0,0
0:5:31.003,1416.16,80.1378,0,0.000885,0,0
0:5:31.399,1417.15,80.1929,0,0.000885,0,0
0:5:31.804,1419.15,80.3101,0,0.000885,0,0
0:5:32.208,1420.68,80.3929,0,0.000885,0,0
0:5:32.610,1422.96,80.5239,0,0.000885,0,0
0:5:33.013,1424.73,80.6204,0,0.000885,0,0
0:5:33.420,1426.84,80.7445,0,0.000885,0,0
0:5:33.826,1428.19,80.8203,0,0.000885,0,0
0:5:34.223,1430.3,80.9376,0,0.000885,0,0
0:5:34.621,1431.3,80.9927,0,0.000885,0,0
0:5:35.015,1433.35,81.1099,0,0.000885,0,0
0:5:35.422,1435.88,81.2547,0,0.000885,0,0
0:5:35.823,1437.76,81.3581,0,0.000885,0,0
0:5:36.222,1438.76,81.4202,0,0.000885,0,0
0:5:36.614,1440.87,81.5374,0,0.000885,0,0
0:5:37.021,1442.46,81.627,0,0.000885,0,0
0:5:37.426,1443.98,81.7098,0,0.000885,0,0
0:5:37.828,1446.5,81.8546,0,0.000885,0,0
0:5:38.231,1447.97,81.9373,0,0.000885,0,0
0:5:38.627,1449.15,82.0062,0,0.000885,0,0
0:5:39.022,1451.44,82.1372,0,0.000885,0,0
0:5:39.422,1453.49,82.2476,0,0.000885,0,0
0:5:39.830,1455.37,82.3579,0,0.000885,0,0
0:5:40.227,1456.54,82.4268,0,0.000885,0,0
0:5:40.621,1458.24,82.5165,0,0.000885,0,0
0:5:41.020,1460.42,82.6406,0,0.000885,0,0
0:5:41.416,1461.3,82.6957,0,0.000885,0,0
0:5:41.827,1463.35,82.806,0,0.000885,0,0
0:5:42.232,1465.4,82.9232,0,0.000885,0,0
0:5:42.634,1467.52,83.0474,0,0.000885,0,0
0:5:43.038,1469.57,83.1577,0,0.000885,0,0
0:5:43.439,1470.51,83.2128,0,0.000885,0,0
0:5:43.834,1471.92,83.2956,0,0.000885,0,0
0:5:44.231,1474.15,83.4197,0,0.000885,0,0
0:5:44.628,1476.09,83.53,0,0.000885,0,0
0:5:45.027,1478.14,83.6472,0,0.000885,0,0
0:5:45.427,1479.2,83.7024,0,0.000885,0,0
0:5:45.820,1481.26,83.8196,0,0.000885,0,0
0:5:46.225,1483.15,83.9299,0,0.000885,0,0
0:5:46.624,1484.97,84.0333,0,0.000885,0,0
0:5:47.024,1486.62,84.1229,0,0.000885,0,0
0:5:47.430,1488.74,84.247,0,0.000885,0,0
0:5:47.834,1490.8,84.3643,0,0.000885,0,0
0:5:48.237,1492.98,84.4884,0,0.000885,0,0
0:5:48.639,1494.34,84.5642,0,0.000885,0,0
0:5:49.035,1496.16,84.6676,0,0.000885,0,0
0:5:49.430,1497.46,84.7366,0,0.000885,0,0
0:5:49.825,1499.1,84.8331,0,0.000885,0,0
0:5:50.223,1500.93,84.9365,0,0.000885,0,0
0:5:50.622,1501.87,84.9917,0,0.000885,0,0
0:5:51.016,1503.93,85.102,0,0.000885,0,0
0:5:51.421,1506.11,85.2261,0,0.000885,0,0
0:5:51.825,1508,85.3364,0,0.000885,0,0
0:5:52.229,1509.53,85.4191,0,0.000885,0,0
0:5:52.632,1511.18,85.5157,0,0.000885,0,0
0:5:53.035,1513.06,85.6191,0,0.000885,0,0
0:5:53.431,1515.24,85.7432,0,0.000885,0,0
0:5:53.831,1516.65,85.8259,0,0.000885,0,0
0:5:54.230,1518.36,85.9225,0,0.000885,0,0
0:5:54.626,1520.54,86.0466,0,0.000885,0,0
0:5:55.022,1522.36,86.15,0,0.000885,0,0
0:5:55.417,1524.19,86.2534,0,0.000885,0,0
0:5:55.816,1525.66,86.3362,0,0.000885,0,0
0:5:56.213,1527.6,86.4465,0,0.000885,0,0
0:5:56.608,1529.08,86.5292,0,0.000885,0,0
0:5:57.012,1531.08,86.6395,0,0.000885,0,0
0:5:57.416,1532.9,86.7429,0,0.000885,0,0
0:5:57.822,1534.85,86.8533,0,0.000885,0,0
0:5:58.224,1536.32,86.936,0,0.000885,0,0
0:5:58.627,1538.26,87.0463,0,0.000885,0,0
0:5:59.025,1539.85,87.1359,0,0.000885,0,0
0:5:59.424,1541.09,87.2049,0,0.000885,0,0
0:5:59.821,1543.03,87.3152,0,0.000885,0,0
0:6:0.215,1544.62,87.4048,0,0.000885,0,0
0:6:0.611,1546.45,87.5083,0,0.000885,0,0
0:6:1.021,1548.51,87.6255,0,0.000885,0,0
0:6:1.422,1550.27,87.7289,0,0.000885,0,0
0:6:1.815,1551.98,87.8254,0,0.000885,0,0
0:6:2.222,1553.1,87.8875,0,0.000885,0,0
0:6:2.627,1555.75,88.0392,0,0.000885,0,0
0:6:3.029,1557.52,88.1357,0,0.000885,0,0
0:6:3.431,1558.99,88.2184,0,0.000885,0,0
0:6:3.827,1561.17,88.3425,0,0.000885,0,0
0:6:4.223,1562.82,88.4391,0,0.000885,0,0
0:6:4.622,1564.4,88.5287,0,0.000885,0,0
0:6:5.030,1565.82,88.6045,0,0.000885,0,0
0:6:5.426,1568.18,88.7424,0,0.000885,0,0
0:6:5.822,1569.71,88.8252,0,0.000885,0,0
0:6:6.217,1571,88.901,0,0.000885,0,0
0:6:6.619,1573.71,89.0527,0,0.000885,0,0
0:6:7.027,1575.48,89.1561,0,0.000885,0,0
0:6:7.430,1577.13,89.2457,0,0.000885,0,0
0:6:7.831,1579.01,89.3561,0,0.000885,0,0
0:6:8.230,1580.72,89.4526,0,0.000885,0,0
0:6:8.630,1581.89,89.5146,0,0.000885,0,0
0:6:9.026,1583.48,89.6043,0,0.000885,0,0
0:6:9.419,1584.84,89.6801,0,0.000885,0,0
0:6:9.816,1587.02,89.8042,0,0.000885,0,0
0:6:10.226,1588.9,89.9145,0,0.000885,0,0
0:6:10.625,1590.73,90.018,0,0.000885,0,0
0:6:11.022,1592.61,90.1214,0,0.000885,0,0
0:6:11.415,1594.2,90.211,0,0.000885,0,0
0:6:11.818,1596.38,90.3351,0,0.000885,0,0
0:6:12.226,1598.74,90.473,0,0.000885,0,0
0:6:12.628,1599.74,90.5282,0,0.000885,0,0
0:6:13.030,1601.62,90.6316,0,0.000885,0,0
0:6:13.426,1603.09,90.7143,0,0.000885,0,0
0:6:13.824,1604.8,90.8108,0,0.000885,0,0
0:6:14.224,1606.8,90.9281,0,0.000885,0,0
0:6:14.619,1608.63,91.0315,0,0.000885,0,0
0:6:15.016,1610.45,91.1349,0,0.000885,0,0
0:6:15.411,1611.98,91.2176,0,0.000885,0,0
0:6:15.810,1614.52,91.3624,0,0.000885,0,0
0:6:16.210,1616.05,91.4521,0,0.000885,0,0
0:6:16.605,1616.05,91.4521,0,0.000885,0,0
0:6:17.009,1617.05,91.5072,0,0.000885,0,0
0:6:17.413,1618.99,91.6175,0,0.000885,0,0
0:6:17.815,1620.17,91.6796,0,0.000885,0,0
0:6:18.215,1622.4,91.8106,0,0.000885,0,0
0:6:18.611,1625.23,91.9692,0,0.000885,0,0
0:6:19.017,1627.29,92.0864,0,0.000885,0,0
0:6:19.415,1629.12,92.1898,0,0.000885,0,0
0:6:19.815,1630.77,92.2794,0,0.000885,0,0
0:6:20.212,1632.59,92.3829,0,0.000885,0,0
0:6:20.609,1634.42,92.4863,0,0.000885,0,0
0:6:21.013,1636.89,92.6311,0,0.000885,0,0
0:6:21.412,1638.89,92.7414,0,0.000885,0,0
0:6:21.812,1641.19,92.8724,0,0.000885,0,0
0:6:22.216,1642.72,92.962,0,0.000885,0,0
0:6:22.620,1645.08,93.093,0,0.000885,0,0
0:6:23.024,1646.31,93.162,0,0.000885,0,0
0:6:23.425,1647.84,93.2516,0,0.000885,0,0
0:6:23.826,1649.37,93.3343,0,0.000885,0,0
0:6:24.219,1651.5,93.4584,0,0.000885,0,0
0:6:24.615,1653.38,93.5619,0,0.000885,0,0
0:6:25.011,1655.32,93.6722,0,0.000885,0,0
0:6:25.410,1657.21,93.7756,0,0.000885,0,0
0:6:25.811,1658.62,93.8583,0,0.000885,0,0
0:6:26.205,1659.97,93.9342,0,0.000885,0,0
0:6:26.602,1661.33,94.01,0,0.000885,0,0
0:6:27.004,1662.8,94.0928,0,0.000885,0,0
0:6:27.409,1665.09,94.2238,0,0.000885,0,0
0:6:27.812,1667.1,94.341,0,0.000885,0,0
0:6:28.215,1668.87,94.4375,0,0.000885,0,0
0:6:28.631,1670.75,94.5478,0,0.000885,0,0
0:6:29.031,1672.81,94.665,0,0.000885,0,0
0:6:29.429,1674.34,94.7478,0,0.000885,0,0
0:6:29.827,1675.4,94.8098,0,0.000885,0,0
0:6:30.220,1677.17,94.9063,0,0.000885,0,0
0:6:30.616,1678.93,95.0098,0,0.000885,0,0
0:6:31.014,1681.05,95.127,0,0.000885,0,0
0:6:31.425,1682.64,95.2166,0,0.000885,0,0
0:6:31.830,1685,95.3545,0,0.000885,0,0
0:6:32.235,1686.71,95.451,0,0.000885,0,0
0:6:32.639,1688.65,95.5613,0,0.000885,0,0
0:6:33.042,1690.06,95.6372,0,0.000885,0,0
0:6:33.445,1691.71,95.7337,0,0.000885,0,0
0:6:33.841,1693.42,95.8302,0,0.000885,0,0
0:6:34.236,1695.54,95.9474,0,0.000885,0,0
0:6:34.634,1697.01,96.0302,0,0.000885,0,0
0:6:35.034,1699.07,96.1474,0,0.000885,0,0
0:6:35.431,1700.43,96.2232,0,0.000885,0,0
0:6:35.827,1702.25,96.3267,0,0.000885,0,0
0:6:36.222,1704.67,96.4645,0,0.000885,0,0
0:6:36.620,1705.19,96.4921,0,0.000885,0,0
0:6:37.017,1706.25,96.5542,0,0.000885,0,0
0:6:37.421,1708.38,96.6714,0,0.000885,0,0
0:6:37.826,1709.26,96.7265,0,0.000885,0,0
0:6:38.228,1670.63,94.5409,0,0.000885,0,0
0:6:38.630,1630.94,92.2932,0,0.000885,0,0
0:6:38.926,1282.56,72.5811,0,0.000885,0,0