File: DataFile2021-06-08_034313.csv
Test ID:,Date Tested:,Time:,Test Type:,Diameter Avg. (mm):,Cyl. Corr. Factor:,Height (mm):,Age (days):,Weight (kN):,Break Type:,Ramp Rate (MPa/s):,Load at Break (kN):,Stress at Break (MPa):
12,6/8/2021,03:43,Cylinder,100,1,200,0,3.6,3,0.24,613.62,78.13
Sample Time,Load (kN),Stress (MPa),Long. Strain,Trans. Strain,Chan1 Deflection (mm),Chan2 Deflection (mm)
0:0:11.698,5.33787,0.682581,0,0.000885,0,0
0:0:11.997,8.56283,1.08937,0,0.000885,0,0
0:0:12.306,10.6179,1.35137,0,0.000885,0,0
0:0:12.602,10.3821,1.32379,0,0.000885,0,0
0:0:12.903,10.0307,1.27553,0,0.000885,0,0
0:0:13.206,9.67933,1.23416,0,0.000885,0,0
0:0:13.505,9.67933,1.23416,0,0.000885,0,0
0:0:13.803,9.61706,1.22727,0,0.000885,0,0
0:0:14.100,9.44357,1.19969,0,0.000885,0,0
0:0:14.397,9.55923,1.22037,0,0.000885,0,0
0:0:14.712,10.5556,1.34448,0,0.000885,0,0
0:0:15.014,10.4978,1.33758,0,0.000885,0,0
0:0:15.320,10.8492,1.37895,0,0.000885,0,0
0:0:15.619,11.9657,1.52374,0,0.000885,0,0
0:0:15.915,12.8465,1.63406,0,0.000885,0,0
0:0:16.210,13.3714,1.70301,0,0.000885,0,0
0:0:16.512,14.43,1.83401,0,0.000885,0,0
0:0:16.808,15.1328,1.92364,0,0.000885,0,0
0:0:17.111,15.5999,1.98569,0,0.000885,0,0
0:0:17.419,16.2449,2.06843,0,0.000885,0,0
0:0:17.723,17.2413,2.19253,0,0.000885,0,0
0:0:18.026,17.7128,2.25459,0,0.000885,0,0
0:0:18.327,18.3,2.33043,0,0.000885,0,0
0:0:18.628,15.1907,1.93743,0,0.000885,0,0
0:0:18.923,15.8935,2.02706,0,0.000885,0,0
0:0:19.224,24.2828,3.08885,0,0.000885,0,0
0:0:19.524,25.1013,3.19917,0,0.000885,0,0
0:0:19.819,25.1013,3.19917,0,0.000885,0,0
0:0:20.120,24.8077,3.1578,0,0.000885,0,0
0:0:20.424,24.5764,3.13022,0,0.000885,0,0
0:0:20.723,24.1627,3.07506,0,0.000885,0,0
0:0:21.020,24.3407,3.09575,0,0.000885,0,0
0:0:21.319,23.6957,3.0199,0,0.000885,0,0
0:0:21.615,24.5141,3.12333,0,0.000885,0,0
0:0:21.909,24.7499,3.1509,0,0.000885,0,0
0:0:22.212,25.4527,3.24054,0,0.000885,0,0
0:0:22.519,25.3949,3.23364,0,0.000885,0,0
0:0:22.822,27.0363,3.44048,0,0.000885,0,0
0:0:23.126,27.7436,3.53012,0,0.000885,0,0
0:0:23.427,28.0371,3.57148,0,0.000885,0,0
0:0:23.730,28.9134,3.6818,0,0.000885,0,0
0:0:24.025,29.7364,3.78522,0,0.000885,0,0
0:0:24.326,30.0878,3.83349,0,0.000885,0,0
0:0:24.624,30.9685,3.9438,0,0.000885,0,0
0:0:24.921,30.9107,3.93691,0,0.000885,0,0
0:0:25.221,31.4356,4.00585,0,0.000885,0,0
0:0:25.513,32.0806,4.0817,0,0.000885,0,0
0:0:25.816,32.7256,4.16443,0,0.000885,0,0
0:0:26.111,33.6063,4.28164,0,0.000885,0,0
0:0:26.411,34.5449,4.39886,0,0.000885,0,0
0:0:26.722,35.4256,4.50917,0,0.000885,0,0
0:0:27.015,35.2477,4.48849,0,0.000885,0,0
0:0:27.316,35.8349,4.56433,0,0.000885,0,0
0:0:27.623,36.6,4.66086,0,0.000885,0,0
0:0:27.926,37.245,4.74359,0,0.000885,0,0
0:0:28.229,37.6542,4.79186,0,0.000885,0,0
0:0:28.531,38.5349,4.90907,0,0.000885,0,0
0:0:28.834,38.5349,4.90907,0,0.000885,0,0
0:0:29.131,39.4112,5.01938,0,0.000885,0,0
0:0:29.432,39.7048,5.05386,0,0.000885,0,0
0:0:29.729,40.4699,5.15038,0,0.000885,0,0
0:0:30.027,41.6398,5.30207,0,0.000885,0,0
0:0:30.326,42.3471,5.3917,0,0.000885,0,0
0:0:30.623,42.227,5.37791,0,0.000885,0,0
0:0:30.924,42.8141,5.45375,0,0.000885,0,0
0:0:31.220,43.4591,5.53649,0,0.000885,0,0
0:0:31.520,44.1619,5.62612,0,0.000885,0,0
0:0:31.815,45.0427,5.73644,0,0.000885,0,0
0:0:32.122,45.3363,5.77091,0,0.000885,0,0
0:0:32.427,46.217,5.88123,0,0.000885,0,0
0:0:32.729,46.3905,5.90881,0,0.000885,0,0
0:0:33.032,47.0355,5.99154,0,0.000885,0,0
0:0:33.335,47.6227,6.06049,0,0.000885,0,0
0:0:33.632,48.2098,6.13633,0,0.000885,0,0
0:0:33.932,48.5612,6.1846,0,0.000885,0,0
0:0:34.229,49.5576,6.3087,0,0.000885,0,0
0:0:34.531,49.7934,6.34318,0,0.000885,0,0
0:0:34.827,50.0291,6.37076,0,0.000885,0,0
0:0:35.126,50.9677,6.48797,0,0.000885,0,0
0:0:35.426,51.7862,6.59139,0,0.000885,0,0
0:0:35.720,52.4935,6.68102,0,0.000885,0,0
0:0:36.024,53.5477,6.81891,0,0.000885,0,0
0:0:36.321,53.8991,6.86028,0,0.000885,0,0
0:0:36.628,54.2505,6.90855,0,0.000885,0,0
0:0:36.929,54.6019,6.94992,0,0.000885,0,0
0:0:37.231,55.3092,7.03955,0,0.000885,0,0
0:0:37.537,56.1277,7.14986,0,0.000885,0,0
0:0:37.838,56.3056,7.17055,0,0.000885,0,0
0:0:38.140,57.5956,7.33602,0,0.000885,0,0
0:0:38.443,58.1827,7.40497,0,0.000885,0,0
0:0:38.740,58.592,7.46013,0,0.000885,0,0
0:0:39.043,58.6498,7.46702,0,0.000885,0,0
0:0:39.338,59.1213,7.52907,0,0.000885,0,0
0:0:39.640,60.1177,7.65318,0,0.000885,0,0
0:0:39.937,60.5848,7.71523,0,0.000885,0,0
0:0:40.235,60.9985,7.7635,0,0.000885,0,0
0:0:40.535,61.5234,7.83244,0,0.000885,0,0
0:0:40.831,62.2884,7.92897,0,0.000885,0,0
0:0:41.133,63.0491,8.0255,0,0.000885,0,0
0:0:41.429,63.872,8.12892,0,0.000885,0,0
0:0:41.727,63.9877,8.1496,0,0.000885,0,0
0:0:42.027,64.8106,8.25302,0,0.000885,0,0
0:0:42.329,65.5134,8.34266,0,0.000885,0,0
0:0:42.635,65.8648,8.38402,0,0.000885,0,0
0:0:42.937,66.452,8.45987,0,0.000885,0,0
0:0:43.239,67.2705,8.56329,0,0.000885,0,0
0:0:43.542,67.8576,8.63913,0,0.000885,0,0
0:0:43.839,68.5604,8.72876,0,0.000885,0,0
0:0:44.142,69.0898,8.79771,0,0.000885,0,0
0:0:44.437,69.6191,8.86666,0,0.000885,0,0
0:0:44.737,69.5613,8.85976,0,0.000885,0,0
0:0:45.035,71.0826,9.05282,0,0.000885,0,0
0:0:45.331,71.6119,9.11487,0,0.000885,0,0
0:0:45.632,71.7898,9.14245,0,0.000885,0,0
0:0:45.929,72.4927,9.23208,0,0.000885,0,0
0:0:46.228,73.1955,9.32171,0,0.000885,0,0
0:0:46.526,73.667,9.37687,0,0.000885,0,0
0:0:46.824,74.0184,9.42513,0,0.000885,0,0
0:0:47.124,74.7212,9.51477,0,0.000885,0,0
0:0:47.429,74.957,9.54234,0,0.000885,0,0
0:0:47.731,75.4819,9.61129,0,0.000885,0,0
0:0:48.035,76.892,9.79056,0,0.000885,0,0
0:0:48.335,76.8341,9.78366,0,0.000885,0,0
0:0:48.639,77.7727,9.90087,0,0.000885,0,0
0:0:48.935,78.3554,9.97671,0,0.000885,0,0
0:0:49.237,78.8269,10.0388,0,0.000885,0,0
0:0:49.533,79.1783,10.0801,0,0.000885,0,0
0:0:49.833,80.8197,10.287,0,0.000885,0,0
0:0:50.132,81.1133,10.3283,0,0.000885,0,0
0:0:50.427,81.7583,10.4111,0,0.000885,0,0
0:0:50.727,82.0519,10.4456,0,0.000885,0,0
0:0:51.025,82.2298,10.4662,0,0.000885,0,0
0:0:51.324,82.2298,10.4662,0,0.000885,0,0
0:0:51.619,82.7547,10.5352,0,0.000885,0,0
0:0:51.918,84.2226,10.7213,0,0.000885,0,0
0:0:52.219,84.9833,10.8179,0,0.000885,0,0
0:0:52.526,85.219,10.8523,0,0.000885,0,0
0:0:52.830,86.2154,10.9765,0,0.000885,0,0
0:0:53.132,86.9805,11.073,0,0.000885,0,0
0:0:53.436,87.5632,11.1488,0,0.000885,0,0
0:0:53.738,88.0926,11.2178,0,0.000885,0,0
0:0:54.033,88.3283,11.2453,0,0.000885,0,0
0:0:54.335,88.444,11.2591,0,0.000885,0,0
0:0:54.632,89.5605,11.4039,0,0.000885,0,0
0:0:54.931,90.4991,11.5211,0,0.000885,0,0
0:0:55.230,90.4412,11.5142,0,0.000885,0,0
0:0:55.526,91.2019,11.6108,0,0.000885,0,0
0:0:55.827,91.9047,11.7004,0,0.000885,0,0
0:0:56.124,92.7276,11.8038,0,0.000885,0,0
0:0:56.422,92.9589,11.8383,0,0.000885,0,0
0:0:56.731,93.8975,11.9555,0,0.000885,0,0
0:0:57.027,94.1911,11.99,0,0.000885,0,0
0:0:57.329,94.7783,12.0658,0,0.000885,0,0
0:0:57.634,95.4811,12.1555,0,0.000885,0,0
0:0:57.937,96.1261,12.2382,0,0.000885,0,0
0:0:58.238,96.4819,12.2865,0,0.000885,0,0
0:0:58.539,96.8912,12.3347,0,0.000885,0,0
0:0:58.841,97.3004,12.3899,0,0.000885,0,0
0:0:59.135,98.239,12.5071,0,0.000885,0,0
0:0:59.438,98.5326,12.5485,0,0.000885,0,0
0:0:59.734,99.7647,12.7001,0,0.000885,0,0
0:1:0.033,100.116,12.7484,0,0.000885,0,0
0:1:0.332,100.645,12.8174,0,0.000885,0,0
0:1:0.630,101.642,12.9415,0,0.000885,0,0
0:1:0.931,101.878,12.969,0,0.000885,0,0
0:1:1.225,102.287,13.0242,0,0.000885,0,0
0:1:1.527,102.932,13.1069,0,0.000885,0,0
0:1:1.824,103.635,13.1966,0,0.000885,0,0
0:1:2.127,104.337,13.2862,0,0.000885,0,0
0:1:2.432,104.515,13.3069,0,0.000885,0,0
0:1:2.735,105.57,13.4448,0,0.000885,0,0
0:1:3.037,106.272,13.5344,0,0.000885,0,0
0:1:3.339,106.98,13.624,0,0.000885,0,0
0:1:3.637,107.505,13.6861,0,0.000885,0,0
0:1:3.936,107.798,13.7275,0,0.000885,0,0
0:1:4.233,108.443,13.8102,0,0.000885,0,0
0:1:4.533,108.857,13.8585,0,0.000885,0,0
0:1:4.830,108.973,13.8723,0,0.000885,0,0
0:1:5.130,109.911,13.9964,0,0.000885,0,0
0:1:5.428,110.32,14.0446,0,0.000885,0,0
0:1:5.725,111.673,14.217,0,0.000885,0,0
0:1:6.026,112.197,14.2859,0,0.000885,0,0
0:1:6.330,112.255,14.2928,0,0.000885,0,0
0:1:6.631,113.314,14.4307,0,0.000885,0,0
0:1:6.927,114.368,14.5617,0,0.000885,0,0
0:1:7.230,113.959,14.5066,0,0.000885,0,0
0:1:7.535,114.604,14.5893,0,0.000885,0,0
0:1:7.839,115.013,14.6445,0,0.000885,0,0
0:1:8.140,115.543,14.7134,0,0.000885,0,0
0:1:8.443,116.423,14.8237,0,0.000885,0,0
0:1:8.743,117.593,14.9754,0,0.000885,0,0
0:1:9.042,117.829,15.003,0,0.000885,0,0
0:1:9.341,118.532,15.0926,0,0.000885,0,0
0:1:9.641,118.768,15.1202,0,0.000885,0,0
0:1:9.935,119.47,15.2098,0,0.000885,0,0
0:1:10.237,120.525,15.3477,0,0.000885,0,0
0:1:10.532,120.467,15.3408,0,0.000885,0,0
0:1:10.832,121.525,15.4718,0,0.000885,0,0
0:1:11.131,121.641,15.4856,0,0.000885,0,0
0:1:11.427,122.695,15.6235,0,0.000885,0,0
0:1:11.728,123.46,15.72,0,0.000885,0,0
0:1:12.032,123.282,15.6994,0,0.000885,0,0
0:1:12.336,124.048,15.7959,0,0.000885,0,0
0:1:12.640,125.044,15.92,0,0.000885,0,0
0:1:12.944,125.569,15.9889,0,0.000885,0,0
0:1:13.247,126.276,16.0786,0,0.000885,0,0
0:1:13.547,126.04,16.051,0,0.000885,0,0
0:1:13.849,127.273,16.2027,0,0.000885,0,0
0:1:14.146,128.153,16.3199,0,0.000885,0,0
0:1:14.444,128.269,16.3337,0,0.000885,0,0
0:1:14.745,128.62,16.375,0,0.000885,0,0
0:1:15.039,129.207,16.4509,0,0.000885,0,0
0:1:15.342,130.026,16.5543,0,0.000885,0,0
0:1:15.638,130.733,16.6439,0,0.000885,0,0
0:1:15.937,131.085,16.6922,0,0.000885,0,0
0:1:16.235,131.965,16.8025,0,0.000885,0,0
0:1:16.533,132.375,16.8577,0,0.000885,0,0
0:1:16.834,133.255,16.968,0,0.000885,0,0
0:1:17.128,133.843,17.0438,0,0.000885,0,0
0:1:17.430,134.367,17.1059,0,0.000885,0,0
0:1:17.734,134.719,17.1542,0,0.000885,0,0
0:1:18.037,135.778,17.2852,0,0.000885,0,0
0:1:18.340,136.48,17.3748,0,0.000885,0,0
0:1:18.641,136.48,17.3748,0,0.000885,0,0
0:1:18.945,136.947,17.4368,0,0.000885,0,0
0:1:19.240,137.886,17.5541,0,0.000885,0,0
0:1:19.540,138.064,17.5816,0,0.000885,0,0
0:1:19.839,138.709,17.6575,0,0.000885,0,0
0:1:20.135,139.47,17.7609,0,0.000885,0,0
0:1:20.436,139.821,17.8023,0,0.000885,0,0
0:1:20.733,140.822,17.9264,0,0.000885,0,0
0:1:21.035,141.64,18.0367,0,0.000885,0,0
0:1:21.330,142.343,18.1263,0,0.000885,0,0
0:1:21.629,142.815,18.1815,0,0.000885,0,0
0:1:21.927,142.579,18.1539,0,0.000885,0,0
0:1:22.232,143.811,18.3125,0,0.000885,0,0
0:1:22.535,144.456,18.3952,0,0.000885,0,0
0:1:22.838,145.159,18.4848,0,0.000885,0,0
0:1:23.139,145.573,18.5331,0,0.000885,0,0
0:1:23.441,146.275,18.6227,0,0.000885,0,0
0:1:23.738,146.333,18.6296,0,0.000885,0,0
0:1:24.038,147.036,18.7193,0,0.000885,0,0
0:1:24.334,148.032,18.8503,0,0.000885,0,0
0:1:24.636,148.504,18.9054,0,0.000885,0,0
0:1:24.932,149.149,18.9882,0,0.000885,0,0
0:1:25.232,150.03,19.1054,0,0.000885,0,0
0:1:25.530,150.261,19.133,0,0.000885,0,0
0:1:25.825,150.612,19.1743,0,0.000885,0,0
0:1:26.126,151.142,19.2433,0,0.000885,0,0
0:1:26.421,151.613,19.3053,0,0.000885,0,0
0:1:26.721,152.667,19.4363,0,0.000885,0,0
0:1:27.019,153.197,19.5053,0,0.000885,0,0
0:1:27.320,153.664,19.5673,0,0.000885,0,0
0:1:27.628,154.073,19.6156,0,0.000885,0,0
0:1:27.930,154.78,19.7052,0,0.000885,0,0
0:1:28.234,155.892,19.85,0,0.000885,0,0
0:1:28.535,156.244,19.8914,0,0.000885,0,0
0:1:28.834,156.128,19.8776,0,0.000885,0,0
0:1:29.133,157.067,20.0017,0,0.000885,0,0
0:1:29.430,158.063,20.1258,0,0.000885,0,0
0:1:29.732,158.708,20.2085,0,0.000885,0,0
0:1:30.026,159.295,20.2844,0,0.000885,0,0
0:1:30.326,159.002,20.243,0,0.000885,0,0
0:1:30.636,160.292,20.4085,0,0.000885,0,0
0:1:30.931,160.527,20.4361,0,0.000885,0,0
0:1:31.232,161.115,20.5119,0,0.000885,0,0
0:1:31.528,162.053,20.636,0,0.000885,0,0
0:1:31.828,162.347,20.6705,0,0.000885,0,0
0:1:32.126,163.343,20.7946,0,0.000885,0,0
0:1:32.427,163.281,20.7877,0,0.000885,0,0
0:1:32.732,163.517,20.8222,0,0.000885,0,0
0:1:33.036,164.633,20.9601,0,0.000885,0,0
0:1:33.338,165.394,21.0566,0,0.000885,0,0
0:1:33.641,166.39,21.1876,0,0.000885,0,0
0:1:33.941,166.804,21.2359,0,0.000885,0,0
0:1:34.239,167.68,21.3531,0,0.000885,0,0
0:1:34.535,168.387,21.4427,0,0.000885,0,0
0:1:34.836,168.854,21.4979,0,0.000885,0,0
0:1:35.133,169.148,21.5392,0,0.000885,0,0
0:1:35.431,169.499,21.5806,0,0.000885,0,0
0:1:35.732,170.087,21.6564,0,0.000885,0,0
0:1:36.028,171.319,21.815,0,0.000885,0,0
0:1:36.328,171.844,21.8771,0,0.000885,0,0
0:1:36.632,172.2,21.9253,0,0.000885,0,0
0:1:36.935,172.257,21.9322,0,0.000885,0,0
0:1:37.239,173.196,22.0494,0,0.000885,0,0
0:1:37.543,173.312,22.0701,0,0.000885,0,0
0:1:37.845,174.192,22.1804,0,0.000885,0,0
0:1:38.147,175.189,22.3045,0,0.000885,0,0
0:1:38.450,176.127,22.4286,0,0.000885,0,0
0:1:38.747,176.305,22.4493,0,0.000885,0,0
0:1:39.043,176.243,22.4424,0,0.000885,0,0
0:1:39.343,177.066,22.5459,0,0.000885,0,0
0:1:39.638,178.12,22.6769,0,0.000885,0,0
0:1:39.941,178.765,22.7596,0,0.000885,0,0
0:1:40.237,179.179,22.8148,0,0.000885,0,0
0:1:40.535,179.41,22.8423,0,0.000885,0,0
0:1:40.836,180.233,22.9458,0,0.000885,0,0
0:1:41.131,180.994,23.0423,0,0.000885,0,0
0:1:41.433,181.523,23.1112,0,0.000885,0,0
0:1:41.728,181.874,23.1595,0,0.000885,0,0
0:1:42.030,182.226,23.2009,0,0.000885,0,0
0:1:42.335,183.107,23.3112,0,0.000885,0,0
0:1:42.638,184.045,23.4353,0,0.000885,0,0
0:1:42.941,184.69,23.518,0,0.000885,0,0
0:1:43.242,184.632,23.5111,0,0.000885,0,0
0:1:43.544,185.571,23.6283,0,0.000885,0,0
0:1:43.842,186.216,23.7111,0,0.000885,0,0
0:1:44.138,187.154,23.8283,0,0.000885,0,0
0:1:44.440,187.328,23.849,0,0.000885,0,0
0:1:44.735,187.799,23.911,0,0.000885,0,0
0:1:45.035,188.329,23.98,0,0.000885,0,0
0:1:45.333,188.796,24.0351,0,0.000885,0,0
0:1:45.632,190.202,24.2144,0,0.000885,0,0
0:1:45.930,189.912,24.1799,0,0.000885,0,0
0:1:46.222,190.673,24.2764,0,0.000885,0,0
0:1:46.524,191.376,24.3661,0,0.000885,0,0
0:1:46.820,191.785,24.4212,0,0.000885,0,0
0:1:47.124,192.724,24.5384,0,0.000885,0,0
0:1:47.428,192.844,24.5522,0,0.000885,0,0
0:1:47.730,193.724,24.6625,0,0.000885,0,0
0:1:48.029,194.601,24.7798,0,0.000885,0,0
0:1:48.328,195.13,24.8418,0,0.000885,0,0
0:1:48.627,195.539,24.897,0,0.000885,0,0
0:1:48.921,196.362,25.0004,0,0.000885,0,0
0:1:49.215,196.892,25.0693,0,0.000885,0,0
0:1:49.514,197.123,25.0969,0,0.000885,0,0
0:1:49.807,198.004,25.2072,0,0.000885,0,0
0:1:50.106,198.062,25.221,0,0.000885,0,0
0:1:50.402,199.058,25.3451,0,0.000885,0,0
0:1:50.699,199.823,25.4417,0,0.000885,0,0
0:1:50.995,199.996,25.4623,0,0.000885,0,0
0:1:51.287,200.348,25.5106,0,0.000885,0,0
0:1:51.587,201.113,25.6071,0,0.000885,0,0
0:1:51.881,201.931,25.7105,0,0.000885,0,0
0:1:52.181,202.167,25.7381,0,0.000885,0,0
0:1:52.485,202.461,25.7795,0,0.000885,0,0
0:1:52.785,203.871,25.9588,0,0.000885,0,0
0:1:53.086,204.747,26.0691,0,0.000885,0,0
0:1:53.385,204.809,26.076,0,0.000885,0,0
0:1:53.683,205.099,26.1173,0,0.000885,0,0
0:1:53.980,206.157,26.2483,0,0.000885,0,0
0:1:54.273,206.86,26.338,0,0.000885,0,0
0:1:54.573,206.918,26.3449,0,0.000885,0,0
0:1:54.868,207.914,26.4759,0,0.000885,0,0
0:1:55.165,208.092,26.4966,0,0.000885,0,0
0:1:55.460,208.915,26.6,0,0.000885,0,0
0:1:55.756,209.498,26.6758,0,0.000885,0,0
0:1:56.055,210.499,26.7999,0,0.000885,0,0
0:1:56.347,210.436,26.793,0,0.000885,0,0
0:1:56.646,211.789,26.9654,0,0.000885,0,0
0:1:56.941,212.082,26.9999,0,0.000885,0,0
0:1:57.241,212.665,27.0757,0,0.000885,0,0
0:1:57.546,213.137,27.1378,0,0.000885,0,0
0:1:57.847,213.839,27.2274,0,0.000885,0,0
0:1:58.146,214.484,27.3101,0,0.000885,0,0
0:1:58.446,214.662,27.3308,0,0.000885,0,0
0:1:58.744,215.423,27.4273,0,0.000885,0,0
0:1:59.038,215.659,27.4618,0,0.000885,0,0
0:1:59.333,216.419,27.5583,0,0.000885,0,0
0:1:59.633,217.184,27.6549,0,0.000885,0,0
0:1:59.934,217.242,27.6618,0,0.000885,0,0
0:2:0.235,218.417,27.8066,0,0.000885,0,0
0:2:0.530,219.062,27.8893,0,0.000885,0,0
0:2:0.823,219.707,27.972,0,0.000885,0,0
0:2:1.120,220,28.0134,0,0.000885,0,0
0:2:1.422,220.409,28.0617,0,0.000885,0,0
0:2:1.722,221.228,28.1651,0,0.000885,0,0
0:2:2.014,222.109,28.2823,0,0.000885,0,0
0:2:2.315,222.402,28.3168,0,0.000885,0,0
0:2:2.617,222.344,28.3099,0,0.000885,0,0
0:2:2.919,223.75,28.4891,0,0.000885,0,0
0:2:3.220,224.457,28.5788,0,0.000885,0,0
0:2:3.520,224.866,28.6339,0,0.000885,0,0
0:2:3.819,225.276,28.6822,0,0.000885,0,0
0:2:4.124,226.041,28.7787,0,0.000885,0,0
0:2:4.431,227.153,28.9235,0,0.000885,0,0
0:2:4.738,227.211,28.9304,0,0.000885,0,0
0:2:5.031,227.74,28.9993,0,0.000885,0,0
0:2:5.330,228.736,29.1235,0,0.000885,0,0
0:2:5.623,229.266,29.1924,0,0.000885,0,0
0:2:5.920,230.204,29.3096,0,0.000885,0,0
0:2:6.224,230.147,29.3027,0,0.000885,0,0
0:2:6.530,230.084,29.2958,0,0.000885,0,0
0:2:6.829,230.792,29.3855,0,0.000885,0,0
0:2:7.132,231.494,29.4751,0,0.000885,0,0
0:2:7.434,232.842,29.6475,0,0.000885,0,0
0:2:7.734,232.669,29.6268,0,0.000885,0,0
0:2:8.035,233.603,29.744,0,0.000885,0,0
0:2:8.334,234.368,29.8405,0,0.000885,0,0
0:2:8.625,234.777,29.8957,0,0.000885,0,0
0:2:8.926,235.186,29.9439,0,0.000885,0,0
0:2:9.231,236.009,30.0474,0,0.000885,0,0
0:2:9.536,236.712,30.137,0,0.000885,0,0
0:2:9.835,237.651,30.2611,0,0.000885,0,0
0:2:10.136,237.299,30.2128,0,0.000885,0,0
0:2:10.436,238.474,30.3645,0,0.000885,0,0
0:2:10.730,238.825,30.4059,0,0.000885,0,0
0:2:11.027,239.528,30.4955,0,0.000885,0,0
0:2:11.332,240.409,30.6127,0,0.000885,0,0
0:2:11.626,240.702,30.6472,0,0.000885,0,0
0:2:11.925,241.054,30.6886,0,0.000885,0,0
0:2:12.226,241.641,30.7644,0,0.000885,0,0
0:2:12.530,242.579,30.8885,0,0.000885,0,0
0:2:12.831,243.166,30.9575,0,0.000885,0,0
0:2:13.132,243.749,31.0333,0,0.000885,0,0
0:2:13.431,244.043,31.0747,0,0.000885,0,0
0:2:13.735,244.75,31.1643,0,0.000885,0,0
0:2:14.034,245.689,31.2815,0,0.000885,0,0
0:2:14.324,246.627,31.3987,0,0.000885,0,0
0:2:14.623,246.685,31.4056,0,0.000885,0,0
0:2:14.917,246.979,31.447,0,0.000885,0,0
0:2:15.214,247.739,31.5435,0,0.000885,0,0
0:2:15.519,248.326,31.6194,0,0.000885,0,0
0:2:15.822,248.562,31.6469,0,0.000885,0,0
0:2:16.121,249.616,31.7848,0,0.000885,0,0
0:2:16.414,249.674,31.7917,0,0.000885,0,0
0:2:16.713,250.671,31.9158,0,0.000885,0,0
0:2:17.008,250.964,31.9572,0,0.000885,0,0
0:2:17.307,252.196,32.1089,0,0.000885,0,0
0:2:17.611,252.49,32.1503,0,0.000885,0,0
0:2:17.911,253.019,32.2123,0,0.000885,0,0
0:2:18.212,254.016,32.3433,0,0.000885,0,0
0:2:18.511,254.719,32.4329,0,0.000885,0,0
0:2:18.816,254.719,32.4329,0,0.000885,0,0
0:2:19.114,255.421,32.5226,0,0.000885,0,0
0:2:19.417,256.36,32.6398,0,0.000885,0,0
0:2:19.717,257.183,32.7432,0,0.000885,0,0
0:2:20.019,257.476,32.7846,0,0.000885,0,0
0:2:20.317,257.419,32.7777,0,0.000885,0,0
0:2:20.614,258.179,32.8742,0,0.000885,0,0
0:2:20.926,259.176,32.9983,0,0.000885,0,0
0:2:21.225,260.056,33.1086,0,0.000885,0,0
0:2:21.517,260.35,33.15,0,0.000885,0,0
0:2:21.818,260.234,33.1362,0,0.000885,0,0
0:2:22.121,260.759,33.1983,0,0.000885,0,0
0:2:22.422,261.818,33.3362,0,0.000885,0,0
0:2:22.723,262.579,33.4327,0,0.000885,0,0
0:2:23.023,262.636,33.4396,0,0.000885,0,0
0:2:23.322,263.517,33.5499,0,0.000885,0,0
0:2:23.624,264.278,33.6464,0,0.000885,0,0
0:2:23.922,264.571,33.6878,0,0.000885,0,0
0:2:24.217,265.274,33.7774,0,0.000885,0,0
0:2:24.514,266.275,33.9015,0,0.000885,0,0
0:2:24.811,266.213,33.8946,0,0.000885,0,0
0:2:25.114,266.92,33.9843,0,0.000885,0,0
0:2:25.413,268.032,34.129,0,0.000885,0,0
0:2:25.708,268.441,34.1773,0,0.000885,0,0
0:2:26.003,268.971,34.2463,0,0.000885,0,0
0:2:26.301,269.909,34.3635,0,0.000885,0,0
0:2:26.595,270.145,34.3979,0,0.000885,0,0
0:2:26.893,270.67,34.46,0,0.000885,0,0
0:2:27.196,271.319,34.5427,0,0.000885,0,0
0:2:27.497,272.022,34.6324,0,0.000885,0,0
0:2:27.797,272.725,34.722,0,0.000885,0,0
0:2:28.095,273.428,34.8116,0,0.000885,0,0
0:2:28.395,273.428,34.8116,0,0.000885,0,0
0:2:28.686,274.131,34.9013,0,0.000885,0,0
0:2:28.986,274.838,34.9909,0,0.000885,0,0
0:2:29.279,275.421,35.0667,0,0.000885,0,0
0:2:29.576,275.247,35.0461,0,0.000885,0,0
0:2:29.870,276.128,35.1564,0,0.000885,0,0
0:2:30.167,277.182,35.2943,0,0.000885,0,0
0:2:30.464,278.005,35.3977,0,0.000885,0,0
0:2:30.756,278.121,35.4115,0,0.000885,0,0
0:2:31.057,278.414,35.4459,0,0.000885,0,0
0:2:31.350,279.589,35.5976,0,0.000885,0,0
0:2:31.645,280.234,35.6804,0,0.000885,0,0
0:2:31.943,280.056,35.6597,0,0.000885,0,0
0:2:32.243,281.23,35.8045,0,0.000885,0,0
0:2:32.545,281.933,35.8941,0,0.000885,0,0
0:2:32.845,282.404,35.9562,0,0.000885,0,0
0:2:33.146,282.813,36.0113,0,0.000885,0,0
0:2:33.447,283.926,36.1492,0,0.000885,0,0
0:2:33.741,283.926,36.1492,0,0.000885,0,0
0:2:34.040,284.691,36.2457,0,0.000885,0,0
0:2:34.334,285.509,36.3492,0,0.000885,0,0
0:2:34.634,286.216,36.4388,0,0.000885,0,0
0:2:34.935,286.038,36.4181,0,0.000885,0,0
0:2:35.235,287.155,36.5629,0,0.000885,0,0
0:2:35.528,287.916,36.6594,0,0.000885,0,0
0:2:35.822,288.561,36.7422,0,0.000885,0,0
0:2:36.120,288.383,36.7215,0,0.000885,0,0
0:2:36.422,289.321,36.8387,0,0.000885,0,0
0:2:36.724,289.908,36.9145,0,0.000885,0,0
0:2:37.026,290.731,37.018,0,0.000885,0,0
0:2:37.328,291.256,37.0869,0,0.000885,0,0
0:2:37.626,291.083,37.0593,0,0.000885,0,0
0:2:37.925,292.373,37.2248,0,0.000885,0,0
0:2:38.224,292.551,37.2455,0,0.000885,0,0
0:2:38.527,293.547,37.3765,0,0.000885,0,0
0:2:38.825,293.369,37.3558,0,0.000885,0,0
0:2:39.121,294.486,37.4937,0,0.000885,0,0
0:2:39.425,295.011,37.5626,0,0.000885,0,0
0:2:39.726,295.598,37.6385,0,0.000885,0,0
0:2:40.017,296.536,37.7557,0,0.000885,0,0
0:2:40.315,297.359,37.8591,0,0.000885,0,0
0:2:40.621,297.301,37.8522,0,0.000885,0,0
0:2:40.917,298.356,37.9901,0,0.000885,0,0
0:2:41.214,299.352,38.1142,0,0.000885,0,0
0:2:41.516,299.174,38.0935,0,0.000885,0,0
0:2:41.817,300.113,38.2107,0,0.000885,0,0
0:2:42.118,300.993,38.3211,0,0.000885,0,0
0:2:42.420,300.7,38.2866,0,0.000885,0,0
0:2:42.721,301.407,38.3762,0,0.000885,0,0
0:2:43.020,302.519,38.521,0,0.000885,0,0
0:2:43.320,303.048,38.5831,0,0.000885,0,0
0:2:43.612,303.28,38.6175,0,0.000885,0,0
0:2:43.913,304.281,38.7416,0,0.000885,0,0
0:2:44.207,304.983,38.8313,0,0.000885,0,0
0:2:44.504,305.157,38.852,0,0.000885,0,0
0:2:44.801,305.802,38.9347,0,0.000885,0,0
0:2:45.094,306.509,39.0243,0,0.000885,0,0
0:2:45.393,307.092,39.1002,0,0.000885,0,0
0:2:45.686,307.506,39.1553,0,0.000885,0,0
0:2:45.985,308.208,39.245,0,0.000885,0,0
0:2:46.280,308.675,39.3001,0,0.000885,0,0
0:2:46.575,308.969,39.3415,0,0.000885,0,0
0:2:46.873,309.676,39.4311,0,0.000885,0,0
0:2:47.174,310.259,39.507,0,0.000885,0,0
0:2:47.477,311.318,39.638,0,0.000885,0,0
0:2:47.777,311.376,39.6449,0,0.000885,0,0
0:2:48.076,312.372,39.7759,0,0.000885,0,0
0:2:48.376,312.372,39.7759,0,0.000885,0,0
0:2:48.671,313.488,39.9137,0,0.000885,0,0
0:2:48.970,314.365,40.0241,0,0.000885,0,0
0:2:49.262,314.365,40.0241,0,0.000885,0,0
0:2:49.562,315.01,40.1068,0,0.000885,0,0
0:2:49.855,315.717,40.1964,0,0.000885,0,0
0:2:50.153,316.829,40.3412,0,0.000885,0,0
0:2:50.451,316.535,40.2999,0,0.000885,0,0
0:2:50.745,317.652,40.4446,0,0.000885,0,0
0:2:51.044,317.825,40.4653,0,0.000885,0,0
0:2:51.337,318.533,40.555,0,0.000885,0,0
0:2:51.636,319.471,40.6791,0,0.000885,0,0
0:2:51.928,319.76,40.7135,0,0.000885,0,0
0:2:52.230,320.583,40.817,0,0.000885,0,0
0:2:52.534,321.113,40.8859,0,0.000885,0,0
0:2:52.834,320.935,40.8652,0,0.000885,0,0
0:2:53.135,322.051,41.0031,0,0.000885,0,0
0:2:53.435,323.221,41.1548,0,0.000885,0,0
0:2:53.741,323.693,41.2169,0,0.000885,0,0
0:2:54.037,323.515,41.1893,0,0.000885,0,0
0:2:54.340,324.395,41.3065,0,0.000885,0,0
0:2:54.642,325.218,41.4099,0,0.000885,0,0
0:2:54.931,325.161,41.403,0,0.000885,0,0
0:2:55.231,326.095,41.5202,0,0.000885,0,0
0:2:55.537,326.566,41.5823,0,0.000885,0,0
0:2:55.831,327.327,41.6788,0,0.000885,0,0
0:2:56.141,328.559,41.8305,0,0.000885,0,0
0:2:56.431,328.737,41.8581,0,0.000885,0,0
0:2:56.735,329.262,41.9201,0,0.000885,0,0
0:2:57.038,329.907,42.0029,0,0.000885,0,0
0:2:57.338,329.849,41.996,0,0.000885,0,0
0:2:57.640,331.375,42.189,0,0.000885,0,0
0:2:57.939,331.139,42.1614,0,0.000885,0,0
0:2:58.240,332.371,42.32,0,0.000885,0,0
0:2:58.532,333.194,42.4234,0,0.000885,0,0
0:2:58.835,333.31,42.4372,0,0.000885,0,0
0:2:59.138,334.306,42.5682,0,0.000885,0,0
0:2:59.432,334.426,42.582,0,0.000885,0,0
0:2:59.728,335.245,42.6854,0,0.000885,0,0
0:3:0.024,336.183,42.8027,0,0.000885,0,0
0:3:0.322,335.832,42.7613,0,0.000885,0,0
0:3:0.616,336.948,42.8992,0,0.000885,0,0
0:3:0.914,337.006,42.9061,0,0.000885,0,0
0:3:1.210,337.945,43.0302,0,0.000885,0,0
0:3:1.505,339.119,43.175,0,0.000885,0,0
0:3:1.803,339.293,43.2025,0,0.000885,0,0
0:3:2.104,340.409,43.3404,0,0.000885,0,0
0:3:2.407,340.289,43.3267,0,0.000885,0,0
0:3:2.706,341.521,43.4852,0,0.000885,0,0
0:3:3.006,342.05,43.5542,0,0.000885,0,0
0:3:3.306,341.93,43.5335,0,0.000885,0,0
0:3:3.601,342.695,43.63,0,0.000885,0,0
0:3:3.899,343.105,43.6852,0,0.000885,0,0
0:3:4.193,343.456,43.7334,0,0.000885,0,0
0:3:4.493,344.982,43.9265,0,0.000885,0,0
0:3:4.785,345.16,43.9472,0,0.000885,0,0
0:3:5.084,345.627,44.0092,0,0.000885,0,0
0:3:5.379,345.978,44.0506,0,0.000885,0,0
0:3:5.674,346.623,44.1333,0,0.000885,0,0
0:3:5.973,347.682,44.2712,0,0.000885,0,0
0:3:6.266,347.74,44.2781,0,0.000885,0,0
0:3:6.566,348.736,44.4022,0,0.000885,0,0
0:3:6.860,348.443,44.3678,0,0.000885,0,0
0:3:7.160,349.559,44.5057,0,0.000885,0,0
0:3:7.464,350.32,44.6022,0,0.000885,0,0
0:3:7.765,351.374,44.7401,0,0.000885,0,0
0:3:8.066,351.668,44.7746,0,0.000885,0,0
0:3:8.367,352.255,44.8504,0,0.000885,0,0
0:3:8.664,352.548,44.8849,0,0.000885,0,0
0:3:8.959,352.957,44.94,0,0.000885,0,0
0:3:9.256,353.78,45.0434,0,0.000885,0,0
0:3:9.554,354.483,45.1331,0,0.000885,0,0
0:3:9.846,355.422,45.2503,0,0.000885,0,0
0:3:10.145,355.306,45.2365,0,0.000885,0,0
0:3:10.441,356.009,45.3261,0,0.000885,0,0
0:3:10.738,356.596,45.402,0,0.000885,0,0
0:3:11.033,357.299,45.4916,0,0.000885,0,0
0:3:11.326,358.002,45.5812,0,0.000885,0,0
0:3:11.627,358.238,45.6088,0,0.000885,0,0
0:3:11.930,359.585,45.7812,0,0.000885,0,0
0:3:12.232,359.879,45.8226,0,0.000885,0,0
0:3:12.533,360.408,45.8915,0,0.000885,0,0
0:3:12.832,360.466,45.8984,0,0.000885,0,0
0:3:13.134,361.756,46.057,0,0.000885,0,0
0:3:13.427,361.756,46.057,0,0.000885,0,0
0:3:13.725,362.81,46.1949,0,0.000885,0,0
0:3:14.040,362.93,46.2087,0,0.000885,0,0
0:3:14.337,363.575,46.2914,0,0.000885,0,0
0:3:14.643,364.163,46.3672,0,0.000885,0,0
0:3:14.938,365.159,46.4913,0,0.000885,0,0
0:3:15.236,365.395,46.5258,0,0.000885,0,0
0:3:15.529,365.977,46.5948,0,0.000885,0,0
0:3:15.827,366.329,46.643,0,0.000885,0,0
0:3:16.133,366.978,46.7258,0,0.000885,0,0
0:3:16.437,367.855,46.8361,0,0.000885,0,0
0:3:16.737,368.793,46.9533,0,0.000885,0,0
0:3:17.038,368.793,46.9533,0,0.000885,0,0
0:3:17.339,369.322,47.0222,0,0.000885,0,0
0:3:17.640,370.083,47.1188,0,0.000885,0,0
0:3:17.940,370.728,47.2015,0,0.000885,0,0
0:3:18.242,371.435,47.2911,0,0.000885,0,0
0:3:18.533,372.018,47.367,0,0.000885,0,0
0:3:18.833,372.663,47.4497,0,0.000885,0,0
0:3:19.128,373.602,47.5669,0,0.000885,0,0
0:3:19.424,373.895,47.6083,0,0.000885,0,0
0:3:19.722,374.309,47.6566,0,0.000885,0,0
0:3:20.026,374.834,47.7255,0,0.000885,0,0
0:3:20.326,375.772,47.8427,0,0.000885,0,0
0:3:20.629,376.066,47.8841,0,0.000885,0,0
0:3:20.926,377.062,48.0082,0,0.000885,0,0
0:3:21.224,377.356,48.0496,0,0.000885,0,0
0:3:21.527,377.885,48.1116,0,0.000885,0,0
0:3:21.825,378.415,48.1806,0,0.000885,0,0
0:3:22.126,378.882,48.2426,0,0.000885,0,0
0:3:22.429,379.411,48.3047,0,0.000885,0,0
0:3:22.730,380.172,48.4081,0,0.000885,0,0
0:3:23.031,380.581,48.4564,0,0.000885,0,0
0:3:23.331,381.11,48.5253,0,0.000885,0,0
0:3:23.634,381.875,48.6218,0,0.000885,0,0
0:3:23.944,382.93,48.7528,0,0.000885,0,0
0:3:24.241,383.165,48.7873,0,0.000885,0,0
0:3:24.545,383.868,48.8769,0,0.000885,0,0
0:3:24.844,384.162,48.9114,0,0.000885,0,0
0:3:25.135,384.749,48.9873,0,0.000885,0,0
0:3:25.435,385.452,49.0769,0,0.000885,0,0
0:3:25.730,386.332,49.1872,0,0.000885,0,0
0:3:26.034,386.8,49.2493,0,0.000885,0,0
0:3:26.334,387.502,49.3389,0,0.000885,0,0
0:3:26.628,387.916,49.394,0,0.000885,0,0
0:3:26.927,388.499,49.463,0,0.000885,0,0
0:3:27.230,389.264,49.5595,0,0.000885,0,0
0:3:27.532,389.851,49.6354,0,0.000885,0,0
0:3:27.832,389.793,49.6285,0,0.000885,0,0
0:3:28.133,390.554,49.725,0,0.000885,0,0
0:3:28.434,391.377,49.8284,0,0.000885,0,0
0:3:28.730,392.022,49.9111,0,0.000885,0,0
0:3:29.026,392.373,49.9594,0,0.000885,0,0
0:3:29.323,393.076,50.049,0,0.000885,0,0
0:3:29.628,393.663,50.1249,0,0.000885,0,0
0:3:29.928,394.366,50.2145,0,0.000885,0,0
0:3:30.230,395.011,50.2973,0,0.000885,0,0
0:3:30.530,395.598,50.3662,0,0.000885,0,0
0:3:30.825,396.007,50.4214,0,0.000885,0,0
0:3:31.120,396.946,50.5386,0,0.000885,0,0
0:3:31.418,396.71,50.511,0,0.000885,0,0
0:3:31.712,397.711,50.6351,0,0.000885,0,0
0:3:32.012,398.236,50.704,0,0.000885,0,0
0:3:32.315,398.587,50.7523,0,0.000885,0,0
0:3:32.618,399.232,50.835,0,0.000885,0,0
0:3:32.916,400.113,50.9454,0,0.000885,0,0
0:3:33.217,400.7,51.0212,0,0.000885,0,0
0:3:33.516,401.109,51.0695,0,0.000885,0,0
0:3:33.810,401.754,51.1522,0,0.000885,0,0
0:3:34.108,403.044,51.3177,0,0.000885,0,0
0:3:34.403,403.165,51.3315,0,0.000885,0,0
0:3:34.699,403.925,51.428,0,0.000885,0,0
0:3:34.998,404.628,51.5176,0,0.000885,0,0
0:3:35.292,404.806,51.5383,0,0.000885,0,0
0:3:35.591,404.922,51.559,0,0.000885,0,0
0:3:35.885,406.332,51.7383,0,0.000885,0,0
0:3:36.182,406.332,51.7383,0,0.000885,0,0
0:3:36.476,406.919,51.8072,0,0.000885,0,0
0:3:36.777,407.386,51.8693,0,0.000885,0,0
0:3:37.079,408.618,52.0278,0,0.000885,0,0
0:3:37.381,409.027,52.0761,0,0.000885,0,0
0:3:37.682,409.966,52.2002,0,0.000885,0,0
0:3:37.983,410.086,52.214,0,0.000885,0,0
0:3:38.280,410.437,52.2554,0,0.000885,0,0
0:3:38.578,411.256,52.3657,0,0.000885,0,0
0:3:38.870,412.079,52.4691,0,0.000885,0,0
0:3:39.169,412.372,52.5036,0,0.000885,0,0
0:3:39.464,413.017,52.5863,0,0.000885,0,0
0:3:39.761,413.605,52.6622,0,0.000885,0,0
0:3:40.058,414.307,52.7518,0,0.000885,0,0
0:3:40.352,414.837,52.8207,0,0.000885,0,0
0:3:40.652,415.54,52.9104,0,0.000885,0,0
0:3:40.944,415.891,52.9517,0,0.000885,0,0
0:3:41.245,416.714,53.0552,0,0.000885,0,0
0:3:41.548,417.359,53.1379,0,0.000885,0,0
0:3:41.850,417.884,53.2068,0,0.000885,0,0
0:3:42.153,418.587,53.2965,0,0.000885,0,0
0:3:42.455,418.764,53.3172,0,0.000885,0,0
0:3:42.755,419.058,53.3585,0,0.000885,0,0
0:3:43.056,420.112,53.4895,0,0.000885,0,0
0:3:43.354,420.642,53.5585,0,0.000885,0,0
0:3:43.651,421.344,53.6481,0,0.000885,0,0
0:3:43.945,421.58,53.6757,0,0.000885,0,0
0:3:44.244,422.167,53.7515,0,0.000885,0,0
0:3:44.535,423.106,53.8687,0,0.000885,0,0
0:3:44.835,423.693,53.9446,0,0.000885,0,0
0:3:45.141,424.045,53.9928,0,0.000885,0,0
0:3:45.436,424.747,54.0825,0,0.000885,0,0
0:3:45.732,425.45,54.1721,0,0.000885,0,0
0:3:46.027,425.686,54.1997,0,0.000885,0,0
0:3:46.325,426.037,54.248,0,0.000885,0,0
0:3:46.620,426.624,54.3169,0,0.000885,0,0
0:3:46.919,427.269,54.3996,0,0.000885,0,0
0:3:47.223,427.972,54.4893,0,0.000885,0,0
0:3:47.526,429.382,54.6685,0,0.000885,0,0
0:3:47.827,429.672,54.7099,0,0.000885,0,0
0:3:48.126,430.317,54.7926,0,0.000885,0,0
0:3:48.426,430.788,54.8478,0,0.000885,0,0
0:3:48.720,431.375,54.9236,0,0.000885,0,0
0:3:49.020,432.078,55.0133,0,0.000885,0,0
0:3:49.325,432.487,55.0684,0,0.000885,0,0
0:3:49.621,432.839,55.1098,0,0.000885,0,0
0:3:49.920,433.662,55.2132,0,0.000885,0,0
0:3:50.221,434.191,55.2822,0,0.000885,0,0
0:3:50.520,434.836,55.3649,0,0.000885,0,0
0:3:50.824,435.245,55.4201,0,0.000885,0,0
0:3:51.122,436.068,55.5235,0,0.000885,0,0
0:3:51.419,436.535,55.5786,0,0.000885,0,0
0:3:51.722,437.064,55.6476,0,0.000885,0,0
0:3:52.023,437.883,55.751,0,0.000885,0,0
0:3:52.324,437.883,55.751,0,0.000885,0,0
0:3:52.625,438.648,55.8475,0,0.000885,0,0
0:3:52.926,439.235,55.9234,0,0.000885,0,0
0:3:53.230,439.76,55.9923,0,0.000885,0,0
0:3:53.528,440.934,56.144,0,0.000885,0,0
0:3:53.830,441.112,56.1647,0,0.000885,0,0
0:3:54.131,441.989,56.275,0,0.000885,0,0
0:3:54.425,442.634,56.3577,0,0.000885,0,0
0:3:54.722,442.812,56.3784,0,0.000885,0,0
0:3:55.019,443.279,56.4405,0,0.000885,0,0
0:3:55.315,443.986,56.5301,0,0.000885,0,0
0:3:55.613,444.569,56.606,0,0.000885,0,0
0:3:55.907,445.392,56.7094,0,0.000885,0,0
0:3:56.206,445.921,56.7783,0,0.000885,0,0
0:3:56.501,446.566,56.8611,0,0.000885,0,0
0:3:56.802,447.327,56.9576,0,0.000885,0,0
0:3:57.106,447.914,57.0334,0,0.000885,0,0
0:3:57.406,448.737,57.1369,0,0.000885,0,0
0:3:57.707,449.204,57.192,0,0.000885,0,0
0:3:58.007,449.849,57.2747,0,0.000885,0,0
0:3:58.304,449.969,57.2885,0,0.000885,0,0
0:3:58.602,450.729,57.392,0,0.000885,0,0
0:3:58.896,451.432,57.4816,0,0.000885,0,0
0:3:59.196,451.726,57.5161,0,0.000885,0,0
0:3:59.488,452.371,57.5988,0,0.000885,0,0
0:3:59.788,453.252,57.7091,0,0.000885,0,0
0:4:0.081,453.252,57.7091,0,0.000885,0,0
0:4:0.380,454.132,57.8194,0,0.000885,0,0
0:4:0.678,454.599,57.8815,0,0.000885,0,0
0:4:0.970,454.893,57.916,0,0.000885,0,0
0:4:1.270,455.422,57.9849,0,0.000885,0,0
0:4:1.563,456.241,58.0883,0,0.000885,0,0
0:4:1.865,457.237,58.2193,0,0.000885,0,0
0:4:2.166,457.651,58.2676,0,0.000885,0,0
0:4:2.468,458.118,58.3296,0,0.000885,0,0
0:4:2.769,458.821,58.4193,0,0.000885,0,0
0:4:3.069,459.879,58.5503,0,0.000885,0,0
0:4:3.369,460.115,58.5848,0,0.000885,0,0
0:4:3.664,460.698,58.6606,0,0.000885,0,0
0:4:3.962,460.934,58.6882,0,0.000885,0,0
0:4:4.257,461.579,58.7709,0,0.000885,0,0
0:4:4.553,462.166,58.8468,0,0.000885,0,0
0:4:4.853,462.695,58.9088,0,0.000885,0,0
0:4:5.146,463.514,59.0191,0,0.000885,0,0
0:4:5.446,463.927,59.0674,0,0.000885,0,0
0:4:5.738,464.804,59.1777,0,0.000885,0,0
0:4:6.035,464.982,59.2053,0,0.000885,0,0
0:4:6.334,466.036,59.3363,0,0.000885,0,0
0:4:6.635,465.978,59.3294,0,0.000885,0,0
0:4:6.938,467.032,59.4673,0,0.000885,0,0
0:4:7.237,467.677,59.55,0,0.000885,0,0
0:4:7.538,467.913,59.5776,0,0.000885,0,0
0:4:7.838,468.851,59.6948,0,0.000885,0,0
0:4:8.133,469.439,59.7707,0,0.000885,0,0
0:4:8.434,470.141,59.8603,0,0.000885,0,0
0:4:8.727,470.786,59.943,0,0.000885,0,0
0:4:9.027,471.374,60.0189,0,0.000885,0,0
0:4:9.332,471.725,60.0602,0,0.000885,0,0
0:4:9.635,472.312,60.1361,0,0.000885,0,0
0:4:9.934,473.015,60.2257,0,0.000885,0,0
0:4:10.230,473.602,60.3015,0,0.000885,0,0
0:4:10.527,473.722,60.3153,0,0.000885,0,0
0:4:10.823,474.599,60.4257,0,0.000885,0,0
0:4:11.129,475.012,60.4808,0,0.000885,0,0
0:4:11.437,475.715,60.5704,0,0.000885,0,0
0:4:11.742,476.654,60.6877,0,0.000885,0,0
0:4:12.043,476.885,60.7221,0,0.000885,0,0
0:4:12.344,477.65,60.8187,0,0.000885,0,0
0:4:12.644,478.059,60.8669,0,0.000885,0,0
0:4:12.945,478.998,60.991,0,0.000885,0,0
0:4:13.239,479.643,61.0669,0,0.000885,0,0
0:4:13.538,480.114,61.1289,0,0.000885,0,0
0:4:13.832,480.817,61.2185,0,0.000885,0,0
0:4:14.130,481.284,61.2806,0,0.000885,0,0
0:4:14.437,481.929,61.3633,0,0.000885,0,0
0:4:14.740,482.459,61.4254,0,0.000885,0,0
0:4:15.039,483.161,61.515,0,0.000885,0,0
0:4:15.346,483.455,61.5564,0,0.000885,0,0
0:4:15.643,484.336,61.6667,0,0.000885,0,0
0:4:15.949,485.039,61.7563,0,0.000885,0,0
0:4:16.243,485.039,61.7563,0,0.000885,0,0
0:4:16.544,485.919,61.8667,0,0.000885,0,0
0:4:16.848,486.271,61.9149,0,0.000885,0,0
0:4:17.148,486.858,61.9908,0,0.000885,0,0
0:4:17.449,487.912,62.1218,0,0.000885,0,0
0:4:17.748,488.557,62.2045,0,0.000885,0,0
0:4:18.049,489.144,62.2803,0,0.000885,0,0
0:4:18.351,489.086,62.2734,0,0.000885,0,0
0:4:18.651,490.025,62.3907,0,0.000885,0,0
0:4:18.946,490.319,62.432,0,0.000885,0,0
0:4:19.240,491.315,62.5561,0,0.000885,0,0
0:4:19.537,491.431,62.5699,0,0.000885,0,0
0:4:19.831,492.196,62.6664,0,0.000885,0,0
0:4:20.131,493.37,62.8181,0,0.000885,0,0
0:4:20.435,493.601,62.8457,0,0.000885,0,0
0:4:20.733,494.304,62.9353,0,0.000885,0,0
0:4:21.030,494.66,62.9836,0,0.000885,0,0
0:4:21.333,495.363,63.0732,0,0.000885,0,0
0:4:21.634,495.772,63.1215,0,0.000885,0,0
0:4:21.936,496.417,63.2042,0,0.000885,0,0
0:4:22.237,497.062,63.287,0,0.000885,0,0
0:4:22.536,497.591,63.3559,0,0.000885,0,0
0:4:22.837,498.294,63.4456,0,0.000885,0,0
0:4:23.136,498.703,63.4938,0,0.000885,0,0
0:4:23.430,499.291,63.5697,0,0.000885,0,0
0:4:23.730,499.762,63.6317,0,0.000885,0,0
0:4:24.026,500.638,63.742,0,0.000885,0,0
0:4:24.322,501.168,63.811,0,0.000885,0,0
0:4:24.619,501.519,63.8523,0,0.000885,0,0
0:4:24.914,502.222,63.942,0,0.000885,0,0
0:4:25.213,502.578,63.9902,0,0.000885,0,0
0:4:25.507,503.281,64.0799,0,0.000885,0,0
0:4:25.804,503.868,64.1557,0,0.000885,0,0
0:4:26.102,504.806,64.2729,0,0.000885,0,0
0:4:26.394,505.273,64.335,0,0.000885,0,0
0:4:26.694,505.273,64.335,0,0.000885,0,0
0:4:26.997,506.154,64.4453,0,0.000885,0,0
0:4:27.299,506.857,64.5349,0,0.000885,0,0
0:4:27.601,507.738,64.6452,0,0.000885,0,0
0:4:27.900,507.974,64.6797,0,0.000885,0,0
0:4:28.202,508.734,64.7762,0,0.000885,0,0
0:4:28.497,509.495,64.8728,0,0.000885,0,0
0:4:28.794,510.024,64.9417,0,0.000885,0,0
0:4:29.087,510.789,65.0382,0,0.000885,0,0
0:4:29.383,511.372,65.1072,0,0.000885,0,0
0:4:29.683,511.666,65.1486,0,0.000885,0,0
0:4:29.976,512.195,65.2175,0,0.000885,0,0
0:4:30.277,513.133,65.3347,0,0.000885,0,0
0:4:30.572,513.485,65.3761,0,0.000885,0,0
0:4:30.867,514.308,65.4864,0,0.000885,0,0
0:4:31.165,514.481,65.5071,0,0.000885,0,0
0:4:31.467,515.536,65.6381,0,0.000885,0,0
0:4:31.771,516.185,65.7208,0,0.000885,0,0
0:4:32.071,516.301,65.7346,0,0.000885,0,0
0:4:32.372,516.888,65.8105,0,0.000885,0,0
0:4:32.674,517.475,65.8863,0,0.000885,0,0
0:4:32.970,518.414,66.0035,0,0.000885,0,0
0:4:33.270,518.881,66.0656,0,0.000885,0,0
0:4:33.565,519.059,66.0862,0,0.000885,0,0
0:4:33.863,519.997,66.2104,0,0.000885,0,0
0:4:34.158,520.055,66.2172,0,0.000885,0,0
0:4:34.454,521.461,66.3965,0,0.000885,0,0
0:4:34.754,521.99,66.4586,0,0.000885,0,0
0:4:35.047,522.577,66.5344,0,0.000885,0,0
0:4:35.346,523.164,66.6103,0,0.000885,0,0
0:4:35.638,523.458,66.6516,0,0.000885,0,0
0:4:35.936,524.392,66.7688,0,0.000885,0,0
0:4:36.233,524.921,66.8378,0,0.000885,0,0
0:4:36.534,525.215,66.8723,0,0.000885,0,0
0:4:36.837,526.211,66.9964,0,0.000885,0,0
0:4:37.136,526.683,67.0584,0,0.000885,0,0
0:4:37.437,527.501,67.1618,0,0.000885,0,0
0:4:37.737,527.795,67.2032,0,0.000885,0,0
0:4:38.040,528.146,67.2446,0,0.000885,0,0
0:4:38.338,528.324,67.2653,0,0.000885,0,0
0:4:38.633,528.854,67.3342,0,0.000885,0,0
0:4:38.934,529.85,67.4652,0,0.000885,0,0
0:4:39.237,529.908,67.4721,0,0.000885,0,0
0:4:39.534,530.904,67.5962,0,0.000885,0,0
0:4:39.832,531.313,67.6514,0,0.000885,0,0
0:4:40.134,532.43,67.7893,0,0.000885,0,0
0:4:40.434,533.017,67.8651,0,0.000885,0,0
0:4:40.728,533.191,67.8858,0,0.000885,0,0
0:4:41.027,533.836,67.9685,0,0.000885,0,0
0:4:41.323,534.187,68.0168,0,0.000885,0,0
0:4:41.625,535.303,68.1547,0,0.000885,0,0
0:4:41.927,536.358,68.2926,0,0.000885,0,0
0:4:42.226,536.3,68.2857,0,0.000885,0,0
0:4:42.526,537.003,68.3753,0,0.000885,0,0
0:4:42.826,537.354,68.4167,0,0.000885,0,0
0:4:43.125,538.413,68.5546,0,0.000885,0,0
0:4:43.421,538.938,68.6166,0,0.000885,0,0
0:4:43.715,539.293,68.6649,0,0.000885,0,0
0:4:44.013,539.409,68.6787,0,0.000885,0,0
0:4:44.306,539.876,68.7407,0,0.000885,0,0
0:4:44.606,540.815,68.8579,0,0.000885,0,0
0:4:44.900,541.811,68.9889,0,0.000885,0,0
0:4:45.196,542.167,69.0303,0,0.000885,0,0
0:4:45.493,542.576,69.0855,0,0.000885,0,0
0:4:45.786,543.221,69.1682,0,0.000885,0,0
0:4:46.086,543.866,69.244,0,0.000885,0,0
0:4:46.380,544.92,69.3819,0,0.000885,0,0
0:4:46.681,545.156,69.4095,0,0.000885,0,0
0:4:46.984,545.917,69.506,0,0.000885,0,0
0:4:47.285,545.979,69.5129,0,0.000885,0,0
0:4:47.586,546.682,69.6026,0,0.000885,0,0
0:4:47.886,547.736,69.7405,0,0.000885,0,0
0:4:48.186,547.856,69.7543,0,0.000885,0,0
0:4:48.479,548.617,69.8508,0,0.000885,0,0
0:4:48.778,548.795,69.8715,0,0.000885,0,0
0:4:49.073,549.791,70.0025,0,0.000885,0,0
0:4:49.369,550.494,70.0921,0,0.000885,0,0
0:4:49.668,551.023,70.1611,0,0.000885,0,0
0:4:49.961,551.548,70.2231,0,0.000885,0,0
0:4:50.261,552.02,70.2852,0,0.000885,0,0
0:4:50.556,552.896,70.3955,0,0.000885,0,0
0:4:50.853,553.541,70.4782,0,0.000885,0,0
0:4:51.149,554.013,70.5403,0,0.000885,0,0
0:4:51.450,554.364,70.5816,0,0.000885,0,0
0:4:51.754,554.836,70.6437,0,0.000885,0,0
0:4:52.055,556.241,70.8229,0,0.000885,0,0
0:4:52.356,556.063,70.8023,0,0.000885,0,0
0:4:52.656,556.828,70.8988,0,0.000885,0,0
0:4:52.951,557.064,70.9264,0,0.000885,0,0
0:4:53.250,557.825,71.0229,0,0.000885,0,0
0:4:53.542,559.115,71.1884,0,0.000885,0,0
0:4:53.841,559.115,71.1884,0,0.000885,0,0
0:4:54.144,559.88,71.2849,0,0.000885,0,0
0:4:54.442,559.88,71.2849,0,0.000885,0,0
0:4:54.739,560.934,71.4228,0,0.000885,0,0
0:4:55.044,561.521,71.4917,0,0.000885,0,0
0:4:55.341,562.166,71.5745,0,0.000885,0,0
0:4:55.647,562.46,71.6158,0,0.000885,0,0
0:4:55.944,563.278,71.7193,0,0.000885,0,0
0:4:56.240,563.865,71.7951,0,0.000885,0,0
0:4:56.541,564.51,71.8778,0,0.000885,0,0
0:4:56.843,564.688,71.8985,0,0.000885,0,0
0:4:57.144,565.507,72.002,0,0.000885,0,0
0:4:57.444,566.094,72.0778,0,0.000885,0,0
0:4:57.747,566.739,72.1605,0,0.000885,0,0
0:4:58.043,567.62,72.2708,0,0.000885,0,0
0:4:58.339,568.029,72.326,0,0.000885,0,0
0:4:58.653,568.323,72.3605,0,0.000885,0,0
0:4:58.953,569.377,72.4984,0,0.000885,0,0
0:4:59.245,569.613,72.526,0,0.000885,0,0
0:4:59.543,570.435,72.6294,0,0.000885,0,0
0:4:59.849,571.138,72.719,0,0.000885,0,0
0:5:0.144,571.432,72.7604,0,0.000885,0,0
0:5:0.444,572.193,72.8569,0,0.000885,0,0
0:5:0.747,572.78,72.9258,0,0.000885,0,0
0:5:1.044,572.958,72.9534,0,0.000885,0,0
0:5:1.350,573.776,73.0568,0,0.000885,0,0
0:5:1.652,574.95,73.2016,0,0.000885,0,0
0:5:1.955,575.008,73.2154,0,0.000885,0,0
0:5:2.257,575.889,73.3257,0,0.000885,0,0
0:5:2.558,576.125,73.3533,0,0.000885,0,0
0:5:2.856,576.361,73.3809,0,0.000885,0,0
0:5:3.158,577.53,73.5326,0,0.000885,0,0
0:5:3.452,578.233,73.6222,0,0.000885,0,0
0:5:3.748,578.295,73.6291,0,0.000885,0,0
0:5:4.054,579.528,73.7877,0,0.000885,0,0
0:5:4.348,579.879,73.8291,0,0.000885,0,0
0:5:4.648,579.759,73.8153,0,0.000885,0,0
0:5:4.950,581.111,73.9876,0,0.000885,0,0
0:5:5.250,581.694,74.0635,0,0.000885,0,0
0:5:5.544,582.165,74.1255,0,0.000885,0,0
0:5:5.839,582.517,74.1669,0,0.000885,0,0
0:5:6.136,583.513,74.2979,0,0.000885,0,0
0:5:6.438,584.1,74.3669,0,0.000885,0,0
0:5:6.739,584.394,74.4082,0,0.000885,0,0
0:5:7.040,584.861,74.4703,0,0.000885,0,0
0:5:7.342,585.862,74.5944,0,0.000885,0,0
0:5:7.643,585.862,74.5944,0,0.000885,0,0
0:5:7.937,587.032,74.7461,0,0.000885,0,0
0:5:8.237,587.503,74.8012,0,0.000885,0,0
0:5:8.531,588.5,74.9322,0,0.000885,0,0
0:5:8.838,588.322,74.9046,0,0.000885,0,0
0:5:9.144,588.851,74.9736,0,0.000885,0,0
0:5:9.440,589.732,75.0839,0,0.000885,0,0
0:5:9.740,590.141,75.1391,0,0.000885,0,0
0:5:10.032,590.964,75.2425,0,0.000885,0,0
0:5:10.332,591.489,75.3114,0,0.000885,0,0
0:5:10.629,592.076,75.3873,0,0.000885,0,0
0:5:10.936,592.548,75.4424,0,0.000885,0,0
0:5:11.235,593.135,75.5183,0,0.000885,0,0
0:5:11.538,593.958,75.6217,0,0.000885,0,0
0:5:11.842,594.603,75.7044,0,0.000885,0,0
0:5:12.144,595.305,75.7941,0,0.000885,0,0
0:5:12.446,595.777,75.8561,0,0.000885,0,0
0:5:12.751,596.538,75.9526,0,0.000885,0,0
0:5:13.043,596.658,75.9664,0,0.000885,0,0
0:5:13.344,597.418,76.063,0,0.000885,0,0
0:5:13.639,597.89,76.125,0,0.000885,0,0
0:5:13.941,598.593,76.2146,0,0.000885,0,0
0:5:14.236,600.118,76.4077,0,0.000885,0,0
0:5:14.533,600.59,76.4698,0,0.000885,0,0
0:5:14.841,600.296,76.4353,0,0.000885,0,0
0:5:15.149,601.293,76.5594,0,0.000885,0,0
0:5:15.450,601.408,76.5732,0,0.000885,0,0
0:5:15.742,601.702,76.6145,0,0.000885,0,0
0:5:16.043,602.761,76.7455,0,0.000885,0,0
0:5:16.341,603.17,76.8007,0,0.000885,0,0
0:5:16.643,603.641,76.8559,0,0.000885,0,0
0:5:16.950,604.696,76.9938,0,0.000885,0,0
0:5:17.253,605.109,77.042,0,0.000885,0,0
0:5:17.555,605.812,77.1316,0,0.000885,0,0
0:5:17.857,606.519,77.2213,0,0.000885,0,0
0:5:18.154,606.635,77.242,0,0.000885,0,0
0:5:18.453,607.222,77.3109,0,0.000885,0,0
0:5:18.745,607.867,77.3937,0,0.000885,0,0
0:5:19.049,608.632,77.4902,0,0.000885,0,0
0:5:19.342,609.277,77.5729,0,0.000885,0,0
0:5:19.640,609.042,77.5453,0,0.000885,0,0
0:5:19.937,609.22,77.566,0,0.000885,0,0
0:5:20.234,609.744,77.635,0,0.000885,0,0
0:5:20.534,610.683,77.7522,0,0.000885,0,0
0:5:20.837,611.27,77.828,0,0.000885,0,0
0:5:21.140,611.564,77.8694,0,0.000885,0,0
0:5:21.444,612.329,77.9659,0,0.000885,0,0
0:5:21.747,613.152,78.0693,0,0.000885,0,0
0:5:22.051,613.619,78.1314,0,0.000885,0,0
0:5:22.351,611.684,77.8832,0,0.000885,0,0
0:5:22.653,611.332,77.8349,0,0.000885,0,0
0:5:22.957,611.506,77.8625,0,0.000885,0,0
0:5:23.256,603.112,76.7938,0,0.000885,0,0
0:5:23.554,536.536,68.3133,0,0.000885,0,0
0:5:23.845,517.003,65.8242,0,0.000885,0,0
0:5:24.142,514.188,65.4657,0,0.000885,0,0
0:5:24.436,514.539,65.514,0,0.000885,0,0
0:5:24.735,514.833,65.5485,0,0.000885,0,0
0:5:25.037,516.065,65.707,0,0.000885,0,0
0:5:25.333,517.297,65.8656,0,0.000885,0,0
0:5:25.629,518.707,66.0449,0,0.000885,0,0
0:5:25.923,513.836,65.4244,0,0.000885,0,0
0:5:26.222,433.074,55.1443,0,0.000885,0,0
0:5:26.253,433.074,55.1443,0,0.000885,0,0