File: DataFile2021-07-15_073205.csv
Test ID:,Date Tested:,Time:,Test Type:,Diameter Avg. (mm):,Cyl. Corr. Factor:,Height (mm):,Age (days):,Weight (kN):,Break Type:,Ramp Rate (MPa/s):,Load at Break (kN):,Stress at Break (MPa):
12,7/15/2021,07:32,Cylinder,100,1,200,0,3.6,3,0.25,1277.98,162.72
Sample Time,Load (kN),Stress (MPa),Long. Strain,Trans. Strain,Chan1 Deflection (mm),Chan2 Deflection (mm)
0:0:6.970,5.28004,0.668791,0,0.000885,0,0
0:0:7.563,6.27644,0.799792,0,0.000885,0,0
0:0:8.159,7.27284,0.923897,0,0.000885,0,0
0:0:8.755,9.03434,1.15142,0,0.000885,0,0
0:0:9.349,9.20782,1.17211,0,0.000885,0,0
0:0:9.947,10.6179,1.35137,0,0.000885,0,0
0:0:10.544,11.9079,1.51685,0,0.000885,0,0
0:0:11.139,12.9043,1.64095,0,0.000885,0,0
0:0:11.733,14.5457,1.85469,0,0.000885,0,0
0:0:12.338,14.9549,1.90295,0,0.000885,0,0
0:0:12.943,16.0136,2.04085,0,0.000885,0,0
0:0:13.548,18.0642,2.30285,0,0.000885,0,0
0:0:14.146,18.5936,2.3649,0,0.000885,0,0
0:0:14.742,20.1771,2.57174,0,0.000885,0,0
0:0:15.338,21.4093,2.72343,0,0.000885,0,0
0:0:15.932,22.5213,2.86822,0,0.000885,0,0
0:0:16.530,24.2206,3.08196,0,0.000885,0,0
0:0:17.127,24.87,3.16469,0,0.000885,0,0
0:0:17.733,26.4536,3.36464,0,0.000885,0,0
0:0:18.340,27.272,3.47496,0,0.000885,0,0
0:0:18.941,29.4428,3.75075,0,0.000885,0,0
0:0:19.538,30.5548,3.88864,0,0.000885,0,0
0:0:20.133,31.1998,3.97138,0,0.000885,0,0
0:0:20.732,32.3163,4.11617,0,0.000885,0,0
0:0:21.329,33.4328,4.25407,0,0.000885,0,0
0:0:21.927,34.6027,4.40575,0,0.000885,0,0
0:0:22.525,35.5413,4.52296,0,0.000885,0,0
0:0:23.134,37.1827,4.7367,0,0.000885,0,0
0:0:23.738,38.357,4.88149,0,0.000885,0,0
0:0:24.337,39.0598,4.97112,0,0.000885,0,0
0:0:24.937,40.3498,5.13659,0,0.000885,0,0
0:0:25.532,41.7021,5.30896,0,0.000885,0,0
0:0:26.129,43.2856,5.50891,0,0.000885,0,0
0:0:26.725,43.7527,5.57096,0,0.000885,0,0
0:0:27.321,44.9849,5.72954,0,0.000885,0,0
0:0:27.928,46.217,5.88123,0,0.000885,0,0
0:0:28.535,46.9198,5.97086,0,0.000885,0,0
0:0:29.141,48.8548,6.21907,0,0.000885,0,0
0:0:29.735,49.8512,6.35007,0,0.000885,0,0
0:0:30.331,51.4348,6.55002,0,0.000885,0,0
0:0:30.927,52.2577,6.65344,0,0.000885,0,0
0:0:31.526,53.4899,6.81202,0,0.000885,0,0
0:0:32.124,54.1349,6.89476,0,0.000885,0,0
0:0:32.732,55.7763,7.1016,0,0.000885,0,0
0:0:33.338,57.0662,7.26707,0,0.000885,0,0
0:0:33.935,57.7112,7.34981,0,0.000885,0,0
0:0:34.533,59.2948,7.54976,0,0.000885,0,0
0:0:35.133,60.4113,7.69455,0,0.000885,0,0
0:0:35.731,61.8748,7.88071,0,0.000885,0,0
0:0:36.328,62.6399,7.97723,0,0.000885,0,0
0:0:36.923,63.3427,8.06687,0,0.000885,0,0
0:0:37.524,64.9841,8.27371,0,0.000885,0,0
0:0:38.132,66.3942,8.45297,0,0.000885,0,0
0:0:38.739,67.9154,8.64603,0,0.000885,0,0
0:0:39.337,68.7962,8.75634,0,0.000885,0,0
0:0:39.935,70.2641,8.94939,0,0.000885,0,0
0:0:40.531,71.4963,9.10108,0,0.000885,0,0
0:0:41.125,71.9633,9.16313,0,0.000885,0,0
0:0:41.722,73.1955,9.32171,0,0.000885,0,0
0:0:42.321,74.3698,9.4665,0,0.000885,0,0
0:0:42.928,75.7176,9.63887,0,0.000885,0,0
0:0:43.533,76.892,9.79056,0,0.000885,0,0
0:0:44.135,78.2976,9.96982,0,0.000885,0,0
0:0:44.730,79.2362,10.087,0,0.000885,0,0
0:0:45.327,80.4105,10.2387,0,0.000885,0,0
0:0:45.926,81.2912,10.349,0,0.000885,0,0
0:0:46.525,82.9905,10.5697,0,0.000885,0,0
0:0:47.123,83.6933,10.6593,0,0.000885,0,0
0:0:47.730,85.1612,10.8455,0,0.000885,0,0
0:0:48.334,86.5668,11.0247,0,0.000885,0,0
0:0:48.934,87.5054,11.1419,0,0.000885,0,0
0:0:49.533,88.7376,11.3005,0,0.000885,0,0
0:0:50.130,89.8541,11.4384,0,0.000885,0,0
0:0:50.729,91.1441,11.6039,0,0.000885,0,0
0:0:51.323,92.1405,11.7349,0,0.000885,0,0
0:0:51.918,92.8433,11.8245,0,0.000885,0,0
0:0:52.523,94.4268,12.0245,0,0.000885,0,0
0:0:53.128,95.8369,12.2037,0,0.000885,0,0
0:0:53.733,96.7132,12.314,0,0.000885,0,0
0:0:54.332,98.0032,12.4795,0,0.000885,0,0
0:0:54.928,99.7647,12.7001,0,0.000885,0,0
0:0:55.524,100.41,12.7829,0,0.000885,0,0
0:0:56.119,101.7,12.9484,0,0.000885,0,0
0:0:56.719,103.341,13.1552,0,0.000885,0,0
0:0:57.315,103.577,13.1897,0,0.000885,0,0
0:0:57.923,105.57,13.4448,0,0.000885,0,0
0:0:58.527,106.277,13.5344,0,0.000885,0,0
0:0:59.128,107.798,13.7275,0,0.000885,0,0
0:0:59.724,108.328,13.7895,0,0.000885,0,0
0:1:0.321,109.675,13.9619,0,0.000885,0,0
0:1:0.921,110.672,14.0929,0,0.000885,0,0
0:1:1.519,112.082,14.2721,0,0.000885,0,0
0:1:2.116,113.487,14.4514,0,0.000885,0,0
0:1:2.715,114.546,14.5824,0,0.000885,0,0
0:1:3.323,116.13,14.7893,0,0.000885,0,0
0:1:3.927,117.184,14.9203,0,0.000885,0,0
0:1:4.527,118.532,15.0926,0,0.000885,0,0
0:1:5.125,119.235,15.1823,0,0.000885,0,0
0:1:5.720,120.173,15.2995,0,0.000885,0,0
0:1:6.315,121.525,15.4718,0,0.000885,0,0
0:1:6.911,122.637,15.6166,0,0.000885,0,0
0:1:7.518,124.048,15.7959,0,0.000885,0,0
0:1:8.125,125.102,15.9269,0,0.000885,0,0
0:1:8.728,126.743,16.1406,0,0.000885,0,0
0:1:9.324,127.388,16.2165,0,0.000885,0,0
0:1:9.918,128.736,16.3888,0,0.000885,0,0
0:1:10.514,129.559,16.4992,0,0.000885,0,0
0:1:11.111,130.907,16.6646,0,0.000885,0,0
0:1:11.712,132.548,16.8784,0,0.000885,0,0
0:1:12.310,133.193,16.9611,0,0.000885,0,0
0:1:12.917,134.897,17.1748,0,0.000885,0,0
0:1:13.521,136.071,17.3265,0,0.000885,0,0
0:1:14.121,137.125,17.4575,0,0.000885,0,0
0:1:14.719,138.18,17.5954,0,0.000885,0,0
0:1:15.317,139.527,17.7678,0,0.000885,0,0
0:1:15.913,140.528,17.8919,0,0.000885,0,0
0:1:16.508,141.111,17.9677,0,0.000885,0,0
0:1:17.103,142.285,18.1194,0,0.000885,0,0
0:1:17.713,144.278,18.3676,0,0.000885,0,0
0:1:18.317,144.928,18.4504,0,0.000885,0,0
0:1:18.922,146.217,18.6158,0,0.000885,0,0
0:1:19.517,147.507,18.7813,0,0.000885,0,0
0:1:20.112,148.913,18.9606,0,0.000885,0,0
0:1:20.708,149.558,19.0433,0,0.000885,0,0
0:1:21.308,151.084,19.2364,0,0.000885,0,0
0:1:21.905,152.316,19.395,0,0.000885,0,0
0:1:22.503,153.255,19.5122,0,0.000885,0,0
0:1:23.112,154.896,19.719,0,0.000885,0,0
0:1:23.716,155.892,19.85,0,0.000885,0,0
0:1:24.313,156.657,19.9465,0,0.000885,0,0
0:1:24.910,157.654,20.0706,0,0.000885,0,0
0:1:25.509,159.531,20.312,0,0.000885,0,0
0:1:26.104,161.052,20.505,0,0.000885,0,0
0:1:26.700,161.933,20.6153,0,0.000885,0,0
0:1:27.303,163.223,20.7808,0,0.000885,0,0
0:1:27.909,163.574,20.8291,0,0.000885,0,0
0:1:28.514,165.1,21.0221,0,0.000885,0,0
0:1:29.113,165.865,21.1186,0,0.000885,0,0
0:1:29.709,167.565,21.3324,0,0.000885,0,0
0:1:30.305,168.445,21.4496,0,0.000885,0,0
0:1:30.903,169.557,21.5875,0,0.000885,0,0
0:1:31.502,171.377,21.8219,0,0.000885,0,0
0:1:32.109,172.373,21.946,0,0.000885,0,0
0:1:32.716,173.899,22.1391,0,0.000885,0,0
0:1:33.320,174.953,22.277,0,0.000885,0,0
0:1:33.920,175.892,22.3942,0,0.000885,0,0
0:1:34.516,177.182,22.5596,0,0.000885,0,0
0:1:35.117,178.24,22.6906,0,0.000885,0,0
0:1:35.714,179.53,22.8561,0,0.000885,0,0
0:1:36.310,180.936,23.0354,0,0.000885,0,0
0:1:36.905,181.465,23.1043,0,0.000885,0,0
0:1:37.510,182.404,23.2215,0,0.000885,0,0
0:1:38.117,183.867,23.4077,0,0.000885,0,0
0:1:38.722,185.219,23.5801,0,0.000885,0,0
0:1:39.321,186.509,23.7455,0,0.000885,0,0
0:1:39.915,187.742,23.9041,0,0.000885,0,0
0:1:40.511,188.387,23.9869,0,0.000885,0,0
0:1:41.109,190.086,24.2006,0,0.000885,0,0
0:1:41.707,190.731,24.2833,0,0.000885,0,0
0:1:42.305,192.55,24.5178,0,0.000885,0,0
0:1:42.908,193.195,24.6005,0,0.000885,0,0
0:1:43.509,195.072,24.8349,0,0.000885,0,0
0:1:44.105,196.127,24.9728,0,0.000885,0,0
0:1:44.708,196.949,25.0762,0,0.000885,0,0
0:1:45.301,198.355,25.2555,0,0.000885,0,0
0:1:45.904,199.587,25.4141,0,0.000885,0,0
0:1:46.507,200.935,25.5864,0,0.000885,0,0
0:1:47.107,201.7,25.683,0,0.000885,0,0
0:1:47.704,202.403,25.7726,0,0.000885,0,0
0:1:48.308,203.751,25.945,0,0.000885,0,0
0:1:48.908,205.041,26.1036,0,0.000885,0,0
0:1:49.504,206.273,26.2621,0,0.000885,0,0
0:1:50.106,207.447,26.4138,0,0.000885,0,0
0:1:50.707,208.795,26.5862,0,0.000885,0,0
0:1:51.308,209.969,26.731,0,0.000885,0,0
0:1:51.901,211.081,26.8758,0,0.000885,0,0
0:1:52.504,212.492,27.055,0,0.000885,0,0
0:1:53.105,213.488,27.1791,0,0.000885,0,0
0:1:53.705,214.72,27.3377,0,0.000885,0,0
0:1:54.306,215.832,27.4825,0,0.000885,0,0
0:1:54.905,216.949,27.6204,0,0.000885,0,0
0:1:55.508,218.123,27.7721,0,0.000885,0,0
0:1:56.103,219.529,27.9513,0,0.000885,0,0
0:1:56.706,220.409,28.0617,0,0.000885,0,0
0:1:57.308,222.229,28.2961,0,0.000885,0,0
0:1:57.912,223.167,28.4133,0,0.000885,0,0
0:1:58.511,223.87,28.5029,0,0.000885,0,0
0:1:59.104,225.627,28.7305,0,0.000885,0,0
0:1:59.707,226.566,28.8477,0,0.000885,0,0
0:2:0.310,227.389,28.9511,0,0.000885,0,0
0:2:0.904,228.914,29.1441,0,0.000885,0,0
0:2:1.494,230.084,29.2958,0,0.000885,0,0
0:2:2.094,230.849,29.3924,0,0.000885,0,0
0:2:2.694,232.019,29.544,0,0.000885,0,0
0:2:3.296,233.487,29.7302,0,0.000885,0,0
0:2:3.898,234.604,29.8681,0,0.000885,0,0
0:2:4.503,235.951,30.0405,0,0.000885,0,0
0:2:5.105,236.654,30.1301,0,0.000885,0,0
0:2:5.705,238.238,30.33,0,0.000885,0,0
0:2:6.308,239.648,30.5093,0,0.000885,0,0
0:2:6.898,240.351,30.5989,0,0.000885,0,0
0:2:7.504,241.583,30.7575,0,0.000885,0,0
0:2:8.105,243.224,30.9712,0,0.000885,0,0
0:2:8.703,243.985,31.0678,0,0.000885,0,0
0:2:9.305,245.511,31.2608,0,0.000885,0,0
0:2:9.905,246.685,31.4056,0,0.000885,0,0
0:2:10.498,247.503,31.5159,0,0.000885,0,0
0:2:11.105,248.736,31.6676,0,0.000885,0,0
0:2:11.694,249.852,31.8124,0,0.000885,0,0
0:2:12.311,251.2,31.9848,0,0.000885,0,0
0:2:12.915,252.254,32.1158,0,0.000885,0,0
0:2:13.515,253.664,32.295,0,0.000885,0,0
0:2:14.109,254.834,32.4467,0,0.000885,0,0
0:2:14.704,255.951,32.5915,0,0.000885,0,0
0:2:15.306,257.005,32.7225,0,0.000885,0,0
0:2:15.908,258.295,32.888,0,0.000885,0,0
0:2:16.498,259.527,33.0466,0,0.000885,0,0
0:2:17.098,260.292,33.1431,0,0.000885,0,0
0:2:17.703,261.698,33.3224,0,0.000885,0,0
0:2:18.305,263.339,33.5292,0,0.000885,0,0
0:2:18.905,263.926,33.605,0,0.000885,0,0
0:2:19.505,265.274,33.7774,0,0.000885,0,0
0:2:20.107,266.626,33.9498,0,0.000885,0,0
0:2:20.696,267.565,34.067,0,0.000885,0,0
0:2:21.311,268.619,34.2049,0,0.000885,0,0
0:2:21.905,269.851,34.3566,0,0.000885,0,0
0:2:22.495,271.141,34.522,0,0.000885,0,0
0:2:23.100,272.022,34.6324,0,0.000885,0,0
0:2:23.704,274.015,34.8875,0,0.000885,0,0
0:2:24.308,275.069,35.0254,0,0.000885,0,0
0:2:24.910,275.95,35.1357,0,0.000885,0,0
0:2:25.504,277.298,35.3081,0,0.000885,0,0
0:2:26.108,277.769,35.3632,0,0.000885,0,0
0:2:26.698,279.762,35.6183,0,0.000885,0,0
0:2:27.295,280.701,35.7424,0,0.000885,0,0
0:2:27.899,282.048,35.9148,0,0.000885,0,0
0:2:28.495,283.107,36.0458,0,0.000885,0,0
0:2:29.101,284.455,36.2182,0,0.000885,0,0
0:2:29.693,284.984,36.2871,0,0.000885,0,0
0:2:30.307,286.274,36.4526,0,0.000885,0,0
0:2:30.906,287.738,36.6387,0,0.000885,0,0
0:2:31.509,289.263,36.8318,0,0.000885,0,0
0:2:32.101,290.553,36.9973,0,0.000885,0,0
0:2:32.706,291.376,37.1007,0,0.000885,0,0
0:2:33.308,292.782,37.28,0,0.000885,0,0
0:2:33.915,293.547,37.3765,0,0.000885,0,0
0:2:34.505,294.895,37.5488,0,0.000885,0,0
0:2:35.106,295.776,37.6592,0,0.000885,0,0
0:2:35.699,296.594,37.7626,0,0.000885,0,0
0:2:36.301,298.12,37.9556,0,0.000885,0,0
0:2:36.895,299.588,38.1418,0,0.000885,0,0
0:2:37.499,300.993,38.3211,0,0.000885,0,0
0:2:38.106,301.816,38.4314,0,0.000885,0,0
0:2:38.703,302.928,38.5693,0,0.000885,0,0
0:2:39.295,304.454,38.7623,0,0.000885,0,0
0:2:39.890,305.686,38.9209,0,0.000885,0,0
0:2:40.505,306.509,39.0243,0,0.000885,0,0
0:2:41.107,307.857,39.1967,0,0.000885,0,0
0:2:41.707,308.618,39.2932,0,0.000885,0,0
0:2:42.308,309.97,39.4656,0,0.000885,0,0
0:2:42.910,311.433,39.6517,0,0.000885,0,0
0:2:43.511,312.901,39.8379,0,0.000885,0,0
0:2:44.101,313.604,39.9275,0,0.000885,0,0
0:2:44.702,314.485,40.0448,0,0.000885,0,0
0:2:45.303,315.89,40.2171,0,0.000885,0,0
0:2:45.903,317.358,40.4102,0,0.000885,0,0
0:2:46.510,318.061,40.4998,0,0.000885,0,0
0:2:47.113,319.529,40.686,0,0.000885,0,0
0:2:47.716,320.877,40.8583,0,0.000885,0,0
0:2:48.317,321.993,40.9962,0,0.000885,0,0
0:2:48.913,322.99,41.1272,0,0.000885,0,0
0:2:49.503,324.28,41.2858,0,0.000885,0,0
0:2:50.108,325.161,41.403,0,0.000885,0,0
0:2:50.712,326.624,41.5892,0,0.000885,0,0
0:2:51.315,327.856,41.7409,0,0.000885,0,0
0:2:51.906,328.501,41.8236,0,0.000885,0,0
0:2:52.503,330.378,42.0649,0,0.000885,0,0
0:2:53.107,331.433,42.2028,0,0.000885,0,0
0:2:53.704,332.491,42.3338,0,0.000885,0,0
0:2:54.310,333.488,42.4579,0,0.000885,0,0
0:2:54.902,334.835,42.6303,0,0.000885,0,0
0:2:55.503,336.535,42.8509,0,0.000885,0,0
0:2:56.103,337.242,42.9405,0,0.000885,0,0
0:2:56.707,338.238,43.0647,0,0.000885,0,0
0:2:57.310,339.644,43.2439,0,0.000885,0,0
0:2:57.914,340.818,43.3956,0,0.000885,0,0
0:2:58.515,342.344,43.5887,0,0.000885,0,0
0:2:59.114,343.576,43.7472,0,0.000885,0,0
0:2:59.702,344.337,43.8438,0,0.000885,0,0
0:3:0.305,345.275,43.961,0,0.000885,0,0
0:3:0.908,346.565,44.1264,0,0.000885,0,0
0:3:1.512,347.798,44.285,0,0.000885,0,0
0:3:2.116,348.972,44.4298,0,0.000885,0,0
0:3:2.719,350.262,44.5953,0,0.000885,0,0
0:3:3.319,351.903,44.809,0,0.000885,0,0
0:3:3.913,352.606,44.8987,0,0.000885,0,0
0:3:4.516,353.487,45.009,0,0.000885,0,0
0:3:5.109,354.661,45.1538,0,0.000885,0,0
0:3:5.701,355.951,45.3192,0,0.000885,0,0
0:3:6.313,357.241,45.4847,0,0.000885,0,0
0:3:6.901,358.06,45.5881,0,0.000885,0,0
0:3:7.500,359.47,45.7674,0,0.000885,0,0
0:3:8.104,360.817,45.9398,0,0.000885,0,0
0:3:8.705,362.107,46.1052,0,0.000885,0,0
0:3:9.310,363.575,46.2914,0,0.000885,0,0
0:3:9.912,364.22,46.3741,0,0.000885,0,0
0:3:10.501,365.626,46.5534,0,0.000885,0,0
0:3:11.115,366.391,46.6499,0,0.000885,0,0
0:3:11.709,368.148,46.8775,0,0.000885,0,0
0:3:12.311,368.5,46.9188,0,0.000885,0,0
0:3:12.915,369.79,47.0843,0,0.000885,0,0
0:3:13.516,371.902,47.3532,0,0.000885,0,0
0:3:14.112,372.547,47.4359,0,0.000885,0,0
0:3:14.701,374.247,47.6497,0,0.000885,0,0
0:3:15.305,374.776,47.7186,0,0.000885,0,0
0:3:15.910,375.83,47.8496,0,0.000885,0,0
0:3:16.502,377.005,48.0013,0,0.000885,0,0
0:3:17.104,378.179,48.153,0,0.000885,0,0
0:3:17.699,379.647,48.3391,0,0.000885,0,0
0:3:18.303,380.701,48.4701,0,0.000885,0,0
0:3:18.903,381.991,48.6356,0,0.000885,0,0
0:3:19.518,383.397,48.8149,0,0.000885,0,0
0:3:20.111,384.22,48.9183,0,0.000885,0,0
0:3:20.713,385.394,49.07,0,0.000885,0,0
0:3:21.314,387.151,49.2906,0,0.000885,0,0
0:3:21.914,388.383,49.4492,0,0.000885,0,0
0:3:22.517,389.028,49.5319,0,0.000885,0,0
0:3:23.118,389.851,49.6354,0,0.000885,0,0
0:3:23.717,391.141,49.8008,0,0.000885,0,0
0:3:24.307,392.022,49.9111,0,0.000885,0,0
0:3:24.911,393.721,50.1318,0,0.000885,0,0
0:3:25.501,394.775,50.2628,0,0.000885,0,0
0:3:26.104,396.301,50.4558,0,0.000885,0,0
0:3:26.711,397.591,50.6213,0,0.000885,0,0
0:3:27.302,398.65,50.7592,0,0.000885,0,0
0:3:27.906,399.646,50.8833,0,0.000885,0,0
0:3:28.505,400.878,51.0419,0,0.000885,0,0
0:3:29.119,401.345,51.1039,0,0.000885,0,0
0:3:29.713,403.107,51.3246,0,0.000885,0,0
0:3:30.317,404.219,51.4694,0,0.000885,0,0
0:3:30.906,405.1,51.5797,0,0.000885,0,0
0:3:31.501,406.567,51.7658,0,0.000885,0,0
0:3:32.114,407.973,51.9451,0,0.000885,0,0
0:3:32.722,409.441,52.1313,0,0.000885,0,0
0:3:33.325,410.259,52.2347,0,0.000885,0,0
0:3:33.926,411.376,52.3795,0,0.000885,0,0
0:3:34.521,412.315,52.4967,0,0.000885,0,0
0:3:35.114,413.427,52.6415,0,0.000885,0,0
0:3:35.712,414.774,52.8138,0,0.000885,0,0
0:3:36.313,416.478,53.0276,0,0.000885,0,0
0:3:36.904,417.239,53.1241,0,0.000885,0,0
0:3:37.506,418.119,53.2344,0,0.000885,0,0
0:3:38.106,419.761,53.4482,0,0.000885,0,0
0:3:38.706,421.051,53.6067,0,0.000885,0,0
0:3:39.306,422.225,53.7584,0,0.000885,0,0
0:3:39.919,423.515,53.9239,0,0.000885,0,0
0:3:40.512,424.569,54.0549,0,0.000885,0,0
0:3:41.114,425.45,54.1721,0,0.000885,0,0
0:3:41.707,426.331,54.2824,0,0.000885,0,0
0:3:42.312,427.621,54.4479,0,0.000885,0,0
0:3:42.916,428.559,54.5651,0,0.000885,0,0
0:3:43.517,429.965,54.7444,0,0.000885,0,0
0:3:44.112,431.784,54.9788,0,0.000885,0,0
0:3:44.716,433.31,55.1718,0,0.000885,0,0
0:3:45.320,434.364,55.3028,0,0.000885,0,0
0:3:45.913,435.187,55.4063,0,0.000885,0,0
0:3:46.512,436.006,55.5166,0,0.000885,0,0
0:3:47.114,436.887,55.6269,0,0.000885,0,0
0:3:47.718,438.177,55.7924,0,0.000885,0,0
0:3:48.319,439.76,55.9923,0,0.000885,0,0
0:3:48.919,440.934,56.144,0,0.000885,0,0
0:3:49.510,441.931,56.2681,0,0.000885,0,0
0:3:50.113,443.279,56.4405,0,0.000885,0,0
0:3:50.713,444.747,56.6266,0,0.000885,0,0
0:3:51.306,445.392,56.7094,0,0.000885,0,0
0:3:51.920,446.739,56.8817,0,0.000885,0,0
0:3:52.515,447.856,57.0196,0,0.000885,0,0
0:3:53.120,448.794,57.1437,0,0.000885,0,0
0:3:53.719,450.436,57.3506,0,0.000885,0,0
0:3:54.313,451.784,57.523,0,0.000885,0,0
0:3:54.916,452.9,57.6677,0,0.000885,0,0
0:3:55.511,453.781,57.7781,0,0.000885,0,0
0:3:56.102,454.893,57.916,0,0.000885,0,0
0:3:56.701,455.654,58.0125,0,0.000885,0,0
0:3:57.302,457.237,58.2193,0,0.000885,0,0
0:3:57.904,458.647,58.3986,0,0.000885,0,0
0:3:58.505,459.528,58.5089,0,0.000885,0,0
0:3:59.100,461.049,58.702,0,0.000885,0,0
0:3:59.710,461.757,58.7916,0,0.000885,0,0
0:4:0.311,463.162,58.9709,0,0.000885,0,0
0:4:0.904,464.337,59.1225,0,0.000885,0,0
0:4:1.519,465.862,59.3156,0,0.000885,0,0
0:4:2.112,466.623,59.4121,0,0.000885,0,0
0:4:2.718,467.855,59.5707,0,0.000885,0,0
0:4:3.319,468.972,59.7086,0,0.000885,0,0
0:4:3.923,470.786,59.943,0,0.000885,0,0
0:4:4.514,471.552,60.0395,0,0.000885,0,0
0:4:5.108,472.254,60.1292,0,0.000885,0,0
0:4:5.715,473.78,60.3222,0,0.000885,0,0
0:4:6.317,474.95,60.4739,0,0.000885,0,0
0:4:6.906,476.009,60.6049,0,0.000885,0,0
0:4:7.509,477.472,60.7911,0,0.000885,0,0
0:4:8.111,478.762,60.9565,0,0.000885,0,0
0:4:8.712,480.057,61.122,0,0.000885,0,0
0:4:9.317,480.991,61.2392,0,0.000885,0,0
0:4:9.924,481.991,61.3702,0,0.000885,0,0
0:4:10.516,482.81,61.4737,0,0.000885,0,0
0:4:11.108,484.807,61.7288,0,0.000885,0,0
0:4:11.703,485.861,61.8598,0,0.000885,0,0
0:4:12.317,486.742,61.977,0,0.000885,0,0
0:4:12.921,488.09,62.1424,0,0.000885,0,0
0:4:13.521,489.144,62.2803,0,0.000885,0,0
0:4:14.117,490.319,62.432,0,0.000885,0,0
0:4:14.721,491.199,62.5423,0,0.000885,0,0
0:4:15.312,492.841,62.7492,0,0.000885,0,0
0:4:15.917,493.837,62.8802,0,0.000885,0,0
0:4:16.507,495.363,63.0732,0,0.000885,0,0
0:4:17.107,496.123,63.1698,0,0.000885,0,0
0:4:17.709,497.24,63.3077,0,0.000885,0,0
0:4:18.313,498.997,63.5352,0,0.000885,0,0
0:4:18.915,499.878,63.6455,0,0.000885,0,0
0:4:19.518,501.519,63.8523,0,0.000885,0,0
0:4:20.119,502.164,63.9351,0,0.000885,0,0
0:4:20.719,502.987,64.0454,0,0.000885,0,0
0:4:21.310,504.393,64.2247,0,0.000885,0,0
0:4:21.916,505.803,64.4039,0,0.000885,0,0
0:4:22.520,507.035,64.5556,0,0.000885,0,0
0:4:23.121,507.738,64.6452,0,0.000885,0,0
0:4:23.719,509.206,64.8314,0,0.000885,0,0
0:4:24.321,510.433,64.99,0,0.000885,0,0
0:4:24.910,511.666,65.1486,0,0.000885,0,0
0:4:25.513,512.604,65.2658,0,0.000885,0,0
0:4:26.120,513.894,65.4312,0,0.000885,0,0
0:4:26.722,515.126,65.5898,0,0.000885,0,0
0:4:27.326,516.888,65.8105,0,0.000885,0,0
0:4:27.929,517.648,65.907,0,0.000885,0,0
0:4:28.529,518.293,65.9897,0,0.000885,0,0
0:4:29.124,519.641,66.1621,0,0.000885,0,0
0:4:29.718,520.642,66.2931,0,0.000885,0,0
0:4:30.319,521.874,66.4448,0,0.000885,0,0
0:4:30.920,522.986,66.5896,0,0.000885,0,0
0:4:31.522,523.458,66.6516,0,0.000885,0,0
0:4:32.110,524.392,66.7688,0,0.000885,0,0
0:4:32.713,526.389,67.0239,0,0.000885,0,0
0:4:33.315,528.854,67.3342,0,0.000885,0,0
0:4:33.915,529.85,67.4652,0,0.000885,0,0
0:4:34.507,531.313,67.6514,0,0.000885,0,0
0:4:35.120,532.546,67.803,0,0.000885,0,0
0:4:35.721,533.191,67.8858,0,0.000885,0,0
0:4:36.313,533.836,67.9685,0,0.000885,0,0
0:4:36.908,534.774,68.0926,0,0.000885,0,0
0:4:37.523,536.064,68.2512,0,0.000885,0,0
0:4:38.127,536.945,68.3684,0,0.000885,0,0
0:4:38.729,538.644,68.5822,0,0.000885,0,0
0:4:39.321,540.054,68.7614,0,0.000885,0,0
0:4:39.913,541.402,68.9338,0,0.000885,0,0
0:4:40.518,542.341,69.051,0,0.000885,0,0
0:4:41.109,543.395,69.1889,0,0.000885,0,0
0:4:41.701,544.16,69.2854,0,0.000885,0,0
0:4:42.306,544.978,69.3888,0,0.000885,0,0
0:4:42.910,546.095,69.5336,0,0.000885,0,0
0:4:43.511,547.678,69.7336,0,0.000885,0,0
0:4:44.127,549.026,69.9059,0,0.000885,0,0
0:4:44.722,550.846,70.1335,0,0.000885,0,0
0:4:45.311,551.9,70.2714,0,0.000885,0,0
0:4:45.902,553.425,70.4644,0,0.000885,0,0
0:4:46.514,554.128,70.5541,0,0.000885,0,0
0:4:47.116,555.36,70.7126,0,0.000885,0,0
0:4:47.721,556.183,70.8161,0,0.000885,0,0
0:4:48.323,557.647,71.0022,0,0.000885,0,0
0:4:48.922,558.412,71.0987,0,0.000885,0,0
0:4:49.512,560.289,71.3401,0,0.000885,0,0
0:4:50.112,561.05,71.4366,0,0.000885,0,0
0:4:50.707,561.93,71.5469,0,0.000885,0,0
0:4:51.301,563.692,71.7744,0,0.000885,0,0
0:4:51.904,564.568,71.8847,0,0.000885,0,0
0:4:52.517,566.272,72.0985,0,0.000885,0,0
0:4:53.122,567.148,72.2088,0,0.000885,0,0
0:4:53.723,567.913,72.3122,0,0.000885,0,0
0:4:54.315,569.203,72.4708,0,0.000885,0,0
0:4:54.922,570.258,72.6087,0,0.000885,0,0
0:4:55.524,571.783,72.8017,0,0.000885,0,0
0:4:56.125,572.313,72.8707,0,0.000885,0,0
0:4:56.725,574.012,73.0844,0,0.000885,0,0
0:4:57.316,575.008,73.2154,0,0.000885,0,0
0:4:57.922,576.476,73.4016,0,0.000885,0,0
0:4:58.524,577.588,73.5395,0,0.000885,0,0
0:4:59.126,578.94,73.7119,0,0.000885,0,0
0:4:59.714,580.11,73.8635,0,0.000885,0,0
0:5:0.316,581.169,73.9945,0,0.000885,0,0
0:5:0.907,582.633,74.1807,0,0.000885,0,0
0:5:1.511,583.629,74.3117,0,0.000885,0,0
0:5:2.125,584.63,74.4358,0,0.000885,0,0
0:5:2.728,585.212,74.5116,0,0.000885,0,0
0:5:3.328,586.916,74.7254,0,0.000885,0,0
0:5:3.925,588.264,74.8977,0,0.000885,0,0
0:5:4.516,589.848,75.1046,0,0.000885,0,0
0:5:5.112,590.67,75.208,0,0.000885,0,0
0:5:5.708,591.08,75.2563,0,0.000885,0,0
0:5:6.305,592.726,75.47,0,0.000885,0,0
0:5:6.909,594.073,75.6424,0,0.000885,0,0
0:5:7.517,595.368,75.8079,0,0.000885,0,0
0:5:8.125,596.422,75.9389,0,0.000885,0,0
0:5:8.728,597.774,76.1112,0,0.000885,0,0
0:5:9.325,598.949,76.2629,0,0.000885,0,0
0:5:9.923,599.887,76.3801,0,0.000885,0,0
0:5:10.526,601.297,76.5594,0,0.000885,0,0
0:5:11.122,602.409,76.7042,0,0.000885,0,0
0:5:11.713,603.41,76.8283,0,0.000885,0,0
0:5:12.319,604.584,76.98,0,0.000885,0,0
0:5:12.928,605.754,77.1248,0,0.000885,0,0
0:5:13.532,606.755,77.2558,0,0.000885,0,0
0:5:14.133,607.342,77.3316,0,0.000885,0,0
0:5:14.727,609.513,77.6074,0,0.000885,0,0
0:5:15.323,610.803,77.7729,0,0.000885,0,0
0:5:15.930,611.684,77.8832,0,0.000885,0,0
0:5:16.527,612.916,78.0418,0,0.000885,0,0
0:5:17.123,614.442,78.2348,0,0.000885,0,0
0:5:17.730,615.091,78.3175,0,0.000885,0,0
0:5:18.333,616.911,78.5451,0,0.000885,0,0
0:5:18.931,617.907,78.6761,0,0.000885,0,0
0:5:19.528,618.61,78.7657,0,0.000885,0,0
0:5:20.124,620.198,78.9657,0,0.000885,0,0
0:5:20.718,621.488,79.1311,0,0.000885,0,0
0:5:21.314,622.546,79.2621,0,0.000885,0,0
0:5:21.916,623.365,79.3724,0,0.000885,0,0
0:5:22.517,624.072,79.4621,0,0.000885,0,0
0:5:23.126,625.598,79.6551,0,0.000885,0,0
0:5:23.728,626.416,79.7586,0,0.000885,0,0
0:5:24.327,628.414,80.0137,0,0.000885,0,0
0:5:24.920,629.179,80.1102,0,0.000885,0,0
0:5:25.526,630.584,80.2894,0,0.000885,0,0
0:5:26.118,631.759,80.4411,0,0.000885,0,0
0:5:26.726,633.698,80.6824,0,0.000885,0,0
0:5:27.331,634.05,80.7307,0,0.000885,0,0
0:5:27.938,635.339,80.8962,0,0.000885,0,0
0:5:28.544,636.278,81.0134,0,0.000885,0,0
0:5:29.142,637.101,81.1168,0,0.000885,0,0
0:5:29.738,639.04,81.365,0,0.000885,0,0
0:5:30.334,640.152,81.5098,0,0.000885,0,0
0:5:30.932,641.211,81.6408,0,0.000885,0,0
0:5:31.528,642.559,81.8132,0,0.000885,0,0
0:5:32.126,643.208,81.8959,0,0.000885,0,0
0:5:32.734,644.378,82.0476,0,0.000885,0,0
0:5:33.337,646.26,82.282,0,0.000885,0,0
0:5:33.934,646.789,82.351,0,0.000885,0,0
0:5:34.531,647.959,82.5027,0,0.000885,0,0
0:5:35.127,649.489,82.6957,0,0.000885,0,0
0:5:35.721,650.544,82.8267,0,0.000885,0,0
0:5:36.314,651.718,82.9784,0,0.000885,0,0
0:5:36.918,653.244,83.1715,0,0.000885,0,0
0:5:37.521,654.124,83.2887,0,0.000885,0,0
0:5:38.130,655.592,83.4748,0,0.000885,0,0
0:5:38.729,655.944,83.5162,0,0.000885,0,0
0:5:39.327,657.883,83.7644,0,0.000885,0,0
0:5:39.931,658.995,83.9092,0,0.000885,0,0
0:5:40.524,660.112,84.0471,0,0.000885,0,0
0:5:41.117,661.228,84.1919,0,0.000885,0,0
0:5:41.725,662.109,84.3022,0,0.000885,0,0
0:5:42.320,663.692,84.5021,0,0.000885,0,0
0:5:42.928,664.631,84.6263,0,0.000885,0,0
0:5:43.533,666.277,84.8331,0,0.000885,0,0
0:5:44.131,667.331,84.9641,0,0.000885,0,0
0:5:44.727,668.621,85.1296,0,0.000885,0,0
0:5:45.321,669.444,85.233,0,0.000885,0,0
0:5:45.930,670.738,85.3985,0,0.000885,0,0
0:5:46.525,671.735,85.5295,0,0.000885,0,0
0:5:47.117,672.731,85.6536,0,0.000885,0,0
0:5:47.718,674.199,85.8397,0,0.000885,0,0
0:5:48.326,675.022,85.9431,0,0.000885,0,0
0:5:48.930,676.018,86.0741,0,0.000885,0,0
0:5:49.527,677.135,86.212,0,0.000885,0,0
0:5:50.121,679.19,86.474,0,0.000885,0,0
0:5:50.713,680.48,86.6395,0,0.000885,0,0
0:5:51.317,681.009,86.7085,0,0.000885,0,0
0:5:51.913,682.535,86.9015,0,0.000885,0,0
0:5:52.517,683.883,87.0739,0,0.000885,0,0
0:5:53.125,684.942,87.2118,0,0.000885,0,0
0:5:53.728,685.351,87.26,0,0.000885,0,0
0:5:54.321,687.055,87.4807,0,0.000885,0,0
0:5:54.913,687.82,87.5772,0,0.000885,0,0
0:5:55.518,689.345,87.7703,0,0.000885,0,0
0:5:56.114,690.813,87.9564,0,0.000885,0,0
0:5:56.711,691.4,88.0323,0,0.000885,0,0
0:5:57.308,692.984,88.2322,0,0.000885,0,0
0:5:57.914,694.332,88.4046,0,0.000885,0,0
0:5:58.516,695.742,88.5838,0,0.000885,0,0
0:5:59.113,696.445,88.6735,0,0.000885,0,0
0:5:59.712,697.446,88.8045,0,0.000885,0,0
0:6:0.308,699.265,89.032,0,0.000885,0,0
0:6:0.913,699.794,89.1009,0,0.000885,0,0
0:6:1.513,701.614,89.3354,0,0.000885,0,0
0:6:2.119,702.374,89.4319,0,0.000885,0,0
0:6:2.727,703.958,89.6318,0,0.000885,0,0
0:6:3.331,704.901,89.7491,0,0.000885,0,0
0:6:3.935,706.013,89.8938,0,0.000885,0,0
0:6:4.529,707.129,90.0317,0,0.000885,0,0
0:6:5.123,708.068,90.1558,0,0.000885,0,0
0:6:5.724,709.3,90.3144,0,0.000885,0,0
0:6:6.331,710.359,90.4454,0,0.000885,0,0
0:6:6.928,712,90.6523,0,0.000885,0,0
0:6:7.523,713.059,90.7902,0,0.000885,0,0
0:6:8.134,714.469,90.9694,0,0.000885,0,0
0:6:8.737,715.643,91.1211,0,0.000885,0,0
0:6:9.333,716.404,91.2176,0,0.000885,0,0
0:6:9.928,717.636,91.3693,0,0.000885,0,0
0:6:10.524,719.046,91.5486,0,0.000885,0,0
0:6:11.122,719.869,91.6589,0,0.000885,0,0
0:6:11.729,720.865,91.783,0,0.000885,0,0
0:6:12.323,722.569,91.9967,0,0.000885,0,0
0:6:12.931,723.801,92.1553,0,0.000885,0,0
0:6:13.533,725.385,92.3622,0,0.000885,0,0
0:6:14.131,726.088,92.4518,0,0.000885,0,0
0:6:14.725,727.324,92.6035,0,0.000885,0,0
0:6:15.321,728.201,92.7207,0,0.000885,0,0
0:6:15.923,729.023,92.8241,0,0.000885,0,0
0:6:16.518,730.785,93.0447,0,0.000885,0,0
0:6:17.112,731.959,93.1964,0,0.000885,0,0
0:6:17.718,733.312,93.3688,0,0.000885,0,0
0:6:18.325,734.481,93.5205,0,0.000885,0,0
0:6:18.930,735.482,93.6446,0,0.000885,0,0
0:6:19.521,736.537,93.7756,0,0.000885,0,0
0:6:20.136,737.653,93.9204,0,0.000885,0,0
0:6:20.733,738.649,94.0514,0,0.000885,0,0
0:6:21.329,740.411,94.272,0,0.000885,0,0
0:6:21.924,741.35,94.3892,0,0.000885,0,0
0:6:22.530,742.524,94.5409,0,0.000885,0,0
0:6:23.138,743.583,94.6788,0,0.000885,0,0
0:6:23.741,744.699,94.8167,0,0.000885,0,0
0:6:24.339,746.047,94.9891,0,0.000885,0,0
0:6:24.932,746.985,95.1063,0,0.000885,0,0
0:6:25.530,748.16,95.258,0,0.000885,0,0
0:6:26.124,749.685,95.451,0,0.000885,0,0
0:6:26.717,750.624,95.5751,0,0.000885,0,0
0:6:27.318,751.741,95.713,0,0.000885,0,0
0:6:27.924,753.266,95.9061,0,0.000885,0,0
0:6:28.530,754.383,96.0509,0,0.000885,0,0
0:6:29.135,755.793,96.2301,0,0.000885,0,0
0:6:29.730,756.554,96.3267,0,0.000885,0,0
0:6:30.323,757.906,96.499,0,0.000885,0,0
0:6:30.937,758.609,96.5887,0,0.000885,0,0
0:6:31.534,760.134,96.7817,0,0.000885,0,0
0:6:32.130,761.135,96.9127,0,0.000885,0,0
0:6:32.738,762.011,97.023,0,0.000885,0,0
0:6:33.343,763.715,97.2368,0,0.000885,0,0
0:6:33.941,764.712,97.3678,0,0.000885,0,0
0:6:34.537,766.651,97.616,0,0.000885,0,0
0:6:35.134,767.474,97.7194,0,0.000885,0,0
0:6:35.731,768.586,97.8573,0,0.000885,0,0
0:6:36.325,769.351,97.9538,0,0.000885,0,0
0:6:36.920,770.468,98.0986,0,0.000885,0,0
0:6:37.532,771.935,98.2848,0,0.000885,0,0
0:6:38.137,773.168,98.4433,0,0.000885,0,0
0:6:38.741,774.342,98.595,0,0.000885,0,0
0:6:39.339,775.454,98.7329,0,0.000885,0,0
0:6:39.933,776.513,98.8708,0,0.000885,0,0
0:6:40.535,777.861,99.0432,0,0.000885,0,0
0:6:41.130,778.919,99.1742,0,0.000885,0,0
0:6:41.736,780.036,99.319,0,0.000885,0,0
0:6:42.334,781.441,99.4982,0,0.000885,0,0
0:6:42.941,782.5,99.6292,0,0.000885,0,0
0:6:43.545,783.732,99.7878,0,0.000885,0,0
0:6:44.143,784.906,99.9395,0,0.000885,0,0
0:6:44.740,785.903,100.064,0,0.000885,0,0
0:6:45.337,787.077,100.215,0,0.000885,0,0
0:6:45.934,788.252,100.36,0,0.000885,0,0
0:6:46.526,789.604,100.532,0,0.000885,0,0
0:6:47.122,791.13,100.732,0,0.000885,0,0
0:6:47.723,792.126,100.857,0,0.000885,0,0
0:6:48.328,793.416,101.022,0,0.000885,0,0
0:6:48.936,794.297,101.132,0,0.000885,0,0
0:6:49.533,795.12,101.236,0,0.000885,0,0
0:6:50.135,796.294,101.387,0,0.000885,0,0
0:6:50.729,797.935,101.594,0,0.000885,0,0
0:6:51.323,799.052,101.739,0,0.000885,0,0
0:6:51.929,800.578,101.932,0,0.000885,0,0
0:6:52.537,801.458,102.042,0,0.000885,0,0
0:6:53.141,802.281,102.153,0,0.000885,0,0
0:6:53.744,803.456,102.298,0,0.000885,0,0
0:6:54.337,804.688,102.456,0,0.000885,0,0
0:6:54.932,806.213,102.649,0,0.000885,0,0
0:6:55.524,807.388,102.801,0,0.000885,0,0
0:6:56.121,808.62,102.959,0,0.000885,0,0
0:6:56.719,809.736,103.097,0,0.000885,0,0
0:6:57.326,810.675,103.221,0,0.000885,0,0
0:6:57.934,812.085,103.401,0,0.000885,0,0
0:6:58.537,812.846,103.497,0,0.000885,0,0
0:6:59.135,814.434,103.697,0,0.000885,0,0
0:6:59.740,815.252,103.801,0,0.000885,0,0
0:7:0.338,817.134,104.042,0,0.000885,0,0
0:7:0.932,818.13,104.166,0,0.000885,0,0
0:7:1.525,819.069,104.29,0,0.000885,0,0
0:7:2.140,820.185,104.428,0,0.000885,0,0
0:7:2.744,821.066,104.538,0,0.000885,0,0
0:7:3.349,822.828,104.766,0,0.000885,0,0
0:7:3.952,823.352,104.835,0,0.000885,0,0
0:7:4.548,825.172,105.062,0,0.000885,0,0
0:7:5.141,826.346,105.214,0,0.000885,0,0
0:7:5.735,827.347,105.338,0,0.000885,0,0
0:7:6.330,828.343,105.469,0,0.000885,0,0
0:7:6.926,829.576,105.628,0,0.000885,0,0
0:7:7.534,831.101,105.821,0,0.000885,0,0
0:7:8.141,832.102,105.945,0,0.000885,0,0
0:7:8.744,832.921,106.048,0,0.000885,0,0
0:7:9.341,834.389,106.234,0,0.000885,0,0
0:7:9.937,835.563,106.386,0,0.000885,0,0
0:7:10.543,836.737,106.538,0,0.000885,0,0
0:7:11.139,837.618,106.648,0,0.000885,0,0
0:7:11.734,839.028,106.827,0,0.000885,0,0
0:7:12.340,840.082,106.965,0,0.000885,0,0
0:7:12.947,841.964,107.2,0,0.000885,0,0
0:7:13.549,842.96,107.331,0,0.000885,0,0
0:7:14.146,844.077,107.469,0,0.000885,0,0
0:7:14.741,845.073,107.6,0,0.000885,0,0
0:7:15.336,846.012,107.717,0,0.000885,0,0
0:7:15.928,847.364,107.889,0,0.000885,0,0
0:7:16.530,848.654,108.055,0,0.000885,0,0
0:7:17.125,849.299,108.137,0,0.000885,0,0
0:7:17.732,850.945,108.344,0,0.000885,0,0
0:7:18.340,851.763,108.448,0,0.000885,0,0
0:7:18.941,853.173,108.627,0,0.000885,0,0
0:7:19.536,855.171,108.882,0,0.000885,0,0
0:7:20.126,856.109,109.006,0,0.000885,0,0
0:7:20.721,856.99,109.116,0,0.000885,0,0
0:7:21.327,857.871,109.227,0,0.000885,0,0
0:7:21.922,858.925,109.365,0,0.000885,0,0
0:7:22.529,860.571,109.571,0,0.000885,0,0
0:7:23.137,861.509,109.689,0,0.000885,0,0
0:7:23.740,862.626,109.833,0,0.000885,0,0
0:7:24.336,863.502,109.944,0,0.000885,0,0
0:7:24.929,864.97,110.13,0,0.000885,0,0
0:7:25.526,866.438,110.316,0,0.000885,0,0
0:7:26.121,867.083,110.399,0,0.000885,0,0
0:7:26.735,868.729,110.613,0,0.000885,0,0
0:7:27.344,869.667,110.73,0,0.000885,0,0
0:7:27.951,871.251,110.93,0,0.000885,0,0
0:7:28.552,872.194,111.054,0,0.000885,0,0
0:7:29.149,873.248,111.185,0,0.000885,0,0
0:7:29.744,874.716,111.371,0,0.000885,0,0
0:7:30.337,875.419,111.461,0,0.000885,0,0
0:7:30.927,876.651,111.619,0,0.000885,0,0
0:7:31.520,877.474,111.723,0,0.000885,0,0
0:7:32.117,878.884,111.902,0,0.000885,0,0
0:7:32.723,880.352,112.088,0,0.000885,0,0
0:7:33.326,881.878,112.281,0,0.000885,0,0
0:7:33.937,883.168,112.447,0,0.000885,0,0
0:7:34.541,884.106,112.571,0,0.000885,0,0
0:7:35.133,884.987,112.681,0,0.000885,0,0
0:7:35.740,886.281,112.846,0,0.000885,0,0
0:7:36.337,887.456,112.991,0,0.000885,0,0
0:7:36.929,888.452,113.122,0,0.000885,0,0
0:7:37.539,889.92,113.308,0,0.000885,0,0
0:7:38.146,891.094,113.46,0,0.000885,0,0
0:7:38.749,892.206,113.598,0,0.000885,0,0
0:7:39.344,892.972,113.695,0,0.000885,0,0
0:7:39.941,894.382,113.874,0,0.000885,0,0
0:7:40.537,895.85,114.06,0,0.000885,0,0
0:7:41.140,897.313,114.253,0,0.000885,0,0
0:7:41.733,898.487,114.398,0,0.000885,0,0
0:7:42.325,899.075,114.474,0,0.000885,0,0
0:7:42.931,900.191,114.618,0,0.000885,0,0
0:7:43.537,901.543,114.791,0,0.000885,0,0
0:7:44.140,902.713,114.936,0,0.000885,0,0
0:7:44.733,903.83,115.08,0,0.000885,0,0
0:7:45.333,904.653,115.184,0,0.000885,0,0
0:7:45.927,906,115.356,0,0.000885,0,0
0:7:46.532,907.588,115.556,0,0.000885,0,0
0:7:47.130,908.936,115.729,0,0.000885,0,0
0:7:47.741,909.759,115.832,0,0.000885,0,0
0:7:48.344,910.756,115.963,0,0.000885,0,0
0:7:48.942,912.05,116.128,0,0.000885,0,0
0:7:49.535,913.34,116.287,0,0.000885,0,0
0:7:50.132,914.866,116.487,0,0.000885,0,0
0:7:50.728,915.631,116.583,0,0.000885,0,0
0:7:51.326,917.099,116.77,0,0.000885,0,0
0:7:51.928,917.508,116.818,0,0.000885,0,0
0:7:52.539,919.327,117.052,0,0.000885,0,0
0:7:53.147,920.324,117.176,0,0.000885,0,0
0:7:53.749,921.676,117.349,0,0.000885,0,0
0:7:54.347,922.73,117.487,0,0.000885,0,0
0:7:54.943,923.905,117.638,0,0.000885,0,0
0:7:55.536,925.021,117.776,0,0.000885,0,0
0:7:56.141,926.431,117.956,0,0.000885,0,0
0:7:56.733,927.018,118.031,0,0.000885,0,0
0:7:57.331,928.424,118.211,0,0.000885,0,0
0:7:57.936,929.661,118.369,0,0.000885,0,0
0:7:58.543,931.36,118.583,0,0.000885,0,0
0:7:59.143,932.183,118.686,0,0.000885,0,0
0:7:59.747,933.299,118.831,0,0.000885,0,0
0:8:0.342,934.473,118.983,0,0.000885,0,0
0:8:0.939,935.412,119.1,0,0.000885,0,0
0:8:1.545,936.996,119.3,0,0.000885,0,0
0:8:2.143,938.112,119.445,0,0.000885,0,0
0:8:2.751,939.286,119.596,0,0.000885,0,0
0:8:3.356,940.461,119.741,0,0.000885,0,0
0:8:3.953,941.631,119.893,0,0.000885,0,0
0:8:4.549,942.747,120.038,0,0.000885,0,0
0:8:5.145,943.748,120.162,0,0.000885,0,0
0:8:5.740,945.038,120.327,0,0.000885,0,0
0:8:6.334,946.386,120.5,0,0.000885,0,0
0:8:6.927,947.68,120.665,0,0.000885,0,0
0:8:7.530,949.028,120.838,0,0.000885,0,0
0:8:8.136,949.557,120.9,0,0.000885,0,0
0:8:8.739,950.612,121.037,0,0.000885,0,0
0:8:9.333,952.142,121.231,0,0.000885,0,0
0:8:9.928,953.254,121.375,0,0.000885,0,0
0:8:10.523,954.664,121.555,0,0.000885,0,0
0:8:11.116,955.896,121.706,0,0.000885,0,0
0:8:11.712,956.835,121.83,0,0.000885,0,0
0:8:12.308,958.067,121.982,0,0.000885,0,0
0:8:12.915,959.419,122.154,0,0.000885,0,0
0:8:13.520,960.536,122.299,0,0.000885,0,0
0:8:14.128,961.532,122.423,0,0.000885,0,0
0:8:14.723,962.649,122.568,0,0.000885,0,0
0:8:15.318,963.881,122.727,0,0.000885,0,0
0:8:15.917,965.171,122.892,0,0.000885,0,0
0:8:16.512,966.581,123.071,0,0.000885,0,0
0:8:17.108,967.697,123.209,0,0.000885,0,0
0:8:17.717,968.516,123.313,0,0.000885,0,0
0:8:18.321,969.926,123.492,0,0.000885,0,0
0:8:18.927,970.922,123.623,0,0.000885,0,0
0:8:19.523,972.332,123.802,0,0.000885,0,0
0:8:20.119,973.213,123.913,0,0.000885,0,0
0:8:20.715,974.445,124.071,0,0.000885,0,0
0:8:21.311,975.677,124.23,0,0.000885,0,0
0:8:21.904,976.91,124.381,0,0.000885,0,0
0:8:22.509,978.262,124.554,0,0.000885,0,0
0:8:23.116,979.73,124.74,0,0.000885,0,0
0:8:23.719,980.49,124.843,0,0.000885,0,0
0:8:24.314,981.371,124.954,0,0.000885,0,0
0:8:24.909,983.133,125.174,0,0.000885,0,0
0:8:25.504,983.956,125.278,0,0.000885,0,0
0:8:26.097,985.13,125.429,0,0.000885,0,0
0:8:26.695,986.068,125.554,0,0.000885,0,0
0:8:27.292,987.123,125.685,0,0.000885,0,0
0:8:27.898,988.359,125.843,0,0.000885,0,0
0:8:28.502,989.649,126.009,0,0.000885,0,0
0:8:29.102,990.939,126.167,0,0.000885,0,0
0:8:29.697,992.407,126.36,0,0.000885,0,0
0:8:30.293,993.466,126.491,0,0.000885,0,0
0:8:30.891,994.698,126.65,0,0.000885,0,0
0:8:31.486,995.694,126.774,0,0.000885,0,0
0:8:32.081,996.869,126.926,0,0.000885,0,0
0:8:32.680,998.337,127.112,0,0.000885,0,0
0:8:33.286,999.039,127.201,0,0.000885,0,0
0:8:33.890,1000.63,127.401,0,0.000885,0,0
0:8:34.486,1001.39,127.498,0,0.000885,0,0
0:8:35.084,1002.91,127.698,0,0.000885,0,0
0:8:35.676,1004.09,127.843,0,0.000885,0,0
0:8:36.272,1005.2,127.987,0,0.000885,0,0
0:8:36.864,1006.55,128.16,0,0.000885,0,0
0:8:37.471,1007.79,128.318,0,0.000885,0,0
0:8:38.077,1008.31,128.38,0,0.000885,0,0
0:8:38.680,1009.67,128.553,0,0.000885,0,0
0:8:39.275,1011.19,128.746,0,0.000885,0,0
0:8:39.868,1012.01,128.856,0,0.000885,0,0
0:8:40.463,1012.95,128.973,0,0.000885,0,0
0:8:41.057,1013.95,129.097,0,0.000885,0,0
0:8:41.656,1015.48,129.297,0,0.000885,0,0
0:8:42.252,1016.77,129.456,0,0.000885,0,0
0:8:42.857,1017.94,129.608,0,0.000885,0,0
0:8:43.460,1018.94,129.739,0,0.000885,0,0
0:8:44.058,1020.41,129.925,0,0.000885,0,0
0:8:44.654,1021.93,130.118,0,0.000885,0,0
0:8:45.250,1023.05,130.256,0,0.000885,0,0
0:8:45.848,1024.46,130.435,0,0.000885,0,0
0:8:46.443,1025.52,130.573,0,0.000885,0,0
0:8:47.047,1026.57,130.704,0,0.000885,0,0
0:8:47.648,1027.45,130.821,0,0.000885,0,0
0:8:48.256,1028.22,130.918,0,0.000885,0,0
0:8:48.860,1030.03,131.145,0,0.000885,0,0
0:8:49.457,1031.03,131.276,0,0.000885,0,0
0:8:50.054,1032.38,131.449,0,0.000885,0,0
0:8:50.645,1033.38,131.573,0,0.000885,0,0
0:8:51.252,1034.73,131.745,0,0.000885,0,0
0:8:51.846,1035.49,131.842,0,0.000885,0,0
0:8:52.454,1036.84,132.014,0,0.000885,0,0
0:8:53.060,1037.78,132.131,0,0.000885,0,0
0:8:53.661,1039.37,132.338,0,0.000885,0,0
0:8:54.255,1040.13,132.434,0,0.000885,0,0
0:8:54.850,1041.77,132.641,0,0.000885,0,0
0:8:55.446,1042.83,132.779,0,0.000885,0,0
0:8:56.052,1043.83,132.903,0,0.000885,0,0
0:8:56.648,1044.71,133.014,0,0.000885,0,0
0:8:57.245,1046.35,133.227,0,0.000885,0,0
0:8:57.850,1047.65,133.393,0,0.000885,0,0
0:8:58.455,1048.41,133.489,0,0.000885,0,0
0:8:59.053,1049.7,133.655,0,0.000885,0,0
0:8:59.651,1050.7,133.779,0,0.000885,0,0
0:9:0.246,1051.81,133.924,0,0.000885,0,0
0:9:0.840,1053.28,134.11,0,0.000885,0,0
0:9:1.435,1054.81,134.303,0,0.000885,0,0
0:9:2.030,1055.8,134.427,0,0.000885,0,0
0:9:2.636,1056.92,134.572,0,0.000885,0,0
0:9:3.240,1057.97,134.703,0,0.000885,0,0
0:9:3.846,1059.26,134.868,0,0.000885,0,0
0:9:4.438,1060.21,134.992,0,0.000885,0,0
0:9:5.034,1061.44,135.144,0,0.000885,0,0
0:9:5.638,1062.84,135.323,0,0.000885,0,0
0:9:6.247,1063.73,135.441,0,0.000885,0,0
0:9:6.841,1065.19,135.627,0,0.000885,0,0
0:9:7.439,1066.43,135.778,0,0.000885,0,0
0:9:8.048,1067.6,135.93,0,0.000885,0,0
0:9:8.650,1069.01,136.109,0,0.000885,0,0
0:9:9.248,1070.01,136.24,0,0.000885,0,0
0:9:9.841,1071.12,136.378,0,0.000885,0,0
0:9:10.451,1072.24,136.523,0,0.000885,0,0
0:9:11.043,1073.29,136.654,0,0.000885,0,0
0:9:11.649,1074.59,136.82,0,0.000885,0,0
0:9:12.244,1075.76,136.971,0,0.000885,0,0
0:9:12.852,1076.76,137.095,0,0.000885,0,0
0:9:13.459,1077.99,137.254,0,0.000885,0,0
0:9:14.061,1079.05,137.392,0,0.000885,0,0
0:9:14.656,1080.58,137.585,0,0.000885,0,0
0:9:15.250,1081.28,137.675,0,0.000885,0,0
0:9:15.847,1082.8,137.868,0,0.000885,0,0
0:9:16.443,1084.39,138.068,0,0.000885,0,0
0:9:17.040,1085.39,138.199,0,0.000885,0,0
0:9:17.650,1086.5,138.336,0,0.000885,0,0
0:9:18.253,1087.44,138.461,0,0.000885,0,0
0:9:18.849,1088.32,138.571,0,0.000885,0,0
0:9:19.443,1089.44,138.709,0,0.000885,0,0
0:9:20.041,1090.9,138.895,0,0.000885,0,0
0:9:20.637,1092.55,139.109,0,0.000885,0,0
0:9:21.231,1093.19,139.191,0,0.000885,0,0
0:9:21.826,1094.54,139.364,0,0.000885,0,0
0:9:22.432,1095.9,139.536,0,0.000885,0,0
0:9:23.038,1097.07,139.681,0,0.000885,0,0
0:9:23.639,1098.18,139.826,0,0.000885,0,0
0:9:24.236,1098.54,139.867,0,0.000885,0,0
0:9:24.831,1100.06,140.067,0,0.000885,0,0
0:9:25.433,1101.7,140.274,0,0.000885,0,0
0:9:26.032,1102.76,140.405,0,0.000885,0,0
0:9:26.649,1104.05,140.57,0,0.000885,0,0
0:9:27.244,1105.34,140.736,0,0.000885,0,0
0:9:27.854,1106.46,140.881,0,0.000885,0,0
0:9:28.459,1107.75,141.046,0,0.000885,0,0
0:9:29.055,1108.81,141.177,0,0.000885,0,0
0:9:29.652,1110.16,141.349,0,0.000885,0,0
0:9:30.248,1111.21,141.487,0,0.000885,0,0
0:9:30.843,1111.98,141.584,0,0.000885,0,0
0:9:31.439,1113.39,141.763,0,0.000885,0,0
0:9:32.031,1114.62,141.915,0,0.000885,0,0
0:9:32.641,1115.91,142.08,0,0.000885,0,0
0:9:33.249,1117.61,142.301,0,0.000885,0,0
0:9:33.855,1118.14,142.363,0,0.000885,0,0
0:9:34.452,1119.26,142.508,0,0.000885,0,0
0:9:35.056,1120.43,142.659,0,0.000885,0,0
0:9:35.649,1121.49,142.79,0,0.000885,0,0
0:9:36.240,1122.54,142.928,0,0.000885,0,0
0:9:36.837,1124.31,143.149,0,0.000885,0,0
0:9:37.444,1125.42,143.294,0,0.000885,0,0
0:9:38.050,1126.48,143.425,0,0.000885,0,0
0:9:38.652,1127.54,143.563,0,0.000885,0,0
0:9:39.243,1128.18,143.645,0,0.000885,0,0
0:9:39.838,1129.76,143.845,0,0.000885,0,0
0:9:40.433,1131.23,144.031,0,0.000885,0,0
0:9:41.032,1132.17,144.156,0,0.000885,0,0
0:9:41.628,1133.64,144.342,0,0.000885,0,0
0:9:42.225,1134.34,144.431,0,0.000885,0,0
0:9:42.832,1135.69,144.604,0,0.000885,0,0
0:9:43.437,1137.16,144.79,0,0.000885,0,0
0:9:44.034,1138.69,144.983,0,0.000885,0,0
0:9:44.630,1139.27,145.059,0,0.000885,0,0
0:9:45.227,1140.21,145.176,0,0.000885,0,0
0:9:45.822,1141.5,145.341,0,0.000885,0,0
0:9:46.416,1142.8,145.507,0,0.000885,0,0
0:9:47.011,1144.32,145.7,0,0.000885,0,0
0:9:47.616,1145.43,145.845,0,0.000885,0,0
0:9:48.220,1146.2,145.941,0,0.000885,0,0
0:9:48.825,1147.84,146.148,0,0.000885,0,0
0:9:49.422,1148.66,146.252,0,0.000885,0,0
0:9:50.016,1149.78,146.396,0,0.000885,0,0
0:9:50.610,1151.36,146.596,0,0.000885,0,0
0:9:51.204,1152.42,146.734,0,0.000885,0,0
0:9:51.803,1153.36,146.851,0,0.000885,0,0
0:9:52.410,1154.77,147.031,0,0.000885,0,0
0:9:53.014,1155.71,147.148,0,0.000885,0,0
0:9:53.615,1156.94,147.306,0,0.000885,0,0
0:9:54.210,1158.06,147.451,0,0.000885,0,0
0:9:54.804,1158.58,147.513,0,0.000885,0,0
0:9:55.401,1160.47,147.755,0,0.000885,0,0
0:9:55.999,1161.64,147.906,0,0.000885,0,0
0:9:56.595,1162.69,148.037,0,0.000885,0,0
0:9:57.192,1164.1,148.217,0,0.000885,0,0
0:9:57.799,1165.8,148.437,0,0.000885,0,0
0:9:58.404,1166.1,148.472,0,0.000885,0,0
0:9:59.000,1167.56,148.658,0,0.000885,0,0
0:9:59.597,1168.97,148.837,0,0.000885,0,0
0:10:0.192,1169.86,148.947,0,0.000885,0,0
0:10:0.787,1171.03,149.099,0,0.000885,0,0
0:10:1.383,1172.26,149.258,0,0.000885,0,0
0:10:1.975,1173.2,149.375,0,0.000885,0,0
0:10:2.581,1174.14,149.499,0,0.000885,0,0
0:10:3.187,1175.96,149.727,0,0.000885,0,0
0:10:3.790,1177.25,149.892,0,0.000885,0,0
0:10:4.386,1178.37,150.037,0,0.000885,0,0
0:10:4.981,1179.72,150.209,0,0.000885,0,0
0:10:5.574,1180.42,150.299,0,0.000885,0,0
0:10:6.171,1181.48,150.43,0,0.000885,0,0
0:10:6.768,1182.48,150.561,0,0.000885,0,0
0:10:7.364,1183.47,150.685,0,0.000885,0,0
0:10:7.972,1185.47,150.94,0,0.000885,0,0
0:10:8.576,1186.29,151.043,0,0.000885,0,0
0:10:9.173,1187.41,151.188,0,0.000885,0,0
0:10:9.770,1188.87,151.374,0,0.000885,0,0
0:10:10.367,1189.34,151.43,0,0.000885,0,0
0:10:10.965,1191.28,151.678,0,0.000885,0,0
0:10:11.559,1191.93,151.761,0,0.000885,0,0
0:10:12.158,1193.51,151.96,0,0.000885,0,0
0:10:12.766,1194.69,152.112,0,0.000885,0,0
0:10:13.370,1195.98,152.278,0,0.000885,0,0
0:10:13.965,1197.27,152.443,0,0.000885,0,0
0:10:14.564,1197.97,152.533,0,0.000885,0,0
0:10:15.160,1199.03,152.664,0,0.000885,0,0
0:10:15.753,1200.26,152.822,0,0.000885,0,0
0:10:16.357,1201.73,153.008,0,0.000885,0,0
0:10:16.949,1202.67,153.126,0,0.000885,0,0
0:10:17.557,1203.96,153.291,0,0.000885,0,0
0:10:18.161,1204.96,153.422,0,0.000885,0,0
0:10:18.763,1205.96,153.546,0,0.000885,0,0
0:10:19.358,1207.78,153.781,0,0.000885,0,0
0:10:19.949,1209.07,153.946,0,0.000885,0,0
0:10:20.544,1210.01,154.063,0,0.000885,0,0
0:10:21.150,1211.53,154.256,0,0.000885,0,0
0:10:21.747,1212.35,154.36,0,0.000885,0,0
0:10:22.344,1213.23,154.477,0,0.000885,0,0
0:10:22.954,1214.58,154.643,0,0.000885,0,0
0:10:23.557,1215.88,154.808,0,0.000885,0,0
0:10:24.154,1216.99,154.953,0,0.000885,0,0
0:10:24.749,1218.16,155.104,0,0.000885,0,0
0:10:25.345,1219.16,155.229,0,0.000885,0,0
0:10:25.943,1220.51,155.401,0,0.000885,0,0
0:10:26.536,1221.69,155.553,0,0.000885,0,0
0:10:27.135,1222.51,155.656,0,0.000885,0,0
0:10:27.743,1223.98,155.842,0,0.000885,0,0
0:10:28.347,1225.38,156.021,0,0.000885,0,0
0:10:28.944,1226.44,156.152,0,0.000885,0,0
0:10:29.540,1227.5,156.29,0,0.000885,0,0
0:10:30.156,1229.03,156.483,0,0.000885,0,0
0:10:30.747,1229.73,156.573,0,0.000885,0,0
0:10:31.341,1231.02,156.739,0,0.000885,0,0
0:10:31.948,1232.43,156.918,0,0.000885,0,0
0:10:32.554,1233.19,157.014,0,0.000885,0,0
0:10:33.161,1234.54,157.187,0,0.000885,0,0
0:10:33.760,1236.01,157.373,0,0.000885,0,0
0:10:34.355,1236.89,157.483,0,0.000885,0,0
0:10:34.945,1237.94,157.621,0,0.000885,0,0
0:10:35.552,1239.47,157.814,0,0.000885,0,0
0:10:36.149,1240.76,157.98,0,0.000885,0,0
0:10:36.747,1241.41,158.062,0,0.000885,0,0
0:10:37.344,1242.29,158.173,0,0.000885,0,0
0:10:37.949,1244.05,158.4,0,0.000885,0,0
0:10:38.555,1245.58,158.593,0,0.000885,0,0
0:10:39.161,1246.4,158.697,0,0.000885,0,0
0:10:39.759,1247.93,158.89,0,0.000885,0,0
0:10:40.355,1248.74,158.993,0,0.000885,0,0
0:10:40.947,1249.8,159.131,0,0.000885,0,0
0:10:41.551,1251.39,159.331,0,0.000885,0,0
0:10:42.145,1252.27,159.441,0,0.000885,0,0
0:10:42.751,1253.62,159.614,0,0.000885,0,0
0:10:43.359,1254.44,159.717,0,0.000885,0,0
0:10:43.963,1256.03,159.924,0,0.000885,0,0
0:10:44.557,1256.79,160.02,0,0.000885,0,0
0:10:45.151,1258.02,160.179,0,0.000885,0,0
0:10:45.758,1259.08,160.31,0,0.000885,0,0
0:10:46.351,1259.96,160.42,0,0.000885,0,0
0:10:46.948,1261.84,160.662,0,0.000885,0,0
0:10:47.557,1262.95,160.806,0,0.000885,0,0
0:10:48.160,1264.48,160.999,0,0.000885,0,0
0:10:48.760,1265.3,161.103,0,0.000885,0,0
0:10:49.353,1266.36,161.241,0,0.000885,0,0
0:10:49.950,1267.71,161.406,0,0.000885,0,0
0:10:50.547,1269,161.572,0,0.000885,0,0
0:10:51.164,1269.47,161.634,0,0.000885,0,0
0:10:51.758,1269.99,161.703,0,0.000885,0,0
0:10:52.357,1271.93,161.951,0,0.000885,0,0
0:10:52.966,1273.52,162.151,0,0.000885,0,0
0:10:53.571,1274.87,162.323,0,0.000885,0,0
0:10:54.168,1275.98,162.461,0,0.000885,0,0
0:10:54.765,1277.68,162.682,0,0.000885,0,0
0:10:55.359,1276.45,162.523,0,0.000885,0,0
0:10:55.959,1271.88,161.937,0,0.000885,0,0
0:10:56.563,1272.81,162.061,0,0.000885,0,0
0:10:57.158,1259.02,160.303,0,0.000885,0,0
0:10:57.763,1247.81,158.876,0,0.000885,0,0
0:10:58.135,1222.68,155.677,0,0.000885,0,0