File: DataFile2021-07-28_102449.csv
Test ID:,Date Tested:,Time:,Test Type:,Diameter Avg. (mm):,Cyl. Corr. Factor:,Height (mm):,Age (days):,Weight (kN):,Break Type:,Ramp Rate (MPa/s):,Load at Break (kN):,Stress at Break (MPa):
12,7/28/2021,10:24,Cylinder,100,1,200,0,13.69,3,0.35,1160.76,147.79
Sample Time,Load (kN),Stress (MPa),Long. Strain,Trans. Strain,Chan1 Deflection (mm),Chan2 Deflection (mm)
0:0:12.795,5.80493,0.737739,0,0.000885,0,0
0:0:13.194,8.32707,1.06179,0,0.000885,0,0
0:0:13.593,9.79498,1.24795,0,0.000885,0,0
0:0:13.989,9.32347,1.1859,0,0.000885,0,0
0:0:14.383,10.0886,1.28242,0,0.000885,0,0
0:0:14.782,10.6179,1.35137,0,0.000885,0,0
0:0:15.183,11.4942,1.46169,0,0.000885,0,0
0:0:15.577,12.4906,1.59269,0,0.000885,0,0
0:0:15.982,12.9621,1.64785,0,0.000885,0,0
0:0:16.380,14.8393,1.88916,0,0.000885,0,0
0:0:16.780,15.3063,1.95122,0,0.000885,0,0
0:0:17.177,16.8899,2.15116,0,0.000885,0,0
0:0:17.582,17.4771,2.22701,0,0.000885,0,0
0:0:17.980,19.2386,2.44764,0,0.000885,0,0
0:0:18.382,19.8836,2.53038,0,0.000885,0,0
0:0:18.788,20.5864,2.62001,0,0.000885,0,0
0:0:19.191,21.8764,2.78548,0,0.000885,0,0
0:0:19.594,23.3443,2.97164,0,0.000885,0,0
0:0:19.994,23.9893,3.05438,0,0.000885,0,0
0:0:20.395,25.8664,3.29569,0,0.000885,0,0
0:0:20.794,26.5114,3.37843,0,0.000885,0,0
0:0:21.191,27.272,3.47496,0,0.000885,0,0
0:0:21.586,29.0914,3.70248,0,0.000885,0,0
0:0:21.987,30.0299,3.82659,0,0.000885,0,0
0:0:22.387,31.3199,3.98517,0,0.000885,0,0
0:0:22.783,32.5521,4.14375,0,0.000885,0,0
0:0:23.178,33.7842,4.30233,0,0.000885,0,0
0:0:23.583,35.3055,4.49538,0,0.000885,0,0
0:0:23.991,36.5377,4.65396,0,0.000885,0,0
0:0:24.394,37.89,4.82633,0,0.000885,0,0
0:0:24.798,39.1177,4.97801,0,0.000885,0,0
0:0:25.195,40.7012,5.18486,0,0.000885,0,0
0:0:25.597,41.6398,5.30207,0,0.000885,0,0
0:0:25.996,42.7563,5.44686,0,0.000885,0,0
0:0:26.394,43.3435,5.51581,0,0.000885,0,0
0:0:26.790,44.1041,5.61233,0,0.000885,0,0
0:0:27.189,45.5142,5.7916,0,0.000885,0,0
0:0:27.589,46.217,5.88123,0,0.000885,0,0
0:0:27.986,47.1556,6.00533,0,0.000885,0,0
0:0:28.391,47.7428,6.08118,0,0.000885,0,0
0:0:28.795,49.0906,6.25354,0,0.000885,0,0
0:0:29.199,50.3227,6.40523,0,0.000885,0,0
0:0:29.602,51.0834,6.50176,0,0.000885,0,0
0:0:30.000,52.3734,6.66723,0,0.000885,0,0
0:0:30.395,53.5477,6.81891,0,0.000885,0,0
0:0:30.795,54.6642,6.95681,0,0.000885,0,0
0:0:31.195,55.367,7.04644,0,0.000885,0,0
0:0:31.594,56.7727,7.22571,0,0.000885,0,0
0:0:31.991,58.1205,7.39807,0,0.000885,0,0
0:0:32.386,59.4727,7.57044,0,0.000885,0,0
0:0:32.788,60.3535,7.68076,0,0.000885,0,0
0:0:33.188,61.7591,7.86002,0,0.000885,0,0
0:0:33.594,62.7555,7.99102,0,0.000885,0,0
0:0:33.999,63.9298,8.14271,0,0.000885,0,0
0:0:34.401,65.162,8.29439,0,0.000885,0,0
0:0:34.803,66.2741,8.43918,0,0.000885,0,0
0:0:35.202,67.1548,8.5495,0,0.000885,0,0
0:0:35.597,68.5604,8.72876,0,0.000885,0,0
0:0:35.995,68.9163,8.77703,0,0.000885,0,0
0:0:36.394,69.9705,8.90803,0,0.000885,0,0
0:0:36.794,71.4963,9.10108,0,0.000885,0,0
0:0:37.191,72.2569,9.19761,0,0.000885,0,0
0:0:37.586,73.3111,9.3355,0,0.000885,0,0
0:0:37.984,74.7791,9.52166,0,0.000885,0,0
0:0:38.387,75.424,9.6044,0,0.000885,0,0
0:0:38.792,76.6562,9.76298,0,0.000885,0,0
0:0:39.196,77.8884,9.91466,0,0.000885,0,0
0:0:39.599,78.7068,10.025,0,0.000885,0,0
0:0:39.999,80.1169,10.1973,0,0.000885,0,0
0:0:40.398,81.229,10.3421,0,0.000885,0,0
0:0:40.795,81.9362,10.4318,0,0.000885,0,0
0:0:41.191,83.8712,10.68,0,0.000885,0,0
0:0:41.591,84.8676,10.8041,0,0.000885,0,0
0:0:41.991,85.6283,10.9006,0,0.000885,0,0
0:0:42.387,86.6247,11.0316,0,0.000885,0,0
0:0:42.784,87.799,11.1764,0,0.000885,0,0
0:0:43.189,88.5641,11.2729,0,0.000885,0,0
0:0:43.595,90.0854,11.4729,0,0.000885,0,0
0:0:43.998,91.1441,11.6039,0,0.000885,0,0
0:0:44.402,92.3139,11.7556,0,0.000885,0,0
0:0:44.799,93.6662,11.9279,0,0.000885,0,0
0:0:45.197,94.7783,12.0658,0,0.000885,0,0
0:0:45.597,95.1875,12.121,0,0.000885,0,0
0:0:45.995,96.5976,12.3002,0,0.000885,0,0
0:0:46.390,97.6518,12.4312,0,0.000885,0,0
0:0:46.789,99.0619,12.6105,0,0.000885,0,0
0:0:47.189,100.174,12.7553,0,0.000885,0,0
0:0:47.587,101.113,12.8725,0,0.000885,0,0
0:0:47.985,102.403,13.038,0,0.000885,0,0
0:0:48.389,103.283,13.1483,0,0.000885,0,0
0:0:48.793,103.577,13.1897,0,0.000885,0,0
0:0:49.197,105.338,13.4103,0,0.000885,0,0
0:0:49.600,105.863,13.4793,0,0.000885,0,0
0:0:49.998,107.567,13.693,0,0.000885,0,0
0:0:50.394,108.915,13.8654,0,0.000885,0,0
0:0:50.793,109.733,13.9688,0,0.000885,0,0
0:0:51.195,111.085,14.1411,0,0.000885,0,0
0:0:51.590,112.255,14.2928,0,0.000885,0,0
0:0:51.985,112.785,14.3618,0,0.000885,0,0
0:0:52.384,114.777,14.6169,0,0.000885,0,0
0:0:52.784,116.067,14.7755,0,0.000885,0,0
0:0:53.182,117.006,14.8996,0,0.000885,0,0
0:0:53.587,117.593,14.9754,0,0.000885,0,0
0:0:53.991,117.651,14.9823,0,0.000885,0,0
0:0:54.394,119.119,15.1685,0,0.000885,0,0
0:0:54.797,120.351,15.3202,0,0.000885,0,0
0:0:55.192,121.525,15.4718,0,0.000885,0,0
0:0:55.589,123.109,15.6718,0,0.000885,0,0
0:0:55.986,123.985,15.789,0,0.000885,0,0
0:0:56.387,124.866,15.8993,0,0.000885,0,0
0:0:56.783,125.925,16.0303,0,0.000885,0,0
0:0:57.188,127.508,16.2372,0,0.000885,0,0
0:0:57.586,128.505,16.3613,0,0.000885,0,0
0:0:57.985,129.443,16.4785,0,0.000885,0,0
0:0:58.384,130.382,16.6026,0,0.000885,0,0
0:0:58.788,131.552,16.7474,0,0.000885,0,0
0:0:59.194,133.135,16.9542,0,0.000885,0,0
0:0:59.596,133.78,17.0369,0,0.000885,0,0
0:0:59.998,135.19,17.2162,0,0.000885,0,0
0:1:0.397,136.129,17.3334,0,0.000885,0,0
0:1:0.793,137.535,17.5127,0,0.000885,0,0
0:1:1.189,138.064,17.5816,0,0.000885,0,0
0:1:1.589,139.527,17.7678,0,0.000885,0,0
0:1:1.987,140.408,17.8781,0,0.000885,0,0
0:1:2.384,141.76,18.0505,0,0.000885,0,0
0:1:2.780,142.988,18.2091,0,0.000885,0,0
0:1:3.183,143.344,18.2504,0,0.000885,0,0
0:1:3.589,144.865,18.4435,0,0.000885,0,0
0:1:3.993,145.924,18.5814,0,0.000885,0,0
0:1:4.397,146.92,18.7055,0,0.000885,0,0
0:1:4.792,147.801,18.8158,0,0.000885,0,0
0:1:5.192,148.971,18.9675,0,0.000885,0,0
0:1:5.591,150.03,19.1054,0,0.000885,0,0
0:1:5.989,151.493,19.2915,0,0.000885,0,0
0:1:6.383,152.61,19.4294,0,0.000885,0,0
0:1:6.783,153.779,19.5811,0,0.000885,0,0
0:1:7.183,154.838,19.7121,0,0.000885,0,0
0:1:7.589,155.483,19.7948,0,0.000885,0,0
0:1:7.986,156.947,19.981,0,0.000885,0,0
0:1:8.391,157.596,20.0637,0,0.000885,0,0
0:1:8.796,159.117,20.2568,0,0.000885,0,0
0:1:9.201,160.585,20.443,0,0.000885,0,0
0:1:9.603,161.466,20.5602,0,0.000885,0,0
0:1:9.999,162.462,20.6843,0,0.000885,0,0
0:1:10.398,164.104,20.8911,0,0.000885,0,0
0:1:10.797,165.1,21.0221,0,0.000885,0,0
0:1:11.194,166.332,21.1807,0,0.000885,0,0
0:1:11.591,167.271,21.2979,0,0.000885,0,0
0:1:11.988,168.387,21.4427,0,0.000885,0,0
0:1:12.391,169.442,21.5737,0,0.000885,0,0
0:1:12.788,170.202,21.6702,0,0.000885,0,0
0:1:13.184,171.199,21.8012,0,0.000885,0,0
0:1:13.588,172.667,21.9874,0,0.000885,0,0
0:1:13.994,173.427,22.0839,0,0.000885,0,0
0:1:14.397,174.366,22.2011,0,0.000885,0,0
0:1:14.799,175.189,22.3045,0,0.000885,0,0
0:1:15.197,176.185,22.4355,0,0.000885,0,0
0:1:15.595,177.711,22.6286,0,0.000885,0,0
0:1:15.996,178.885,22.7734,0,0.000885,0,0
0:1:16.395,180.469,22.9802,0,0.000885,0,0
0:1:16.791,180.994,23.0423,0,0.000885,0,0
0:1:17.186,182.346,23.2146,0,0.000885,0,0
0:1:17.586,183.809,23.4008,0,0.000885,0,0
0:1:17.987,184.926,23.5456,0,0.000885,0,0
0:1:18.395,185.98,23.6766,0,0.000885,0,0
0:1:18.798,186.977,23.8076,0,0.000885,0,0
0:1:19.201,188.035,23.9386,0,0.000885,0,0
0:1:19.602,188.854,24.0489,0,0.000885,0,0
0:1:20.003,190.202,24.2144,0,0.000885,0,0
0:1:20.398,191.082,24.3316,0,0.000885,0,0
0:1:20.794,192.021,24.4488,0,0.000885,0,0
0:1:21.192,193.489,24.635,0,0.000885,0,0
0:1:21.590,194.485,24.766,0,0.000885,0,0
0:1:21.984,195.366,24.8763,0,0.000885,0,0
0:1:22.386,196.478,25.0142,0,0.000885,0,0
0:1:22.781,198.004,25.2072,0,0.000885,0,0
0:1:23.181,198.413,25.2624,0,0.000885,0,0
0:1:23.584,199.881,25.4485,0,0.000885,0,0
0:1:23.985,200.704,25.552,0,0.000885,0,0
0:1:24.385,202.167,25.7381,0,0.000885,0,0
0:1:24.783,203.164,25.8691,0,0.000885,0,0
0:1:25.181,204.574,26.0484,0,0.000885,0,0
0:1:25.583,205.57,26.1725,0,0.000885,0,0
0:1:25.987,206.393,26.2759,0,0.000885,0,0
0:1:26.382,207.856,26.4621,0,0.000885,0,0
0:1:26.789,208.915,26.6,0,0.000885,0,0
0:1:27.186,209.791,26.7103,0,0.000885,0,0
0:1:27.589,211.024,26.8689,0,0.000885,0,0
0:1:27.981,212.14,27.0137,0,0.000885,0,0
0:1:28.383,213.31,27.1584,0,0.000885,0,0
0:1:28.786,214.542,27.317,0,0.000885,0,0
0:1:29.186,215.249,27.4067,0,0.000885,0,0
0:1:29.588,216.419,27.5583,0,0.000885,0,0
0:1:29.982,217.651,27.71,0,0.000885,0,0
0:1:30.390,218.532,27.8272,0,0.000885,0,0
0:1:30.784,220,28.0134,0,0.000885,0,0
0:1:31.188,220.997,28.1375,0,0.000885,0,0
0:1:31.591,222.051,28.2754,0,0.000885,0,0
0:1:31.988,222.696,28.3512,0,0.000885,0,0
0:1:32.386,223.986,28.5167,0,0.000885,0,0
0:1:32.789,224.982,28.6477,0,0.000885,0,0
0:1:33.190,226.392,28.827,0,0.000885,0,0
0:1:33.592,226.979,28.9028,0,0.000885,0,0
0:1:33.996,228.385,29.0821,0,0.000885,0,0
0:1:34.398,229.324,29.1993,0,0.000885,0,0
0:1:34.797,230.436,29.3372,0,0.000885,0,0
0:1:35.190,232.197,29.5647,0,0.000885,0,0
0:1:35.587,233.078,29.675,0,0.000885,0,0
0:1:35.985,234.541,29.8612,0,0.000885,0,0
0:1:36.388,235.186,29.9439,0,0.000885,0,0
0:1:36.783,236.245,30.0818,0,0.000885,0,0
0:1:37.188,237.419,30.2266,0,0.000885,0,0
0:1:37.585,237.944,30.2956,0,0.000885,0,0
0:1:37.991,239.003,30.4335,0,0.000885,0,0
0:1:38.394,239.937,30.5507,0,0.000885,0,0
0:1:38.796,241.934,30.8058,0,0.000885,0,0
0:1:39.196,242.931,30.9299,0,0.000885,0,0
0:1:39.597,244.105,31.0816,0,0.000885,0,0
0:1:39.993,245.395,31.247,0,0.000885,0,0
0:1:40.386,246.391,31.3711,0,0.000885,0,0
0:1:40.791,247.503,31.5159,0,0.000885,0,0
0:1:41.188,248.148,31.5987,0,0.000885,0,0
0:1:41.584,249.207,31.7297,0,0.000885,0,0
0:1:41.975,250.555,31.902,0,0.000885,0,0
0:1:42.391,251.436,32.0124,0,0.000885,0,0
0:1:42.788,252.606,32.164,0,0.000885,0,0
0:1:43.185,253.135,32.233,0,0.000885,0,0
0:1:43.588,254.719,32.4329,0,0.000885,0,0
0:1:43.990,256.008,32.5984,0,0.000885,0,0
0:1:44.388,257.183,32.7432,0,0.000885,0,0
0:1:44.787,258.295,32.888,0,0.000885,0,0
0:1:45.183,259.002,32.9776,0,0.000885,0,0
0:1:45.588,260.114,33.1155,0,0.000885,0,0
0:1:45.990,260.995,33.2327,0,0.000885,0,0
0:1:46.387,262.227,33.3844,0,0.000885,0,0
0:1:46.784,263.575,33.5568,0,0.000885,0,0
0:1:47.189,264.513,33.6809,0,0.000885,0,0
0:1:47.583,266.097,33.8808,0,0.000885,0,0
0:1:47.985,267.503,34.0601,0,0.000885,0,0
0:1:48.386,268.677,34.2118,0,0.000885,0,0
0:1:48.790,269.673,34.3359,0,0.000885,0,0
0:1:49.190,270.612,34.4531,0,0.000885,0,0
0:1:49.590,271.493,34.5703,0,0.000885,0,0
0:1:49.987,272.783,34.7289,0,0.000885,0,0
0:1:50.383,273.254,34.7909,0,0.000885,0,0
0:1:50.787,273.428,34.8116,0,0.000885,0,0
0:1:51.177,275.247,35.0461,0,0.000885,0,0
0:1:51.573,276.421,35.1977,0,0.000885,0,0
0:1:51.971,277.591,35.3425,0,0.000885,0,0
0:1:52.367,279.237,35.5563,0,0.000885,0,0
0:1:52.770,280.349,35.6942,0,0.000885,0,0
0:1:53.185,281.288,35.8114,0,0.000885,0,0
0:1:53.587,282.693,35.9906,0,0.000885,0,0
0:1:53.990,283.401,36.0803,0,0.000885,0,0
0:1:54.391,285.042,36.294,0,0.000885,0,0
0:1:54.790,285.803,36.3905,0,0.000885,0,0
0:1:55.185,286.568,36.4871,0,0.000885,0,0
0:1:55.580,288.383,36.7215,0,0.000885,0,0
0:1:55.976,288.503,36.7353,0,0.000885,0,0
0:1:56.380,290.202,36.949,0,0.000885,0,0
0:1:56.787,291.318,37.0938,0,0.000885,0,0
0:1:57.192,291.728,37.1421,0,0.000885,0,0
0:1:57.588,293.489,37.3696,0,0.000885,0,0
0:1:57.986,294.601,37.5075,0,0.000885,0,0
0:1:58.390,295.073,37.5695,0,0.000885,0,0
0:1:58.792,296.83,37.7902,0,0.000885,0,0
0:1:59.192,297.946,37.935,0,0.000885,0,0
0:1:59.591,298.943,38.0591,0,0.000885,0,0
0:1:59.985,299.588,38.1418,0,0.000885,0,0
0:2:0.376,301.581,38.3969,0,0.000885,0,0
0:2:0.780,302.168,38.4727,0,0.000885,0,0
0:2:1.189,303.4,38.6313,0,0.000885,0,0
0:2:1.585,303.809,38.6796,0,0.000885,0,0
0:2:1.989,305.508,38.9002,0,0.000885,0,0
0:2:2.384,306.331,39.0036,0,0.000885,0,0
0:2:2.785,307.328,39.1277,0,0.000885,0,0
0:2:3.186,308.738,39.307,0,0.000885,0,0
0:2:3.590,309.676,39.4311,0,0.000885,0,0
0:2:3.990,310.553,39.5414,0,0.000885,0,0
0:2:4.390,312.43,39.7827,0,0.000885,0,0
0:2:4.786,312.843,39.831,0,0.000885,0,0
0:2:5.180,314.365,40.0241,0,0.000885,0,0
0:2:5.577,314.836,40.0861,0,0.000885,0,0
0:2:5.980,316.478,40.293,0,0.000885,0,0
0:2:6.387,317.532,40.4309,0,0.000885,0,0
0:2:6.791,318.177,40.5136,0,0.000885,0,0
0:2:7.188,320.174,40.7687,0,0.000885,0,0
0:2:7.585,321.17,40.8928,0,0.000885,0,0
0:2:7.987,321.993,40.9962,0,0.000885,0,0
0:2:8.392,323.163,41.1479,0,0.000885,0,0
0:2:8.793,324.511,41.3203,0,0.000885,0,0
0:2:9.191,325.45,41.4375,0,0.000885,0,0
0:2:9.593,326.682,41.5961,0,0.000885,0,0
0:2:9.988,327.153,41.6512,0,0.000885,0,0
0:2:10.392,328.559,41.8305,0,0.000885,0,0
0:2:10.791,328.795,41.865,0,0.000885,0,0
0:2:11.186,330.614,42.0925,0,0.000885,0,0
0:2:11.590,332.313,42.3131,0,0.000885,0,0
0:2:11.981,333.31,42.4372,0,0.000885,0,0
0:2:12.386,333.897,42.5131,0,0.000885,0,0
0:2:12.784,335.658,42.7337,0,0.000885,0,0
0:2:13.190,336.068,42.7889,0,0.000885,0,0
0:2:13.592,337.536,42.975,0,0.000885,0,0
0:2:13.994,337.767,43.0026,0,0.000885,0,0
0:2:14.394,339.35,43.2094,0,0.000885,0,0
0:2:14.794,339.938,43.2853,0,0.000885,0,0
0:2:15.188,341.521,43.4852,0,0.000885,0,0
0:2:15.579,342.46,43.6024,0,0.000885,0,0
0:2:15.987,343.514,43.7403,0,0.000885,0,0
0:2:16.382,344.982,43.9265,0,0.000885,0,0
0:2:16.789,345.978,44.0506,0,0.000885,0,0
0:2:17.181,347.446,44.2368,0,0.000885,0,0
0:2:17.586,347.855,44.2919,0,0.000885,0,0
0:2:17.993,349.968,44.5608,0,0.000885,0,0
0:2:18.389,350.378,44.6091,0,0.000885,0,0
0:2:18.791,351.494,44.7539,0,0.000885,0,0
0:2:19.193,352.842,44.9262,0,0.000885,0,0
0:2:19.593,353.723,45.0366,0,0.000885,0,0
0:2:19.992,354.541,45.14,0,0.000885,0,0
0:2:20.387,356.36,45.3744,0,0.000885,0,0
0:2:20.790,356.654,45.4089,0,0.000885,0,0
0:2:21.182,358.473,45.6433,0,0.000885,0,0
0:2:21.590,358.647,45.664,0,0.000885,0,0
0:2:21.987,360.524,45.9053,0,0.000885,0,0
0:2:22.390,361.111,45.9811,0,0.000885,0,0
0:2:22.792,363.104,46.2293,0,0.000885,0,0
0:2:23.193,363.575,46.2914,0,0.000885,0,0
0:2:23.597,365.039,46.4776,0,0.000885,0,0
0:2:23.998,365.977,46.5948,0,0.000885,0,0
0:2:24.397,367.267,46.7602,0,0.000885,0,0
0:2:24.791,367.739,46.8223,0,0.000885,0,0
0:2:25.188,369.674,47.0705,0,0.000885,0,0
0:2:25.582,370.145,47.1257,0,0.000885,0,0
0:2:25.988,371.729,47.3325,0,0.000885,0,0
0:2:26.391,372.08,47.3739,0,0.000885,0,0
0:2:26.786,373.837,47.6014,0,0.000885,0,0
0:2:27.182,374.247,47.6497,0,0.000885,0,0
0:2:27.587,375.95,47.8703,0,0.000885,0,0
0:2:27.978,376.417,47.9255,0,0.000885,0,0
0:2:28.381,378.352,48.1737,0,0.000885,0,0
0:2:28.784,379.06,48.2633,0,0.000885,0,0
0:2:29.186,380.172,48.4081,0,0.000885,0,0
0:2:29.588,381.582,48.5874,0,0.000885,0,0
0:2:29.991,382.049,48.6425,0,0.000885,0,0
0:2:30.396,383.632,48.8425,0,0.000885,0,0
0:2:30.793,383.868,48.8769,0,0.000885,0,0
0:2:31.188,385.688,49.1045,0,0.000885,0,0
0:2:31.592,386.332,49.1872,0,0.000885,0,0
0:2:31.984,387.974,49.4009,0,0.000885,0,0
0:2:32.382,389.144,49.5457,0,0.000885,0,0
0:2:32.788,389.793,49.6285,0,0.000885,0,0
0:2:33.193,391.728,49.8767,0,0.000885,0,0
0:2:33.596,392.489,49.9732,0,0.000885,0,0
0:2:33.999,393.663,50.1249,0,0.000885,0,0
0:2:34.398,394.13,50.18,0,0.000885,0,0
0:2:34.798,395.834,50.4007,0,0.000885,0,0
0:2:35.194,397.124,50.5661,0,0.000885,0,0
0:2:35.588,397.769,50.642,0,0.000885,0,0
0:2:35.983,399.468,50.8626,0,0.000885,0,0
0:2:36.392,400.291,50.966,0,0.000885,0,0
0:2:36.782,401.109,51.0695,0,0.000885,0,0
0:2:37.175,401.754,51.1522,0,0.000885,0,0
0:2:37.582,403.28,51.3453,0,0.000885,0,0
0:2:37.991,404.334,51.4832,0,0.000885,0,0
0:2:38.394,404.748,51.5314,0,0.000885,0,0
0:2:38.796,406.447,51.752,0,0.000885,0,0
0:2:39.196,407.15,51.8417,0,0.000885,0,0
0:2:39.596,409.085,52.0899,0,0.000885,0,0
0:2:39.992,409.205,52.1037,0,0.000885,0,0
0:2:40.393,410.962,52.3243,0,0.000885,0,0
0:2:40.788,412.079,52.4691,0,0.000885,0,0
0:2:41.182,413.017,52.5863,0,0.000885,0,0
0:2:41.591,414.543,52.7794,0,0.000885,0,0
0:2:41.984,415.188,52.8621,0,0.000885,0,0
0:2:42.376,417.065,53.1034,0,0.000885,0,0
0:2:42.792,417.532,53.1586,0,0.000885,0,0
0:2:43.190,418.822,53.3241,0,0.000885,0,0
0:2:43.595,419.819,53.4551,0,0.000885,0,0
0:2:43.995,421.465,53.6619,0,0.000885,0,0
0:2:44.395,422.047,53.7377,0,0.000885,0,0
0:2:44.793,423.279,53.8963,0,0.000885,0,0
0:2:45.190,424.569,54.0549,0,0.000885,0,0
0:2:45.580,425.099,54.1238,0,0.000885,0,0
0:2:45.983,426.624,54.3169,0,0.000885,0,0
0:2:46.390,426.86,54.3514,0,0.000885,0,0
0:2:46.785,428.15,54.5168,0,0.000885,0,0
0:2:47.195,429.262,54.6547,0,0.000885,0,0
0:2:47.586,430.904,54.8616,0,0.000885,0,0
0:2:47.990,431.491,54.9374,0,0.000885,0,0
0:2:48.393,432.781,55.1029,0,0.000885,0,0
0:2:48.796,434.307,55.296,0,0.000885,0,0
0:2:49.197,434.658,55.3442,0,0.000885,0,0
0:2:49.596,436.771,55.6131,0,0.000885,0,0
0:2:49.993,437.122,55.6545,0,0.000885,0,0
0:2:50.390,438.706,55.8544,0,0.000885,0,0
0:2:50.795,439.644,55.9785,0,0.000885,0,0
0:2:51.189,440.877,56.1371,0,0.000885,0,0
0:2:51.579,441.695,56.2405,0,0.000885,0,0
0:2:51.975,443.399,56.4543,0,0.000885,0,0
0:2:52.373,444.044,56.537,0,0.000885,0,0
0:2:52.789,444.511,56.5991,0,0.000885,0,0
0:2:53.192,446.388,56.8335,0,0.000885,0,0
0:2:53.595,447.091,56.9231,0,0.000885,0,0
0:2:53.997,448.616,57.1231,0,0.000885,0,0
0:2:54.397,449.791,57.2679,0,0.000885,0,0
0:2:54.799,450.494,57.3575,0,0.000885,0,0
0:2:55.191,452.197,57.5781,0,0.000885,0,0
0:2:55.597,452.607,57.6264,0,0.000885,0,0
0:2:55.995,453.545,57.7505,0,0.000885,0,0
0:2:56.397,455.364,57.978,0,0.000885,0,0
0:2:56.790,455.596,58.0056,0,0.000885,0,0
0:2:57.194,457.064,58.1918,0,0.000885,0,0
0:2:57.593,457.709,58.2745,0,0.000885,0,0
0:2:57.986,459.47,58.502,0,0.000885,0,0
0:2:58.390,460.467,58.6261,0,0.000885,0,0
0:2:58.793,461.521,58.764,0,0.000885,0,0
0:2:59.193,462.753,58.9226,0,0.000885,0,0
0:2:59.592,463.22,58.9778,0,0.000885,0,0
0:2:59.985,465.155,59.226,0,0.000885,0,0
0:3:0.390,465.742,59.3018,0,0.000885,0,0
0:3:0.784,467.21,59.488,0,0.000885,0,0
0:3:1.182,468.264,59.619,0,0.000885,0,0
0:3:1.585,469.087,59.7293,0,0.000885,0,0
0:3:1.981,470.786,59.943,0,0.000885,0,0
0:3:2.395,471.489,60.0327,0,0.000885,0,0
0:3:2.792,472.49,60.1568,0,0.000885,0,0
0:3:3.200,473.429,60.2809,0,0.000885,0,0
0:3:3.604,474.776,60.4532,0,0.000885,0,0
0:3:4.005,475.951,60.598,0,0.000885,0,0
0:3:4.405,477.179,60.7566,0,0.000885,0,0
0:3:4.802,478.531,60.929,0,0.000885,0,0
0:3:5.199,478.998,60.991,0,0.000885,0,0
0:3:5.592,479.879,61.1013,0,0.000885,0,0
0:3:5.996,480.991,61.2392,0,0.000885,0,0
0:3:6.393,482.459,61.4254,0,0.000885,0,0
0:3:6.799,483.219,61.5288,0,0.000885,0,0
0:3:7.194,484.629,61.7081,0,0.000885,0,0
0:3:7.596,486.155,61.9011,0,0.000885,0,0
0:3:8.001,486.68,61.9632,0,0.000885,0,0
0:3:8.400,487.503,62.0735,0,0.000885,0,0
0:3:8.803,489.144,62.2803,0,0.000885,0,0
0:3:9.205,490.728,62.4803,0,0.000885,0,0
0:3:9.606,491.431,62.5699,0,0.000885,0,0
0:3:10.002,492.018,62.6458,0,0.000885,0,0
0:3:10.400,493.837,62.8802,0,0.000885,0,0
0:3:10.793,494.598,62.9767,0,0.000885,0,0
0:3:11.195,495.536,63.0939,0,0.000885,0,0
0:3:11.592,497.24,63.3077,0,0.000885,0,0
0:3:11.984,498.001,63.4042,0,0.000885,0,0
0:3:12.401,499.291,63.5697,0,0.000885,0,0
0:3:12.795,500.581,63.7351,0,0.000885,0,0
0:3:13.196,500.701,63.7489,0,0.000885,0,0
0:3:13.600,501.639,63.873,0,0.000885,0,0
0:3:14.000,503.103,64.0592,0,0.000885,0,0
0:3:14.400,504.628,64.2522,0,0.000885,0,0
0:3:14.793,505.683,64.3832,0,0.000885,0,0
0:3:15.187,506.621,64.5073,0,0.000885,0,0
0:3:15.597,507.68,64.6383,0,0.000885,0,0
0:3:15.993,508.383,64.728,0,0.000885,0,0
0:3:16.394,509.379,64.859,0,0.000885,0,0
0:3:16.799,511.021,65.0658,0,0.000885,0,0
0:3:17.197,512.373,65.2382,0,0.000885,0,0
0:3:17.592,513.543,65.383,0,0.000885,0,0
0:3:17.998,514.659,65.5278,0,0.000885,0,0
0:3:18.402,515.42,65.6243,0,0.000885,0,0
0:3:18.803,516.123,65.7139,0,0.000885,0,0
0:3:19.203,517.355,65.8725,0,0.000885,0,0
0:3:19.603,518.881,66.0656,0,0.000885,0,0
0:3:19.998,520.464,66.2655,0,0.000885,0,0
0:3:20.389,521.225,66.362,0,0.000885,0,0
0:3:20.785,521.638,66.4172,0,0.000885,0,0
0:3:21.183,523.28,66.624,0,0.000885,0,0
0:3:21.598,524.454,66.7757,0,0.000885,0,0
0:3:22.000,525.215,66.8723,0,0.000885,0,0
0:3:22.397,526.038,66.9757,0,0.000885,0,0
0:3:22.794,527.328,67.1411,0,0.000885,0,0
0:3:23.200,528.382,67.279,0,0.000885,0,0
0:3:23.602,530.023,67.4859,0,0.000885,0,0
0:3:24.003,531.14,67.6238,0,0.000885,0,0
0:3:24.404,532.021,67.741,0,0.000885,0,0
0:3:24.804,533.426,67.9203,0,0.000885,0,0
0:3:25.196,533.662,67.9478,0,0.000885,0,0
0:3:25.600,534.658,68.0719,0,0.000885,0,0
0:3:25.994,536.358,68.2926,0,0.000885,0,0
0:3:26.393,537.181,68.396,0,0.000885,0,0
0:3:26.798,538.528,68.5684,0,0.000885,0,0
0:3:27.199,539.409,68.6787,0,0.000885,0,0
0:3:27.594,540.699,68.8442,0,0.000885,0,0
0:3:27.989,541.931,69.0027,0,0.000885,0,0
0:3:28.397,542.634,69.0924,0,0.000885,0,0
0:3:28.800,543.866,69.244,0,0.000885,0,0
0:3:29.202,544.689,69.3544,0,0.000885,0,0
0:3:29.603,546.388,69.5681,0,0.000885,0,0
0:3:30.004,547.149,69.6646,0,0.000885,0,0
0:3:30.398,548.675,69.8577,0,0.000885,0,0
0:3:30.789,549.907,70.0163,0,0.000885,0,0
0:3:31.196,551.081,70.1679,0,0.000885,0,0
0:3:31.594,551.726,70.2507,0,0.000885,0,0
0:3:31.988,552.487,70.3472,0,0.000885,0,0
0:3:32.391,553.777,70.5058,0,0.000885,0,0
0:3:32.784,554.364,70.5816,0,0.000885,0,0
0:3:33.187,555.89,70.7747,0,0.000885,0,0
0:3:33.590,556.944,70.9126,0,0.000885,0,0
0:3:33.994,558.061,71.0574,0,0.000885,0,0
0:3:34.391,558.999,71.1746,0,0.000885,0,0
0:3:34.786,560.347,71.3469,0,0.000885,0,0
0:3:35.184,561.521,71.4917,0,0.000885,0,0
0:3:35.589,562.869,71.6641,0,0.000885,0,0
0:3:35.984,564.043,71.8158,0,0.000885,0,0
0:3:36.387,564.688,71.8985,0,0.000885,0,0
0:3:36.794,566.152,72.0847,0,0.000885,0,0
0:3:37.191,567.326,72.2364,0,0.000885,0,0
0:3:37.597,568.029,72.326,0,0.000885,0,0
0:3:38.000,569.025,72.4501,0,0.000885,0,0
0:3:38.403,570.378,72.6225,0,0.000885,0,0
0:3:38.807,571.374,72.7466,0,0.000885,0,0
0:3:39.207,572.78,72.9258,0,0.000885,0,0
0:3:39.608,573.425,73.0086,0,0.000885,0,0
0:3:40.002,575.066,73.2223,0,0.000885,0,0
0:3:40.397,576.067,73.3464,0,0.000885,0,0
0:3:40.794,577.473,73.5257,0,0.000885,0,0
0:3:41.199,578.175,73.6153,0,0.000885,0,0
0:3:41.590,579.879,73.8291,0,0.000885,0,0
0:3:41.995,580.462,73.9049,0,0.000885,0,0
0:3:42.394,581.636,74.0566,0,0.000885,0,0
0:3:42.787,581.988,74.098,0,0.000885,0,0
0:3:43.190,583.571,74.3048,0,0.000885,0,0
0:3:43.595,584.51,74.422,0,0.000885,0,0
0:3:43.997,585.8,74.5875,0,0.000885,0,0
0:3:44.398,586.916,74.7254,0,0.000885,0,0
0:3:44.798,587.913,74.8564,0,0.000885,0,0
0:3:45.191,589.265,75.0287,0,0.000885,0,0
0:3:45.589,590.203,75.146,0,0.000885,0,0
0:3:45.999,591.022,75.2494,0,0.000885,0,0
0:3:46.397,592.258,75.408,0,0.000885,0,0
0:3:46.795,593.491,75.5665,0,0.000885,0,0
0:3:47.198,594.603,75.7044,0,0.000885,0,0
0:3:47.598,595.839,75.863,0,0.000885,0,0
0:3:47.998,596.894,76.0009,0,0.000885,0,0
0:3:48.404,597.952,76.1319,0,0.000885,0,0
0:3:48.808,598.949,76.2629,0,0.000885,0,0
0:3:49.209,600.296,76.4353,0,0.000885,0,0
0:3:49.608,601.413,76.5732,0,0.000885,0,0
0:3:50.008,602.529,76.718,0,0.000885,0,0
0:3:50.403,603.352,76.8214,0,0.000885,0,0
0:3:50.799,604.758,77.0006,0,0.000885,0,0
0:3:51.196,605.697,77.1179,0,0.000885,0,0
0:3:51.592,606.346,77.2006,0,0.000885,0,0
0:3:51.991,607.4,77.3385,0,0.000885,0,0
0:3:52.385,608.223,77.4419,0,0.000885,0,0
0:3:52.782,609.455,77.6005,0,0.000885,0,0
0:3:53.186,610.63,77.7453,0,0.000885,0,0
0:3:53.592,612.507,77.9866,0,0.000885,0,0
0:3:53.996,613.681,78.1383,0,0.000885,0,0
0:3:54.398,614.74,78.2693,0,0.000885,0,0
0:3:54.804,615.621,78.3796,0,0.000885,0,0
0:3:55.203,616.501,78.4968,0,0.000885,0,0
0:3:55.601,617.849,78.6692,0,0.000885,0,0
0:3:55.998,619.375,78.8622,0,0.000885,0,0
0:3:56.391,620.198,78.9657,0,0.000885,0,0
0:3:56.787,621.078,79.076,0,0.000885,0,0
0:3:57.188,622.133,79.2139,0,0.000885,0,0
0:3:57.585,622.662,79.2828,0,0.000885,0,0
0:3:57.990,624.188,79.4759,0,0.000885,0,0
0:3:58.397,625.189,79.6,0,0.000885,0,0
0:3:58.801,626.301,79.7448,0,0.000885,0,0
0:3:59.204,627.826,79.9378,0,0.000885,0,0
0:3:59.606,628.943,80.0826,0,0.000885,0,0
0:4:0.003,629.766,80.186,0,0.000885,0,0
0:4:0.399,631.114,80.3584,0,0.000885,0,0
0:4:0.797,631.937,80.4618,0,0.000885,0,0
0:4:1.196,633.169,80.6204,0,0.000885,0,0
0:4:1.592,633.814,80.7031,0,0.000885,0,0
0:4:1.998,634.93,80.841,0,0.000885,0,0
0:4:2.392,635.869,80.9582,0,0.000885,0,0
0:4:2.792,637.101,81.1168,0,0.000885,0,0
0:4:3.190,638.511,81.2961,0,0.000885,0,0
0:4:3.596,639.801,81.4616,0,0.000885,0,0
0:4:4.000,640.45,81.5443,0,0.000885,0,0
0:4:4.402,641.798,81.7167,0,0.000885,0,0
0:4:4.804,643.266,81.9028,0,0.000885,0,0
0:4:5.202,643.796,81.9718,0,0.000885,0,0
0:4:5.597,645.495,82.1855,0,0.000885,0,0
0:4:5.991,646.438,82.3096,0,0.000885,0,0
0:4:6.389,647.256,82.413,0,0.000885,0,0
0:4:6.788,648.782,82.6061,0,0.000885,0,0
0:4:7.185,649.663,82.7164,0,0.000885,0,0
0:4:7.590,650.192,82.7854,0,0.000885,0,0
0:4:7.994,651.838,82.9922,0,0.000885,0,0
0:4:8.400,652.599,83.0887,0,0.000885,0,0
0:4:8.805,654.009,83.268,0,0.000885,0,0
0:4:9.209,655.356,83.4404,0,0.000885,0,0
0:4:9.611,656.064,83.53,0,0.000885,0,0
0:4:10.009,657.06,83.661,0,0.000885,0,0
0:4:10.407,658.292,83.8196,0,0.000885,0,0
0:4:10.807,659.293,83.9437,0,0.000885,0,0
0:4:11.203,660.232,84.0609,0,0.000885,0,0
0:4:11.597,661.522,84.2264,0,0.000885,0,0
0:4:11.993,663.163,84.4401,0,0.000885,0,0
0:4:12.393,664.044,84.5504,0,0.000885,0,0
0:4:12.801,664.867,84.6538,0,0.000885,0,0
0:4:13.197,666.099,84.8124,0,0.000885,0,0
0:4:13.601,666.922,84.9158,0,0.000885,0,0
0:4:14.006,667.918,85.0399,0,0.000885,0,0
0:4:14.408,669.093,85.1916,0,0.000885,0,0
0:4:14.809,670.031,85.3088,0,0.000885,0,0
0:4:15.208,671.619,85.5157,0,0.000885,0,0
0:4:15.601,672.028,85.5639,0,0.000885,0,0
0:4:16.000,674.084,85.8259,0,0.000885,0,0
0:4:16.399,674.964,85.9363,0,0.000885,0,0
0:4:16.805,676.139,86.0879,0,0.000885,0,0
0:4:17.199,677.313,86.2396,0,0.000885,0,0
0:4:17.595,678.131,86.343,0,0.000885,0,0
0:4:17.994,679.426,86.5085,0,0.000885,0,0
0:4:18.389,680.716,86.674,0,0.000885,0,0
0:4:18.793,681.832,86.8119,0,0.000885,0,0
0:4:19.199,682.829,86.9429,0,0.000885,0,0
0:4:19.601,684.297,87.129,0,0.000885,0,0
0:4:20.004,684.475,87.1497,0,0.000885,0,0
0:4:20.400,685.355,87.26,0,0.000885,0,0
0:4:20.794,686.761,87.4393,0,0.000885,0,0
0:4:21.191,687.584,87.5427,0,0.000885,0,0
0:4:21.591,689.581,87.7978,0,0.000885,0,0
0:4:22.000,690.52,87.9219,0,0.000885,0,0
0:4:22.394,691.343,88.0254,0,0.000885,0,0
0:4:22.791,691.988,88.1081,0,0.000885,0,0
0:4:23.194,693.456,88.2943,0,0.000885,0,0
0:4:23.603,694.688,88.4528,0,0.000885,0,0
0:4:24.005,695.862,88.5976,0,0.000885,0,0
0:4:24.407,696.916,88.7355,0,0.000885,0,0
0:4:24.802,697.681,88.8321,0,0.000885,0,0
0:4:25.201,699.558,89.0734,0,0.000885,0,0
0:4:25.599,700.497,89.1906,0,0.000885,0,0
0:4:25.993,701.084,89.2664,0,0.000885,0,0
0:4:26.389,702.61,89.4595,0,0.000885,0,0
0:4:26.785,703.491,89.5698,0,0.000885,0,0
0:4:27.185,704.078,89.6456,0,0.000885,0,0
0:4:27.593,705.724,89.8525,0,0.000885,0,0
0:4:27.999,706.72,89.9835,0,0.000885,0,0
0:4:28.404,707.774,90.1145,0,0.000885,0,0
0:4:28.807,709.362,90.3213,0,0.000885,0,0
0:4:29.211,710.595,90.473,0,0.000885,0,0
0:4:29.613,711.182,90.5488,0,0.000885,0,0
0:4:30.009,712.12,90.673,0,0.000885,0,0
0:4:30.406,713.352,90.8246,0,0.000885,0,0
0:4:30.804,714.878,91.0246,0,0.000885,0,0
0:4:31.203,715.523,91.1004,0,0.000885,0,0
0:4:31.600,716.288,91.2038,0,0.000885,0,0
0:4:31.993,717.578,91.3624,0,0.000885,0,0
0:4:32.389,718.695,91.5072,0,0.000885,0,0
0:4:32.795,719.633,91.6244,0,0.000885,0,0
0:4:33.194,720.986,91.7968,0,0.000885,0,0
0:4:33.602,721.924,91.9209,0,0.000885,0,0
0:4:34.006,723.098,92.0657,0,0.000885,0,0
0:4:34.408,724.446,92.2381,0,0.000885,0,0
0:4:34.809,725.447,92.3691,0,0.000885,0,0
0:4:35.208,726.617,92.5139,0,0.000885,0,0
0:4:35.605,727.854,92.6724,0,0.000885,0,0
0:4:36.000,729.259,92.8517,0,0.000885,0,0
0:4:36.394,730.024,92.9482,0,0.000885,0,0
0:4:36.795,730.554,93.0172,0,0.000885,0,0
0:4:37.204,731.959,93.1964,0,0.000885,0,0
0:4:37.597,733.485,93.3895,0,0.000885,0,0
0:4:37.995,733.899,93.4446,0,0.000885,0,0
0:4:38.401,735.54,93.6515,0,0.000885,0,0
0:4:38.805,736.479,93.7687,0,0.000885,0,0
0:4:39.209,737.422,93.8928,0,0.000885,0,0
0:4:39.611,738.592,94.0376,0,0.000885,0,0
0:4:40.007,739.179,94.1134,0,0.000885,0,0
0:4:40.405,740.473,94.2789,0,0.000885,0,0
0:4:40.805,741.999,94.472,0,0.000885,0,0
0:4:41.202,743.289,94.6374,0,0.000885,0,0
0:4:41.594,744.228,94.7615,0,0.000885,0,0
0:4:41.991,745.344,94.8994,0,0.000885,0,0
0:4:42.390,746.403,95.0373,0,0.000885,0,0
0:4:42.798,747.635,95.189,0,0.000885,0,0
0:4:43.195,748.222,95.2649,0,0.000885,0,0
0:4:43.602,749.396,95.4165,0,0.000885,0,0
0:4:44.006,750.686,95.582,0,0.000885,0,0
0:4:44.409,751.976,95.7475,0,0.000885,0,0
0:4:44.811,753.035,95.8785,0,0.000885,0,0
0:4:45.207,754.503,96.0647,0,0.000885,0,0
0:4:45.604,755.321,96.1681,0,0.000885,0,0
0:4:46.001,756.202,96.2853,0,0.000885,0,0
0:4:46.401,757.434,96.437,0,0.000885,0,0
0:4:46.795,758.671,96.5955,0,0.000885,0,0
0:4:47.198,759.547,96.7059,0,0.000885,0,0
0:4:47.596,760.37,96.8162,0,0.000885,0,0
0:4:47.995,761.722,96.9886,0,0.000885,0,0
0:4:48.395,762.834,97.1264,0,0.000885,0,0
0:4:48.802,763.951,97.2712,0,0.000885,0,0
0:4:49.206,765.01,97.4022,0,0.000885,0,0
0:4:49.608,766.184,97.5539,0,0.000885,0,0
0:4:50.009,767.18,97.678,0,0.000885,0,0
0:4:50.407,768.355,97.8297,0,0.000885,0,0
0:4:50.812,769.351,97.9538,0,0.000885,0,0
0:4:51.205,770.525,98.1055,0,0.000885,0,0
0:4:51.605,771.348,98.2089,0,0.000885,0,0
0:4:52.003,772.523,98.3606,0,0.000885,0,0
0:4:52.396,773.639,98.5054,0,0.000885,0,0
0:4:52.802,774.458,98.6088,0,0.000885,0,0
0:4:53.206,775.868,98.7881,0,0.000885,0,0
0:4:53.610,776.513,98.8708,0,0.000885,0,0
0:4:54.014,778.39,99.1052,0,0.000885,0,0
0:4:54.416,779.097,99.1949,0,0.000885,0,0
0:4:54.812,780.209,99.3397,0,0.000885,0,0
0:4:55.211,781.384,99.4913,0,0.000885,0,0
0:4:55.609,783.265,99.7258,0,0.000885,0,0
0:4:56.006,783.852,99.8016,0,0.000885,0,0
0:4:56.409,785.027,99.9533,0,0.000885,0,0
0:4:56.807,785.965,100.071,0,0.000885,0,0
0:4:57.206,786.846,100.181,0,0.000885,0,0
0:4:57.603,788.136,100.346,0,0.000885,0,0
0:4:57.997,789.017,100.464,0,0.000885,0,0
0:4:58.403,790.307,100.622,0,0.000885,0,0
0:4:58.808,791.072,100.726,0,0.000885,0,0
0:4:59.210,792.597,100.919,0,0.000885,0,0
0:4:59.612,793.83,101.07,0,0.000885,0,0
0:5:0.008,794.946,101.215,0,0.000885,0,0
0:5:0.405,796.236,101.381,0,0.000885,0,0
0:5:0.804,796.939,101.47,0,0.000885,0,0
0:5:1.199,798.113,101.622,0,0.000885,0,0
0:5:1.594,798.936,101.725,0,0.000885,0,0
0:5:1.989,800.288,101.898,0,0.000885,0,0
0:5:2.398,800.933,101.98,0,0.000885,0,0
0:5:2.796,802.459,102.173,0,0.000885,0,0
0:5:3.204,803.22,102.27,0,0.000885,0,0
0:5:3.607,804.514,102.435,0,0.000885,0,0
0:5:4.012,805.804,102.601,0,0.000885,0,0
0:5:4.413,806.921,102.739,0,0.000885,0,0
0:5:4.816,808.211,102.904,0,0.000885,0,0
0:5:5.212,808.856,102.987,0,0.000885,0,0
0:5:5.607,810.733,103.228,0,0.000885,0,0
0:5:6.006,811.676,103.346,0,0.000885,0,0
0:5:6.405,812.85,103.497,0,0.000885,0,0
0:5:6.809,813.082,103.525,0,0.000885,0,0
0:5:7.203,814.14,103.663,0,0.000885,0,0
0:5:7.600,815.372,103.814,0,0.000885,0,0
0:5:7.998,816.311,103.938,0,0.000885,0,0
0:5:8.396,817.663,104.111,0,0.000885,0,0
0:5:8.799,818.66,104.235,0,0.000885,0,0
0:5:9.205,819.776,104.38,0,0.000885,0,0
0:5:9.608,821.066,104.538,0,0.000885,0,0
0:5:10.011,822.183,104.683,0,0.000885,0,0
0:5:10.406,823.473,104.849,0,0.000885,0,0
0:5:10.810,824.531,104.98,0,0.000885,0,0
0:5:11.208,825.528,105.111,0,0.000885,0,0
0:5:11.608,826.23,105.2,0,0.000885,0,0
0:5:12.005,827.347,105.338,0,0.000885,0,0
0:5:12.409,828.637,105.504,0,0.000885,0,0
0:5:12.806,830.047,105.683,0,0.000885,0,0
0:5:13.209,830.986,105.807,0,0.000885,0,0
0:5:13.615,832.16,105.952,0,0.000885,0,0
0:5:14.018,833.392,106.11,0,0.000885,0,0
0:5:14.419,834.802,106.29,0,0.000885,0,0
0:5:14.818,835.505,106.379,0,0.000885,0,0
0:5:15.217,836.27,106.476,0,0.000885,0,0
0:5:15.613,837.854,106.676,0,0.000885,0,0
0:5:16.009,838.97,106.82,0,0.000885,0,0
0:5:16.405,839.793,106.924,0,0.000885,0,0
0:5:16.805,840.905,107.069,0,0.000885,0,0
0:5:17.205,841.728,107.172,0,0.000885,0,0
0:5:17.610,842.551,107.276,0,0.000885,0,0
0:5:18.004,844.544,107.531,0,0.000885,0,0
0:5:18.408,845.367,107.634,0,0.000885,0,0
0:5:18.813,846.483,107.779,0,0.000885,0,0
0:5:19.216,847.244,107.875,0,0.000885,0,0
0:5:19.618,848.832,108.075,0,0.000885,0,0
0:5:20.015,849.944,108.22,0,0.000885,0,0
0:5:20.414,851.06,108.358,0,0.000885,0,0
0:5:20.812,852.119,108.496,0,0.000885,0,0
0:5:21.207,852.706,108.572,0,0.000885,0,0
0:5:21.600,853.881,108.717,0,0.000885,0,0
0:5:21.999,855.228,108.889,0,0.000885,0,0
0:5:22.398,856.754,109.089,0,0.000885,0,0
0:5:22.794,857.461,109.178,0,0.000885,0,0
0:5:23.189,858.458,109.303,0,0.000885,0,0
0:5:23.593,859.454,109.427,0,0.000885,0,0
0:5:23.999,860.455,109.558,0,0.000885,0,0
0:5:24.400,862.212,109.778,0,0.000885,0,0
0:5:24.805,863.271,109.916,0,0.000885,0,0
0:5:25.209,864.209,110.033,0,0.000885,0,0
0:5:25.605,864.912,110.123,0,0.000885,0,0
0:5:26.005,865.913,110.254,0,0.000885,0,0
0:5:26.411,867.439,110.447,0,0.000885,0,0
0:5:26.806,868.32,110.557,0,0.000885,0,0
0:5:27.200,869.142,110.661,0,0.000885,0,0
0:5:27.599,870.375,110.819,0,0.000885,0,0
0:5:27.997,871.78,110.999,0,0.000885,0,0
0:5:28.402,872.545,111.095,0,0.000885,0,0
0:5:28.807,874.013,111.281,0,0.000885,0,0
0:5:29.208,874.774,111.378,0,0.000885,0,0
0:5:29.609,876.184,111.557,0,0.000885,0,0
0:5:30.008,877.18,111.688,0,0.000885,0,0
0:5:30.400,877.888,111.778,0,0.000885,0,0
0:5:30.796,879.235,111.95,0,0.000885,0,0
0:5:31.196,880.646,112.129,0,0.000885,0,0
0:5:31.594,881.348,112.219,0,0.000885,0,0
0:5:31.992,882.758,112.398,0,0.000885,0,0
0:5:32.386,884.342,112.598,0,0.000885,0,0
0:5:32.783,884.636,112.633,0,0.000885,0,0
0:5:33.185,885.988,112.805,0,0.000885,0,0
0:5:33.590,887.278,112.971,0,0.000885,0,0
0:5:33.993,888.043,113.067,0,0.000885,0,0
0:5:34.397,889.217,113.219,0,0.000885,0,0
0:5:34.795,890.392,113.37,0,0.000885,0,0
0:5:35.193,891.917,113.564,0,0.000885,0,0
0:5:35.590,892.856,113.681,0,0.000885,0,0
0:5:35.984,893.443,113.757,0,0.000885,0,0
0:5:36.383,894.382,113.874,0,0.000885,0,0
0:5:36.780,895.498,114.019,0,0.000885,0,0
0:5:37.175,896.966,114.205,0,0.000885,0,0
0:5:37.572,898.02,114.343,0,0.000885,0,0
0:5:37.968,899.017,114.467,0,0.000885,0,0
0:5:38.368,900.427,114.646,0,0.000885,0,0
0:5:38.773,901.423,114.77,0,0.000885,0,0
0:5:39.177,902.54,114.915,0,0.000885,0,0
0:5:39.579,903.363,115.018,0,0.000885,0,0
0:5:39.979,904.71,115.191,0,0.000885,0,0
0:5:40.377,905.591,115.301,0,0.000885,0,0
0:5:40.773,906.886,115.467,0,0.000885,0,0
0:5:41.169,908.176,115.632,0,0.000885,0,0
0:5:41.567,909.114,115.749,0,0.000885,0,0
0:5:41.965,909.701,115.825,0,0.000885,0,0
0:5:42.362,910.818,115.97,0,0.000885,0,0
0:5:42.758,912.344,116.163,0,0.000885,0,0
0:5:43.163,913.46,116.308,0,0.000885,0,0
0:5:43.568,913.985,116.37,0,0.000885,0,0
0:5:43.970,915.395,116.549,0,0.000885,0,0
0:5:44.372,916.454,116.687,0,0.000885,0,0
0:5:44.767,917.566,116.832,0,0.000885,0,0
0:5:45.165,918.918,116.997,0,0.000885,0,0
0:5:45.565,919.914,117.128,0,0.000885,0,0
0:5:45.963,920.795,117.238,0,0.000885,0,0
0:5:46.358,922.321,117.432,0,0.000885,0,0
0:5:46.754,923.144,117.535,0,0.000885,0,0
0:5:47.153,924.376,117.694,0,0.000885,0,0
0:5:47.552,925.608,117.852,0,0.000885,0,0
0:5:47.947,926.431,117.956,0,0.000885,0,0
0:5:48.352,928.073,118.169,0,0.000885,0,0
0:5:48.756,929.016,118.286,0,0.000885,0,0
0:5:49.158,929.896,118.397,0,0.000885,0,0
0:5:49.559,931.128,118.555,0,0.000885,0,0
0:5:49.955,932.476,118.728,0,0.000885,0,0
0:5:50.351,932.89,118.776,0,0.000885,0,0
0:5:50.751,934.06,118.928,0,0.000885,0,0
0:5:51.149,935.59,119.121,0,0.000885,0,0
0:5:51.544,936.586,119.252,0,0.000885,0,0
0:5:51.939,937.525,119.369,0,0.000885,0,0
0:5:52.338,938.521,119.493,0,0.000885,0,0
0:5:52.737,939.46,119.617,0,0.000885,0,0
0:5:53.132,940.812,119.79,0,0.000885,0,0
0:5:53.535,941.342,119.858,0,0.000885,0,0
0:5:53.939,942.983,120.065,0,0.000885,0,0
0:5:54.341,944.042,120.196,0,0.000885,0,0
0:5:54.744,945.038,120.327,0,0.000885,0,0
0:5:55.141,946.328,120.493,0,0.000885,0,0
0:5:55.536,947.445,120.631,0,0.000885,0,0
0:5:55.934,948.734,120.796,0,0.000885,0,0
0:5:56.333,949.5,120.893,0,0.000885,0,0
0:5:56.728,951.083,121.093,0,0.000885,0,0
0:5:57.123,952.2,121.237,0,0.000885,0,0
0:5:57.521,953.08,121.348,0,0.000885,0,0
0:5:57.919,953.374,121.389,0,0.000885,0,0
0:5:58.316,955.078,121.603,0,0.000885,0,0
0:5:58.720,955.896,121.706,0,0.000885,0,0
0:5:59.125,957.07,121.858,0,0.000885,0,0
0:5:59.528,958.481,122.037,0,0.000885,0,0
0:5:59.929,958.774,122.072,0,0.000885,0,0
0:6:0.327,960.536,122.299,0,0.000885,0,0
0:6:0.722,961.826,122.465,0,0.000885,0,0
0:6:1.119,962.942,122.603,0,0.000885,0,0
0:6:1.518,963.881,122.727,0,0.000885,0,0
0:6:1.916,964.877,122.851,0,0.000885,0,0
0:6:2.312,966.581,123.071,0,0.000885,0,0
0:6:2.706,967.519,123.189,0,0.000885,0,0
0:6:3.111,968.4,123.299,0,0.000885,0,0
0:6:3.515,969.281,123.416,0,0.000885,0,0
0:6:3.919,970.162,123.526,0,0.000885,0,0
0:6:4.319,971.514,123.699,0,0.000885,0,0
0:6:4.717,972.452,123.816,0,0.000885,0,0
0:6:5.118,973.685,123.975,0,0.000885,0,0
0:6:5.515,975.032,124.147,0,0.000885,0,0
0:6:5.910,975.677,124.23,0,0.000885,0,0
0:6:6.304,976.736,124.361,0,0.000885,0,0
0:6:6.703,977.91,124.512,0,0.000885,0,0
0:6:7.110,978.849,124.63,0,0.000885,0,0
0:6:7.504,980.023,124.781,0,0.000885,0,0
0:6:7.911,981.082,124.912,0,0.000885,0,0
0:6:8.314,982.252,125.064,0,0.000885,0,0
0:6:8.719,983.84,125.264,0,0.000885,0,0
0:6:9.123,984.721,125.381,0,0.000885,0,0
0:6:9.524,986.011,125.54,0,0.000885,0,0
0:6:9.921,987.358,125.712,0,0.000885,0,0
0:6:10.320,987.946,125.788,0,0.000885,0,0
0:6:10.718,989.12,125.94,0,0.000885,0,0
0:6:11.113,990.063,126.057,0,0.000885,0,0
0:6:11.506,991.646,126.264,0,0.000885,0,0
0:6:11.904,992.056,126.312,0,0.000885,0,0
0:6:12.302,993.581,126.505,0,0.000885,0,0
0:6:12.710,994.289,126.595,0,0.000885,0,0
0:6:13.101,995.872,126.801,0,0.000885,0,0
0:6:13.504,996.517,126.877,0,0.000885,0,0
0:6:13.911,998.101,127.084,0,0.000885,0,0
0:6:14.314,998.982,127.194,0,0.000885,0,0
0:6:14.716,1000.21,127.353,0,0.000885,0,0
0:6:15.110,1001.16,127.47,0,0.000885,0,0
0:6:15.505,1002.39,127.629,0,0.000885,0,0
0:6:15.905,1003.21,127.732,0,0.000885,0,0
0:6:16.300,1004.62,127.912,0,0.000885,0,0
0:6:16.695,1005.32,128.001,0,0.000885,0,0
0:6:17.092,1006.56,128.16,0,0.000885,0,0
0:6:17.491,1008.08,128.353,0,0.000885,0,0
0:6:17.897,1008.55,128.415,0,0.000885,0,0
0:6:18.301,1010.37,128.642,0,0.000885,0,0
0:6:18.704,1010.9,128.711,0,0.000885,0,0
0:6:19.106,1012.01,128.856,0,0.000885,0,0
0:6:19.507,1013.13,128.994,0,0.000885,0,0
0:6:19.902,1014.48,129.166,0,0.000885,0,0
0:6:20.297,1015.3,129.27,0,0.000885,0,0
0:6:20.695,1016.48,129.421,0,0.000885,0,0
0:6:21.093,1017.29,129.525,0,0.000885,0,0
0:6:21.511,1018.71,129.704,0,0.000885,0,0
0:6:21.904,1019.82,129.849,0,0.000885,0,0
0:6:22.299,1021.05,130.008,0,0.000885,0,0
0:6:22.698,1022.29,130.159,0,0.000885,0,0
0:6:23.097,1023.29,130.29,0,0.000885,0,0
0:6:23.502,1024.52,130.449,0,0.000885,0,0
0:6:23.903,1025.16,130.525,0,0.000885,0,0
0:6:24.305,1027.04,130.766,0,0.000885,0,0
0:6:24.705,1027.51,130.828,0,0.000885,0,0
0:6:25.103,1028.45,130.945,0,0.000885,0,0
0:6:25.499,1029.51,131.083,0,0.000885,0,0
0:6:25.895,1030.92,131.262,0,0.000885,0,0
0:6:26.292,1031.91,131.386,0,0.000885,0,0
0:6:26.701,1032.97,131.524,0,0.000885,0,0
0:6:27.107,1034.26,131.683,0,0.000885,0,0
0:6:27.503,1034.85,131.759,0,0.000885,0,0
0:6:27.899,1036.32,131.945,0,0.000885,0,0
0:6:28.301,1036.9,132.021,0,0.000885,0,0
0:6:28.706,1038.25,132.193,0,0.000885,0,0
0:6:29.108,1039.9,132.407,0,0.000885,0,0
0:6:29.512,1041.01,132.545,0,0.000885,0,0
0:6:29.918,1041.6,132.621,0,0.000885,0,0
0:6:30.314,1043.3,132.834,0,0.000885,0,0
0:6:30.714,1044.18,132.952,0,0.000885,0,0
0:6:31.108,1045.71,133.145,0,0.000885,0,0
0:6:31.501,1046.06,133.186,0,0.000885,0,0
0:6:31.897,1047.35,133.352,0,0.000885,0,0
0:6:32.305,1049.11,133.579,0,0.000885,0,0
0:6:32.715,1049.82,133.669,0,0.000885,0,0
0:6:33.120,1050.75,133.786,0,0.000885,0,0
0:6:33.525,1052.22,133.972,0,0.000885,0,0
0:6:33.927,1052.34,133.986,0,0.000885,0,0
0:6:34.330,1053.51,134.138,0,0.000885,0,0
0:6:34.733,1055.39,134.379,0,0.000885,0,0
0:6:35.129,1055.63,134.406,0,0.000885,0,0
0:6:35.524,1057.39,134.634,0,0.000885,0,0
0:6:35.921,1058.85,134.82,0,0.000885,0,0
0:6:36.321,1059.33,134.875,0,0.000885,0,0
0:6:36.717,1060.32,135.006,0,0.000885,0,0
0:6:37.114,1061.73,135.186,0,0.000885,0,0
0:6:37.506,1062.85,135.323,0,0.000885,0,0
0:6:37.904,1064.37,135.523,0,0.000885,0,0
0:6:38.305,1065.08,135.613,0,0.000885,0,0
0:6:38.712,1065.55,135.668,0,0.000885,0,0
0:6:39.115,1066.9,135.841,0,0.000885,0,0
0:6:39.517,1068.42,136.034,0,0.000885,0,0
0:6:39.915,1069.48,136.171,0,0.000885,0,0
0:6:40.313,1070.3,136.275,0,0.000885,0,0
0:6:40.707,1071.42,136.42,0,0.000885,0,0
0:6:41.103,1072.83,136.599,0,0.000885,0,0
0:6:41.501,1074.12,136.758,0,0.000885,0,0
0:6:41.908,1074.94,136.868,0,0.000885,0,0
0:6:42.318,1076.59,137.075,0,0.000885,0,0
0:6:42.713,1076.94,137.123,0,0.000885,0,0
0:6:43.106,1077.93,137.247,0,0.000885,0,0
0:6:43.508,1078.99,137.378,0,0.000885,0,0
0:6:43.916,1080.28,137.544,0,0.000885,0,0
0:6:44.318,1081.04,137.64,0,0.000885,0,0
0:6:44.721,1082.39,137.812,0,0.000885,0,0
0:6:45.117,1083.45,137.95,0,0.000885,0,0
0:6:45.517,1084.69,138.109,0,0.000885,0,0
0:6:45.915,1085.92,138.261,0,0.000885,0,0
0:6:46.309,1087.27,138.433,0,0.000885,0,0
0:6:46.706,1088.38,138.578,0,0.000885,0,0
0:6:47.102,1089.56,138.729,0,0.000885,0,0
0:6:47.500,1090.44,138.84,0,0.000885,0,0
0:6:47.900,1091.2,138.936,0,0.000885,0,0
0:6:48.306,1092.31,139.081,0,0.000885,0,0
0:6:48.709,1093.02,139.171,0,0.000885,0,0
0:6:49.114,1094.31,139.329,0,0.000885,0,0
0:6:49.515,1095.66,139.502,0,0.000885,0,0
0:6:49.922,1097.01,139.674,0,0.000885,0,0
0:6:50.318,1097.71,139.764,0,0.000885,0,0
0:6:50.711,1099.48,139.991,0,0.000885,0,0
0:6:51.110,1100.65,140.136,0,0.000885,0,0
0:6:51.508,1101.59,140.26,0,0.000885,0,0
0:6:51.904,1102.12,140.329,0,0.000885,0,0
0:6:52.300,1103.41,140.488,0,0.000885,0,0
0:6:52.694,1104.35,140.612,0,0.000885,0,0
0:6:53.099,1105.52,140.756,0,0.000885,0,0
0:6:53.502,1106.23,140.846,0,0.000885,0,0
0:6:53.906,1107.4,140.998,0,0.000885,0,0
0:6:54.310,1109.16,141.225,0,0.000885,0,0
0:6:54.705,1109.45,141.26,0,0.000885,0,0
0:6:55.106,1110.98,141.453,0,0.000885,0,0
0:6:55.504,1111.86,141.57,0,0.000885,0,0
0:6:55.909,1113.45,141.77,0,0.000885,0,0
0:6:56.315,1114.39,141.887,0,0.000885,0,0
0:6:56.711,1115.21,141.991,0,0.000885,0,0
0:6:57.110,1116.56,142.163,0,0.000885,0,0
0:6:57.508,1117.5,142.287,0,0.000885,0,0
0:6:57.902,1119.26,142.508,0,0.000885,0,0
0:6:58.306,1120.32,142.646,0,0.000885,0,0
0:6:58.711,1121.66,142.818,0,0.000885,0,0
0:6:59.116,1122.37,142.908,0,0.000885,0,0
0:6:59.518,1123.6,143.059,0,0.000885,0,0
0:6:59.911,1124.36,143.156,0,0.000885,0,0
0:7:0.310,1125.6,143.314,0,0.000885,0,0
0:7:0.707,1126.65,143.452,0,0.000885,0,0
0:7:1.103,1127.18,143.514,0,0.000885,0,0
0:7:1.508,1128.18,143.645,0,0.000885,0,0
0:7:1.903,1129.65,143.832,0,0.000885,0,0
0:7:2.303,1130.76,143.976,0,0.000885,0,0
0:7:2.702,1131.7,144.094,0,0.000885,0,0
0:7:3.119,1133.4,144.307,0,0.000885,0,0
0:7:3.524,1134.11,144.397,0,0.000885,0,0
0:7:3.927,1135.46,144.569,0,0.000885,0,0
0:7:4.330,1135.81,144.618,0,0.000885,0,0
0:7:4.733,1137.69,144.852,0,0.000885,0,0
0:7:5.129,1138.16,144.914,0,0.000885,0,0
0:7:5.525,1139.1,145.031,0,0.000885,0,0
0:7:5.924,1140.63,145.231,0,0.000885,0,0
0:7:6.322,1141.62,145.355,0,0.000885,0,0
0:7:6.718,1142.97,145.528,0,0.000885,0,0
0:7:7.115,1144.14,145.679,0,0.000885,0,0
0:7:7.508,1145.08,145.797,0,0.000885,0,0
0:7:7.909,1146.49,145.976,0,0.000885,0,0
0:7:8.307,1147.61,146.121,0,0.000885,0,0
0:7:8.712,1148.78,146.265,0,0.000885,0,0
0:7:9.117,1149.9,146.41,0,0.000885,0,0
0:7:9.519,1151.19,146.576,0,0.000885,0,0
0:7:9.920,1152.25,146.707,0,0.000885,0,0
0:7:10.318,1153.3,146.845,0,0.000885,0,0
0:7:10.711,1154.36,146.976,0,0.000885,0,0
0:7:11.106,1154.71,147.024,0,0.000885,0,0
0:7:11.513,1155.95,147.182,0,0.000885,0,0
0:7:11.913,1157.77,147.41,0,0.000885,0,0
0:7:12.309,1158.35,147.486,0,0.000885,0,0
0:7:12.705,1159.29,147.603,0,0.000885,0,0
0:7:13.110,1160.76,147.789,0,0.000885,0,0
0:7:13.517,1153.01,146.803,0,0.000885,0,0
0:7:13.917,1084.1,138.033,0,0.000885,0,0
0:7:14.319,1082.98,137.888,0,0.000885,0,0
0:7:14.713,1075.29,136.909,0,0.000885,0,0
0:7:15.119,1012.31,128.891,0,0.000885,0,0
0:7:15.517,1000.69,127.408,0,0.000885,0,0
0:7:15.913,996.282,126.85,0,0.000885,0,0
0:7:16.308,993.057,126.443,0,0.000885,0,0
0:7:16.723,992.176,126.326,0,0.000885,0,0
0:7:17.118,991.704,126.271,0,0.000885,0,0
0:7:17.518,990.824,126.153,0,0.000885,0,0
0:7:17.913,990.236,126.078,0,0.000885,0,0
0:7:18.319,990.646,126.133,0,0.000885,0,0
0:7:18.722,989.649,126.009,0,0.000885,0,0
0:7:19.124,989.004,125.926,0,0.000885,0,0
0:7:19.524,988.181,125.822,0,0.000885,0,0
0:7:19.920,987.946,125.788,0,0.000885,0,0
0:7:20.311,987.888,125.781,0,0.000885,0,0
0:7:20.707,988.066,125.802,0,0.000885,0,0
0:7:21.105,987.536,125.74,0,0.000885,0,0
0:7:21.503,984.836,125.395,0,0.000885,0,0
0:7:21.899,955.838,121.699,0,0.000885,0,0
0:7:22.291,933.708,118.886,0,0.000885,0,0
0:7:22.688,855.994,108.985,0,0.000885,0,0
0:7:23.088,839.437,106.883,0,0.000885,0,0
0:7:23.493,829.931,105.669,0,0.000885,0,0
0:7:23.828,825.408,105.097,0,0.000885,0,0