File: DataFile2021-07-28_095210.csv
Test ID:,Date Tested:,Time:,Test Type:,Diameter Avg. (mm):,Cyl. Corr. Factor:,Height (mm):,Age (days):,Weight (kN):,Break Type:,Ramp Rate (MPa/s):,Load at Break (kN):,Stress at Break (MPa):
12,7/28/2021,09:52,Cylinder,150,1,300,0,13.69,3,0.34,827.05,46.8
Sample Time,Load (kN),Stress (MPa),Long. Strain,Trans. Strain,Chan1 Deflection (mm),Chan2 Deflection (mm)
0:0:7.894,7.5086,0.427475,0,0.000885,0,0
0:0:8.090,12.9621,0.730844,0,0.000885,0,0
0:0:8.288,12.9621,0.730844,0,0.000885,0,0
0:0:8.490,13.0778,0.737739,0,0.000885,0,0
0:0:8.694,13.0778,0.737739,0,0.000885,0,0
0:0:8.895,12.8465,0.72395,0,0.000885,0,0
0:0:9.101,13.2557,0.751529,0,0.000885,0,0
0:0:9.300,13.1356,0.744634,0,0.000885,0,0
0:0:9.502,13.2557,0.751529,0,0.000885,0,0
0:0:9.719,13.8429,0.786002,0,0.000885,0,0
0:0:9.920,14.4879,0.820476,0,0.000885,0,0
0:0:10.117,15.7778,0.889424,0,0.000885,0,0
0:0:10.316,18.4735,1.048,0,0.000885,0,0
0:0:10.518,19.7056,1.11695,0,0.000885,0,0
0:0:10.714,21.8185,1.23416,0,0.000885,0,0
0:0:10.915,22.637,1.28242,0,0.000885,0,0
0:0:11.112,23.6378,1.33758,0,0.000885,0,0
0:0:11.307,24.3407,1.37895,0,0.000885,0,0
0:0:11.511,25.9821,1.46858,0,0.000885,0,0
0:0:11.718,27.2142,1.53753,0,0.000885,0,0
0:0:11.917,29.2648,1.65474,0,0.000885,0,0
0:0:12.117,30.0299,1.69611,0,0.000885,0,0
0:0:12.314,31.787,1.79953,0,0.000885,0,0
0:0:12.516,32.8457,1.86158,0,0.000885,0,0
0:0:12.714,35.0742,1.98569,0,0.000885,0,0
0:0:12.912,36.1285,2.04774,0,0.000885,0,0
0:0:13.115,37.6542,2.13048,0,0.000885,0,0
0:0:13.318,38.7084,2.19253,0,0.000885,0,0
0:0:13.522,40.7635,2.30974,0,0.000885,0,0
0:0:13.722,41.9334,2.3718,0,0.000885,0,0
0:0:13.925,43.8105,2.48211,0,0.000885,0,0
0:0:14.126,44.927,2.54417,0,0.000885,0,0
0:0:14.327,46.8042,2.64759,0,0.000885,0,0
0:0:14.529,47.8006,2.70274,0,0.000885,0,0
0:0:14.730,49.6777,2.81306,0,0.000885,0,0
0:0:14.928,50.5585,2.86132,0,0.000885,0,0
0:0:15.130,52.3155,2.95785,0,0.000885,0,0
0:0:15.325,52.9605,2.99922,0,0.000885,0,0
0:0:15.526,54.077,3.06127,0,0.000885,0,0
0:0:15.727,54.7798,3.10264,0,0.000885,0,0
0:0:15.921,55.4827,3.13711,0,0.000885,0,0
0:0:16.124,57.1241,3.23364,0,0.000885,0,0
0:0:16.321,57.5956,3.26122,0,0.000885,0,0
0:0:16.521,59.0012,3.33706,0,0.000885,0,0
0:0:16.721,59.4727,3.36464,0,0.000885,0,0
0:0:16.918,61.1141,3.46117,0,0.000885,0,0
0:0:17.120,62.1683,3.51633,0,0.000885,0,0
0:0:17.318,63.7519,3.60596,0,0.000885,0,0
0:0:17.516,64.3969,3.64733,0,0.000885,0,0
0:0:17.717,66.6255,3.77143,0,0.000885,0,0
0:0:17.913,67.4484,3.8197,0,0.000885,0,0
0:0:18.114,69.2677,3.91622,0,0.000885,0,0
0:0:18.316,70.2641,3.97827,0,0.000885,0,0
0:0:18.521,72.3147,4.09549,0,0.000885,0,0
0:0:18.723,73.0798,4.13685,0,0.000885,0,0
0:0:18.924,74.4855,4.2127,0,0.000885,0,0
0:0:19.126,74.8947,4.24028,0,0.000885,0,0
0:0:19.329,76.5984,4.3368,0,0.000885,0,0
0:0:19.531,77.1855,4.36438,0,0.000885,0,0
0:0:19.733,79.1205,4.4747,0,0.000885,0,0
0:0:19.929,79.8233,4.51607,0,0.000885,0,0
0:0:20.131,80.5262,4.55743,0,0.000885,0,0
0:0:20.329,82.4611,4.66775,0,0.000885,0,0
0:0:20.526,83.5776,4.7298,0,0.000885,0,0
0:0:20.729,84.6897,4.79186,0,0.000885,0,0
0:0:20.925,85.5126,4.84012,0,0.000885,0,0
0:0:21.126,87.6833,4.96423,0,0.000885,0,0
0:0:21.327,88.5641,5.01249,0,0.000885,0,0
0:0:21.523,90.0276,5.09523,0,0.000885,0,0
0:0:21.724,91.024,5.15038,0,0.000885,0,0
0:0:21.922,92.9011,5.25381,0,0.000885,0,0
0:0:22.120,93.724,5.30207,0,0.000885,0,0
0:0:22.322,95.3076,5.3917,0,0.000885,0,0
0:0:22.518,95.7747,5.41928,0,0.000885,0,0
0:0:22.721,97.8297,5.53649,0,0.000885,0,0
0:0:22.917,98.4747,5.57096,0,0.000885,0,0
0:0:23.116,100.116,5.66749,0,0.000885,0,0
0:0:23.317,101.055,5.71575,0,0.000885,0,0
0:0:23.520,102.816,5.81918,0,0.000885,0,0
0:0:23.723,103.341,5.84675,0,0.000885,0,0
0:0:23.925,105.218,5.95707,0,0.000885,0,0
0:0:24.127,105.748,5.98465,0,0.000885,0,0
0:0:24.329,107.683,6.09497,0,0.000885,0,0
0:0:24.531,108.915,6.16391,0,0.000885,0,0
0:0:24.734,110.32,6.23976,0,0.000885,0,0
0:0:24.932,111.259,6.29491,0,0.000885,0,0
0:0:25.130,112.14,6.34318,0,0.000885,0,0
0:0:25.332,114.484,6.48107,0,0.000885,0,0
0:0:25.527,114.955,6.50176,0,0.000885,0,0
0:0:25.728,116.303,6.58449,0,0.000885,0,0
0:0:25.926,117.184,6.63276,0,0.000885,0,0
0:0:26.124,118.71,6.71549,0,0.000885,0,0
0:0:26.326,119.177,6.74307,0,0.000885,0,0
0:0:26.523,120.525,6.81891,0,0.000885,0,0
0:0:26.723,121.641,6.88097,0,0.000885,0,0
0:0:26.923,123.109,6.9637,0,0.000885,0,0
0:0:27.120,124.221,7.03265,0,0.000885,0,0
0:0:27.322,125.689,7.11539,0,0.000885,0,0
0:0:27.519,126.45,7.15676,0,0.000885,0,0
0:0:27.718,128.563,7.27397,0,0.000885,0,0
0:0:27.918,129.15,7.30844,0,0.000885,0,0
0:0:28.114,131.027,7.41186,0,0.000885,0,0
0:0:28.316,131.61,7.44634,0,0.000885,0,0
0:0:28.519,133.487,7.55665,0,0.000885,0,0
0:0:28.721,134.367,7.60492,0,0.000885,0,0
0:0:28.924,136.187,7.70834,0,0.000885,0,0
0:0:29.126,137.183,7.7635,0,0.000885,0,0
0:0:29.329,138.651,7.84623,0,0.000885,0,0
0:0:29.529,139.59,7.90139,0,0.000885,0,0
0:0:29.731,140.88,7.97034,0,0.000885,0,0
0:0:29.934,142.112,8.03929,0,0.000885,0,0
0:0:30.130,143.05,8.09445,0,0.000885,0,0
0:0:30.333,144.34,8.17029,0,0.000885,0,0
0:0:30.529,145.452,8.23234,0,0.000885,0,0
0:0:30.729,147.094,8.32197,0,0.000885,0,0
0:0:30.930,148.095,8.37713,0,0.000885,0,0
0:0:31.126,149.91,8.48055,0,0.000885,0,0
0:0:31.329,150.497,8.51503,0,0.000885,0,0
0:0:31.526,152.432,8.62534,0,0.000885,0,0
0:0:31.725,153.134,8.66671,0,0.000885,0,0
0:0:31.928,154.66,8.74945,0,0.000885,0,0
0:0:32.122,155.483,8.79771,0,0.000885,0,0
0:0:32.324,157.067,8.88734,0,0.000885,0,0
0:0:32.522,157.712,8.92182,0,0.000885,0,0
0:0:32.721,159.705,9.03903,0,0.000885,0,0
0:0:32.922,160.763,9.09418,0,0.000885,0,0
0:0:33.118,162.169,9.17692,0,0.000885,0,0
0:0:33.320,163.107,9.23208,0,0.000885,0,0
0:0:33.521,164.513,9.30792,0,0.000885,0,0
0:0:33.725,165.22,9.34929,0,0.000885,0,0
0:0:33.928,166.804,9.43892,0,0.000885,0,0
0:0:34.130,167.858,9.50098,0,0.000885,0,0
0:0:34.332,169.793,9.61129,0,0.000885,0,0
0:0:34.532,170.674,9.65955,0,0.000885,0,0
0:0:34.735,172.257,9.74919,0,0.000885,0,0
0:0:34.935,172.782,9.77677,0,0.000885,0,0
0:0:35.134,173.841,9.83882,0,0.000885,0,0
0:0:35.334,175.54,9.93535,0,0.000885,0,0
0:0:35.532,176.714,9.9974,0,0.000885,0,0
0:0:35.728,178.472,10.1008,0,0.000885,0,0
0:0:35.930,179.179,10.1422,0,0.000885,0,0
0:0:36.128,180.82,10.2318,0,0.000885,0,0
0:0:36.329,181.523,10.2732,0,0.000885,0,0
0:0:36.529,183.049,10.3559,0,0.000885,0,0
0:0:36.725,184.103,10.418,0,0.000885,0,0
0:0:36.928,185.335,10.4869,0,0.000885,0,0
0:0:37.126,186.216,10.5352,0,0.000885,0,0
0:0:37.326,188.035,10.6386,0,0.000885,0,0
0:0:37.526,189.089,10.7007,0,0.000885,0,0
0:0:37.721,190.909,10.8041,0,0.000885,0,0
0:0:37.924,191.847,10.8592,0,0.000885,0,0
0:0:38.121,193.604,10.9558,0,0.000885,0,0
0:0:38.317,193.956,10.9765,0,0.000885,0,0
0:0:38.518,194.485,11.004,0,0.000885,0,0
0:0:38.719,196.304,11.1075,0,0.000885,0,0
0:0:38.921,197.123,11.1557,0,0.000885,0,0
0:0:39.122,198.707,11.2453,0,0.000885,0,0
0:0:39.323,199.414,11.2867,0,0.000885,0,0
0:0:39.523,200.762,11.3626,0,0.000885,0,0
0:0:39.724,201.874,11.4246,0,0.000885,0,0
0:0:39.925,203.399,11.5073,0,0.000885,0,0
0:0:40.122,203.809,11.5349,0,0.000885,0,0
0:0:40.319,205.922,11.6521,0,0.000885,0,0
0:0:40.520,206.976,11.7142,0,0.000885,0,0
0:0:40.714,208.444,11.7969,0,0.000885,0,0
0:0:40.913,209.44,11.8521,0,0.000885,0,0
0:0:41.108,211.375,11.9624,0,0.000885,0,0
0:0:41.305,212.082,12.0038,0,0.000885,0,0
0:0:41.507,213.43,12.0796,0,0.000885,0,0
0:0:41.713,214.484,12.1348,0,0.000885,0,0
0:0:41.909,216.361,12.2451,0,0.000885,0,0
0:0:42.107,216.771,12.2658,0,0.000885,0,0
0:0:42.303,218.061,12.3416,0,0.000885,0,0
0:0:42.505,219.938,12.445,0,0.000885,0,0
0:0:42.700,220.525,12.4795,0,0.000885,0,0
0:0:42.898,222.344,12.5829,0,0.000885,0,0
0:0:43.098,223.225,12.6312,0,0.000885,0,0
0:0:43.300,224.809,12.7208,0,0.000885,0,0
0:0:43.501,225.747,12.776,0,0.000885,0,0
0:0:43.702,227.562,12.8794,0,0.000885,0,0
0:0:43.902,228.443,12.9277,0,0.000885,0,0
0:0:44.103,230.026,13.0173,0,0.000885,0,0
0:0:44.303,231.085,13.0794,0,0.000885,0,0
0:0:44.503,232.433,13.1552,0,0.000885,0,0
0:0:44.701,233.251,13.1966,0,0.000885,0,0
0:0:44.897,234.835,13.2862,0,0.000885,0,0
0:0:45.098,235.894,13.3483,0,0.000885,0,0
0:0:45.293,237.477,13.4379,0,0.000885,0,0
0:0:45.492,238.296,13.4861,0,0.000885,0,0
0:0:45.692,239.999,13.5827,0,0.000885,0,0
0:0:45.896,240.702,13.624,0,0.000885,0,0
0:0:46.097,242.17,13.7068,0,0.000885,0,0
0:0:46.292,243.224,13.7619,0,0.000885,0,0
0:0:46.490,243.985,13.8102,0,0.000885,0,0
0:0:46.689,245.804,13.9067,0,0.000885,0,0
0:0:46.884,246.449,13.9481,0,0.000885,0,0
0:0:47.085,248.269,14.0515,0,0.000885,0,0
0:0:47.280,248.914,14.086,0,0.000885,0,0
0:0:47.480,250.613,14.1825,0,0.000885,0,0
0:0:47.678,251.729,14.2446,0,0.000885,0,0
0:0:47.874,253.077,14.3204,0,0.000885,0,0
0:0:48.072,254.016,14.3756,0,0.000885,0,0
0:0:48.274,255.306,14.4445,0,0.000885,0,0
0:0:48.477,256.008,14.4859,0,0.000885,0,0
0:0:48.679,258.064,14.6031,0,0.000885,0,0
0:0:48.880,259.06,14.6583,0,0.000885,0,0
0:0:49.081,260.466,14.741,0,0.000885,0,0
0:0:49.281,261.462,14.7961,0,0.000885,0,0
0:0:49.481,262.814,14.872,0,0.000885,0,0
0:0:49.682,263.869,14.934,0,0.000885,0,0
0:0:49.875,264.629,14.9754,0,0.000885,0,0
0:0:50.075,265.981,15.0513,0,0.000885,0,0
0:0:50.272,266.858,15.0995,0,0.000885,0,0
0:0:50.468,269.028,15.2236,0,0.000885,0,0
0:0:50.669,269.851,15.2719,0,0.000885,0,0
0:0:50.865,271.608,15.3684,0,0.000885,0,0
0:0:51.063,273.076,15.4512,0,0.000885,0,0
0:0:51.263,274.015,15.5063,0,0.000885,0,0
0:0:51.458,275.069,15.5684,0,0.000885,0,0
0:0:51.659,276.421,15.6442,0,0.000885,0,0
0:0:51.855,277.654,15.7132,0,0.000885,0,0
0:0:52.052,279.237,15.8028,0,0.000885,0,0
0:0:52.254,279.589,15.8235,0,0.000885,0,0
0:0:52.447,280.527,15.8717,0,0.000885,0,0
0:0:52.647,282.636,15.9958,0,0.000885,0,0
0:0:52.846,283.632,16.051,0,0.000885,0,0
0:0:53.042,285.393,16.1475,0,0.000885,0,0
0:0:53.242,286.038,16.1889,0,0.000885,0,0
0:0:53.444,287.271,16.2578,0,0.000885,0,0
0:0:53.646,288.383,16.3199,0,0.000885,0,0
0:0:53.849,289.966,16.4095,0,0.000885,0,0
0:0:54.048,290.673,16.4509,0,0.000885,0,0
0:0:54.249,292.373,16.5474,0,0.000885,0,0
0:0:54.449,293.018,16.5819,0,0.000885,0,0
0:0:54.649,294.659,16.6715,0,0.000885,0,0
0:0:54.849,295.718,16.7336,0,0.000885,0,0
0:0:55.045,297.359,16.8301,0,0.000885,0,0
0:0:55.246,298.12,16.8715,0,0.000885,0,0
0:0:55.442,299.881,16.968,0,0.000885,0,0
0:0:55.639,300.468,17.0025,0,0.000885,0,0
0:0:55.840,302.226,17.1059,0,0.000885,0,0
0:0:56.034,302.813,17.1335,0,0.000885,0,0
0:0:56.234,303.636,17.1817,0,0.000885,0,0
0:0:56.432,305.686,17.2989,0,0.000885,0,0
0:0:56.628,306.447,17.3403,0,0.000885,0,0
0:0:56.829,308.444,17.4575,0,0.000885,0,0
0:0:57.022,309.147,17.492,0,0.000885,0,0
0:0:57.223,310.788,17.5885,0,0.000885,0,0
0:0:57.421,311.491,17.6299,0,0.000885,0,0
0:0:57.615,313.31,17.7264,0,0.000885,0,0
0:0:57.816,314.191,17.7816,0,0.000885,0,0
0:0:58.021,315.948,17.8781,0,0.000885,0,0
0:0:58.219,316.887,17.9333,0,0.000885,0,0
0:0:58.420,318.297,18.0091,0,0.000885,0,0
0:0:58.622,319.178,18.0643,0,0.000885,0,0
0:0:58.824,320.819,18.1539,0,0.000885,0,0
0:0:59.025,321.7,18.2022,0,0.000885,0,0
0:0:59.226,323.515,18.3056,0,0.000885,0,0
0:0:59.426,324.28,18.3538,0,0.000885,0,0
0:0:59.627,326.095,18.4504,0,0.000885,0,0
0:0:59.828,326.624,18.4848,0,0.000885,0,0
0:1:0.025,327.505,18.5331,0,0.000885,0,0
0:1:0.221,329.382,18.6365,0,0.000885,0,0
0:1:0.421,330.2,18.6848,0,0.000885,0,0
0:1:0.616,332.198,18.7951,0,0.000885,0,0
0:1:0.815,333.016,18.8434,0,0.000885,0,0
0:1:1.011,334.542,18.933,0,0.000885,0,0
0:1:1.218,335.538,18.9882,0,0.000885,0,0
0:1:1.419,337.3,19.0847,0,0.000885,0,0
0:1:1.616,337.887,19.1192,0,0.000885,0,0
0:1:1.812,339.47,19.2088,0,0.000885,0,0
0:1:2.010,340.347,19.2571,0,0.000885,0,0
0:1:2.205,341.993,19.3536,0,0.000885,0,0
0:1:2.405,342.695,19.395,0,0.000885,0,0
0:1:2.604,344.279,19.4846,0,0.000885,0,0
0:1:2.802,345.16,19.5328,0,0.000885,0,0
0:1:3.001,346.392,19.6018,0,0.000885,0,0
0:1:3.203,347.562,19.6707,0,0.000885,0,0
0:1:3.405,348.443,19.719,0,0.000885,0,0
0:1:3.605,350.084,19.8086,0,0.000885,0,0
0:1:3.806,351.08,19.8638,0,0.000885,0,0
0:1:4.006,352.548,19.9534,0,0.000885,0,0
0:1:4.207,353.838,20.0224,0,0.000885,0,0
0:1:4.408,355.422,20.112,0,0.000885,0,0
0:1:4.604,356.067,20.1465,0,0.000885,0,0
0:1:4.803,357.708,20.243,0,0.000885,0,0
0:1:5.002,358.473,20.2844,0,0.000885,0,0
0:1:5.197,360.582,20.4016,0,0.000885,0,0
0:1:5.397,361.169,20.4361,0,0.000885,0,0
0:1:5.595,362.695,20.5257,0,0.000885,0,0
0:1:5.801,362.988,20.5395,0,0.000885,0,0
0:1:6.001,365.039,20.6567,0,0.000885,0,0
0:1:6.197,365.92,20.705,0,0.000885,0,0
0:1:6.397,367.561,20.8015,0,0.000885,0,0
0:1:6.594,368.326,20.8429,0,0.000885,0,0
0:1:6.800,370.145,20.9463,0,0.000885,0,0
0:1:7.001,371.022,20.9945,0,0.000885,0,0
0:1:7.216,373.019,21.1117,0,0.000885,0,0
0:1:7.412,373.837,21.1531,0,0.000885,0,0
0:1:7.611,375.305,21.2359,0,0.000885,0,0
0:1:7.808,376.244,21.291,0,0.000885,0,0
0:1:8.009,377.125,21.3393,0,0.000885,0,0
0:1:8.210,378.646,21.4289,0,0.000885,0,0
0:1:8.413,379.878,21.4979,0,0.000885,0,0
0:1:8.617,381.404,21.5806,0,0.000885,0,0
0:1:8.818,382.049,21.622,0,0.000885,0,0
0:1:9.018,383.69,21.7116,0,0.000885,0,0
0:1:9.218,384.455,21.753,0,0.000885,0,0
0:1:9.419,386.27,21.8564,0,0.000885,0,0
0:1:9.618,387.151,21.9115,0,0.000885,0,0
0:1:9.822,388.325,21.9736,0,0.000885,0,0
0:1:10.023,389.673,22.0494,0,0.000885,0,0
0:1:10.219,390.963,22.1253,0,0.000885,0,0
0:1:10.416,391.959,22.1804,0,0.000885,0,0
0:1:10.616,393.779,22.2839,0,0.000885,0,0
0:1:10.808,394.13,22.3045,0,0.000885,0,0
0:1:11.009,396.007,22.408,0,0.000885,0,0
0:1:11.207,396.888,22.4562,0,0.000885,0,0
0:1:11.404,398.765,22.5665,0,0.000885,0,0
0:1:11.604,399.762,22.6217,0,0.000885,0,0
0:1:11.807,401.287,22.7113,0,0.000885,0,0
0:1:12.009,401.754,22.732,0,0.000885,0,0
0:1:12.206,402.987,22.8079,0,0.000885,0,0
0:1:12.412,404.277,22.8768,0,0.000885,0,0
0:1:12.612,405.393,22.9389,0,0.000885,0,0
0:1:12.817,407.68,23.0699,0,0.000885,0,0
0:1:13.018,408.089,23.0905,0,0.000885,0,0
0:1:13.219,409.85,23.194,0,0.000885,0,0
0:1:13.422,410.495,23.2284,0,0.000885,0,0
0:1:13.623,412.079,23.3181,0,0.000885,0,0
0:1:13.822,413.075,23.3732,0,0.000885,0,0
0:1:14.023,414.717,23.4698,0,0.000885,0,0
0:1:14.224,415.597,23.518,0,0.000885,0,0
0:1:14.424,417.123,23.6076,0,0.000885,0,0
0:1:14.625,417.826,23.6421,0,0.000885,0,0
0:1:14.819,419.525,23.7386,0,0.000885,0,0
0:1:15.020,420.29,23.7869,0,0.000885,0,0
0:1:15.218,421.874,23.8765,0,0.000885,0,0
0:1:15.423,422.812,23.9248,0,0.000885,0,0
0:1:15.624,424.69,24.0351,0,0.000885,0,0
0:1:15.818,425.214,24.0627,0,0.000885,0,0
0:1:16.017,427.149,24.173,0,0.000885,0,0
0:1:16.217,427.621,24.2006,0,0.000885,0,0
0:1:16.409,429.382,24.2971,0,0.000885,0,0
0:1:16.609,429.849,24.3247,0,0.000885,0,0
0:1:16.805,430.788,24.3799,0,0.000885,0,0
0:1:17.004,432.723,24.4902,0,0.000885,0,0
0:1:17.204,433.662,24.5384,0,0.000885,0,0
0:1:17.408,435.361,24.635,0,0.000885,0,0
0:1:17.609,436.651,24.7108,0,0.000885,0,0
0:1:17.813,438.354,24.8073,0,0.000885,0,0
0:1:18.011,438.884,24.8349,0,0.000885,0,0
0:1:18.213,440.756,24.9452,0,0.000885,0,0
0:1:18.416,441.228,24.9659,0,0.000885,0,0
0:1:18.617,442.518,25.0418,0,0.000885,0,0
0:1:18.818,443.75,25.1107,0,0.000885,0,0
0:1:19.019,445.334,25.2003,0,0.000885,0,0
0:1:19.221,446.272,25.2555,0,0.000885,0,0
0:1:19.420,448.385,25.3727,0,0.000885,0,0
0:1:19.621,449.204,25.421,0,0.000885,0,0
0:1:19.819,450.494,25.4899,0,0.000885,0,0
0:1:20.013,451.668,25.5589,0,0.000885,0,0
0:1:20.216,453.487,25.6623,0,0.000885,0,0
0:1:20.421,454.248,25.7037,0,0.000885,0,0
0:1:20.622,455.302,25.7657,0,0.000885,0,0
0:1:20.818,456.534,25.8347,0,0.000885,0,0
0:1:21.023,458.002,25.9174,0,0.000885,0,0
0:1:21.223,458.941,25.9726,0,0.000885,0,0
0:1:21.418,460.76,26.076,0,0.000885,0,0
0:1:21.618,461.872,26.138,0,0.000885,0,0
0:1:21.816,462.869,26.1932,0,0.000885,0,0
0:1:22.020,464.159,26.269,0,0.000885,0,0
0:1:22.220,464.746,26.2966,0,0.000885,0,0
0:1:22.418,466.329,26.3862,0,0.000885,0,0
0:1:22.613,467.326,26.4483,0,0.000885,0,0
0:1:22.813,469.087,26.5448,0,0.000885,0,0
0:1:23.018,470.141,26.6069,0,0.000885,0,0
0:1:23.218,471.316,26.6689,0,0.000885,0,0
0:1:23.419,472.139,26.7172,0,0.000885,0,0
0:1:23.620,473.954,26.8206,0,0.000885,0,0
0:1:23.822,474.95,26.8758,0,0.000885,0,0
0:1:24.023,476.418,26.9585,0,0.000885,0,0
0:1:24.223,477.121,26.9999,0,0.000885,0,0
0:1:24.423,478.762,27.0895,0,0.000885,0,0
0:1:24.623,479.763,27.1516,0,0.000885,0,0
0:1:24.824,481.404,27.2412,0,0.000885,0,0
0:1:25.019,482.165,27.2826,0,0.000885,0,0
0:1:25.219,483.984,27.386,0,0.000885,0,0
0:1:25.414,484.865,27.4342,0,0.000885,0,0
0:1:25.621,486.564,27.5308,0,0.000885,0,0
0:1:25.821,487.094,27.5652,0,0.000885,0,0
0:1:26.018,488.735,27.6549,0,0.000885,0,0
0:1:26.225,489.789,27.7169,0,0.000885,0,0
0:1:26.425,491.551,27.8135,0,0.000885,0,0
0:1:26.619,492.489,27.8686,0,0.000885,0,0
0:1:26.819,492.899,27.8893,0,0.000885,0,0
0:1:27.018,494.776,27.9996,0,0.000885,0,0
0:1:27.223,495.479,28.041,0,0.000885,0,0
0:1:27.423,497.591,28.1582,0,0.000885,0,0
0:1:27.615,498.53,28.2133,0,0.000885,0,0
0:1:27.813,500.114,28.303,0,0.000885,0,0
0:1:28.024,500.759,28.3375,0,0.000885,0,0
0:1:28.219,502.4,28.4271,0,0.000885,0,0
0:1:28.420,503.103,28.4685,0,0.000885,0,0
0:1:28.620,504.744,28.565,0,0.000885,0,0
0:1:28.823,505.509,28.6063,0,0.000885,0,0
0:1:29.025,507.329,28.7098,0,0.000885,0,0
0:1:29.226,508.441,28.7718,0,0.000885,0,0
0:1:29.427,509.788,28.8477,0,0.000885,0,0
0:1:29.626,510.496,28.889,0,0.000885,0,0
0:1:29.827,512.079,28.9787,0,0.000885,0,0
0:1:30.028,512.604,29.0062,0,0.000885,0,0
0:1:30.222,514.953,29.1372,0,0.000885,0,0
0:1:30.422,515.598,29.1786,0,0.000885,0,0
0:1:30.618,517.413,29.282,0,0.000885,0,0
0:1:30.825,518.703,29.351,0,0.000885,0,0
0:1:31.026,519.997,29.4268,0,0.000885,0,0
0:1:31.219,520.936,29.482,0,0.000885,0,0
0:1:31.418,522.048,29.544,0,0.000885,0,0
0:1:31.617,523.809,29.6406,0,0.000885,0,0
0:1:31.820,524.392,29.675,0,0.000885,0,0
0:1:32.021,526.038,29.7647,0,0.000885,0,0
0:1:32.218,526.976,29.8198,0,0.000885,0,0
0:1:32.413,528.791,29.9232,0,0.000885,0,0
0:1:32.613,529.436,29.9577,0,0.000885,0,0
0:1:32.817,531.313,30.068,0,0.000885,0,0
0:1:33.018,531.958,30.1025,0,0.000885,0,0
0:1:33.219,533.778,30.2059,0,0.000885,0,0
0:1:33.422,534.601,30.2542,0,0.000885,0,0
0:1:33.623,536.064,30.3369,0,0.000885,0,0
0:1:33.823,536.771,30.3783,0,0.000885,0,0
0:1:34.023,537.941,30.4404,0,0.000885,0,0
0:1:34.224,539,30.5024,0,0.000885,0,0
0:1:34.425,540.815,30.6058,0,0.000885,0,0
0:1:34.625,541.931,30.6679,0,0.000885,0,0
0:1:34.819,543.337,30.7437,0,0.000885,0,0
0:1:35.019,544.04,30.7851,0,0.000885,0,0
0:1:35.218,545.628,30.8747,0,0.000885,0,0
0:1:35.411,546.504,30.923,0,0.000885,0,0
0:1:35.611,547.327,30.9712,0,0.000885,0,0
0:1:35.807,548.968,31.0678,0,0.000885,0,0
0:1:36.004,549.556,31.0954,0,0.000885,0,0
0:1:36.205,551.606,31.2126,0,0.000885,0,0
0:1:36.409,552.193,31.247,0,0.000885,0,0
0:1:36.610,553.955,31.3505,0,0.000885,0,0
0:1:36.806,554.893,31.3987,0,0.000885,0,0
0:1:37.003,556.65,31.5021,0,0.000885,0,0
0:1:37.203,557.589,31.5504,0,0.000885,0,0
0:1:37.399,559.644,31.6676,0,0.000885,0,0
0:1:37.598,560.169,31.7021,0,0.000885,0,0
0:1:37.796,562.34,31.8193,0,0.000885,0,0
0:1:38.001,562.753,31.8469,0,0.000885,0,0
0:1:38.202,564.275,31.9296,0,0.000885,0,0
0:1:38.402,564.982,31.971,0,0.000885,0,0
0:1:38.603,566.859,32.0744,0,0.000885,0,0
0:1:38.805,567.913,32.1365,0,0.000885,0,0
0:1:39.007,569.497,32.2261,0,0.000885,0,0
0:1:39.208,570.551,32.2881,0,0.000885,0,0
0:1:39.408,572.077,32.3709,0,0.000885,0,0
0:1:39.609,572.958,32.426,0,0.000885,0,0
0:1:39.809,574.012,32.4812,0,0.000885,0,0
0:1:40.003,575.538,32.5708,0,0.000885,0,0
0:1:40.203,575.947,32.5915,0,0.000885,0,0
0:1:40.409,578.233,32.7225,0,0.000885,0,0
0:1:40.615,578.94,32.7639,0,0.000885,0,0
0:1:40.819,580.288,32.8397,0,0.000885,0,0
0:1:41.012,581.169,32.888,0,0.000885,0,0
0:1:41.211,583.046,32.9914,0,0.000885,0,0
0:1:41.408,583.922,33.0466,0,0.000885,0,0
0:1:41.604,585.275,33.1224,0,0.000885,0,0
0:1:41.804,585.862,33.15,0,0.000885,0,0
0:1:42.000,587.152,33.2258,0,0.000885,0,0
0:1:42.208,588.558,33.3086,0,0.000885,0,0
0:1:42.407,590.203,33.3982,0,0.000885,0,0
0:1:42.603,590.613,33.4189,0,0.000885,0,0
0:1:42.804,592.841,33.5499,0,0.000885,0,0
0:1:43.011,593.371,33.5775,0,0.000885,0,0
0:1:43.210,594.838,33.6602,0,0.000885,0,0
0:1:43.411,595.777,33.7154,0,0.000885,0,0
0:1:43.614,597.423,33.805,0,0.000885,0,0
0:1:43.816,598.597,33.8739,0,0.000885,0,0
0:1:44.020,600.296,33.9705,0,0.000885,0,0
0:1:44.222,601.471,34.0394,0,0.000885,0,0
0:1:44.422,602.939,34.1222,0,0.000885,0,0
0:1:44.622,603.641,34.1566,0,0.000885,0,0
0:1:44.825,605.345,34.2532,0,0.000885,0,0
0:1:45.024,606.226,34.3083,0,0.000885,0,0
0:1:45.220,606.991,34.3497,0,0.000885,0,0
0:1:45.422,608.81,34.4531,0,0.000885,0,0
0:1:45.615,610.158,34.5289,0,0.000885,0,0
0:1:45.815,611.159,34.5841,0,0.000885,0,0
0:1:46.015,612.449,34.6599,0,0.000885,0,0
0:1:46.222,613.739,34.7289,0,0.000885,0,0
0:1:46.423,614.504,34.7772,0,0.000885,0,0
0:1:46.619,615.972,34.8599,0,0.000885,0,0
0:1:46.816,616.733,34.9013,0,0.000885,0,0
0:1:47.016,618.436,34.9978,0,0.000885,0,0
0:1:47.212,619.197,35.0392,0,0.000885,0,0
0:1:47.414,620.843,35.1357,0,0.000885,0,0
0:1:47.612,621.723,35.1839,0,0.000885,0,0
0:1:47.809,623.952,35.3081,0,0.000885,0,0
0:1:48.010,624.775,35.3563,0,0.000885,0,0
0:1:48.212,626.772,35.4666,0,0.000885,0,0
0:1:48.415,627.475,35.508,0,0.000885,0,0
0:1:48.620,628.943,35.5907,0,0.000885,0,0
0:1:48.821,629.824,35.639,0,0.000885,0,0
0:1:49.022,631.349,35.7286,0,0.000885,0,0
0:1:49.221,631.937,35.7631,0,0.000885,0,0
0:1:49.424,633.814,35.8665,0,0.000885,0,0
0:1:49.625,634.815,35.9217,0,0.000885,0,0
0:1:49.819,635.108,35.9424,0,0.000885,0,0
0:1:50.021,637.279,36.0596,0,0.000885,0,0
0:1:50.216,638.16,36.1147,0,0.000885,0,0
0:1:50.415,639.04,36.163,0,0.000885,0,0
0:1:50.616,640.215,36.2319,0,0.000885,0,0
0:1:50.810,642.034,36.3285,0,0.000885,0,0
0:1:51.011,642.853,36.3767,0,0.000885,0,0
0:1:51.211,644.734,36.4871,0,0.000885,0,0
0:1:51.406,645.086,36.5077,0,0.000885,0,0
0:1:51.608,646.905,36.6043,0,0.000885,0,0
0:1:51.804,648.021,36.6732,0,0.000885,0,0
0:1:52.004,650.076,36.7835,0,0.000885,0,0
0:1:52.203,650.601,36.818,0,0.000885,0,0
0:1:52.400,652.127,36.9007,0,0.000885,0,0
0:1:52.601,652.834,36.9421,0,0.000885,0,0
0:1:52.796,653.657,36.9904,0,0.000885,0,0
0:1:52.996,655.299,37.08,0,0.000885,0,0
0:1:53.196,656.357,37.1421,0,0.000885,0,0
0:1:53.398,658.114,37.2386,0,0.000885,0,0
0:1:53.601,658.879,37.2868,0,0.000885,0,0
0:1:53.803,660.992,37.4041,0,0.000885,0,0
0:1:54.005,661.05,37.411,0,0.000885,0,0
0:1:54.207,663.225,37.5282,0,0.000885,0,0
0:1:54.408,664.102,37.5833,0,0.000885,0,0
0:1:54.610,665.512,37.6592,0,0.000885,0,0
0:1:54.817,666.45,37.7143,0,0.000885,0,0
0:1:55.026,667.745,37.7833,0,0.000885,0,0
0:1:55.228,668.919,37.8522,0,0.000885,0,0
0:1:55.423,670.445,37.9418,0,0.000885,0,0
0:1:55.624,671.206,37.9832,0,0.000885,0,0
0:1:55.823,672.789,38.0728,0,0.000885,0,0
0:1:56.017,673.67,38.1211,0,0.000885,0,0
0:1:56.221,675.316,38.2176,0,0.000885,0,0
0:1:56.414,676.49,38.2797,0,0.000885,0,0
0:1:56.615,677.78,38.3555,0,0.000885,0,0
0:1:56.815,678.839,38.4176,0,0.000885,0,0
0:1:57.021,680.6,38.5141,0,0.000885,0,0
0:1:57.222,681.125,38.5417,0,0.000885,0,0
0:1:57.418,682.887,38.6451,0,0.000885,0,0
0:1:57.615,683.825,38.6934,0,0.000885,0,0
0:1:57.817,685.413,38.783,0,0.000885,0,0
0:1:58.013,686.232,38.8313,0,0.000885,0,0
0:1:58.215,688.229,38.9485,0,0.000885,0,0
0:1:58.416,689.288,39.0036,0,0.000885,0,0
0:1:58.623,690.635,39.0795,0,0.000885,0,0
0:1:58.822,691.28,39.1209,0,0.000885,0,0
0:1:59.025,692.748,39.2036,0,0.000885,0,0
0:1:59.227,693.629,39.2519,0,0.000885,0,0
0:1:59.428,694.688,39.3139,0,0.000885,0,0
0:1:59.630,696.507,39.4173,0,0.000885,0,0
0:1:59.830,697.21,39.4518,0,0.000885,0,0
0:2:0.028,698.562,39.5276,0,0.000885,0,0
0:2:0.227,699.91,39.6035,0,0.000885,0,0
0:2:0.428,701.671,39.7069,0,0.000885,0,0
0:2:0.623,702.494,39.7552,0,0.000885,0,0
0:2:0.824,704.256,39.8517,0,0.000885,0,0
0:2:1.021,705.137,39.9,0,0.000885,0,0
0:2:1.229,706.484,39.9758,0,0.000885,0,0
0:2:1.428,707.365,40.031,0,0.000885,0,0
0:2:1.623,709.069,40.1275,0,0.000885,0,0
0:2:1.825,709.772,40.162,0,0.000885,0,0
0:2:2.023,711.533,40.2654,0,0.000885,0,0
0:2:2.221,712.12,40.2999,0,0.000885,0,0
0:2:2.422,713.704,40.3895,0,0.000885,0,0
0:2:2.615,714.469,40.4309,0,0.000885,0,0
0:2:2.816,716.11,40.5205,0,0.000885,0,0
0:2:3.015,717.049,40.5756,0,0.000885,0,0
0:2:3.210,717.987,40.6308,0,0.000885,0,0
0:2:3.411,719.633,40.7204,0,0.000885,0,0
0:2:3.613,720.456,40.7687,0,0.000885,0,0
0:2:3.816,722.098,40.8652,0,0.000885,0,0
0:2:4.021,722.685,40.8928,0,0.000885,0,0
0:2:4.222,724.504,40.9962,0,0.000885,0,0
0:2:4.422,725.269,41.0445,0,0.000885,0,0
0:2:4.623,727.324,41.1548,0,0.000885,0,0
0:2:4.823,728.027,41.1962,0,0.000885,0,0
0:2:5.025,729.611,41.2858,0,0.000885,0,0
0:2:5.218,730.318,41.3272,0,0.000885,0,0
0:2:5.422,731.666,41.403,0,0.000885,0,0
0:2:5.617,732.489,41.4513,0,0.000885,0,0
0:2:5.815,734.366,41.5547,0,0.000885,0,0
0:2:6.015,735.424,41.6168,0,0.000885,0,0
0:2:6.212,737.359,41.7271,0,0.000885,0,0
0:2:6.411,738.004,41.7615,0,0.000885,0,0
0:2:6.621,739.357,41.8374,0,0.000885,0,0
0:2:6.827,740.353,41.8925,0,0.000885,0,0
0:2:7.029,742.057,41.9891,0,0.000885,0,0
0:2:7.226,742.995,42.0442,0,0.000885,0,0
0:2:7.426,744.521,42.1339,0,0.000885,0,0
0:2:7.626,745.638,42.1959,0,0.000885,0,0
0:2:7.818,747.221,42.2855,0,0.000885,0,0
0:2:8.022,748.102,42.3338,0,0.000885,0,0
0:2:8.225,750.157,42.451,0,0.000885,0,0
0:2:8.426,750.744,42.4855,0,0.000885,0,0
0:2:8.629,751.389,42.52,0,0.000885,0,0
0:2:8.831,753.266,42.6234,0,0.000885,0,0
0:2:9.032,753.618,42.6441,0,0.000885,0,0
0:2:9.233,755.673,42.7613,0,0.000885,0,0
0:2:9.435,756.554,42.8095,0,0.000885,0,0
0:2:9.637,758.142,42.8992,0,0.000885,0,0
0:2:9.832,759.08,42.9543,0,0.000885,0,0
0:2:10.033,760.548,43.0371,0,0.000885,0,0
0:2:10.230,761.429,43.0853,0,0.000885,0,0
0:2:10.428,763.186,43.1888,0,0.000885,0,0
0:2:10.630,763.657,43.2163,0,0.000885,0,0
0:2:10.825,765.361,43.3129,0,0.000885,0,0
0:2:11.025,765.948,43.3404,0,0.000885,0,0
0:2:11.223,767.767,43.4439,0,0.000885,0,0
0:2:11.418,768.706,43.499,0,0.000885,0,0
0:2:11.619,770.41,43.5956,0,0.000885,0,0
0:2:11.816,771.406,43.6507,0,0.000885,0,0
0:2:12.015,773.11,43.7472,0,0.000885,0,0
0:2:12.216,773.755,43.7886,0,0.000885,0,0
0:2:12.410,774.809,43.8438,0,0.000885,0,0
0:2:12.610,776.513,43.9403,0,0.000885,0,0
0:2:12.808,777.393,43.9886,0,0.000885,0,0
0:2:13.015,778.683,44.0644,0,0.000885,0,0
0:2:13.217,779.328,44.0989,0,0.000885,0,0
0:2:13.419,780.859,44.1885,0,0.000885,0,0
0:2:13.625,781.619,44.2299,0,0.000885,0,0
0:2:13.827,783.496,44.3402,0,0.000885,0,0
0:2:14.029,784.377,44.3884,0,0.000885,0,0
0:2:14.231,786.139,44.485,0,0.000885,0,0
0:2:14.431,786.846,44.5263,0,0.000885,0,0
0:2:14.634,788.959,44.6436,0,0.000885,0,0
0:2:14.833,789.426,44.6711,0,0.000885,0,0
0:2:15.029,791.187,44.7746,0,0.000885,0,0
0:2:15.231,792.184,44.8297,0,0.000885,0,0
0:2:15.427,793.71,44.9124,0,0.000885,0,0
0:2:15.626,794.417,44.9538,0,0.000885,0,0
0:2:15.827,795.765,45.0297,0,0.000885,0,0
0:2:16.031,796.645,45.0779,0,0.000885,0,0
0:2:16.232,798.407,45.1813,0,0.000885,0,0
0:2:16.429,798.878,45.2089,0,0.000885,0,0
0:2:16.626,800.462,45.2986,0,0.000885,0,0
0:2:16.828,801.4,45.3468,0,0.000885,0,0
0:2:17.025,803.278,45.4571,0,0.000885,0,0
0:2:17.225,804.043,45.4985,0,0.000885,0,0
0:2:17.423,805.511,45.5812,0,0.000885,0,0
0:2:17.617,806.334,45.6295,0,0.000885,0,0
0:2:17.818,807.33,45.6847,0,0.000885,0,0
0:2:18.016,808.914,45.7743,0,0.000885,0,0
0:2:18.215,809.501,45.8088,0,0.000885,0,0
0:2:18.416,811.44,45.9191,0,0.000885,0,0
0:2:18.619,812.143,45.9605,0,0.000885,0,0
0:2:18.824,813.553,46.0363,0,0.000885,0,0
0:2:19.025,814.02,46.0639,0,0.000885,0,0
0:2:19.227,816.195,46.188,0,0.000885,0,0
0:2:19.428,817.192,46.2431,0,0.000885,0,0
0:2:19.631,818.602,46.3259,0,0.000885,0,0
0:2:19.832,819.54,46.3741,0,0.000885,0,0
0:2:20.030,820.715,46.4431,0,0.000885,0,0
0:2:20.228,821.595,46.4913,0,0.000885,0,0
0:2:20.430,823.588,46.6086,0,0.000885,0,0
0:2:20.624,824.002,46.6292,0,0.000885,0,0
0:2:20.824,825.114,46.6913,0,0.000885,0,0
0:2:21.023,825.937,46.7396,0,0.000885,0,0
0:2:21.218,826.818,46.7878,0,0.000885,0,0
0:2:21.419,827.053,46.8016,0,0.000885,0,0
0:2:21.615,825.643,46.7189,0,0.000885,0,0
0:2:21.813,824.295,46.643,0,0.000885,0,0
0:2:22.014,823.766,46.6155,0,0.000885,0,0
0:2:22.210,819.95,46.4017,0,0.000885,0,0
0:2:22.409,818.308,46.3052,0,0.000885,0,0
0:2:22.607,810.795,45.8846,0,0.000885,0,0
0:2:22.803,804.746,45.5399,0,0.000885,0,0
0:2:23.004,793.887,44.9262,0,0.000885,0,0
0:2:23.205,787.958,44.5884,0,0.000885,0,0
0:2:23.408,759.961,43.0026,0,0.000885,0,0
0:2:23.610,667.331,37.7626,0,0.000885,0,0
0:2:23.633,667.331,37.7626,0,0.000885,0,0