File: DataFile2021-06-09_064428.csv
Test ID:,Date Tested:,Time:,Test Type:,Diameter Avg. (mm):,Cyl. Corr. Factor:,Height (mm):,Age (days):,Weight (kN):,Break Type:,Ramp Rate (MPa/s):,Load at Break (kN):,Stress at Break (MPa):
12,6/9/2021,06:44,Cylinder,100,1,200,0,3.6,3,0.25,516.3,65.73
Sample Time,Load (kN),Stress (MPa),Long. Strain,Trans. Strain,Chan1 Deflection (mm),Chan2 Deflection (mm)
0:0:21.151,6.33427,0.806687,0,0.000885,0,0
0:0:21.452,13.4292,1.7099,0,0.000885,0,0
0:0:21.751,15.6577,1.99258,0,0.000885,0,0
0:0:22.046,14.5457,1.85469,0,0.000885,0,0
0:0:22.347,14.43,1.83401,0,0.000885,0,0
0:0:22.661,14.2521,1.81332,0,0.000885,0,0
0:0:22.959,14.0742,1.79264,0,0.000885,0,0
0:0:23.268,14.0163,1.78574,0,0.000885,0,0
0:0:23.574,13.8429,1.76506,0,0.000885,0,0
0:0:23.874,13.8429,1.76506,0,0.000885,0,0
0:0:24.165,13.5493,1.72369,0,0.000885,0,0
0:0:24.469,13.4915,1.71679,0,0.000885,0,0
0:0:24.774,13.4292,1.7099,0,0.000885,0,0
0:0:25.070,13.3714,1.70301,0,0.000885,0,0
0:0:25.369,12.9621,1.64785,0,0.000885,0,0
0:0:25.674,12.9621,1.64785,0,0.000885,0,0
0:0:25.973,13.8429,1.76506,0,0.000885,0,0
0:0:26.269,14.3678,1.82711,0,0.000885,0,0
0:0:26.572,15.1328,1.92364,0,0.000885,0,0
0:0:26.876,15.3686,1.95811,0,0.000885,0,0
0:0:27.180,16.365,2.08222,0,0.000885,0,0
0:0:27.483,16.9522,2.15806,0,0.000885,0,0
0:0:27.784,17.3036,2.20632,0,0.000885,0,0
0:0:28.086,18.1221,2.30974,0,0.000885,0,0
0:0:28.382,18.4735,2.35111,0,0.000885,0,0
0:0:28.681,19.9992,2.54417,0,0.000885,0,0
0:0:28.981,20.702,2.6338,0,0.000885,0,0
0:0:29.276,21.1157,2.68896,0,0.000885,0,0
0:0:29.579,21.8185,2.77859,0,0.000885,0,0
0:0:29.876,22.9929,2.93027,0,0.000885,0,0
0:0:30.174,23.2242,2.95785,0,0.000885,0,0
0:0:30.473,23.7535,3.0268,0,0.000885,0,0
0:0:30.770,24.2828,3.08885,0,0.000885,0,0
0:0:31.072,25.2214,3.21296,0,0.000885,0,0
0:0:31.365,26.0399,3.31638,0,0.000885,0,0
0:0:31.670,26.3335,3.35085,0,0.000885,0,0
0:0:31.975,26.5114,3.37843,0,0.000885,0,0
0:0:32.279,26.9206,3.42669,0,0.000885,0,0
0:0:32.583,27.7436,3.53012,0,0.000885,0,0
0:0:32.884,28.1528,3.58527,0,0.000885,0,0
0:0:33.188,28.9134,3.6818,0,0.000885,0,0
0:0:33.483,29.3271,3.73696,0,0.000885,0,0
0:0:33.781,29.7942,3.79212,0,0.000885,0,0
0:0:34.082,30.7906,3.92312,0,0.000885,0,0
0:0:34.378,31.2043,3.97138,0,0.000885,0,0
0:0:34.680,31.8493,4.05412,0,0.000885,0,0
0:0:34.975,32.432,4.12996,0,0.000885,0,0
0:0:35.274,32.7256,4.16443,0,0.000885,0,0
0:0:35.573,33.6641,4.28854,0,0.000885,0,0
0:0:35.870,34.2513,4.36438,0,0.000885,0,0
0:0:36.172,34.6605,4.41264,0,0.000885,0,0
0:0:36.464,35.1321,4.4747,0,0.000885,0,0
0:0:36.770,36.3064,4.61949,0,0.000885,0,0
0:0:37.075,36.5377,4.65396,0,0.000885,0,0
0:0:37.378,37.067,4.72291,0,0.000885,0,0
0:0:37.681,38.0056,4.84012,0,0.000885,0,0
0:0:37.983,38.357,4.88149,0,0.000885,0,0
0:0:38.288,38.9442,4.95733,0,0.000885,0,0
0:0:38.583,39.2956,5.00559,0,0.000885,0,0
0:0:38.881,40.1185,5.10902,0,0.000885,0,0
0:0:39.180,40.7057,5.18486,0,0.000885,0,0
0:0:39.478,41.1149,5.23312,0,0.000885,0,0
0:0:39.779,41.7021,5.30896,0,0.000885,0,0
0:0:40.073,42.1691,5.37102,0,0.000885,0,0
0:0:40.376,42.5206,5.41238,0,0.000885,0,0
0:0:40.673,43.2234,5.50202,0,0.000885,0,0
0:0:40.971,44.5178,5.66749,0,0.000885,0,0
0:0:41.271,45.0427,5.73644,0,0.000885,0,0
0:0:41.574,45.3941,5.77781,0,0.000885,0,0
0:0:41.879,45.8656,5.83986,0,0.000885,0,0
0:0:42.182,46.6263,5.93639,0,0.000885,0,0
0:0:42.484,47.507,6.0467,0,0.000885,0,0
0:0:42.787,47.6227,6.06049,0,0.000885,0,0
0:0:43.083,48.152,6.12944,0,0.000885,0,0
0:0:43.384,48.4456,6.17081,0,0.000885,0,0
0:0:43.680,49.442,6.29491,0,0.000885,0,0
0:0:43.981,50.0291,6.37076,0,0.000885,0,0
0:0:44.278,50.6163,6.4466,0,0.000885,0,0
0:0:44.577,51.4348,6.55002,0,0.000885,0,0
0:0:44.875,51.4971,6.55691,0,0.000885,0,0
0:0:45.170,52.6091,6.7017,0,0.000885,0,0
0:0:45.473,53.4899,6.81202,0,0.000885,0,0
0:0:45.777,53.6055,6.82581,0,0.000885,0,0
0:0:46.078,53.8413,6.85339,0,0.000885,0,0
0:0:46.375,54.3706,6.92234,0,0.000885,0,0
0:0:46.679,55.0156,7.00507,0,0.000885,0,0
0:0:46.984,55.6028,7.08092,0,0.000885,0,0
0:0:47.286,56.3634,7.17744,0,0.000885,0,0
0:0:47.589,57.3598,7.30155,0,0.000885,0,0
0:0:47.893,58.1827,7.40497,0,0.000885,0,0
0:0:48.191,58.5341,7.45323,0,0.000885,0,0
0:0:48.491,58.5341,7.45323,0,0.000885,0,0
0:0:48.786,59.2948,7.54976,0,0.000885,0,0
0:0:49.090,59.9398,7.6325,0,0.000885,0,0
0:0:49.384,60.527,7.70834,0,0.000885,0,0
0:0:49.684,61.1719,7.79108,0,0.000885,0,0
0:0:49.983,61.7591,7.86002,0,0.000885,0,0
0:0:50.280,62.6977,7.98413,0,0.000885,0,0
0:0:50.581,63.5784,8.09445,0,0.000885,0,0
0:0:50.877,63.9298,8.14271,0,0.000885,0,0
0:0:51.179,64.1033,8.16339,0,0.000885,0,0
0:0:51.474,64.5748,8.21855,0,0.000885,0,0
0:0:51.778,64.9841,8.27371,0,0.000885,0,0
0:0:52.083,65.9805,8.39781,0,0.000885,0,0
0:0:52.386,66.5098,8.46676,0,0.000885,0,0
0:0:52.689,66.8034,8.50813,0,0.000885,0,0
0:0:52.991,67.564,8.60466,0,0.000885,0,0
0:0:53.292,69.0898,8.79771,0,0.000885,0,0
0:0:53.589,69.1476,8.80461,0,0.000885,0,0
0:0:53.885,69.6191,8.86666,0,0.000885,0,0
0:0:54.188,70.144,8.92871,0,0.000885,0,0
0:0:54.481,70.0284,8.91492,0,0.000885,0,0
0:0:54.783,71.4963,9.10108,0,0.000885,0,0
0:0:55.079,72.0834,9.17692,0,0.000885,0,0
0:0:55.378,72.2569,9.19761,0,0.000885,0,0
0:0:55.678,72.6661,9.25276,0,0.000885,0,0
0:0:55.973,73.4891,9.35619,0,0.000885,0,0
0:0:56.275,74.0762,9.43203,0,0.000885,0,0
0:0:56.567,74.4276,9.4734,0,0.000885,0,0
0:0:56.873,75.3662,9.5975,0,0.000885,0,0
0:0:57.179,76.0112,9.68024,0,0.000885,0,0
0:0:57.483,76.5405,9.74229,0,0.000885,0,0
0:0:57.785,76.7719,9.77677,0,0.000885,0,0
0:0:58.087,77.6526,9.88708,0,0.000885,0,0
0:0:58.390,78.004,9.93535,0,0.000885,0,0
0:0:58.687,78.5912,10.0043,0,0.000885,0,0
0:0:58.986,79.5876,10.1353,0,0.000885,0,0
0:0:59.285,80.1747,10.2111,0,0.000885,0,0
0:0:59.581,80.7619,10.2801,0,0.000885,0,0
0:0:59.882,81.2912,10.349,0,0.000885,0,0
0:1:0.177,82.2877,10.48,0,0.000885,0,0
0:1:0.479,82.8125,10.5421,0,0.000885,0,0
0:1:0.777,83.3997,10.6179,0,0.000885,0,0
0:1:1.074,83.5776,10.6386,0,0.000885,0,0
0:1:1.375,84.107,10.7076,0,0.000885,0,0
0:1:1.678,84.752,10.7903,0,0.000885,0,0
0:1:1.983,85.219,10.8523,0,0.000885,0,0
0:1:2.284,85.9218,10.942,0,0.000885,0,0
0:1:2.587,86.6247,11.0316,0,0.000885,0,0
0:1:2.891,87.5632,11.1488,0,0.000885,0,0
0:1:3.187,87.5632,11.1488,0,0.000885,0,0
0:1:3.489,88.1504,11.2247,0,0.000885,0,0
0:1:3.785,88.9155,11.3212,0,0.000885,0,0
0:1:4.086,89.1468,11.3488,0,0.000885,0,0
0:1:4.383,90.2055,11.4867,0,0.000885,0,0
0:1:4.681,90.379,11.5073,0,0.000885,0,0
0:1:4.982,90.7304,11.5556,0,0.000885,0,0
0:1:5.277,91.8469,11.6935,0,0.000885,0,0
0:1:5.578,92.3762,11.7625,0,0.000885,0,0
0:1:5.876,93.2525,11.8728,0,0.000885,0,0
0:1:6.176,93.6084,11.921,0,0.000885,0,0
0:1:6.475,94.4268,12.0245,0,0.000885,0,0
0:1:6.777,94.6048,12.0451,0,0.000885,0,0
0:1:7.084,95.659,12.183,0,0.000885,0,0
0:1:7.385,95.7747,12.1968,0,0.000885,0,0
0:1:7.689,96.4197,12.2796,0,0.000885,0,0
0:1:7.991,96.8333,12.3278,0,0.000885,0,0
0:1:8.290,98.2968,12.514,0,0.000885,0,0
0:1:8.591,98.8261,12.5829,0,0.000885,0,0
0:1:8.886,99.2354,12.6381,0,0.000885,0,0
0:1:9.188,99.529,12.6726,0,0.000885,0,0
0:1:9.483,100.294,12.7691,0,0.000885,0,0
0:1:9.781,100.645,12.8174,0,0.000885,0,0
0:1:10.082,101.113,12.8725,0,0.000885,0,0
0:1:10.378,101.406,12.9139,0,0.000885,0,0
0:1:10.679,102.229,13.0173,0,0.000885,0,0
0:1:10.974,103.048,13.1207,0,0.000885,0,0
0:1:11.276,103.755,13.2104,0,0.000885,0,0
0:1:11.570,104.751,13.3345,0,0.000885,0,0
0:1:11.875,104.867,13.3551,0,0.000885,0,0
0:1:12.181,105.512,13.431,0,0.000885,0,0
0:1:12.483,106.157,13.5137,0,0.000885,0,0
0:1:12.785,106.157,13.5137,0,0.000885,0,0
0:1:13.089,106.686,13.5827,0,0.000885,0,0
0:1:13.387,107.211,13.6516,0,0.000885,0,0
0:1:13.687,108.27,13.7826,0,0.000885,0,0
0:1:13.982,108.621,13.8309,0,0.000885,0,0
0:1:14.285,109.56,13.9481,0,0.000885,0,0
0:1:14.581,110.147,14.0239,0,0.000885,0,0
0:1:14.879,110.908,14.1205,0,0.000885,0,0
0:1:15.180,111.317,14.1756,0,0.000885,0,0
0:1:15.475,111.788,14.2308,0,0.000885,0,0
0:1:15.778,112.549,14.3273,0,0.000885,0,0
0:1:16.083,113.314,14.4307,0,0.000885,0,0
0:1:16.383,113.781,14.4859,0,0.000885,0,0
0:1:16.682,114.132,14.5341,0,0.000885,0,0
0:1:16.986,115.071,14.6514,0,0.000885,0,0
0:1:17.292,115.422,14.6996,0,0.000885,0,0
0:1:17.594,116.188,14.7961,0,0.000885,0,0
0:1:17.897,116.833,14.8789,0,0.000885,0,0
0:1:18.200,117.357,14.9409,0,0.000885,0,0
0:1:18.497,117.771,14.9961,0,0.000885,0,0
0:1:18.800,118.416,15.0788,0,0.000885,0,0
0:1:19.096,119.235,15.1823,0,0.000885,0,0
0:1:19.395,119.47,15.2098,0,0.000885,0,0
0:1:19.694,119.88,15.265,0,0.000885,0,0
0:1:19.992,120.235,15.3064,0,0.000885,0,0
0:1:20.292,120.88,15.3891,0,0.000885,0,0
0:1:20.588,122.108,15.5477,0,0.000885,0,0
0:1:20.890,122.286,15.5684,0,0.000885,0,0
0:1:21.187,123.167,15.6787,0,0.000885,0,0
0:1:21.490,124.048,15.7959,0,0.000885,0,0
0:1:21.794,124.341,15.8304,0,0.000885,0,0
0:1:22.099,125.631,15.9958,0,0.000885,0,0
0:1:22.400,125.569,15.9889,0,0.000885,0,0
0:1:22.703,125.983,16.0372,0,0.000885,0,0
0:1:23.002,127.037,16.1751,0,0.000885,0,0
0:1:23.302,126.801,16.1475,0,0.000885,0,0
0:1:23.596,127.508,16.2372,0,0.000885,0,0
0:1:23.899,128.269,16.3337,0,0.000885,0,0
0:1:24.195,128.736,16.3888,0,0.000885,0,0
0:1:24.495,129.207,16.4509,0,0.000885,0,0
0:1:24.793,130.026,16.5543,0,0.000885,0,0
0:1:25.091,131.027,16.6853,0,0.000885,0,0
0:1:25.392,131.61,16.7543,0,0.000885,0,0
0:1:25.686,131.845,16.7887,0,0.000885,0,0
0:1:25.988,132.259,16.837,0,0.000885,0,0
0:1:26.285,133.193,16.9611,0,0.000885,0,0
0:1:26.589,133.371,16.9818,0,0.000885,0,0
0:1:26.894,134.545,17.1335,0,0.000885,0,0
0:1:27.197,135.012,17.1886,0,0.000885,0,0
0:1:27.499,135.6,17.2645,0,0.000885,0,0
0:1:27.802,136.071,17.3265,0,0.000885,0,0
0:1:28.100,136.654,17.4024,0,0.000885,0,0
0:1:28.401,136.947,17.4368,0,0.000885,0,0
0:1:28.695,137.419,17.4989,0,0.000885,0,0
0:1:28.998,138.531,17.6368,0,0.000885,0,0
0:1:29.296,138.882,17.6851,0,0.000885,0,0
0:1:29.593,139.354,17.7402,0,0.000885,0,0
0:1:29.893,139.821,17.8023,0,0.000885,0,0
0:1:30.190,140.292,17.8643,0,0.000885,0,0
0:1:30.493,141.467,18.0091,0,0.000885,0,0
0:1:30.789,142.112,18.0918,0,0.000885,0,0
0:1:31.087,142.815,18.1815,0,0.000885,0,0
0:1:31.388,143.282,18.2435,0,0.000885,0,0
0:1:31.692,144.105,18.3469,0,0.000885,0,0
0:1:31.997,144.34,18.3745,0,0.000885,0,0
0:1:32.301,144.865,18.4435,0,0.000885,0,0
0:1:32.603,145.452,18.5193,0,0.000885,0,0
0:1:32.908,146.333,18.6296,0,0.000885,0,0
0:1:33.202,146.862,18.6986,0,0.000885,0,0
0:1:33.506,147.036,18.7193,0,0.000885,0,0
0:1:33.800,147.801,18.8158,0,0.000885,0,0
0:1:34.101,148.326,18.8847,0,0.000885,0,0
0:1:34.399,149.5,19.0364,0,0.000885,0,0
0:1:34.698,149.967,19.0916,0,0.000885,0,0
0:1:34.998,150.03,19.1054,0,0.000885,0,0
0:1:35.293,150.497,19.1605,0,0.000885,0,0
0:1:35.596,151.262,19.2571,0,0.000885,0,0
0:1:35.892,152.022,19.3536,0,0.000885,0,0
0:1:36.190,152.022,19.3536,0,0.000885,0,0
0:1:36.490,153.197,19.5053,0,0.000885,0,0
0:1:36.794,153.664,19.5673,0,0.000885,0,0
0:1:37.099,154.545,19.6776,0,0.000885,0,0
0:1:37.403,155.425,19.788,0,0.000885,0,0
0:1:37.704,155.541,19.8017,0,0.000885,0,0
0:1:38.006,155.835,19.8431,0,0.000885,0,0
0:1:38.302,156.537,19.9327,0,0.000885,0,0
0:1:38.605,156.889,19.9741,0,0.000885,0,0
0:1:38.901,157.77,20.0913,0,0.000885,0,0
0:1:39.200,158.063,20.1258,0,0.000885,0,0
0:1:39.499,159.002,20.243,0,0.000885,0,0
0:1:39.796,159.237,20.2775,0,0.000885,0,0
0:1:40.099,159.94,20.3671,0,0.000885,0,0
0:1:40.394,160.643,20.4567,0,0.000885,0,0
0:1:40.695,161.23,20.5257,0,0.000885,0,0
0:1:40.993,162.111,20.6429,0,0.000885,0,0
0:1:41.289,162.636,20.705,0,0.000885,0,0
0:1:41.590,163.107,20.767,0,0.000885,0,0
0:1:41.895,163.868,20.8635,0,0.000885,0,0
0:1:42.199,164.575,20.9532,0,0.000885,0,0
0:1:42.502,164.455,20.9394,0,0.000885,0,0
0:1:42.803,165.572,21.0842,0,0.000885,0,0
0:1:43.107,166.332,21.1807,0,0.000885,0,0
0:1:43.401,166.626,21.2152,0,0.000885,0,0
0:1:43.704,167.155,21.2841,0,0.000885,0,0
0:1:44.000,167.858,21.3737,0,0.000885,0,0
0:1:44.300,168.503,21.4565,0,0.000885,0,0
0:1:44.597,169.09,21.5323,0,0.000885,0,0
0:1:44.896,169.793,21.622,0,0.000885,0,0
0:1:45.195,169.971,21.6426,0,0.000885,0,0
0:1:45.491,171.025,21.7736,0,0.000885,0,0
0:1:45.793,171.555,21.8426,0,0.000885,0,0
0:1:46.090,171.728,21.8633,0,0.000885,0,0
0:1:46.390,172.96,22.0219,0,0.000885,0,0
0:1:46.688,173.369,22.077,0,0.000885,0,0
0:1:46.991,174.014,22.1597,0,0.000885,0,0
0:1:47.297,174.25,22.1873,0,0.000885,0,0
0:1:47.598,174.722,22.2494,0,0.000885,0,0
0:1:47.901,175.598,22.3597,0,0.000885,0,0
0:1:48.202,175.949,22.4011,0,0.000885,0,0
0:1:48.500,176.421,22.4631,0,0.000885,0,0
0:1:48.801,176.83,22.5183,0,0.000885,0,0
0:1:49.098,177.769,22.6355,0,0.000885,0,0
0:1:49.399,178.178,22.6838,0,0.000885,0,0
0:1:49.696,178.943,22.7803,0,0.000885,0,0
0:1:49.996,179.646,22.8699,0,0.000885,0,0
0:1:50.295,180.233,22.9458,0,0.000885,0,0
0:1:50.591,180.878,23.0285,0,0.000885,0,0
0:1:50.893,181.229,23.0768,0,0.000885,0,0
0:1:51.188,182.11,23.1871,0,0.000885,0,0
0:1:51.492,182.519,23.2422,0,0.000885,0,0
0:1:51.797,182.755,23.2698,0,0.000885,0,0
0:1:52.102,183.752,23.3939,0,0.000885,0,0
0:1:52.404,184.454,23.4835,0,0.000885,0,0
0:1:52.708,185.099,23.5663,0,0.000885,0,0
0:1:53.011,185.513,23.6214,0,0.000885,0,0
0:1:53.306,186.096,23.6973,0,0.000885,0,0
0:1:53.607,187.034,23.8145,0,0.000885,0,0
0:1:53.905,187.506,23.8765,0,0.000885,0,0
0:1:54.200,188.093,23.9455,0,0.000885,0,0
0:1:54.502,188.56,24.0075,0,0.000885,0,0
0:1:54.799,188.796,24.0351,0,0.000885,0,0
0:1:55.099,189.677,24.1523,0,0.000885,0,0
0:1:55.398,190.379,24.242,0,0.000885,0,0
0:1:55.695,190.495,24.2558,0,0.000885,0,0
0:1:55.995,191.434,24.373,0,0.000885,0,0
0:1:56.289,191.612,24.3937,0,0.000885,0,0
0:1:56.591,192.786,24.5453,0,0.000885,0,0
0:1:56.894,193.369,24.6212,0,0.000885,0,0
0:1:57.196,194.014,24.7039,0,0.000885,0,0
0:1:57.497,194.192,24.7246,0,0.000885,0,0
0:1:57.796,194.663,24.7867,0,0.000885,0,0
0:1:58.096,195.539,24.897,0,0.000885,0,0
0:1:58.390,196.42,25.0073,0,0.000885,0,0
0:1:58.690,196.829,25.0624,0,0.000885,0,0
0:1:58.986,197.417,25.1383,0,0.000885,0,0
0:1:59.281,197.83,25.1865,0,0.000885,0,0
0:1:59.578,198.119,25.2279,0,0.000885,0,0
0:1:59.871,198.764,25.3107,0,0.000885,0,0
0:2:0.170,199.703,25.4279,0,0.000885,0,0
0:2:0.473,199.996,25.4623,0,0.000885,0,0
0:2:0.771,200.819,25.5658,0,0.000885,0,0
0:2:1.067,201.758,25.6899,0,0.000885,0,0
0:2:1.370,202.225,25.745,0,0.000885,0,0
0:2:1.670,202.639,25.8002,0,0.000885,0,0
0:2:1.972,203.284,25.8829,0,0.000885,0,0
0:2:2.277,203.577,25.9174,0,0.000885,0,0
0:2:2.577,204.396,26.0277,0,0.000885,0,0
0:2:2.879,204.747,26.0691,0,0.000885,0,0
0:2:3.179,205.454,26.1587,0,0.000885,0,0
0:2:3.471,205.686,26.1863,0,0.000885,0,0
0:2:3.770,206.802,26.3311,0,0.000885,0,0
0:2:4.065,207.563,26.4276,0,0.000885,0,0
0:2:4.371,207.914,26.4759,0,0.000885,0,0
0:2:4.680,208.559,26.5517,0,0.000885,0,0
0:2:4.984,209.267,26.6413,0,0.000885,0,0
0:2:5.284,209.676,26.6965,0,0.000885,0,0
0:2:5.575,210.557,26.8068,0,0.000885,0,0
0:2:5.873,210.557,26.8068,0,0.000885,0,0
0:2:6.169,211.144,26.8827,0,0.000885,0,0
0:2:6.469,212.02,26.993,0,0.000885,0,0
0:2:6.773,212.665,27.0757,0,0.000885,0,0
0:2:7.073,212.959,27.1171,0,0.000885,0,0
0:2:7.374,213.546,27.1929,0,0.000885,0,0
0:2:7.673,213.955,27.2412,0,0.000885,0,0
0:2:7.971,214.72,27.3377,0,0.000885,0,0
0:2:8.268,215.187,27.3998,0,0.000885,0,0
0:2:8.572,215.774,27.4756,0,0.000885,0,0
0:2:8.872,216.361,27.5515,0,0.000885,0,0
0:2:9.165,217.594,27.7031,0,0.000885,0,0
0:2:9.464,218.061,27.7652,0,0.000885,0,0
0:2:9.768,218.706,27.8479,0,0.000885,0,0
0:2:10.084,218.706,27.8479,0,0.000885,0,0
0:2:10.383,219.471,27.9445,0,0.000885,0,0
0:2:10.675,220.645,28.0961,0,0.000885,0,0
0:2:10.973,220.761,28.1099,0,0.000885,0,0
0:2:11.268,221.521,28.2065,0,0.000885,0,0
0:2:11.568,222.051,28.2754,0,0.000885,0,0
0:2:11.871,222.229,28.2961,0,0.000885,0,0
0:2:12.173,223.105,28.4064,0,0.000885,0,0
0:2:12.471,224.044,28.5236,0,0.000885,0,0
0:2:12.772,224.809,28.6201,0,0.000885,0,0
0:2:13.069,224.809,28.6201,0,0.000885,0,0
0:2:13.365,225.569,28.7236,0,0.000885,0,0
0:2:13.660,226.272,28.8132,0,0.000885,0,0
0:2:13.960,227.037,28.9097,0,0.000885,0,0
0:2:14.252,227.331,28.9442,0,0.000885,0,0
0:2:14.552,227.918,29.02,0,0.000885,0,0
0:2:14.846,228.679,29.1166,0,0.000885,0,0
0:2:15.145,229.208,29.1855,0,0.000885,0,0
0:2:15.440,229.675,29.2407,0,0.000885,0,0
0:2:15.737,230.556,29.3579,0,0.000885,0,0
0:2:16.036,231.023,29.413,0,0.000885,0,0
0:2:16.329,231.259,29.4475,0,0.000885,0,0
0:2:16.629,232.019,29.544,0,0.000885,0,0
0:2:16.932,232.313,29.5785,0,0.000885,0,0
0:2:17.233,232.727,29.6337,0,0.000885,0,0
0:2:17.536,233.371,29.7164,0,0.000885,0,0
0:2:17.835,234.368,29.8405,0,0.000885,0,0
0:2:18.137,234.661,29.875,0,0.000885,0,0
0:2:18.429,235.306,29.9577,0,0.000885,0,0
0:2:18.729,235.951,30.0405,0,0.000885,0,0
0:2:19.025,236.539,30.1163,0,0.000885,0,0
0:2:19.321,236.596,30.1232,0,0.000885,0,0
0:2:19.618,237.709,30.268,0,0.000885,0,0
0:2:19.913,237.886,30.2887,0,0.000885,0,0
0:2:20.212,238.354,30.3507,0,0.000885,0,0
0:2:20.504,238.825,30.4059,0,0.000885,0,0
0:2:20.801,240.293,30.592,0,0.000885,0,0
0:2:21.099,240.644,30.6403,0,0.000885,0,0
0:2:21.394,241.169,30.7092,0,0.000885,0,0
0:2:21.692,241.756,30.7782,0,0.000885,0,0
0:2:21.994,242.286,30.8471,0,0.000885,0,0
0:2:22.296,242.931,30.9299,0,0.000885,0,0
0:2:22.598,243.634,31.0195,0,0.000885,0,0
0:2:22.898,244.336,31.1091,0,0.000885,0,0
0:2:23.199,244.808,31.1712,0,0.000885,0,0
0:2:23.493,245.337,31.2401,0,0.000885,0,0
0:2:23.793,246.271,31.3574,0,0.000885,0,0
0:2:24.088,246.921,31.4401,0,0.000885,0,0
0:2:24.387,247.272,31.4815,0,0.000885,0,0
0:2:24.691,247.917,31.5642,0,0.000885,0,0
0:2:24.986,248.211,31.6056,0,0.000885,0,0
0:2:25.285,249.207,31.7297,0,0.000885,0,0
0:2:25.577,249.559,31.7779,0,0.000885,0,0
0:2:25.876,250.439,31.8883,0,0.000885,0,0
0:2:26.182,250.555,31.902,0,0.000885,0,0
0:2:26.483,250.964,31.9572,0,0.000885,0,0
0:2:26.787,251.961,32.0813,0,0.000885,0,0
0:2:27.089,252.49,32.1503,0,0.000885,0,0
0:2:27.391,253.077,32.2261,0,0.000885,0,0
0:2:27.690,253.838,32.3226,0,0.000885,0,0
0:2:27.991,254.483,32.4054,0,0.000885,0,0
0:2:28.285,254.776,32.4398,0,0.000885,0,0
0:2:28.580,255.248,32.5019,0,0.000885,0,0
0:2:28.876,255.893,32.5846,0,0.000885,0,0
0:2:29.180,256.302,32.6329,0,0.000885,0,0
0:2:29.482,256.947,32.7156,0,0.000885,0,0
0:2:29.774,257.65,32.8053,0,0.000885,0,0
0:2:30.081,258.121,32.8673,0,0.000885,0,0
0:2:30.375,259.002,32.9776,0,0.000885,0,0
0:2:30.672,259.705,33.0673,0,0.000885,0,0
0:2:30.971,260.172,33.1293,0,0.000885,0,0
0:2:31.274,260.817,33.2052,0,0.000885,0,0
0:2:31.574,261.404,33.281,0,0.000885,0,0
0:2:31.877,261.64,33.3155,0,0.000885,0,0
0:2:32.181,262.227,33.3844,0,0.000885,0,0
0:2:32.482,262.93,33.474,0,0.000885,0,0
0:2:32.781,263.575,33.5568,0,0.000885,0,0
0:2:33.082,264.278,33.6464,0,0.000885,0,0
0:2:33.384,264.691,33.7016,0,0.000885,0,0
0:2:33.680,265.158,33.7636,0,0.000885,0,0
0:2:33.988,265.274,33.7774,0,0.000885,0,0
0:2:34.281,266.569,33.9429,0,0.000885,0,0
0:2:34.578,267.151,34.0118,0,0.000885,0,0
0:2:34.873,268.21,34.1497,0,0.000885,0,0
0:2:35.172,268.326,34.1635,0,0.000885,0,0
0:2:35.487,268.797,34.2256,0,0.000885,0,0
0:2:35.783,269.558,34.3221,0,0.000885,0,0
0:2:36.082,270.732,34.4738,0,0.000885,0,0
0:2:36.374,271.026,34.5083,0,0.000885,0,0
0:2:36.672,271.141,34.522,0,0.000885,0,0
0:2:36.976,271.671,34.591,0,0.000885,0,0
0:2:37.276,272.196,34.6599,0,0.000885,0,0
0:2:37.578,273.134,34.7772,0,0.000885,0,0
0:2:37.878,273.721,34.853,0,0.000885,0,0
0:2:38.178,274.193,34.9082,0,0.000885,0,0
0:2:38.482,274.953,35.0116,0,0.000885,0,0
0:2:38.779,275.421,35.0667,0,0.000885,0,0
0:2:39.075,275.656,35.1012,0,0.000885,0,0
0:2:39.372,276.715,35.2322,0,0.000885,0,0
0:2:39.668,277.182,35.2943,0,0.000885,0,0
0:2:39.973,277.943,35.3908,0,0.000885,0,0
0:2:40.271,278.356,35.4391,0,0.000885,0,0
0:2:40.586,278.766,35.4942,0,0.000885,0,0
0:2:40.884,279.411,35.5769,0,0.000885,0,0
0:2:41.178,280.056,35.6597,0,0.000885,0,0
0:2:41.482,280.407,35.7011,0,0.000885,0,0
0:2:41.785,281.23,35.8045,0,0.000885,0,0
0:2:42.087,281.875,35.8872,0,0.000885,0,0
0:2:42.388,282.342,35.9493,0,0.000885,0,0
0:2:42.688,283.107,36.0458,0,0.000885,0,0
0:2:42.985,283.926,36.1492,0,0.000885,0,0
0:2:43.283,284.691,36.2457,0,0.000885,0,0
0:2:43.587,285.158,36.3078,0,0.000885,0,0
0:2:43.888,285.923,36.4043,0,0.000885,0,0
0:2:44.188,286.506,36.4802,0,0.000885,0,0
0:2:44.488,287.093,36.556,0,0.000885,0,0
0:2:44.784,287.506,36.6043,0,0.000885,0,0
0:2:45.077,287.973,36.6663,0,0.000885,0,0
0:2:45.375,288.325,36.7077,0,0.000885,0,0
0:2:45.669,288.676,36.756,0,0.000885,0,0
0:2:45.970,289.615,36.8732,0,0.000885,0,0
0:2:46.284,289.557,36.8663,0,0.000885,0,0
0:2:46.585,290.438,36.9766,0,0.000885,0,0
0:2:46.888,290.967,37.0455,0,0.000885,0,0
0:2:47.190,291.906,37.1696,0,0.000885,0,0
0:2:47.492,292.137,37.1972,0,0.000885,0,0
0:2:47.791,293.076,37.3144,0,0.000885,0,0
0:2:48.089,293.133,37.3213,0,0.000885,0,0
0:2:48.385,293.721,37.3972,0,0.000885,0,0
0:2:48.679,294.486,37.4937,0,0.000885,0,0
0:2:48.979,295.54,37.6316,0,0.000885,0,0
0:2:49.291,296.243,37.7212,0,0.000885,0,0
0:2:49.591,296.714,37.7764,0,0.000885,0,0
0:2:49.886,297.59,37.8936,0,0.000885,0,0
0:2:50.184,298.471,38.0039,0,0.000885,0,0
0:2:50.478,298.591,38.0177,0,0.000885,0,0
0:2:50.773,299.116,38.0866,0,0.000885,0,0
0:2:51.072,299.761,38.1694,0,0.000885,0,0
0:2:51.363,300.175,38.2176,0,0.000885,0,0
0:2:51.665,300.82,38.3004,0,0.000885,0,0
0:2:51.968,301.345,38.3693,0,0.000885,0,0
0:2:52.270,302.11,38.4659,0,0.000885,0,0
0:2:52.569,301.99,38.4521,0,0.000885,0,0
0:2:52.870,302.577,38.5279,0,0.000885,0,0
0:2:53.170,303.516,38.6451,0,0.000885,0,0
0:2:53.463,303.751,38.6727,0,0.000885,0,0
0:2:53.760,304.512,38.7692,0,0.000885,0,0
0:2:54.058,305.041,38.8382,0,0.000885,0,0
0:2:54.354,306.038,38.9692,0,0.000885,0,0
0:2:54.652,306.803,39.0657,0,0.000885,0,0
0:2:54.946,307.034,39.0933,0,0.000885,0,0
0:2:55.246,307.973,39.2105,0,0.000885,0,0
0:2:55.540,308.386,39.2656,0,0.000885,0,0
0:2:55.838,309.263,39.376,0,0.000885,0,0
0:2:56.135,309.908,39.4587,0,0.000885,0,0
0:2:56.436,310.259,39.507,0,0.000885,0,0
0:2:56.740,310.908,39.5828,0,0.000885,0,0
0:2:57.041,311.669,39.6862,0,0.000885,0,0
0:2:57.341,311.553,39.6655,0,0.000885,0,0
0:2:57.641,312.314,39.7621,0,0.000885,0,0
0:2:57.937,312.959,39.8448,0,0.000885,0,0
0:2:58.234,313.31,39.8931,0,0.000885,0,0
0:2:58.528,314.133,39.9965,0,0.000885,0,0
0:2:58.828,314.836,40.0861,0,0.000885,0,0
0:2:59.123,315.481,40.1689,0,0.000885,0,0
0:2:59.420,315.775,40.2033,0,0.000885,0,0
0:2:59.715,316.656,40.3205,0,0.000885,0,0
0:3:0.011,317.18,40.3826,0,0.000885,0,0
0:3:0.309,317.532,40.4309,0,0.000885,0,0
0:3:0.602,318.297,40.5274,0,0.000885,0,0
0:3:0.902,319,40.617,0,0.000885,0,0
0:3:1.196,319.409,40.6653,0,0.000885,0,0
0:3:1.496,320.174,40.7687,0,0.000885,0,0
0:3:1.799,320.41,40.7963,0,0.000885,0,0
0:3:2.101,321.228,40.8997,0,0.000885,0,0
0:3:2.402,321.7,40.9618,0,0.000885,0,0
0:3:2.701,322.283,41.0376,0,0.000885,0,0
0:3:3.001,322.928,41.1134,0,0.000885,0,0
0:3:3.296,323.866,41.2375,0,0.000885,0,0
0:3:3.591,323.928,41.2444,0,0.000885,0,0
0:3:3.891,324.747,41.3479,0,0.000885,0,0
0:3:4.192,325.392,41.4306,0,0.000885,0,0
0:3:4.492,325.392,41.4306,0,0.000885,0,0
0:3:4.786,325.979,41.5064,0,0.000885,0,0
0:3:5.084,326.802,41.6099,0,0.000885,0,0
0:3:5.378,327.389,41.6857,0,0.000885,0,0
0:3:5.686,328.265,41.796,0,0.000885,0,0
0:3:5.985,328.853,41.8719,0,0.000885,0,0
0:3:6.275,329.555,41.9615,0,0.000885,0,0
0:3:6.574,329.907,42.0029,0,0.000885,0,0
0:3:6.878,330.614,42.0925,0,0.000885,0,0
0:3:7.178,330.845,42.127,0,0.000885,0,0
0:3:7.479,331.846,42.2511,0,0.000885,0,0
0:3:7.778,332.607,42.3476,0,0.000885,0,0
0:3:8.081,332.958,42.3959,0,0.000885,0,0
0:3:8.373,333.31,42.4372,0,0.000885,0,0
0:3:8.671,334.133,42.5407,0,0.000885,0,0
0:3:8.969,334.662,42.6096,0,0.000885,0,0
0:3:9.282,335.307,42.6923,0,0.000885,0,0
0:3:9.581,335.952,42.7751,0,0.000885,0,0
0:3:9.875,336.77,42.8785,0,0.000885,0,0
0:3:10.175,336.828,42.8854,0,0.000885,0,0
0:3:10.469,337.3,42.9474,0,0.000885,0,0
0:3:10.766,338.18,43.0578,0,0.000885,0,0
0:3:11.064,338.532,43.106,0,0.000885,0,0
0:3:11.365,338.941,43.1543,0,0.000885,0,0
0:3:11.670,340.231,43.3198,0,0.000885,0,0
0:3:11.970,340.231,43.3198,0,0.000885,0,0
0:3:12.269,341.054,43.4232,0,0.000885,0,0
0:3:12.569,341.579,43.4921,0,0.000885,0,0
0:3:12.873,342.344,43.5887,0,0.000885,0,0
0:3:13.171,342.811,43.6507,0,0.000885,0,0
0:3:13.475,343.692,43.761,0,0.000885,0,0
0:3:13.773,344.101,43.8093,0,0.000885,0,0
0:3:14.067,344.688,43.8851,0,0.000885,0,0
0:3:14.365,344.808,43.8989,0,0.000885,0,0
0:3:14.670,345.391,43.9748,0,0.000885,0,0
0:3:14.974,346.565,44.1264,0,0.000885,0,0
0:3:15.273,347.504,44.2437,0,0.000885,0,0
0:3:15.566,347.74,44.2781,0,0.000885,0,0
0:3:15.865,348.736,44.4022,0,0.000885,0,0
0:3:16.159,349.497,44.4988,0,0.000885,0,0
0:3:16.459,349.323,44.4781,0,0.000885,0,0
0:3:16.762,350.142,44.5815,0,0.000885,0,0
0:3:17.063,351.023,44.6918,0,0.000885,0,0
0:3:17.364,351.668,44.7746,0,0.000885,0,0
0:3:17.664,351.552,44.7608,0,0.000885,0,0
0:3:17.963,352.312,44.8573,0,0.000885,0,0
0:3:18.258,352.197,44.8435,0,0.000885,0,0
0:3:18.554,353.545,45.0159,0,0.000885,0,0
0:3:18.853,353.66,45.0297,0,0.000885,0,0
0:3:19.144,354.016,45.0779,0,0.000885,0,0
0:3:19.445,354.661,45.1538,0,0.000885,0,0
0:3:19.739,355.244,45.2296,0,0.000885,0,0
0:3:20.037,356.182,45.3537,0,0.000885,0,0
0:3:20.334,356.89,45.4433,0,0.000885,0,0
0:3:20.628,357.063,45.464,0,0.000885,0,0
0:3:20.927,357.65,45.5399,0,0.000885,0,0
0:3:21.220,357.886,45.5675,0,0.000885,0,0
0:3:21.522,359.234,45.7398,0,0.000885,0,0
0:3:21.824,359.763,45.8088,0,0.000885,0,0
0:3:22.126,360.466,45.8984,0,0.000885,0,0
0:3:22.426,361.347,46.0087,0,0.000885,0,0
0:3:22.725,362.285,46.1259,0,0.000885,0,0
0:3:23.026,362.517,46.1604,0,0.000885,0,0
0:3:23.319,362.81,46.1949,0,0.000885,0,0
0:3:23.616,363.162,46.2362,0,0.000885,0,0
0:3:23.913,364.042,46.3535,0,0.000885,0,0
0:3:24.208,364.865,46.4569,0,0.000885,0,0
0:3:24.507,365.92,46.5879,0,0.000885,0,0
0:3:24.802,366.329,46.643,0,0.000885,0,0
0:3:25.101,366.565,46.6706,0,0.000885,0,0
0:3:25.394,367.152,46.7465,0,0.000885,0,0
0:3:25.691,367.388,46.774,0,0.000885,0,0
0:3:25.989,367.855,46.8361,0,0.000885,0,0
0:3:26.291,368.735,46.9464,0,0.000885,0,0
0:3:26.595,369.029,46.9878,0,0.000885,0,0
0:3:26.894,370.025,47.1119,0,0.000885,0,0
0:3:27.196,370.497,47.1739,0,0.000885,0,0
0:3:27.495,371.257,47.2705,0,0.000885,0,0
0:3:27.790,372.018,47.367,0,0.000885,0,0
0:3:28.089,372.374,47.4152,0,0.000885,0,0
0:3:28.392,372.783,47.4635,0,0.000885,0,0
0:3:28.691,373.37,47.5394,0,0.000885,0,0
0:3:28.987,373.895,47.6083,0,0.000885,0,0
0:3:29.282,374.482,47.6841,0,0.000885,0,0
0:3:29.577,375.185,47.7669,0,0.000885,0,0
0:3:29.892,375.95,47.8703,0,0.000885,0,0
0:3:30.193,376.538,47.9392,0,0.000885,0,0
0:3:30.484,376.831,47.9806,0,0.000885,0,0
0:3:30.782,377.77,48.0978,0,0.000885,0,0
0:3:31.076,377.65,48.084,0,0.000885,0,0
0:3:31.376,378.415,48.1806,0,0.000885,0,0
0:3:31.679,378.882,48.2426,0,0.000885,0,0
0:3:31.981,379.411,48.3047,0,0.000885,0,0
0:3:32.280,379.998,48.3805,0,0.000885,0,0
0:3:32.581,380.995,48.5115,0,0.000885,0,0
0:3:32.878,381.52,48.5736,0,0.000885,0,0
0:3:33.187,382.52,48.7046,0,0.000885,0,0
0:3:33.481,382.987,48.7666,0,0.000885,0,0
0:3:33.779,383.748,48.8631,0,0.000885,0,0
0:3:34.072,383.868,48.8769,0,0.000885,0,0
0:3:34.372,384.687,48.9804,0,0.000885,0,0
0:3:34.666,384.98,49.0148,0,0.000885,0,0
0:3:34.963,385.567,49.0907,0,0.000885,0,0
0:3:35.260,386.332,49.1872,0,0.000885,0,0
0:3:35.556,386.977,49.2699,0,0.000885,0,0
0:3:35.854,387.622,49.3527,0,0.000885,0,0
0:3:36.147,388.09,49.4147,0,0.000885,0,0
0:3:36.447,388.855,49.5113,0,0.000885,0,0
0:3:36.750,389.322,49.5733,0,0.000885,0,0
0:3:37.053,389.673,49.6147,0,0.000885,0,0
0:3:37.354,390.26,49.6905,0,0.000885,0,0
0:3:37.654,391.199,49.8077,0,0.000885,0,0
0:3:37.954,391.959,49.9043,0,0.000885,0,0
0:3:38.248,392.547,49.9801,0,0.000885,0,0
0:3:38.546,392.96,50.0353,0,0.000885,0,0
0:3:38.843,393.192,50.0628,0,0.000885,0,0
0:3:39.138,394.015,50.1663,0,0.000885,0,0
0:3:39.436,394.308,50.2076,0,0.000885,0,0
0:3:39.730,395.247,50.3248,0,0.000885,0,0
0:3:40.030,395.598,50.3662,0,0.000885,0,0
0:3:40.323,396.127,50.4351,0,0.000885,0,0
0:3:40.622,397.066,50.5524,0,0.000885,0,0
0:3:40.920,397.475,50.6075,0,0.000885,0,0
0:3:41.221,397.769,50.642,0,0.000885,0,0
0:3:41.525,398.236,50.704,0,0.000885,0,0
0:3:41.825,398.587,50.7523,0,0.000885,0,0
0:3:42.126,399.94,50.9247,0,0.000885,0,0
0:3:42.425,400.349,50.9729,0,0.000885,0,0
0:3:42.720,400.522,50.9936,0,0.000885,0,0
0:3:43.020,400.936,51.0488,0,0.000885,0,0
0:3:43.313,401.99,51.1798,0,0.000885,0,0
0:3:43.613,402.929,51.3039,0,0.000885,0,0
0:3:43.905,403.044,51.3177,0,0.000885,0,0
0:3:44.204,403.81,51.4142,0,0.000885,0,0
0:3:44.500,404.277,51.4763,0,0.000885,0,0
0:3:44.794,404.397,51.49,0,0.000885,0,0
0:3:45.095,405.629,51.6486,0,0.000885,0,0
0:3:45.396,405.86,51.6762,0,0.000885,0,0
0:3:45.696,406.857,51.8003,0,0.000885,0,0
0:3:45.989,407.092,51.8348,0,0.000885,0,0
0:3:46.291,407.915,51.9382,0,0.000885,0,0
0:3:46.595,408.618,52.0278,0,0.000885,0,0
0:3:46.897,409.321,52.1175,0,0.000885,0,0
0:3:47.196,409.735,52.1657,0,0.000885,0,0
0:3:47.496,410.259,52.2347,0,0.000885,0,0
0:3:47.796,410.962,52.3243,0,0.000885,0,0
0:3:48.093,411.727,52.4208,0,0.000885,0,0
0:3:48.397,412.194,52.4829,0,0.000885,0,0
0:3:48.697,412.546,52.5243,0,0.000885,0,0
0:3:48.990,413.133,52.6001,0,0.000885,0,0
0:3:49.289,413.778,52.6828,0,0.000885,0,0
0:3:49.595,414.481,52.7725,0,0.000885,0,0
0:3:49.898,414.952,52.8345,0,0.000885,0,0
0:3:50.198,415.482,52.9035,0,0.000885,0,0
0:3:50.491,416.3,53.0069,0,0.000885,0,0
0:3:50.790,416.772,53.0621,0,0.000885,0,0
0:3:51.095,417.826,53.1999,0,0.000885,0,0
0:3:51.395,417.826,53.1999,0,0.000885,0,0
0:3:51.698,418.119,53.2344,0,0.000885,0,0
0:3:52.000,419.174,53.3723,0,0.000885,0,0
0:3:52.299,419.587,53.4206,0,0.000885,0,0
0:3:52.601,419.761,53.4482,0,0.000885,0,0
0:3:52.897,420.526,53.5447,0,0.000885,0,0
0:3:53.195,421.402,53.655,0,0.000885,0,0
0:3:53.490,421.816,53.7102,0,0.000885,0,0
0:3:53.786,422.755,53.8274,0,0.000885,0,0
0:3:54.092,423.164,53.8756,0,0.000885,0,0
0:3:54.398,423.809,53.9584,0,0.000885,0,0
0:3:54.698,424.218,54.0135,0,0.000885,0,0
0:3:54.991,424.921,54.1032,0,0.000885,0,0
0:3:55.292,425.45,54.1721,0,0.000885,0,0
0:3:55.595,426.037,54.248,0,0.000885,0,0
0:3:55.891,426.682,54.3238,0,0.000885,0,0
0:3:56.197,427.799,54.4686,0,0.000885,0,0
0:3:56.499,428.03,54.4962,0,0.000885,0,0
0:3:56.801,428.324,54.5375,0,0.000885,0,0
0:3:57.102,428.911,54.6134,0,0.000885,0,0
0:3:57.403,429.907,54.7375,0,0.000885,0,0
0:3:57.704,430.085,54.7582,0,0.000885,0,0
0:3:57.999,430.494,54.8133,0,0.000885,0,0
0:3:58.299,431.024,54.8823,0,0.000885,0,0
0:3:58.592,432.02,55.0064,0,0.000885,0,0
0:3:58.891,432.55,55.0753,0,0.000885,0,0
0:3:59.195,433.426,55.1856,0,0.000885,0,0
0:3:59.490,433.777,55.2339,0,0.000885,0,0
0:3:59.790,434.191,55.2822,0,0.000885,0,0
0:4:0.092,435.067,55.3925,0,0.000885,0,0
0:4:0.392,435.539,55.4545,0,0.000885,0,0
0:4:0.695,436.068,55.5235,0,0.000885,0,0
0:4:0.992,436.535,55.5786,0,0.000885,0,0
0:4:1.290,437.238,55.6683,0,0.000885,0,0
0:4:1.591,438.003,55.7648,0,0.000885,0,0
0:4:1.894,438.234,55.7993,0,0.000885,0,0
0:4:2.194,438.706,55.8544,0,0.000885,0,0
0:4:2.494,439.467,55.9579,0,0.000885,0,0
0:4:2.797,440.583,56.0957,0,0.000885,0,0
0:4:3.091,440.992,56.1509,0,0.000885,0,0
0:4:3.391,441.228,56.1785,0,0.000885,0,0
0:4:3.694,441.989,56.275,0,0.000885,0,0
0:4:3.991,442.46,56.3371,0,0.000885,0,0
0:4:4.299,442.985,56.406,0,0.000885,0,0
0:4:4.591,444.337,56.5715,0,0.000885,0,0
0:4:4.891,444.511,56.5991,0,0.000885,0,0
0:4:5.194,445.156,56.6818,0,0.000885,0,0
0:4:5.492,445.449,56.7163,0,0.000885,0,0
0:4:5.797,446.272,56.8197,0,0.000885,0,0
0:4:6.091,446.802,56.8886,0,0.000885,0,0
0:4:6.391,447.447,56.9714,0,0.000885,0,0
0:4:6.695,448.029,57.0472,0,0.000885,0,0
0:4:6.995,448.737,57.1369,0,0.000885,0,0
0:4:7.296,449.146,57.1851,0,0.000885,0,0
0:4:7.595,449.791,57.2679,0,0.000885,0,0
0:4:7.896,449.969,57.2885,0,0.000885,0,0
0:4:8.198,450.672,57.3782,0,0.000885,0,0
0:4:8.498,451.317,57.4609,0,0.000885,0,0
0:4:8.792,452.313,57.5919,0,0.000885,0,0
0:4:9.099,452.842,57.6609,0,0.000885,0,0
0:4:9.396,453.309,57.716,0,0.000885,0,0
0:4:9.690,453.897,57.7919,0,0.000885,0,0
0:4:9.991,454.364,57.8539,0,0.000885,0,0
0:4:10.293,454.777,57.9022,0,0.000885,0,0
0:4:10.592,455.422,57.9849,0,0.000885,0,0
0:4:10.897,456.419,58.1159,0,0.000885,0,0
0:4:11.199,456.948,58.178,0,0.000885,0,0
0:4:11.503,457.531,58.2538,0,0.000885,0,0
0:4:11.803,458.118,58.3296,0,0.000885,0,0
0:4:12.103,458.296,58.3503,0,0.000885,0,0
0:4:12.404,459.408,58.4951,0,0.000885,0,0
0:4:12.699,459.822,58.5434,0,0.000885,0,0
0:4:12.999,460.467,58.6261,0,0.000885,0,0
0:4:13.291,461.112,58.7089,0,0.000885,0,0
0:4:13.599,461.343,58.7433,0,0.000885,0,0
0:4:13.897,462.05,58.833,0,0.000885,0,0
0:4:14.201,462.575,58.895,0,0.000885,0,0
0:4:14.498,462.926,58.9433,0,0.000885,0,0
0:4:14.793,463.398,58.9984,0,0.000885,0,0
0:4:15.093,463.807,59.0536,0,0.000885,0,0
0:4:15.397,464.982,59.2053,0,0.000885,0,0
0:4:15.693,465.569,59.2811,0,0.000885,0,0
0:4:15.993,466.036,59.3363,0,0.000885,0,0
0:4:16.294,466.565,59.4052,0,0.000885,0,0
0:4:16.598,467.326,59.5018,0,0.000885,0,0
0:4:16.897,467.855,59.5707,0,0.000885,0,0
0:4:17.198,468.384,59.6397,0,0.000885,0,0
0:4:17.499,468.909,59.7017,0,0.000885,0,0
0:4:17.793,469.968,59.8396,0,0.000885,0,0
0:4:18.093,470.671,59.9292,0,0.000885,0,0
0:4:18.396,470.964,59.9637,0,0.000885,0,0
0:4:18.693,471.725,60.0602,0,0.000885,0,0
0:4:18.999,472.37,60.143,0,0.000885,0,0
0:4:19.294,472.842,60.205,0,0.000885,0,0
0:4:19.593,473.66,60.3084,0,0.000885,0,0
0:4:19.895,473.896,60.336,0,0.000885,0,0
0:4:20.194,473.954,60.3429,0,0.000885,0,0
0:4:20.499,474.719,60.4394,0,0.000885,0,0
0:4:20.794,475.421,60.5291,0,0.000885,0,0
0:4:21.101,475.831,60.5842,0,0.000885,0,0
0:4:21.402,476.654,60.6877,0,0.000885,0,0
0:4:21.705,476.827,60.7083,0,0.000885,0,0
0:4:22.005,477.766,60.8324,0,0.000885,0,0
0:4:22.306,478.353,60.9083,0,0.000885,0,0
0:4:22.607,478.762,60.9565,0,0.000885,0,0
0:4:22.903,479.056,60.9979,0,0.000885,0,0
0:4:23.202,480.057,61.122,0,0.000885,0,0
0:4:23.496,480.639,61.1979,0,0.000885,0,0
0:4:23.796,481.053,61.2461,0,0.000885,0,0
0:4:24.099,481.991,61.3702,0,0.000885,0,0
0:4:24.397,482.049,61.3771,0,0.000885,0,0
0:4:24.694,482.694,61.4599,0,0.000885,0,0
0:4:24.997,483.219,61.5288,0,0.000885,0,0
0:4:25.296,484.22,61.6529,0,0.000885,0,0
0:4:25.588,484.571,61.6943,0,0.000885,0,0
0:4:25.887,484.571,61.6943,0,0.000885,0,0
0:4:26.194,485.568,61.8253,0,0.000885,0,0
0:4:26.496,486.506,61.9425,0,0.000885,0,0
0:4:26.799,486.8,61.9839,0,0.000885,0,0
0:4:27.101,487.503,62.0735,0,0.000885,0,0
0:4:27.401,487.912,62.1218,0,0.000885,0,0
0:4:27.702,488.499,62.1976,0,0.000885,0,0
0:4:27.999,488.557,62.2045,0,0.000885,0,0
0:4:28.296,489.322,62.301,0,0.000885,0,0
0:4:28.600,490.492,62.4527,0,0.000885,0,0
0:4:28.900,490.906,62.501,0,0.000885,0,0
0:4:29.190,491.902,62.632,0,0.000885,0,0
0:4:29.500,492.138,62.6596,0,0.000885,0,0
0:4:29.796,492.899,62.7561,0,0.000885,0,0
0:4:30.100,493.134,62.7906,0,0.000885,0,0
0:4:30.399,493.953,62.894,0,0.000885,0,0
0:4:30.693,494.304,62.9353,0,0.000885,0,0
0:4:30.994,494.834,63.0043,0,0.000885,0,0
0:4:31.297,495.011,63.025,0,0.000885,0,0
0:4:31.599,495.714,63.1146,0,0.000885,0,0
0:4:31.898,496.946,63.2732,0,0.000885,0,0
0:4:32.198,497.534,63.349,0,0.000885,0,0
0:4:32.499,497.649,63.3628,0,0.000885,0,0
0:4:32.800,497.943,63.3973,0,0.000885,0,0
0:4:33.101,498.824,63.5145,0,0.000885,0,0
0:4:33.396,499.526,63.6041,0,0.000885,0,0
0:4:33.699,499.762,63.6317,0,0.000885,0,0
0:4:33.997,500.349,63.7076,0,0.000885,0,0
0:4:34.300,500.581,63.7351,0,0.000885,0,0
0:4:34.599,500.465,63.7213,0,0.000885,0,0
0:4:34.902,500.816,63.7627,0,0.000885,0,0
0:4:35.200,501.226,63.8179,0,0.000885,0,0
0:4:35.496,501.226,63.8179,0,0.000885,0,0
0:4:35.799,501.639,63.873,0,0.000885,0,0
0:4:36.100,502.164,63.9351,0,0.000885,0,0
0:4:36.402,502.809,64.0178,0,0.000885,0,0
0:4:36.704,503.223,64.073,0,0.000885,0,0
0:4:37.006,503.69,64.135,0,0.000885,0,0
0:4:37.305,505.331,64.3419,0,0.000885,0,0
0:4:37.607,505.567,64.3695,0,0.000885,0,0
0:4:37.900,506.27,64.4591,0,0.000885,0,0
0:4:38.199,507.208,64.5832,0,0.000885,0,0
0:4:38.495,508.205,64.7073,0,0.000885,0,0
0:4:38.801,509.557,64.8797,0,0.000885,0,0
0:4:39.099,510.496,64.9969,0,0.000885,0,0
0:4:39.402,511.492,65.1279,0,0.000885,0,0
0:4:39.703,512.546,65.2589,0,0.000885,0,0
0:4:39.996,514.13,65.4588,0,0.000885,0,0
0:4:40.295,515.362,65.6174,0,0.000885,0,0
0:4:40.600,515.42,65.6243,0,0.000885,0,0
0:4:40.894,515.246,65.6036,0,0.000885,0,0
0:4:41.201,515.656,65.6519,0,0.000885,0,0
0:4:41.504,516.301,65.7346,0,0.000885,0,0
0:4:41.804,487.681,62.0942,0,0.000885,0,0
0:4:42.106,441.637,56.2336,0,0.000885,0,0
0:4:42.406,427.034,54.3721,0,0.000885,0,0
0:4:42.706,400.407,50.9798,0,0.000885,0,0
0:4:42.998,369.616,47.0636,0,0.000885,0,0
0:4:43.297,367.561,46.8016,0,0.000885,0,0
0:4:43.600,364.278,46.381,0,0.000885,0,0
0:4:43.770,363.749,46.3121,0,0.000885,0,0