File: DataFile2021-06-24_044452.csv
Test ID:,Date Tested:,Time:,Test Type:,Diameter Avg. (mm):,Cyl. Corr. Factor:,Height (mm):,Age (days):,Weight (kN):,Break Type:,Ramp Rate (MPa/s):,Load at Break (kN):,Stress at Break (MPa):
12,6/24/2021,04:44,Cylinder,150,1,300,0,3.6,Invalid/No Break,0.25,1157,65.47
Sample Time,Load (kN),Stress (MPa),Long. Strain,Trans. Strain,Chan1 Deflection (mm),Chan2 Deflection (mm)
0:0:25.879,6.62785,0.372317,0,0.000885,0,0
0:0:26.176,14.0742,0.799792,0,0.000885,0,0
0:0:26.474,16.1871,0.917003,0,0.000885,0,0
0:0:26.774,15.8357,0.896318,0,0.000885,0,0
0:0:27.068,15.1907,0.861845,0,0.000885,0,0
0:0:27.367,14.8971,0.84116,0,0.000885,0,0
0:0:27.665,15.075,0.85495,0,0.000885,0,0
0:0:27.960,14.7192,0.834266,0,0.000885,0,0
0:0:28.261,15.5999,0.882529,0,0.000885,0,0
0:0:28.555,16.4228,0.930792,0,0.000885,0,0
0:0:28.857,17.1835,0.972161,0,0.000885,0,0
0:0:29.152,18.0642,1.02042,0,0.000885,0,0
0:0:29.452,19.59,1.11006,0,0.000885,0,0
0:0:29.751,21.7607,1.23416,0,0.000885,0,0
0:0:30.046,23.2864,1.3169,0,0.000885,0,0
0:0:30.348,24.6921,1.39964,0,0.000885,0,0
0:0:30.644,26.6271,1.50995,0,0.000885,0,0
0:0:30.944,27.9749,1.58579,0,0.000885,0,0
0:0:31.241,29.852,1.68922,0,0.000885,0,0
0:0:31.544,30.9107,1.75127,0,0.000885,0,0
0:0:31.851,32.3742,1.83401,0,0.000885,0,0
0:0:32.154,33.8999,1.91674,0,0.000885,0,0
0:0:32.459,35.8927,2.03395,0,0.000885,0,0
0:0:32.761,37.3028,2.1098,0,0.000885,0,0
0:0:33.064,38.0634,2.15116,0,0.000885,0,0
0:0:33.363,38.9442,2.20632,0,0.000885,0,0
0:0:33.659,39.9984,2.26148,0,0.000885,0,0
0:0:33.962,41.1727,2.33043,0,0.000885,0,0
0:0:34.258,42.227,2.39248,0,0.000885,0,0
0:0:34.556,43.4013,2.45453,0,0.000885,0,0
0:0:34.857,44.282,2.5028,0,0.000885,0,0
0:0:35.152,46.6263,2.64069,0,0.000885,0,0
0:0:35.455,47.9741,2.71653,0,0.000885,0,0
0:0:35.749,49.442,2.79927,0,0.000885,0,0
0:0:36.052,50.7898,2.87511,0,0.000885,0,0
0:0:36.357,51.8485,2.93717,0,0.000885,0,0
0:0:36.662,54.0192,3.05438,0,0.000885,0,0
0:0:36.965,55.0734,3.11643,0,0.000885,0,0
0:0:37.267,56.1277,3.17848,0,0.000885,0,0
0:0:37.571,57.0084,3.22675,0,0.000885,0,0
0:0:37.870,58.9434,3.33706,0,0.000885,0,0
0:0:38.167,59.9976,3.39222,0,0.000885,0,0
0:0:38.468,60.9985,3.45427,0,0.000885,0,0
0:0:38.762,61.9949,3.50943,0,0.000885,0,0
0:0:39.065,63.4583,3.59217,0,0.000885,0,0
0:0:39.363,65.2198,3.6887,0,0.000885,0,0
0:0:39.660,65.9805,3.73696,0,0.000885,0,0
0:0:39.961,67.6219,3.82659,0,0.000885,0,0
0:0:40.258,68.854,3.89554,0,0.000885,0,0
0:0:40.560,70.9091,4.01275,0,0.000885,0,0
0:0:40.857,72.0212,4.0748,0,0.000885,0,0
0:0:41.160,73.5469,4.16443,0,0.000885,0,0
0:0:41.466,74.7791,4.23338,0,0.000885,0,0
0:0:41.769,75.8333,4.28854,0,0.000885,0,0
0:0:42.073,77.2434,4.37128,0,0.000885,0,0
0:0:42.373,78.004,4.41264,0,0.000885,0,0
0:0:42.675,79.4141,4.49538,0,0.000885,0,0
0:0:42.972,80.584,4.55743,0,0.000885,0,0
0:0:43.271,83.2262,4.70912,0,0.000885,0,0
0:0:43.571,83.929,4.75049,0,0.000885,0,0
0:0:43.867,84.8676,4.80565,0,0.000885,0,0
0:0:44.168,85.9797,4.8677,0,0.000885,0,0
0:0:44.466,87.5632,4.95733,0,0.000885,0,0
0:0:44.766,89.3247,5.05386,0,0.000885,0,0
0:0:45.064,90.5569,5.1228,0,0.000885,0,0
0:0:45.361,91.4955,5.17796,0,0.000885,0,0
0:0:45.663,92.4919,5.23312,0,0.000885,0,0
0:0:45.959,93.8397,5.30896,0,0.000885,0,0
0:0:46.261,96.0104,5.43307,0,0.000885,0,0
0:0:46.566,96.949,5.48823,0,0.000885,0,0
0:0:46.869,98.4747,5.57096,0,0.000885,0,0
0:0:47.173,99.4133,5.62612,0,0.000885,0,0
0:0:47.475,100.877,5.70886,0,0.000885,0,0
0:0:47.779,101.935,5.77091,0,0.000885,0,0
0:0:48.074,103.283,5.84675,0,0.000885,0,0
0:0:48.374,104.809,5.92949,0,0.000885,0,0
0:0:48.675,106.566,6.03291,0,0.000885,0,0
0:0:48.970,107.798,6.10186,0,0.000885,0,0
0:0:49.271,109.15,6.1777,0,0.000885,0,0
0:0:49.567,110.44,6.24665,0,0.000885,0,0
0:0:49.868,111.788,6.32249,0,0.000885,0,0
0:0:50.167,113.43,6.41902,0,0.000885,0,0
0:0:50.464,114.368,6.47418,0,0.000885,0,0
0:0:50.766,115.013,6.50865,0,0.000885,0,0
0:0:51.060,116.303,6.58449,0,0.000885,0,0
0:0:51.364,117.651,6.66034,0,0.000885,0,0
0:0:51.669,119.648,6.77065,0,0.000885,0,0
0:0:51.974,120.76,6.8327,0,0.000885,0,0
0:0:52.277,122.228,6.91544,0,0.000885,0,0
0:0:52.579,123.576,6.99128,0,0.000885,0,0
0:0:52.884,124.986,7.07402,0,0.000885,0,0
0:0:53.180,126.276,7.14297,0,0.000885,0,0
0:0:53.481,127.624,7.21881,0,0.000885,0,0
0:0:53.779,128.563,7.27397,0,0.000885,0,0
0:0:54.077,129.501,7.32913,0,0.000885,0,0
0:0:54.377,131.672,7.45323,0,0.000885,0,0
0:0:54.673,132.784,7.51529,0,0.000885,0,0
0:0:54.975,134.016,7.58423,0,0.000885,0,0
0:0:55.271,135.248,7.65318,0,0.000885,0,0
0:0:55.570,136.596,7.72902,0,0.000885,0,0
0:0:55.870,138.064,7.81176,0,0.000885,0,0
0:0:56.167,139.354,7.8876,0,0.000885,0,0
0:0:56.468,140.937,7.97723,0,0.000885,0,0
0:0:56.773,142.17,8.04618,0,0.000885,0,0
0:0:57.076,143.989,8.1496,0,0.000885,0,0
0:0:57.379,144.75,8.19097,0,0.000885,0,0
0:0:57.682,145.982,8.25992,0,0.000885,0,0
0:0:57.984,147.156,8.32887,0,0.000885,0,0
0:0:58.281,148.62,8.4116,0,0.000885,0,0
0:0:58.582,149.852,8.48055,0,0.000885,0,0
0:0:58.879,151.026,8.5495,0,0.000885,0,0
0:0:59.178,152.61,8.63913,0,0.000885,0,0
0:0:59.478,153.49,8.68739,0,0.000885,0,0
0:0:59.774,155.132,8.77703,0,0.000885,0,0
0:1:0.076,156.48,8.85287,0,0.000885,0,0
0:1:0.374,158.063,8.9425,0,0.000885,0,0
0:1:0.674,159.117,9.00455,0,0.000885,0,0
0:1:0.971,160.234,9.06661,0,0.000885,0,0
0:1:1.274,162.111,9.17692,0,0.000885,0,0
0:1:1.580,163.459,9.25276,0,0.000885,0,0
0:1:1.882,164.749,9.32171,0,0.000885,0,0
0:1:2.186,165.923,9.39066,0,0.000885,0,0
0:1:2.489,167.622,9.48719,0,0.000885,0,0
0:1:2.790,168.561,9.53545,0,0.000885,0,0
0:1:3.089,169.793,9.61129,0,0.000885,0,0
0:1:3.386,170.967,9.67334,0,0.000885,0,0
0:1:3.688,172.609,9.76987,0,0.000885,0,0
0:1:3.984,173.899,9.83882,0,0.000885,0,0
0:1:4.283,175.189,9.91466,0,0.000885,0,0
0:1:4.583,176.07,9.96292,0,0.000885,0,0
0:1:4.880,177.475,10.0457,0,0.000885,0,0
0:1:5.182,179.352,10.1491,0,0.000885,0,0
0:1:5.477,180.82,10.2318,0,0.000885,0,0
0:1:5.780,181.932,10.2939,0,0.000885,0,0
0:1:6.077,182.813,10.3421,0,0.000885,0,0
0:1:6.377,184.223,10.4249,0,0.000885,0,0
0:1:6.684,186.509,10.5559,0,0.000885,0,0
0:1:6.986,187.622,10.6179,0,0.000885,0,0
0:1:7.290,188.738,10.68,0,0.000885,0,0
0:1:7.592,190.028,10.7558,0,0.000885,0,0
0:1:7.894,191.434,10.8317,0,0.000885,0,0
0:1:8.192,192.257,10.8799,0,0.000885,0,0
0:1:8.488,193.84,10.9696,0,0.000885,0,0
0:1:8.787,194.952,11.0316,0,0.000885,0,0
0:1:9.079,196.011,11.0937,0,0.000885,0,0
0:1:9.381,198.004,11.204,0,0.000885,0,0
0:1:9.674,198.827,11.2522,0,0.000885,0,0
0:1:9.973,200.41,11.3419,0,0.000885,0,0
0:1:10.269,201.7,11.4108,0,0.000885,0,0
0:1:10.564,203.048,11.4936,0,0.000885,0,0
0:1:10.863,204.632,11.5832,0,0.000885,0,0
0:1:11.157,205.334,11.6177,0,0.000885,0,0
0:1:11.458,206.918,11.7073,0,0.000885,0,0
0:1:11.762,208.266,11.7831,0,0.000885,0,0
0:1:12.064,209.56,11.859,0,0.000885,0,0
0:1:12.364,211.495,11.9693,0,0.000885,0,0
0:1:12.666,212.785,12.0382,0,0.000885,0,0
0:1:12.967,213.43,12.0796,0,0.000885,0,0
0:1:13.260,214.6,12.1417,0,0.000885,0,0
0:1:13.559,216.184,12.2313,0,0.000885,0,0
0:1:13.854,217.767,12.3209,0,0.000885,0,0
0:1:14.151,218.826,12.383,0,0.000885,0,0
0:1:14.447,219.644,12.4312,0,0.000885,0,0
0:1:14.740,221.112,12.514,0,0.000885,0,0
0:1:15.041,222.402,12.5829,0,0.000885,0,0
0:1:15.336,224.044,12.6795,0,0.000885,0,0
0:1:15.633,225.627,12.7691,0,0.000885,0,0
0:1:15.930,226.917,12.838,0,0.000885,0,0
0:1:16.230,228.207,12.9139,0,0.000885,0,0
0:1:16.534,229.559,12.9897,0,0.000885,0,0
0:1:16.835,231.259,13.0862,0,0.000885,0,0
0:1:17.137,232.375,13.1483,0,0.000885,0,0
0:1:17.436,233.136,13.1897,0,0.000885,0,0
0:1:17.732,234.777,13.2862,0,0.000885,0,0
0:1:18.032,236.125,13.362,0,0.000885,0,0
0:1:18.325,237.184,13.4241,0,0.000885,0,0
0:1:18.626,238.709,13.5068,0,0.000885,0,0
0:1:18.927,239.764,13.5689,0,0.000885,0,0
0:1:19.226,240.818,13.6309,0,0.000885,0,0
0:1:19.522,242.637,13.7275,0,0.000885,0,0
0:1:19.816,243.985,13.8102,0,0.000885,0,0
0:1:20.114,245.337,13.886,0,0.000885,0,0
0:1:20.408,246.214,13.9343,0,0.000885,0,0
0:1:20.708,247.152,13.9826,0,0.000885,0,0
0:1:21.012,249.501,14.1205,0,0.000885,0,0
0:1:21.311,250.964,14.2032,0,0.000885,0,0
0:1:21.615,252.316,14.279,0,0.000885,0,0
0:1:21.915,252.726,14.2997,0,0.000885,0,0
0:1:22.216,254.189,14.3825,0,0.000885,0,0
0:1:22.515,255.835,14.479,0,0.000885,0,0
0:1:22.816,256.947,14.541,0,0.000885,0,0
0:1:23.110,258.415,14.6238,0,0.000885,0,0
0:1:23.416,259.233,14.672,0,0.000885,0,0
0:1:23.717,261.111,14.7755,0,0.000885,0,0
0:1:24.010,262.107,14.8306,0,0.000885,0,0
0:1:24.310,263.459,14.9065,0,0.000885,0,0
0:1:24.614,264.278,14.9547,0,0.000885,0,0
0:1:24.923,266.506,15.0788,0,0.000885,0,0
0:1:25.230,267.681,15.1478,0,0.000885,0,0
0:1:25.525,268.855,15.2167,0,0.000885,0,0
0:1:25.825,269.909,15.2719,0,0.000885,0,0
0:1:26.115,271.551,15.3684,0,0.000885,0,0
0:1:26.417,273.37,15.4718,0,0.000885,0,0
0:1:26.718,274.486,15.5339,0,0.000885,0,0
0:1:27.024,275.776,15.6028,0,0.000885,0,0
0:1:27.323,276.888,15.6718,0,0.000885,0,0
0:1:27.624,278.236,15.7476,0,0.000885,0,0
0:1:27.924,280.291,15.8579,0,0.000885,0,0
0:1:28.227,281.403,15.9269,0,0.000885,0,0
0:1:28.524,282.756,16.0027,0,0.000885,0,0
0:1:28.818,283.926,16.0648,0,0.000885,0,0
0:1:29.115,285.158,16.1337,0,0.000885,0,0
0:1:29.414,286.216,16.1958,0,0.000885,0,0
0:1:29.707,287.213,16.2509,0,0.000885,0,0
0:1:30.007,288.618,16.3337,0,0.000885,0,0
0:1:30.309,289.793,16.3957,0,0.000885,0,0
0:1:30.607,291.376,16.4854,0,0.000885,0,0
0:1:30.912,292.666,16.5612,0,0.000885,0,0
0:1:31.214,294.014,16.637,0,0.000885,0,0
0:1:31.517,295.073,16.6991,0,0.000885,0,0
0:1:31.818,297.181,16.8163,0,0.000885,0,0
0:1:32.118,298.062,16.8646,0,0.000885,0,0
0:1:32.419,299.703,16.9611,0,0.000885,0,0
0:1:32.715,300.584,17.0094,0,0.000885,0,0
0:1:33.013,302.226,17.1059,0,0.000885,0,0
0:1:33.308,303.925,17.1955,0,0.000885,0,0
0:1:33.607,304.748,17.2438,0,0.000885,0,0
0:1:33.911,306.158,17.3265,0,0.000885,0,0
0:1:34.208,306.803,17.361,0,0.000885,0,0
0:1:34.505,308.324,17.4506,0,0.000885,0,0
0:1:34.819,310.086,17.5472,0,0.000885,0,0
0:1:35.119,311.491,17.6299,0,0.000885,0,0
0:1:35.411,312.256,17.6713,0,0.000885,0,0
0:1:35.719,314.076,17.7747,0,0.000885,0,0
0:1:36.015,315.539,17.8574,0,0.000885,0,0
0:1:36.316,317.007,17.9402,0,0.000885,0,0
0:1:36.620,318.47,18.0229,0,0.000885,0,0
0:1:36.920,319.236,18.0643,0,0.000885,0,0
0:1:37.221,320.583,18.1401,0,0.000885,0,0
0:1:37.524,321.873,18.2159,0,0.000885,0,0
0:1:37.819,323.283,18.2918,0,0.000885,0,0
0:1:38.128,324.805,18.3814,0,0.000885,0,0
0:1:38.430,325.628,18.4297,0,0.000885,0,0
0:1:38.732,327.327,18.5262,0,0.000885,0,0
0:1:39.026,328.617,18.5952,0,0.000885,0,0
0:1:39.324,330.143,18.6848,0,0.000885,0,0
0:1:39.620,331.259,18.7468,0,0.000885,0,0
0:1:39.913,332.14,18.7951,0,0.000885,0,0
0:1:40.211,334.013,18.8985,0,0.000885,0,0
0:1:40.506,334.835,18.9468,0,0.000885,0,0
0:1:40.805,336.477,19.0433,0,0.000885,0,0
0:1:41.099,337.887,19.1192,0,0.000885,0,0
0:1:41.401,338.883,19.1743,0,0.000885,0,0
0:1:41.704,340.583,19.2708,0,0.000885,0,0
0:1:42.005,341.699,19.3329,0,0.000885,0,0
0:1:42.306,342.46,19.3812,0,0.000885,0,0
0:1:42.606,344.221,19.4777,0,0.000885,0,0
0:1:42.907,345.978,19.5811,0,0.000885,0,0
0:1:43.211,347.21,19.6501,0,0.000885,0,0
0:1:43.506,348.443,19.719,0,0.000885,0,0
0:1:43.805,349.91,19.8017,0,0.000885,0,0
0:1:44.098,351.258,19.8776,0,0.000885,0,0
0:1:44.399,352.606,19.9534,0,0.000885,0,0
0:1:44.692,354.19,20.0431,0,0.000885,0,0
0:1:44.990,354.892,20.0844,0,0.000885,0,0
0:1:45.287,356.125,20.1534,0,0.000885,0,0
0:1:45.581,357.766,20.243,0,0.000885,0,0
0:1:45.879,358.647,20.2982,0,0.000885,0,0
0:1:46.183,360.408,20.3947,0,0.000885,0,0
0:1:46.485,361.52,20.4567,0,0.000885,0,0
0:1:46.787,362.459,20.5119,0,0.000885,0,0
0:1:47.087,364.456,20.6222,0,0.000885,0,0
0:1:47.387,365.684,20.6912,0,0.000885,0,0
0:1:47.682,367.036,20.767,0,0.000885,0,0
0:1:47.982,368.735,20.8635,0,0.000885,0,0
0:1:48.274,369.322,20.898,0,0.000885,0,0
0:1:48.574,370.964,20.9945,0,0.000885,0,0
0:1:48.870,372.196,21.0635,0,0.000885,0,0
0:1:49.167,373.192,21.1186,0,0.000885,0,0
0:1:49.464,374.954,21.2152,0,0.000885,0,0
0:1:49.756,376.008,21.2772,0,0.000885,0,0
0:1:50.057,376.831,21.3255,0,0.000885,0,0
0:1:50.350,378.824,21.4358,0,0.000885,0,0
0:1:50.647,380.114,21.5116,0,0.000885,0,0
0:1:50.944,381.23,21.5737,0,0.000885,0,0
0:1:51.246,382.814,21.6633,0,0.000885,0,0
0:1:51.547,384.277,21.7461,0,0.000885,0,0
0:1:51.850,385.745,21.8288,0,0.000885,0,0
0:1:52.152,386.857,21.8909,0,0.000885,0,0
0:1:52.452,387.916,21.9529,0,0.000885,0,0
0:1:52.748,389.38,22.0356,0,0.000885,0,0
0:1:53.046,390.26,22.0839,0,0.000885,0,0
0:1:53.341,392.08,22.1873,0,0.000885,0,0
0:1:53.641,393.605,22.2701,0,0.000885,0,0
0:1:53.934,394.482,22.3252,0,0.000885,0,0
0:1:54.233,395.834,22.4011,0,0.000885,0,0
0:1:54.529,397.066,22.47,0,0.000885,0,0
0:1:54.821,398.707,22.5596,0,0.000885,0,0
0:1:55.118,400.113,22.6424,0,0.000885,0,0
0:1:55.414,400.758,22.6769,0,0.000885,0,0
0:1:55.714,401.812,22.7389,0,0.000885,0,0
0:1:56.006,403.338,22.8216,0,0.000885,0,0
0:1:56.309,405.157,22.9251,0,0.000885,0,0
0:1:56.610,406.332,22.994,0,0.000885,0,0
0:1:56.912,407.915,23.0836,0,0.000885,0,0
0:1:57.213,409.321,23.1595,0,0.000885,0,0
0:1:57.513,410.202,23.2146,0,0.000885,0,0
0:1:57.814,411.901,23.3112,0,0.000885,0,0
0:1:58.117,413.547,23.4008,0,0.000885,0,0
0:1:58.414,414.365,23.4491,0,0.000885,0,0
0:1:58.712,415.775,23.5249,0,0.000885,0,0
0:1:59.007,416.652,23.5801,0,0.000885,0,0
0:1:59.306,418.587,23.6904,0,0.000885,0,0
0:1:59.620,420.054,23.7731,0,0.000885,0,0
0:1:59.929,420.877,23.8145,0,0.000885,0,0
0:2:0.235,422.928,23.9317,0,0.000885,0,0
0:2:0.527,423.337,23.9593,0,0.000885,0,0
0:2:0.829,424.69,24.0351,0,0.000885,0,0
0:2:1.119,425.859,24.0972,0,0.000885,0,0
0:2:1.421,426.682,24.1454,0,0.000885,0,0
0:2:1.726,428.675,24.2558,0,0.000885,0,0
0:2:2.028,429.907,24.3247,0,0.000885,0,0
0:2:2.328,431.549,24.4212,0,0.000885,0,0
0:2:2.628,432.959,24.4971,0,0.000885,0,0
0:2:2.929,433.897,24.5522,0,0.000885,0,0
0:2:3.220,436.126,24.6763,0,0.000885,0,0
0:2:3.529,437.122,24.7384,0,0.000885,0,0
0:2:3.835,438.061,24.7867,0,0.000885,0,0
0:2:4.130,439.409,24.8625,0,0.000885,0,0
0:2:4.430,441.401,24.9797,0,0.000885,0,0
0:2:4.720,442.051,25.0142,0,0.000885,0,0
0:2:5.021,443.163,25.0762,0,0.000885,0,0
0:2:5.316,445.334,25.2003,0,0.000885,0,0
0:2:5.612,445.863,25.2279,0,0.000885,0,0
0:2:5.919,448.385,25.3727,0,0.000885,0,0
0:2:6.220,449.03,25.4072,0,0.000885,0,0
0:2:6.524,450.32,25.483,0,0.000885,0,0
0:2:6.827,451.432,25.5451,0,0.000885,0,0
0:2:7.127,452.842,25.6278,0,0.000885,0,0
0:2:7.428,454.248,25.7037,0,0.000885,0,0
0:2:7.721,455.244,25.7588,0,0.000885,0,0
0:2:8.020,456.592,25.8347,0,0.000885,0,0
0:2:8.313,457.531,25.8898,0,0.000885,0,0
0:2:8.614,459.822,26.0208,0,0.000885,0,0
0:2:8.916,460.934,26.0829,0,0.000885,0,0
0:2:9.214,462.344,26.1656,0,0.000885,0,0
0:2:9.511,463.282,26.2139,0,0.000885,0,0
0:2:9.815,464.159,26.269,0,0.000885,0,0
0:2:10.115,466.036,26.3724,0,0.000885,0,0
0:2:10.410,467.504,26.4552,0,0.000885,0,0
0:2:10.716,468.5,26.5103,0,0.000885,0,0
0:2:11.012,469.554,26.5724,0,0.000885,0,0
0:2:11.312,471.258,26.6689,0,0.000885,0,0
0:2:11.616,472.842,26.7586,0,0.000885,0,0
0:2:11.916,473.66,26.8068,0,0.000885,0,0
0:2:12.217,475.128,26.8896,0,0.000885,0,0
0:2:12.517,476.124,26.9447,0,0.000885,0,0
0:2:12.816,478.059,27.055,0,0.000885,0,0
0:2:13.123,479.291,27.124,0,0.000885,0,0
0:2:13.429,480.759,27.2067,0,0.000885,0,0
0:2:13.728,481.991,27.2757,0,0.000885,0,0
0:2:14.019,482.401,27.2963,0,0.000885,0,0
0:2:14.328,484.514,27.4204,0,0.000885,0,0
0:2:14.635,486.097,27.5101,0,0.000885,0,0
0:2:14.931,487.209,27.5721,0,0.000885,0,0
0:2:15.229,488.557,27.648,0,0.000885,0,0
0:2:15.523,489.909,27.7238,0,0.000885,0,0
0:2:15.822,491.551,27.8135,0,0.000885,0,0
0:2:16.115,492.899,27.8893,0,0.000885,0,0
0:2:16.416,494.304,27.972,0,0.000885,0,0
0:2:16.720,495.127,28.0203,0,0.000885,0,0
0:2:17.021,497.004,28.1237,0,0.000885,0,0
0:2:17.321,498.236,28.1927,0,0.000885,0,0
0:2:17.621,499.175,28.2478,0,0.000885,0,0
0:2:17.920,500.056,28.2961,0,0.000885,0,0
0:2:18.225,502.049,28.4133,0,0.000885,0,0
0:2:18.520,502.871,28.4547,0,0.000885,0,0
0:2:18.818,503.984,28.5167,0,0.000885,0,0
0:2:19.122,504.98,28.5788,0,0.000885,0,0
0:2:19.421,506.39,28.6546,0,0.000885,0,0
0:2:19.729,508.383,28.7718,0,0.000885,0,0
0:2:20.033,510.14,28.8683,0,0.000885,0,0
0:2:20.333,511.021,28.9166,0,0.000885,0,0
0:2:20.635,512.373,28.9925,0,0.000885,0,0
0:2:20.937,514.014,29.089,0,0.000885,0,0
0:2:21.238,515.304,29.1579,0,0.000885,0,0
0:2:21.540,516.536,29.2269,0,0.000885,0,0
0:2:21.841,517.475,29.282,0,0.000885,0,0
0:2:22.141,519.704,29.4061,0,0.000885,0,0
0:2:22.442,520.349,29.4475,0,0.000885,0,0
0:2:22.737,521.696,29.5234,0,0.000885,0,0
0:2:23.034,523.164,29.6061,0,0.000885,0,0
0:2:23.332,524.334,29.6681,0,0.000885,0,0
0:2:23.624,526.038,29.7647,0,0.000885,0,0
0:2:23.925,527.27,29.8405,0,0.000885,0,0
0:2:24.230,528.324,29.8957,0,0.000885,0,0
0:2:24.537,529.556,29.9646,0,0.000885,0,0
0:2:24.835,530.846,30.0405,0,0.000885,0,0
0:2:25.130,532.252,30.1163,0,0.000885,0,0
0:2:25.431,533.075,30.1646,0,0.000885,0,0
0:2:25.733,534.658,30.2542,0,0.000885,0,0
0:2:26.034,535.948,30.33,0,0.000885,0,0
0:2:26.336,537.999,30.4472,0,0.000885,0,0
0:2:26.639,539.173,30.5093,0,0.000885,0,0
0:2:26.941,540.583,30.592,0,0.000885,0,0
0:2:27.240,541.696,30.6541,0,0.000885,0,0
0:2:27.541,543.043,30.7299,0,0.000885,0,0
0:2:27.837,544.805,30.8265,0,0.000885,0,0
0:2:28.131,545.743,30.8816,0,0.000885,0,0
0:2:28.430,546.976,30.9506,0,0.000885,0,0
0:2:28.734,547.856,30.9988,0,0.000885,0,0
0:2:29.034,549.084,31.0747,0,0.000885,0,0
0:2:29.338,550.903,31.1781,0,0.000885,0,0
0:2:29.635,552.136,31.247,0,0.000885,0,0
0:2:29.932,553.541,31.3229,0,0.000885,0,0
0:2:30.235,554.836,31.3987,0,0.000885,0,0
0:2:30.536,556.477,31.4884,0,0.000885,0,0
0:2:30.831,557.589,31.5504,0,0.000885,0,0
0:2:31.132,558.528,31.6056,0,0.000885,0,0
0:2:31.437,559.875,31.6814,0,0.000885,0,0
0:2:31.737,561.05,31.7504,0,0.000885,0,0
0:2:32.038,563.043,31.8607,0,0.000885,0,0
0:2:32.338,564.568,31.9503,0,0.000885,0,0
0:2:32.637,565.685,32.0124,0,0.000885,0,0
0:2:32.934,566.797,32.0744,0,0.000885,0,0
0:2:33.225,567.678,32.1227,0,0.000885,0,0
0:2:33.525,568.968,32.1985,0,0.000885,0,0
0:2:33.832,570.142,32.2606,0,0.000885,0,0
0:2:34.131,571.783,32.3571,0,0.000885,0,0
0:2:34.422,573.425,32.4467,0,0.000885,0,0
0:2:34.721,575.36,32.557,0,0.000885,0,0
0:2:35.019,576.534,32.626,0,0.000885,0,0
0:2:35.312,577.53,32.6811,0,0.000885,0,0
0:2:35.611,578.527,32.7363,0,0.000885,0,0
0:2:35.906,579.408,32.7846,0,0.000885,0,0
0:2:36.208,580.991,32.8742,0,0.000885,0,0
0:2:36.512,582.575,32.9638,0,0.000885,0,0
0:2:36.812,583.691,33.0328,0,0.000885,0,0
0:2:37.113,584.803,33.0948,0,0.000885,0,0
0:2:37.412,586.151,33.1707,0,0.000885,0,0
0:2:37.711,588.442,33.3017,0,0.000885,0,0
0:2:38.008,588.793,33.3155,0,0.000885,0,0
0:2:38.303,590.493,33.412,0,0.000885,0,0
0:2:38.603,591.787,33.4878,0,0.000885,0,0
0:2:38.900,592.899,33.5499,0,0.000885,0,0
0:2:39.199,595.016,33.674,0,0.000885,0,0
0:2:39.497,596.013,33.7292,0,0.000885,0,0
0:2:39.793,596.894,33.7774,0,0.000885,0,0
0:2:40.092,598.126,33.8464,0,0.000885,0,0
0:2:40.387,599.242,33.9084,0,0.000885,0,0
0:2:40.688,601.119,34.0187,0,0.000885,0,0
0:2:40.983,602.294,34.0808,0,0.000885,0,0
0:2:41.285,603.526,34.1497,0,0.000885,0,0
0:2:41.590,604.758,34.2256,0,0.000885,0,0
0:2:41.893,606.577,34.3221,0,0.000885,0,0
0:2:42.195,607.516,34.3773,0,0.000885,0,0
0:2:42.497,608.984,34.46,0,0.000885,0,0
0:2:42.799,610.336,34.5358,0,0.000885,0,0
0:2:43.097,611.332,34.591,0,0.000885,0,0
0:2:43.394,613.094,34.6944,0,0.000885,0,0
0:2:43.695,614.033,34.7496,0,0.000885,0,0
0:2:43.989,615.443,34.8254,0,0.000885,0,0
0:2:44.289,616.617,34.8944,0,0.000885,0,0
0:2:44.585,617.613,34.9495,0,0.000885,0,0
0:2:44.883,619.962,35.0805,0,0.000885,0,0
0:2:45.182,621.372,35.1633,0,0.000885,0,0
0:2:45.479,621.781,35.1839,0,0.000885,0,0
0:2:45.780,622.778,35.2391,0,0.000885,0,0
0:2:46.076,623.779,35.3012,0,0.000885,0,0
0:2:46.379,625.656,35.4046,0,0.000885,0,0
0:2:46.683,627.239,35.4942,0,0.000885,0,0
0:2:46.985,628.592,35.5701,0,0.000885,0,0
0:2:47.287,629.766,35.639,0,0.000885,0,0
0:2:47.589,631.234,35.7217,0,0.000885,0,0
0:2:47.889,632.639,35.7976,0,0.000885,0,0
0:2:48.185,633.578,35.8527,0,0.000885,0,0
0:2:48.483,635.046,35.9355,0,0.000885,0,0
0:2:48.783,636.162,35.9975,0,0.000885,0,0
0:2:49.078,637.866,36.0941,0,0.000885,0,0
0:2:49.378,639.392,36.1837,0,0.000885,0,0
0:2:49.675,640.095,36.2251,0,0.000885,0,0
0:2:49.973,641.505,36.3009,0,0.000885,0,0
0:2:50.273,642.621,36.3629,0,0.000885,0,0
0:2:50.568,644.498,36.4733,0,0.000885,0,0
0:2:50.870,645.731,36.5422,0,0.000885,0,0
0:2:51.174,646.785,36.5974,0,0.000885,0,0
0:2:51.478,648.021,36.6732,0,0.000885,0,0
0:2:51.781,649.663,36.7628,0,0.000885,0,0
0:2:52.083,650.366,36.8042,0,0.000885,0,0
0:2:52.385,651.954,36.8938,0,0.000885,0,0
0:2:52.680,652.892,36.949,0,0.000885,0,0
0:2:52.982,653.595,36.9835,0,0.000885,0,0
0:2:53.281,656.001,37.1214,0,0.000885,0,0
0:2:53.575,656.709,37.1627,0,0.000885,0,0
0:2:53.877,658.114,37.2386,0,0.000885,0,0
0:2:54.174,658.995,37.2937,0,0.000885,0,0
0:2:54.473,660.227,37.3627,0,0.000885,0,0
0:2:54.771,661.522,37.4316,0,0.000885,0,0
0:2:55.068,662.812,37.5075,0,0.000885,0,0
0:2:55.367,664.044,37.5764,0,0.000885,0,0
0:2:55.661,665.334,37.6523,0,0.000885,0,0
0:2:55.963,667.215,37.7557,0,0.000885,0,0
0:2:56.267,668.27,37.8177,0,0.000885,0,0
0:2:56.570,669.444,37.8798,0,0.000885,0,0
0:2:56.873,670.734,37.9556,0,0.000885,0,0
0:2:57.174,672.558,38.0591,0,0.000885,0,0
0:2:57.478,674.902,38.1901,0,0.000885,0,0
0:2:57.774,676.49,38.2797,0,0.000885,0,0
0:2:58.073,678.131,38.3762,0,0.000885,0,0
0:2:58.372,679.777,38.4659,0,0.000885,0,0
0:2:58.668,681.832,38.5831,0,0.000885,0,0
0:2:58.968,683.358,38.6727,0,0.000885,0,0
0:2:59.263,684.942,38.7623,0,0.000885,0,0
0:2:59.564,686.41,38.8451,0,0.000885,0,0
0:2:59.861,687.82,38.9209,0,0.000885,0,0
0:3:0.158,690.048,39.0519,0,0.000885,0,0
0:3:0.460,690.987,39.1002,0,0.000885,0,0
0:3:0.753,691.983,39.1553,0,0.000885,0,0
0:3:1.056,693.335,39.2381,0,0.000885,0,0
0:3:1.360,694.038,39.2725,0,0.000885,0,0
0:3:1.664,695.448,39.3553,0,0.000885,0,0
0:3:1.966,696.623,39.4173,0,0.000885,0,0
0:3:2.267,697.21,39.4518,0,0.000885,0,0
0:3:2.569,698.033,39.5001,0,0.000885,0,0
0:3:2.864,699.616,39.5897,0,0.000885,0,0
0:3:3.162,700.381,39.6311,0,0.000885,0,0
0:3:3.462,701.787,39.7138,0,0.000885,0,0
0:3:3.757,703.139,39.7896,0,0.000885,0,0
0:3:4.058,704.314,39.8586,0,0.000885,0,0
0:3:4.354,706.013,39.9551,0,0.000885,0,0
0:3:4.654,706.778,39.9965,0,0.000885,0,0
0:3:4.951,708.246,40.0792,0,0.000885,0,0
0:3:5.245,709.714,40.162,0,0.000885,0,0
0:3:5.547,710.826,40.224,0,0.000885,0,0
0:3:5.843,712.65,40.3274,0,0.000885,0,0
0:3:6.145,713.468,40.3757,0,0.000885,0,0
0:3:6.451,715.287,40.4791,0,0.000885,0,0
0:3:6.752,716.52,40.5481,0,0.000885,0,0
0:3:7.055,717.756,40.617,0,0.000885,0,0
0:3:7.356,719.34,40.7066,0,0.000885,0,0
0:3:7.657,720.278,40.7618,0,0.000885,0,0
0:3:7.955,721.275,40.817,0,0.000885,0,0
0:3:8.250,722.863,40.9066,0,0.000885,0,0
0:3:8.551,724.095,40.9755,0,0.000885,0,0
0:3:8.846,725.149,41.0376,0,0.000885,0,0
0:3:9.147,726.853,41.1341,0,0.000885,0,0
0:3:9.442,728.027,41.1962,0,0.000885,0,0
0:3:9.739,729.375,41.272,0,0.000885,0,0
0:3:10.039,731.194,41.3754,0,0.000885,0,0
0:3:10.334,732.075,41.4237,0,0.000885,0,0
0:3:10.636,733.485,41.5064,0,0.000885,0,0
0:3:10.941,734.775,41.5823,0,0.000885,0,0
0:3:11.243,736.243,41.665,0,0.000885,0,0
0:3:11.549,738.062,41.7684,0,0.000885,0,0
0:3:11.852,738.827,41.8098,0,0.000885,0,0
0:3:12.153,739.766,41.865,0,0.000885,0,0
0:3:12.455,740.825,41.9201,0,0.000885,0,0
0:3:12.756,743.053,42.0511,0,0.000885,0,0
0:3:13.053,744.521,42.1339,0,0.000885,0,0
0:3:13.348,745.344,42.1752,0,0.000885,0,0
0:3:13.649,746.456,42.2442,0,0.000885,0,0
0:3:13.943,747.63,42.3062,0,0.000885,0,0
0:3:14.244,749.512,42.4165,0,0.000885,0,0
0:3:14.541,750.686,42.4786,0,0.000885,0,0
0:3:14.837,751.211,42.5131,0,0.000885,0,0
0:3:15.138,752.973,42.6096,0,0.000885,0,0
0:3:15.443,754.792,42.713,0,0.000885,0,0
0:3:15.743,756.26,42.7958,0,0.000885,0,0
0:3:16.039,757.319,42.8578,0,0.000885,0,0
0:3:16.342,758.724,42.9337,0,0.000885,0,0
0:3:16.646,759.841,42.9957,0,0.000885,0,0
0:3:16.951,761.954,43.1198,0,0.000885,0,0
0:3:17.252,762.892,43.1681,0,0.000885,0,0
0:3:17.554,763.6,43.2094,0,0.000885,0,0
0:3:17.853,765.361,43.3129,0,0.000885,0,0
0:3:18.153,766.767,43.3887,0,0.000885,0,0
0:3:18.448,768.528,43.4921,0,0.000885,0,0
0:3:18.749,769.467,43.5404,0,0.000885,0,0
0:3:19.043,770.405,43.5956,0,0.000885,0,0
0:3:19.342,770.935,43.6231,0,0.000885,0,0
0:3:19.642,773.283,43.761,0,0.000885,0,0
0:3:19.938,774.636,43.8369,0,0.000885,0,0
0:3:20.238,775.983,43.9127,0,0.000885,0,0
0:3:20.542,777.158,43.9748,0,0.000885,0,0
0:3:20.844,778.096,44.0299,0,0.000885,0,0
0:3:21.150,780.209,44.154,0,0.000885,0,0
0:3:21.453,781.855,44.2437,0,0.000885,0,0
0:3:21.755,782.736,44.2919,0,0.000885,0,0
0:3:22.057,783.323,44.3264,0,0.000885,0,0
0:3:22.359,785.551,44.4505,0,0.000885,0,0
0:3:22.654,786.254,44.4919,0,0.000885,0,0
0:3:22.955,787.429,44.5608,0,0.000885,0,0
0:3:23.251,788.545,44.6229,0,0.000885,0,0
0:3:23.546,790.364,44.7263,0,0.000885,0,0
0:3:23.847,791.948,44.8159,0,0.000885,0,0
0:3:24.142,792.771,44.8642,0,0.000885,0,0
0:3:24.444,793.83,44.9193,0,0.000885,0,0
0:3:24.739,795.355,45.009,0,0.000885,0,0
0:3:25.038,796.53,45.071,0,0.000885,0,0
0:3:25.336,798.291,45.1744,0,0.000885,0,0
0:3:25.640,800.168,45.2779,0,0.000885,0,0
0:3:25.941,801.165,45.3399,0,0.000885,0,0
0:3:26.245,801.988,45.3813,0,0.000885,0,0
0:3:26.549,803.985,45.4985,0,0.000885,0,0
0:3:26.852,805.684,45.595,0,0.000885,0,0
0:3:27.153,806.565,45.6433,0,0.000885,0,0
0:3:27.456,807.152,45.6778,0,0.000885,0,0
0:3:27.749,808.74,45.7674,0,0.000885,0,0
0:3:28.053,810.559,45.8708,0,0.000885,0,0
0:3:28.348,811.965,45.9467,0,0.000885,0,0
0:3:28.645,812.494,45.9811,0,0.000885,0,0
0:3:28.942,814.198,46.0708,0,0.000885,0,0
0:3:29.238,815.43,46.1466,0,0.000885,0,0
0:3:29.540,817.072,46.2362,0,0.000885,0,0
0:3:29.843,817.779,46.2776,0,0.000885,0,0
0:3:30.143,819.772,46.3879,0,0.000885,0,0
0:3:30.440,820.479,46.4293,0,0.000885,0,0
0:3:30.737,822.005,46.5189,0,0.000885,0,0
0:3:31.047,823.94,46.6223,0,0.000885,0,0
0:3:31.348,824.763,46.6706,0,0.000885,0,0
0:3:31.655,826.173,46.7533,0,0.000885,0,0
0:3:31.956,827.52,46.8292,0,0.000885,0,0
0:3:32.259,829.224,46.9257,0,0.000885,0,0
0:3:32.561,829.696,46.9533,0,0.000885,0,0
0:3:32.855,831.101,47.0291,0,0.000885,0,0
0:3:33.157,832.747,47.1257,0,0.000885,0,0
0:3:33.452,834.389,47.2153,0,0.000885,0,0
0:3:33.753,835.389,47.2705,0,0.000885,0,0
0:3:34.048,836.795,47.3532,0,0.000885,0,0
0:3:34.345,838.089,47.429,0,0.000885,0,0
0:3:34.647,839.201,47.4911,0,0.000885,0,0
0:3:34.941,841.199,47.6014,0,0.000885,0,0
0:3:35.242,842.137,47.6566,0,0.000885,0,0
0:3:35.537,842.782,47.691,0,0.000885,0,0
0:3:35.836,844.428,47.7876,0,0.000885,0,0
0:3:36.144,846.541,47.9048,0,0.000885,0,0
0:3:36.447,846.835,47.9186,0,0.000885,0,0
0:3:36.752,848.476,48.0151,0,0.000885,0,0
0:3:37.054,849.357,48.0634,0,0.000885,0,0
0:3:37.356,851.648,48.1944,0,0.000885,0,0
0:3:37.658,852.471,48.2426,0,0.000885,0,0
0:3:37.956,854.641,48.3598,0,0.000885,0,0
0:3:38.255,855.108,48.3874,0,0.000885,0,0
0:3:38.548,856.639,48.477,0,0.000885,0,0
0:3:38.851,858.396,48.5736,0,0.000885,0,0
0:3:39.145,859.632,48.6425,0,0.000885,0,0
0:3:39.445,860.802,48.7115,0,0.000885,0,0
0:3:39.742,861.625,48.7597,0,0.000885,0,0
0:3:40.039,862.684,48.8149,0,0.000885,0,0
0:3:40.340,864.267,48.9045,0,0.000885,0,0
0:3:40.632,865.793,48.9941,0,0.000885,0,0
0:3:40.938,867.377,49.0838,0,0.000885,0,0
0:3:41.240,868.32,49.1389,0,0.000885,0,0
0:3:41.544,869.783,49.2217,0,0.000885,0,0
0:3:41.846,871.371,49.3113,0,0.000885,0,0
0:3:42.148,872.897,49.394,0,0.000885,0,0
0:3:42.452,873.835,49.4492,0,0.000885,0,0
0:3:42.745,875.01,49.5181,0,0.000885,0,0
0:3:43.047,876.593,49.6078,0,0.000885,0,0
0:3:43.343,878.003,49.6836,0,0.000885,0,0
0:3:43.639,879,49.7388,0,0.000885,0,0
0:3:43.940,880.41,49.8215,0,0.000885,0,0
0:3:44.244,882.229,49.9249,0,0.000885,0,0
0:3:44.545,882.994,49.9663,0,0.000885,0,0
0:3:44.839,884.751,50.0697,0,0.000885,0,0
0:3:45.138,885.281,50.0973,0,0.000885,0,0
0:3:45.447,887.22,50.2076,0,0.000885,0,0
0:3:45.742,888.039,50.2559,0,0.000885,0,0
0:3:46.044,889.92,50.3593,0,0.000885,0,0
0:3:46.347,891.619,50.4558,0,0.000885,0,0
0:3:46.649,892.442,50.5041,0,0.000885,0,0
0:3:46.953,893.617,50.5661,0,0.000885,0,0
0:3:47.256,895.672,50.6834,0,0.000885,0,0
0:3:47.556,896.139,50.7109,0,0.000885,0,0
0:3:47.850,898.136,50.8213,0,0.000885,0,0
0:3:48.152,899.368,50.8971,0,0.000885,0,0
0:3:48.447,901.13,50.9936,0,0.000885,0,0
0:3:48.744,901.481,51.0143,0,0.000885,0,0
0:3:49.043,903.069,51.1039,0,0.000885,0,0
0:3:49.338,904.475,51.1798,0,0.000885,0,0
0:3:49.640,905.062,51.2143,0,0.000885,0,0
0:3:49.944,907.468,51.3522,0,0.000885,0,0
0:3:50.244,908.469,51.4073,0,0.000885,0,0
0:3:50.541,908.643,51.4211,0,0.000885,0,0
0:3:50.846,910.231,51.5107,0,0.000885,0,0
0:3:51.146,912.223,51.621,0,0.000885,0,0
0:3:51.452,913.927,51.7176,0,0.000885,0,0
0:3:51.756,914.63,51.7589,0,0.000885,0,0
0:3:52.058,916.156,51.8417,0,0.000885,0,0
0:3:52.359,917.802,51.9382,0,0.000885,0,0
0:3:52.662,918.624,51.9865,0,0.000885,0,0
0:3:52.957,919.857,52.0554,0,0.000885,0,0
0:3:53.260,921.031,52.1175,0,0.000885,0,0
0:3:53.554,921.97,52.1726,0,0.000885,0,0
0:3:53.855,923.847,52.276,0,0.000885,0,0
0:3:54.150,925.43,52.3657,0,0.000885,0,0
0:3:54.446,926.547,52.4346,0,0.000885,0,0
0:3:54.746,928.486,52.5381,0,0.000885,0,0
0:3:55.042,929.247,52.5863,0,0.000885,0,0
0:3:55.344,930.773,52.6691,0,0.000885,0,0
0:3:55.639,932.476,52.7656,0,0.000885,0,0
0:3:55.941,934.06,52.8552,0,0.000885,0,0
0:3:56.244,934.941,52.9035,0,0.000885,0,0
0:3:56.546,935.879,52.9586,0,0.000885,0,0
0:3:56.850,937.583,53.0552,0,0.000885,0,0
0:3:57.150,938.699,53.1172,0,0.000885,0,0
0:3:57.450,940.461,53.2206,0,0.000885,0,0
0:3:57.748,941.631,53.2827,0,0.000885,0,0
0:3:58.044,942.102,53.3103,0,0.000885,0,0
0:3:58.345,944.393,53.4413,0,0.000885,0,0
0:3:58.639,945.919,53.5309,0,0.000885,0,0
0:3:58.941,947.329,53.6067,0,0.000885,0,0
0:3:59.246,948.032,53.6481,0,0.000885,0,0
0:3:59.545,949.851,53.7515,0,0.000885,0,0
0:3:59.843,950.968,53.8136,0,0.000885,0,0
0:4:0.139,951.964,53.8687,0,0.000885,0,0
0:4:0.440,953.138,53.9377,0,0.000885,0,0
0:4:0.744,954.664,54.0204,0,0.000885,0,0
0:4:1.047,956.19,54.1101,0,0.000885,0,0
0:4:1.349,957.773,54.1997,0,0.000885,0,0
0:4:1.654,958.654,54.248,0,0.000885,0,0
0:4:1.957,959.948,54.3238,0,0.000885,0,0
0:4:2.258,962.061,54.441,0,0.000885,0,0
0:4:2.560,962.942,54.4893,0,0.000885,0,0
0:4:2.855,964.232,54.5651,0,0.000885,0,0
0:4:3.154,964.761,54.5927,0,0.000885,0,0
0:4:3.453,965.873,54.6547,0,0.000885,0,0
0:4:3.748,968.284,54.7926,0,0.000885,0,0
0:4:4.048,969.454,54.8616,0,0.000885,0,0
0:4:4.344,970.397,54.9098,0,0.000885,0,0
0:4:4.643,971.567,54.9788,0,0.000885,0,0
0:4:4.941,973.097,55.0684,0,0.000885,0,0
0:4:5.236,974.739,55.1581,0,0.000885,0,0
0:4:5.537,976.265,55.2477,0,0.000885,0,0
0:4:5.842,977.555,55.3166,0,0.000885,0,0
0:4:6.144,978.377,55.3649,0,0.000885,0,0
0:4:6.448,979.316,55.4201,0,0.000885,0,0
0:4:6.753,980.962,55.5097,0,0.000885,0,0
0:4:7.054,982.545,55.5993,0,0.000885,0,0
0:4:7.357,984.129,55.689,0,0.000885,0,0
0:4:7.659,985.89,55.7924,0,0.000885,0,0
0:4:7.954,986.656,55.8337,0,0.000885,0,0
0:4:8.254,987.652,55.8889,0,0.000885,0,0
0:4:8.550,988.768,55.951,0,0.000885,0,0
0:4:8.848,990.001,56.0199,0,0.000885,0,0
0:4:9.148,992.643,56.1716,0,0.000885,0,0
0:4:9.442,993.581,56.2267,0,0.000885,0,0
0:4:9.744,994.404,56.275,0,0.000885,0,0
0:4:10.049,995.401,56.3302,0,0.000885,0,0
0:4:10.347,996.753,56.406,0,0.000885,0,0
0:4:10.647,999.217,56.5439,0,0.000885,0,0
0:4:10.948,1000.16,56.5991,0,0.000885,0,0
0:4:11.253,1000.98,56.6404,0,0.000885,0,0
0:4:11.555,1002.27,56.7163,0,0.000885,0,0
0:4:11.856,1001.21,56.6542,0,0.000885,0,0
0:4:12.157,1002.56,56.7301,0,0.000885,0,0
0:4:12.455,1004.32,56.8335,0,0.000885,0,0
0:4:12.754,1005.79,56.9162,0,0.000885,0,0
0:4:13.048,1007.67,57.0196,0,0.000885,0,0
0:4:13.349,1010.13,57.1644,0,0.000885,0,0
0:4:13.644,1011.31,57.2265,0,0.000885,0,0
0:4:13.945,1012.66,57.3023,0,0.000885,0,0
0:4:14.242,1014.19,57.392,0,0.000885,0,0
0:4:14.547,1015.53,57.4678,0,0.000885,0,0
0:4:14.848,1017.47,57.5781,0,0.000885,0,0
0:4:15.142,1018.53,57.6402,0,0.000885,0,0
0:4:15.443,1019.88,57.716,0,0.000885,0,0
0:4:15.736,1020.82,57.7643,0,0.000885,0,0
0:4:16.040,1022.34,57.8539,0,0.000885,0,0
0:4:16.345,1024.11,57.9504,0,0.000885,0,0
0:4:16.648,1025.04,58.0056,0,0.000885,0,0
0:4:16.952,1026.51,58.0883,0,0.000885,0,0
0:4:17.253,1028.04,58.178,0,0.000885,0,0
0:4:17.553,1029.8,58.2745,0,0.000885,0,0
0:4:17.850,1031.38,58.3641,0,0.000885,0,0
0:4:18.147,1032.85,58.4469,0,0.000885,0,0
0:4:18.448,1033.67,58.4951,0,0.000885,0,0
0:4:18.741,1035.31,58.5848,0,0.000885,0,0
0:4:19.042,1035.96,58.6261,0,0.000885,0,0
0:4:19.348,1037.66,58.7226,0,0.000885,0,0
0:4:19.644,1038.37,58.7571,0,0.000885,0,0
0:4:19.944,1040.07,58.8536,0,0.000885,0,0
0:4:20.249,1041.24,58.9226,0,0.000885,0,0
0:4:20.552,1042.01,58.964,0,0.000885,0,0
0:4:20.845,1043.59,59.0536,0,0.000885,0,0
0:4:21.149,1044.36,59.1019,0,0.000885,0,0
0:4:21.453,1045.53,59.1639,0,0.000885,0,0
0:4:21.755,1047.17,59.2604,0,0.000885,0,0
0:4:22.058,1048.94,59.357,0,0.000885,0,0
0:4:22.359,1049.58,59.3914,0,0.000885,0,0
0:4:22.659,1051.4,59.4949,0,0.000885,0,0
0:4:22.955,1052.93,59.5845,0,0.000885,0,0
0:4:23.252,1053.57,59.619,0,0.000885,0,0
0:4:23.552,1055.57,59.7362,0,0.000885,0,0
0:4:23.846,1056.21,59.7707,0,0.000885,0,0
0:4:24.147,1057.74,59.8534,0,0.000885,0,0
0:4:24.443,1059.56,59.9568,0,0.000885,0,0
0:4:24.749,1060.5,60.012,0,0.000885,0,0
0:4:25.047,1061.73,60.0809,0,0.000885,0,0
0:4:25.343,1063.26,60.1705,0,0.000885,0,0
0:4:25.646,1064.96,60.2671,0,0.000885,0,0
0:4:25.948,1066.72,60.3636,0,0.000885,0,0
0:4:26.252,1067.19,60.3912,0,0.000885,0,0
0:4:26.555,1068.6,60.467,0,0.000885,0,0
0:4:26.859,1069.83,60.5429,0,0.000885,0,0
0:4:27.162,1070.89,60.598,0,0.000885,0,0
0:4:27.462,1071.65,60.6463,0,0.000885,0,0
0:4:27.766,1072.77,60.7083,0,0.000885,0,0
0:4:28.060,1074.47,60.8049,0,0.000885,0,0
0:4:28.360,1076.29,60.9083,0,0.000885,0,0
0:4:28.657,1077.7,60.9841,0,0.000885,0,0
0:4:28.955,1078.64,61.0393,0,0.000885,0,0
0:4:29.254,1080.58,61.1496,0,0.000885,0,0
0:4:29.547,1082.34,61.2461,0,0.000885,0,0
0:4:29.849,1083.45,61.3082,0,0.000885,0,0
0:4:30.145,1085.15,61.4047,0,0.000885,0,0
0:4:30.443,1086.15,61.4668,0,0.000885,0,0
0:4:30.753,1087.03,61.515,0,0.000885,0,0
0:4:31.055,1089.2,61.6391,0,0.000885,0,0
0:4:31.360,1090.26,61.6943,0,0.000885,0,0
0:4:31.662,1091.02,61.7426,0,0.000885,0,0
0:4:31.964,1092.43,61.8184,0,0.000885,0,0
0:4:32.265,1093.49,61.8804,0,0.000885,0,0
0:4:32.562,1095.42,61.9908,0,0.000885,0,0
0:4:32.863,1096.54,62.0528,0,0.000885,0,0
0:4:33.157,1097.48,62.108,0,0.000885,0,0
0:4:33.457,1095.95,62.0183,0,0.000885,0,0
0:4:33.752,1097.18,62.0873,0,0.000885,0,0
0:4:34.050,1099.71,62.2321,0,0.000885,0,0
0:4:34.349,1101.35,62.3217,0,0.000885,0,0
0:4:34.643,1103.35,62.4389,0,0.000885,0,0
0:4:34.944,1105.11,62.5354,0,0.000885,0,0
0:4:35.249,1107.22,62.6527,0,0.000885,0,0
0:4:35.549,1108.63,62.7354,0,0.000885,0,0
0:4:35.845,1109.8,62.8043,0,0.000885,0,0
0:4:36.146,1109.75,62.7974,0,0.000885,0,0
0:4:36.450,1111.04,62.8733,0,0.000885,0,0
0:4:36.754,1112.1,62.9284,0,0.000885,0,0
0:4:37.055,1113.62,63.0181,0,0.000885,0,0
0:4:37.357,1114.91,63.0939,0,0.000885,0,0
0:4:37.656,1116.56,63.1836,0,0.000885,0,0
0:4:37.955,1118.38,63.287,0,0.000885,0,0
0:4:38.250,1120.84,63.4249,0,0.000885,0,0
0:4:38.552,1122.25,63.5076,0,0.000885,0,0
0:4:38.845,1123.37,63.5697,0,0.000885,0,0
0:4:39.145,1124.6,63.6386,0,0.000885,0,0
0:4:39.443,1126.24,63.7351,0,0.000885,0,0
0:4:39.750,1128.3,63.8455,0,0.000885,0,0
0:4:40.049,1129.47,63.9144,0,0.000885,0,0
0:4:40.344,1130.88,63.9971,0,0.000885,0,0
0:4:40.646,1132.52,64.0868,0,0.000885,0,0
0:4:40.952,1134.28,64.1902,0,0.000885,0,0
0:4:41.254,1135.52,64.2591,0,0.000885,0,0
0:4:41.558,1136.45,64.3074,0,0.000885,0,0
0:4:41.862,1137.39,64.3626,0,0.000885,0,0
0:4:42.163,1139.22,64.466,0,0.000885,0,0
0:4:42.464,1139.98,64.5073,0,0.000885,0,0
0:4:42.766,1141.21,64.5763,0,0.000885,0,0
0:4:43.062,1142.68,64.659,0,0.000885,0,0
0:4:43.359,1143.32,64.7004,0,0.000885,0,0
0:4:43.659,1145.03,64.7969,0,0.000885,0,0
0:4:43.953,1146.37,64.8728,0,0.000885,0,0
0:4:44.254,1147.43,64.9279,0,0.000885,0,0
0:4:44.549,1148.13,64.9693,0,0.000885,0,0
0:4:44.848,1149.37,65.0382,0,0.000885,0,0
0:4:45.146,1151.01,65.1348,0,0.000885,0,0
0:4:45.452,1152.25,65.2037,0,0.000885,0,0
0:4:45.755,1152.95,65.2451,0,0.000885,0,0
0:4:46.048,1154.54,65.3347,0,0.000885,0,0
0:4:46.350,1156,65.4175,0,0.000885,0,0
0:4:46.654,1155.59,65.3899,0,0.000885,0,0
0:4:46.956,1156.12,65.4244,0,0.000885,0,0
0:4:47.259,1157,65.4726,0,0.000885,0,0
0:4:47.560,1154.3,65.3209,0,0.000885,0,0
0:4:47.861,1118.79,63.3077,0,0.000885,0,0
0:4:48.156,1113.09,62.9905,0,0.000885,0,0
0:4:48.453,1113.62,63.0181,0,0.000885,0,0
0:4:48.749,1115.68,63.1353,0,0.000885,0,0
0:4:49.044,1117.55,63.2387,0,0.000885,0,0
0:4:49.345,1114.03,63.0388,0,0.000885,0,0
0:4:49.648,1110.57,62.8457,0,0.000885,0,0
0:4:49.948,1110.39,62.8388,0,0.000885,0,0
0:4:50.253,1111.39,62.894,0,0.000885,0,0
0:4:50.549,1113.97,63.0388,0,0.000885,0,0
0:4:50.847,1115.85,63.1422,0,0.000885,0,0
0:4:51.149,1117.61,63.2456,0,0.000885,0,0
0:4:51.454,1119.02,63.3215,0,0.000885,0,0
0:4:51.754,1120.78,63.4249,0,0.000885,0,0
0:4:52.055,1122.49,63.5214,0,0.000885,0,0
0:4:52.357,1123.95,63.6041,0,0.000885,0,0
0:4:52.653,1125.42,63.6869,0,0.000885,0,0
0:4:52.955,954.255,53.9997,0,0.000885,0,0
0:4:53.248,924.727,52.3312,0,0.000885,0,0
0:4:53.547,920.795,52.1037,0,0.000885,0,0
0:4:53.854,919.327,52.0209,0,0.000885,0,0
0:4:54.149,917.624,51.9244,0,0.000885,0,0
0:4:54.448,916.685,51.8762,0,0.000885,0,0
0:4:54.752,915.044,51.7796,0,0.000885,0,0
0:4:55.053,914.394,51.7452,0,0.000885,0,0
0:4:55.347,913.224,51.6762,0,0.000885,0,0
0:4:55.645,912.05,51.6142,0,0.000885,0,0
0:4:55.953,910.524,51.5245,0,0.000885,0,0
0:4:56.255,908.643,51.4211,0,0.000885,0,0
0:4:56.559,907.059,51.3315,0,0.000885,0,0
0:4:56.859,904.946,51.2074,0,0.000885,0,0
0:4:57.160,902.54,51.0764,0,0.000885,0,0
0:4:57.461,898.487,50.8419,0,0.000885,0,0
0:4:57.756,895.672,50.6834,0,0.000885,0,0
0:4:58.057,893.617,50.5661,0,0.000885,0,0
0:4:58.350,889.627,50.3455,0,0.000885,0,0
0:4:58.650,884.693,50.0628,0,0.000885,0,0
0:4:58.946,879.058,49.7457,0,0.000885,0,0
0:4:59.240,876.126,49.5802,0,0.000885,0,0
0:4:59.539,874.129,49.463,0,0.000885,0,0
0:4:59.842,871.077,49.2906,0,0.000885,0,0
0:5:0.153,833.921,47.1877,0,0.000885,0,0
0:5:0.449,822.534,46.5465,0,0.000885,0,0
0:5:0.679,818.66,46.3259,0,0.000885,0,0