File: DataFile2021-06-30_045007.csv
Test ID:,Date Tested:,Time:,Test Type:,Diameter Avg. (mm):,Cyl. Corr. Factor:,Height (mm):,Age (days):,Weight (kN):,Break Type:,Ramp Rate (MPa/s):,Load at Break (kN):,Stress at Break (MPa):
12,6/30/2021,04:50,Cylinder,150,1,300,0,3.6,3,0.24,650.78,36.82
Sample Time,Load (kN),Stress (MPa),Long. Strain,Trans. Strain,Chan1 Deflection (mm),Chan2 Deflection (mm)
0:0:21.018,5.8672,0.330948,0,0.000885,0,0
0:0:21.221,14.7192,0.834266,0,0.000885,0,0
0:0:21.417,16.8899,0.958371,0,0.000885,0,0
0:0:21.617,16.9522,0.958371,0,0.000885,0,0
0:0:21.815,15.9513,0.903213,0,0.000885,0,0
0:0:22.011,15.4843,0.875634,0,0.000885,0,0
0:0:22.213,15.1907,0.861845,0,0.000885,0,0
0:0:22.409,15.3063,0.868739,0,0.000885,0,0
0:0:22.608,14.8971,0.84116,0,0.000885,0,0
0:0:22.807,15.1907,0.861845,0,0.000885,0,0
0:0:23.001,14.8971,0.84116,0,0.000885,0,0
0:0:23.203,15.8935,0.896318,0,0.000885,0,0
0:0:23.400,15.075,0.85495,0,0.000885,0,0
0:0:23.598,15.2485,0.861845,0,0.000885,0,0
0:0:23.799,16.2449,0.917003,0,0.000885,0,0
0:0:23.993,16.5963,0.937687,0,0.000885,0,0
0:0:24.194,17.5972,0.992845,0,0.000885,0,0
0:0:24.392,18.5936,1.0549,0,0.000885,0,0
0:0:24.590,19.2386,1.08937,0,0.000885,0,0
0:0:24.792,20.702,1.17211,0,0.000885,0,0
0:0:24.988,21.7607,1.23416,0,0.000885,0,0
0:0:25.187,23.1663,1.31,0,0.000885,0,0
0:0:25.387,23.9893,1.35827,0,0.000885,0,0
0:0:25.585,25.515,1.441,0,0.000885,0,0
0:0:25.786,26.2756,1.48927,0,0.000885,0,0
0:0:25.981,27.8014,1.572,0,0.000885,0,0
0:0:26.180,28.6821,1.62027,0,0.000885,0,0
0:0:26.385,30.1456,1.70301,0,0.000885,0,0
0:0:26.588,31.0263,1.75816,0,0.000885,0,0
0:0:26.792,32.4943,1.8409,0,0.000885,0,0
0:0:26.995,33.1971,1.87537,0,0.000885,0,0
0:0:27.196,34.4292,1.95122,0,0.000885,0,0
0:0:27.397,35.2477,1.99258,0,0.000885,0,0
0:0:27.599,36.0706,2.04085,0,0.000885,0,0
0:0:27.799,36.0128,2.04085,0,0.000885,0,0
0:0:28.001,37.5385,2.12359,0,0.000885,0,0
0:0:28.199,37.5964,2.13048,0,0.000885,0,0
0:0:28.403,38.5349,2.17874,0,0.000885,0,0
0:0:28.597,38.7084,2.19253,0,0.000885,0,0
0:0:28.797,39.3534,2.22701,0,0.000885,0,0
0:0:28.999,40.9948,2.31664,0,0.000885,0,0
0:0:29.194,41.5241,2.35111,0,0.000885,0,0
0:0:29.397,41.8756,2.3718,0,0.000885,0,0
0:0:29.595,42.1113,2.38559,0,0.000885,0,0
0:0:29.793,43.9885,2.48901,0,0.000885,0,0
0:0:29.995,44.8692,2.53727,0,0.000885,0,0
0:0:30.192,45.8078,2.59243,0,0.000885,0,0
0:0:30.393,46.5106,2.6338,0,0.000885,0,0
0:0:30.591,48.2098,2.73032,0,0.000885,0,0
0:0:30.790,48.9749,2.77169,0,0.000885,0,0
0:0:30.991,49.8512,2.81996,0,0.000885,0,0
0:0:31.187,50.5585,2.86132,0,0.000885,0,0
0:0:31.389,51.8485,2.93717,0,0.000885,0,0
0:0:31.588,52.6091,2.97854,0,0.000885,0,0
0:0:31.792,53.2541,3.01301,0,0.000885,0,0
0:0:31.995,54.077,3.06127,0,0.000885,0,0
0:0:32.198,55.1313,3.11643,0,0.000885,0,0
0:0:32.400,55.6606,3.1509,0,0.000885,0,0
0:0:32.602,57.302,3.24054,0,0.000885,0,0
0:0:32.804,57.8892,3.27501,0,0.000885,0,0
0:0:33.007,59.1213,3.34396,0,0.000885,0,0
0:0:33.204,59.3526,3.35775,0,0.000885,0,0
0:0:33.405,60.7049,3.43359,0,0.000885,0,0
0:0:33.604,61.3499,3.47496,0,0.000885,0,0
0:0:33.801,62.5198,3.53701,0,0.000885,0,0
0:0:34.004,63.1069,3.57148,0,0.000885,0,0
0:0:34.200,63.6941,3.60596,0,0.000885,0,0
0:0:34.400,64.7483,3.66112,0,0.000885,0,0
0:0:34.601,65.5712,3.70938,0,0.000885,0,0
0:0:34.796,66.0383,3.73696,0,0.000885,0,0
0:0:34.998,66.9769,3.79212,0,0.000885,0,0
0:0:35.197,68.1512,3.85417,0,0.000885,0,0
0:0:35.395,68.6805,3.88864,0,0.000885,0,0
0:0:35.597,69.9127,3.95759,0,0.000885,0,0
0:0:35.793,70.6155,3.99896,0,0.000885,0,0
0:0:35.996,71.5541,4.04722,0,0.000885,0,0
0:0:36.193,72.4348,4.09549,0,0.000885,0,0
0:0:36.393,73.7827,4.17822,0,0.000885,0,0
0:0:36.595,74.7791,4.23338,0,0.000885,0,0
0:0:36.800,76.069,4.30233,0,0.000885,0,0
0:0:37.002,76.5405,4.32991,0,0.000885,0,0
0:0:37.205,77.8884,4.40575,0,0.000885,0,0
0:0:37.406,78.0618,4.41954,0,0.000885,0,0
0:0:37.608,79.6454,4.50917,0,0.000885,0,0
0:0:37.810,79.7077,4.50917,0,0.000885,0,0
0:0:38.013,80.584,4.55743,0,0.000885,0,0
0:0:38.210,81.0555,4.58501,0,0.000885,0,0
0:0:38.410,82.2298,4.65396,0,0.000885,0,0
0:0:38.612,82.8748,4.68843,0,0.000885,0,0
0:0:38.806,84.2805,4.77117,0,0.000885,0,0
0:0:39.007,84.752,4.79875,0,0.000885,0,0
0:0:39.206,85.5126,4.84012,0,0.000885,0,0
0:0:39.404,86.4512,4.89528,0,0.000885,0,0
0:0:39.606,87.0384,4.92286,0,0.000885,0,0
0:0:39.803,88.8577,5.02628,0,0.000885,0,0
0:0:40.004,89.734,5.07454,0,0.000885,0,0
0:0:40.203,90.3211,5.10902,0,0.000885,0,0
0:0:40.400,90.7927,5.13659,0,0.000885,0,0
0:0:40.602,92.7855,5.25381,0,0.000885,0,0
0:0:40.798,93.1369,5.26759,0,0.000885,0,0
0:0:40.999,94.1911,5.32965,0,0.000885,0,0
0:0:41.199,94.6048,5.35033,0,0.000885,0,0
0:0:41.397,95.659,5.41238,0,0.000885,0,0
0:0:41.598,96.5398,5.46065,0,0.000885,0,0
0:0:41.800,97.4783,5.51581,0,0.000885,0,0
0:0:42.004,98.4169,5.57096,0,0.000885,0,0
0:0:42.207,99.1775,5.61233,0,0.000885,0,0
0:0:42.409,100.116,5.66749,0,0.000885,0,0
0:0:42.611,101.348,5.73644,0,0.000885,0,0
0:0:42.813,101.935,5.77091,0,0.000885,0,0
0:0:43.015,103.225,5.83986,0,0.000885,0,0
0:0:43.217,103.813,5.87433,0,0.000885,0,0
0:0:43.413,105.396,5.96397,0,0.000885,0,0
0:0:43.616,106.041,5.99844,0,0.000885,0,0
0:0:43.814,107.038,6.06049,0,0.000885,0,0
0:0:44.014,107.273,6.06739,0,0.000885,0,0
0:0:44.214,107.74,6.09497,0,0.000885,0,0
0:0:44.408,108.385,6.13633,0,0.000885,0,0
0:0:44.610,108.857,6.15702,0,0.000885,0,0
0:0:44.810,110.027,6.22597,0,0.000885,0,0
0:0:45.007,111.143,6.28802,0,0.000885,0,0
0:0:45.209,111.904,6.32939,0,0.000885,0,0
0:0:45.404,112.727,6.37765,0,0.000885,0,0
0:0:45.606,114.19,6.46039,0,0.000885,0,0
0:0:45.805,115.013,6.50865,0,0.000885,0,0
0:0:46.004,116.361,6.58449,0,0.000885,0,0
0:0:46.206,116.89,6.61207,0,0.000885,0,0
0:0:46.408,118.416,6.7017,0,0.000885,0,0
0:0:46.613,119.003,6.73618,0,0.000885,0,0
0:0:46.816,119.235,6.74997,0,0.000885,0,0
0:0:47.017,120.173,6.79823,0,0.000885,0,0
0:0:47.219,121.583,6.88097,0,0.000885,0,0
0:0:47.421,121.757,6.88786,0,0.000885,0,0
0:0:47.624,123.46,6.98439,0,0.000885,0,0
0:0:47.822,123.754,7.00507,0,0.000885,0,0
0:0:48.020,125.102,7.08092,0,0.000885,0,0
0:0:48.223,125.862,7.12228,0,0.000885,0,0
0:0:48.419,126.685,7.17055,0,0.000885,0,0
0:0:48.621,127.566,7.21881,0,0.000885,0,0
0:0:48.819,128.563,7.27397,0,0.000885,0,0
0:0:49.017,128.798,7.28776,0,0.000885,0,0
0:0:49.218,129.852,7.34981,0,0.000885,0,0
0:0:49.416,130.675,7.39118,0,0.000885,0,0
0:0:49.615,131.845,7.46013,0,0.000885,0,0
0:0:49.815,133.429,7.54976,0,0.000885,0,0
0:0:50.012,133.665,7.56355,0,0.000885,0,0
0:0:50.215,134.603,7.61871,0,0.000885,0,0
0:0:50.410,135.19,7.65318,0,0.000885,0,0
0:0:50.611,136.538,7.72902,0,0.000885,0,0
0:0:50.811,136.832,7.74281,0,0.000885,0,0
0:0:51.007,137.886,7.80487,0,0.000885,0,0
0:0:51.208,138.709,7.84623,0,0.000885,0,0
0:0:51.411,139.999,7.92208,0,0.000885,0,0
0:0:51.615,140.88,7.97034,0,0.000885,0,0
0:0:51.818,142.405,8.05997,0,0.000885,0,0
0:0:52.019,142.521,8.06687,0,0.000885,0,0
0:0:52.221,143.695,8.12892,0,0.000885,0,0
0:0:52.423,144.398,8.17029,0,0.000885,0,0
0:0:52.625,145.982,8.25992,0,0.000885,0,0
0:0:52.827,146.627,8.29439,0,0.000885,0,0
0:0:53.023,147.681,8.35645,0,0.000885,0,0
0:0:53.226,148.032,8.37713,0,0.000885,0,0
0:0:53.425,148.677,8.4116,0,0.000885,0,0
0:0:53.622,149.149,8.43918,0,0.000885,0,0
0:0:53.824,150.381,8.50813,0,0.000885,0,0
0:0:54.019,151.262,8.55639,0,0.000885,0,0
0:0:54.221,152.022,8.60466,0,0.000885,0,0
0:0:54.420,152.845,8.64603,0,0.000885,0,0
0:0:54.618,153.37,8.6805,0,0.000885,0,0
0:0:54.820,154.718,8.75634,0,0.000885,0,0
0:0:55.015,155.132,8.77703,0,0.000885,0,0
0:0:55.217,157.009,8.88734,0,0.000885,0,0
0:0:55.417,157.654,8.92182,0,0.000885,0,0
0:0:55.613,159.002,8.99766,0,0.000885,0,0
0:0:55.815,159.469,9.02524,0,0.000885,0,0
0:0:56.012,160.292,9.0735,0,0.000885,0,0
0:0:56.212,160.994,9.10797,0,0.000885,0,0
0:0:56.414,161.991,9.17003,0,0.000885,0,0
0:0:56.618,162.284,9.18382,0,0.000885,0,0
0:0:56.821,163.459,9.25276,0,0.000885,0,0
0:0:57.023,164.455,9.30792,0,0.000885,0,0
0:0:57.226,165.63,9.36998,0,0.000885,0,0
0:0:57.428,166.568,9.42513,0,0.000885,0,0
0:0:57.630,167.858,9.50098,0,0.000885,0,0
0:0:57.832,168.387,9.52855,0,0.000885,0,0
0:0:58.032,169.557,9.5975,0,0.000885,0,0
0:0:58.230,170.029,9.61819,0,0.000885,0,0
0:0:58.432,171.612,9.70782,0,0.000885,0,0
0:0:58.627,171.906,9.7285,0,0.000885,0,0
0:0:58.828,172.845,9.78366,0,0.000885,0,0
0:0:59.026,173.49,9.81813,0,0.000885,0,0
0:0:59.224,174.135,9.85261,0,0.000885,0,0
0:0:59.425,175.367,9.92156,0,0.000885,0,0
0:0:59.621,176.07,9.96292,0,0.000885,0,0
0:0:59.824,177.302,10.0319,0,0.000885,0,0
0:1:0.021,177.769,10.0595,0,0.000885,0,0
0:1:0.219,178.707,10.1146,0,0.000885,0,0
0:1:0.421,179.117,10.1353,0,0.000885,0,0
0:1:0.618,180.055,10.1905,0,0.000885,0,0
0:1:0.818,180.7,10.2249,0,0.000885,0,0
0:1:1.019,182.519,10.3283,0,0.000885,0,0
0:1:1.214,182.871,10.349,0,0.000885,0,0
0:1:1.416,184.223,10.4249,0,0.000885,0,0
0:1:1.618,184.223,10.4249,0,0.000885,0,0
0:1:1.821,185.744,10.5145,0,0.000885,0,0
0:1:2.025,186.683,10.5628,0,0.000885,0,0
0:1:2.227,187.857,10.6317,0,0.000885,0,0
0:1:2.430,188.267,10.6524,0,0.000885,0,0
0:1:2.632,189.499,10.7213,0,0.000885,0,0
0:1:2.834,190.028,10.7558,0,0.000885,0,0
0:1:3.037,191.26,10.8248,0,0.000885,0,0
0:1:3.231,191.963,10.8661,0,0.000885,0,0
0:1:3.433,193.08,10.9282,0,0.000885,0,0
0:1:3.631,193.662,10.9558,0,0.000885,0,0
0:1:3.824,194.249,10.9902,0,0.000885,0,0
0:1:4.026,195.366,11.0523,0,0.000885,0,0
0:1:4.222,196.011,11.0937,0,0.000885,0,0
0:1:4.421,197.652,11.1833,0,0.000885,0,0
0:1:4.619,198.297,11.2247,0,0.000885,0,0
0:1:4.813,199.529,11.2936,0,0.000885,0,0
0:1:5.013,200.117,11.3212,0,0.000885,0,0
0:1:5.211,200.997,11.3763,0,0.000885,0,0
0:1:5.408,201.816,11.4177,0,0.000885,0,0
0:1:5.608,203.048,11.4936,0,0.000885,0,0
0:1:5.802,203.226,11.5005,0,0.000885,0,0
0:1:6.002,204.809,11.5901,0,0.000885,0,0
0:1:6.201,205.219,11.6108,0,0.000885,0,0
0:1:6.396,205.864,11.6521,0,0.000885,0,0
0:1:6.597,206.802,11.7004,0,0.000885,0,0
0:1:6.798,207.154,11.7211,0,0.000885,0,0
0:1:6.998,208.444,11.7969,0,0.000885,0,0
0:1:7.201,208.915,11.8245,0,0.000885,0,0
0:1:7.402,210.027,11.8866,0,0.000885,0,0
0:1:7.603,211.024,11.9417,0,0.000885,0,0
0:1:7.804,212.549,12.0245,0,0.000885,0,0
0:1:8.005,212.843,12.0451,0,0.000885,0,0
0:1:8.205,214.311,12.1279,0,0.000885,0,0
0:1:8.399,215.249,12.183,0,0.000885,0,0
0:1:8.601,216.361,12.2451,0,0.000885,0,0
0:1:8.795,216.655,12.2589,0,0.000885,0,0
0:1:8.993,218.003,12.3347,0,0.000885,0,0
0:1:9.194,218.123,12.3416,0,0.000885,0,0
0:1:9.397,219.471,12.4175,0,0.000885,0,0
0:1:9.597,220.174,12.4588,0,0.000885,0,0
0:1:9.794,221.699,12.5485,0,0.000885,0,0
0:1:9.986,222.58,12.5967,0,0.000885,0,0
0:1:10.186,222.518,12.5898,0,0.000885,0,0
0:1:10.383,223.105,12.6243,0,0.000885,0,0
0:1:10.581,224.044,12.6795,0,0.000885,0,0
0:1:10.780,225.454,12.7553,0,0.000885,0,0
0:1:10.984,225.979,12.7898,0,0.000885,0,0
0:1:11.186,227.153,12.8518,0,0.000885,0,0
0:1:11.385,228.034,12.907,0,0.000885,0,0
0:1:11.590,229.266,12.9759,0,0.000885,0,0
0:1:11.791,229.617,12.9966,0,0.000885,0,0
0:1:11.992,230.556,13.0449,0,0.000885,0,0
0:1:12.192,231.201,13.0862,0,0.000885,0,0
0:1:12.392,232.255,13.1414,0,0.000885,0,0
0:1:12.593,233.194,13.1966,0,0.000885,0,0
0:1:12.794,234.074,13.2448,0,0.000885,0,0
0:1:12.997,234.955,13.2931,0,0.000885,0,0
0:1:13.197,236.125,13.362,0,0.000885,0,0
0:1:13.395,237.064,13.4172,0,0.000885,0,0
0:1:13.591,238.416,13.493,0,0.000885,0,0
0:1:13.791,238.767,13.5137,0,0.000885,0,0
0:1:13.996,239.999,13.5827,0,0.000885,0,0
0:1:14.195,240.644,13.6171,0,0.000885,0,0
0:1:14.394,242.17,13.7068,0,0.000885,0,0
0:1:14.587,242.228,13.7068,0,0.000885,0,0
0:1:14.790,242.931,13.7481,0,0.000885,0,0
0:1:14.985,243.869,13.8033,0,0.000885,0,0
0:1:15.181,244.456,13.8309,0,0.000885,0,0
0:1:15.382,245.333,13.886,0,0.000885,0,0
0:1:15.585,245.982,13.9205,0,0.000885,0,0
0:1:15.785,247.272,13.9895,0,0.000885,0,0
0:1:15.982,247.975,14.0308,0,0.000885,0,0
0:1:16.187,249.438,14.1136,0,0.000885,0,0
0:1:16.390,249.91,14.1411,0,0.000885,0,0
0:1:16.591,251.084,14.2101,0,0.000885,0,0
0:1:16.794,251.787,14.2515,0,0.000885,0,0
0:1:16.996,252.668,14.2997,0,0.000885,0,0
0:1:17.197,253.251,14.3342,0,0.000885,0,0
0:1:17.396,254.367,14.3963,0,0.000885,0,0
0:1:17.596,254.776,14.4169,0,0.000885,0,0
0:1:17.797,256.066,14.4928,0,0.000885,0,0
0:1:17.997,257.183,14.5548,0,0.000885,0,0
0:1:18.192,258.357,14.6169,0,0.000885,0,0
0:1:18.392,259.118,14.6651,0,0.000885,0,0
0:1:18.586,260.408,14.7341,0,0.000885,0,0
0:1:18.784,261.053,14.7755,0,0.000885,0,0
0:1:18.983,261.876,14.8168,0,0.000885,0,0
0:1:19.198,262.463,14.8513,0,0.000885,0,0
0:1:19.398,263.869,14.934,0,0.000885,0,0
0:1:19.595,264.571,14.9685,0,0.000885,0,0
0:1:19.791,265.101,15.003,0,0.000885,0,0
0:1:19.993,265.981,15.0513,0,0.000885,0,0
0:1:20.196,266.391,15.0719,0,0.000885,0,0
0:1:20.396,267.738,15.1478,0,0.000885,0,0
0:1:20.594,268.561,15.196,0,0.000885,0,0
0:1:20.787,269.851,15.2719,0,0.000885,0,0
0:1:20.991,270.381,15.2995,0,0.000885,0,0
0:1:21.185,271.377,15.3546,0,0.000885,0,0
0:1:21.382,271.964,15.3891,0,0.000885,0,0
0:1:21.583,273.312,15.4649,0,0.000885,0,0
0:1:21.784,273.957,15.4994,0,0.000885,0,0
0:1:21.986,274.776,15.5477,0,0.000885,0,0
0:1:22.187,274.953,15.5615,0,0.000885,0,0
0:1:22.386,276.773,15.6649,0,0.000885,0,0
0:1:22.587,277.533,15.7063,0,0.000885,0,0
0:1:22.787,278.708,15.7683,0,0.000885,0,0
0:1:22.987,279.526,15.8166,0,0.000885,0,0
0:1:23.196,280.821,15.8924,0,0.000885,0,0
0:1:23.392,281.523,15.9338,0,0.000885,0,0
0:1:23.592,282.462,15.982,0,0.000885,0,0
0:1:23.796,283.049,16.0165,0,0.000885,0,0
0:1:23.997,284.277,16.0855,0,0.000885,0,0
0:1:24.194,285.216,16.1406,0,0.000885,0,0
0:1:24.387,285.629,16.1613,0,0.000885,0,0
0:1:24.587,286.39,16.2096,0,0.000885,0,0
0:1:24.783,287.271,16.2578,0,0.000885,0,0
0:1:24.981,288.912,16.3475,0,0.000885,0,0
0:1:25.181,289.321,16.375,0,0.000885,0,0
0:1:25.375,289.615,16.3888,0,0.000885,0,0
0:1:25.575,290.38,16.4302,0,0.000885,0,0
0:1:25.773,291.67,16.506,0,0.000885,0,0
0:1:25.968,292.195,16.5336,0,0.000885,0,0
0:1:26.170,293.018,16.5819,0,0.000885,0,0
0:1:26.371,293.841,16.6302,0,0.000885,0,0
0:1:26.574,295.073,16.6991,0,0.000885,0,0
0:1:26.774,295.891,16.7474,0,0.000885,0,0
0:1:26.976,296.772,16.7956,0,0.000885,0,0
0:1:27.175,297.301,16.8232,0,0.000885,0,0
0:1:27.376,298.529,16.8922,0,0.000885,0,0
0:1:27.576,299.53,16.9473,0,0.000885,0,0
0:1:27.775,301.051,17.0369,0,0.000885,0,0
0:1:27.970,301.523,17.0645,0,0.000885,0,0
0:1:28.170,302.11,17.099,0,0.000885,0,0
0:1:28.367,302.991,17.1473,0,0.000885,0,0
0:1:28.563,303.751,17.1886,0,0.000885,0,0
0:1:28.764,305.157,17.2714,0,0.000885,0,0
0:1:28.958,305.686,17.2989,0,0.000885,0,0
0:1:29.160,306.389,17.3403,0,0.000885,0,0
0:1:29.356,306.861,17.3679,0,0.000885,0,0
0:1:29.552,308.386,17.4506,0,0.000885,0,0
0:1:29.751,309.031,17.4851,0,0.000885,0,0
0:1:29.947,310.615,17.5747,0,0.000885,0,0
0:1:30.145,311.318,17.6161,0,0.000885,0,0
0:1:30.346,312.55,17.6851,0,0.000885,0,0
0:1:30.541,312.901,17.7057,0,0.000885,0,0
0:1:30.741,313.31,17.7264,0,0.000885,0,0
0:1:30.937,314.307,17.7885,0,0.000885,0,0
0:1:31.134,315.188,17.8367,0,0.000885,0,0
0:1:31.335,316.535,17.9126,0,0.000885,0,0
0:1:31.537,316.829,17.9264,0,0.000885,0,0
0:1:31.739,318.061,17.9953,0,0.000885,0,0
0:1:31.940,318.297,18.0091,0,0.000885,0,0
0:1:32.141,319.76,18.0918,0,0.000885,0,0
0:1:32.342,320.29,18.1263,0,0.000885,0,0
0:1:32.542,321.522,18.1953,0,0.000885,0,0
0:1:32.742,322.225,18.2366,0,0.000885,0,0
0:1:32.941,323.75,18.3194,0,0.000885,0,0
0:1:33.137,324.511,18.3607,0,0.000885,0,0
0:1:33.337,325.57,18.4228,0,0.000885,0,0
0:1:33.533,325.806,18.4366,0,0.000885,0,0
0:1:33.732,326.975,18.5055,0,0.000885,0,0
0:1:33.930,328.15,18.5676,0,0.000885,0,0
0:1:34.123,328.265,18.5745,0,0.000885,0,0
0:1:34.325,329.382,18.6365,0,0.000885,0,0
0:1:34.521,329.969,18.671,0,0.000885,0,0
0:1:34.719,331.023,18.7331,0,0.000885,0,0
0:1:34.918,331.553,18.7606,0,0.000885,0,0
0:1:35.113,332.9,18.8365,0,0.000885,0,0
0:1:35.314,333.43,18.871,0,0.000885,0,0
0:1:35.511,334.893,18.9537,0,0.000885,0,0
0:1:35.709,335.596,18.9882,0,0.000885,0,0
0:1:35.910,336.891,19.064,0,0.000885,0,0
0:1:36.103,337.3,19.0847,0,0.000885,0,0
0:1:36.304,338.238,19.1398,0,0.000885,0,0
0:1:36.505,338.883,19.1743,0,0.000885,0,0
0:1:36.707,340.058,19.2433,0,0.000885,0,0
0:1:36.907,340.703,19.2777,0,0.000885,0,0
0:1:37.108,341.521,19.326,0,0.000885,0,0
0:1:37.310,341.873,19.3467,0,0.000885,0,0
0:1:37.510,343.456,19.4363,0,0.000885,0,0
0:1:37.710,344.159,19.4777,0,0.000885,0,0
0:1:37.912,345.742,19.5673,0,0.000885,0,0
0:1:38.106,346.098,19.588,0,0.000885,0,0
0:1:38.305,346.392,19.6018,0,0.000885,0,0
0:1:38.504,347.682,19.6776,0,0.000885,0,0
0:1:38.699,348.5,19.719,0,0.000885,0,0
0:1:38.900,349.848,19.7948,0,0.000885,0,0
0:1:39.097,350.613,19.8431,0,0.000885,0,0
0:1:39.294,351.725,19.9052,0,0.000885,0,0
0:1:39.494,352.197,19.9327,0,0.000885,0,0
0:1:39.686,353.309,19.9948,0,0.000885,0,0
0:1:39.887,353.838,20.0224,0,0.000885,0,0
0:1:40.085,355.186,20.0982,0,0.000885,0,0
0:1:40.292,355.831,20.1327,0,0.000885,0,0
0:1:40.493,356.77,20.1878,0,0.000885,0,0
0:1:40.696,357.299,20.2223,0,0.000885,0,0
0:1:40.897,358.531,20.2913,0,0.000885,0,0
0:1:41.094,359.118,20.3188,0,0.000885,0,0
0:1:41.292,359.705,20.3533,0,0.000885,0,0
0:1:41.493,361.053,20.4292,0,0.000885,0,0
0:1:41.693,361.52,20.4567,0,0.000885,0,0
0:1:41.897,362.93,20.5395,0,0.000885,0,0
0:1:42.097,363.575,20.574,0,0.000885,0,0
0:1:42.298,365.039,20.6567,0,0.000885,0,0
0:1:42.497,365.395,20.6774,0,0.000885,0,0
0:1:42.698,366.271,20.7256,0,0.000885,0,0
0:1:42.898,367.152,20.7739,0,0.000885,0,0
0:1:43.096,368.5,20.8497,0,0.000885,0,0
0:1:43.292,368.793,20.8704,0,0.000885,0,0
0:1:43.494,369.496,20.9118,0,0.000885,0,0
0:1:43.696,370.319,20.9532,0,0.000885,0,0
0:1:43.897,371.435,21.0221,0,0.000885,0,0
0:1:44.096,372.254,21.0635,0,0.000885,0,0
0:1:44.288,373.602,21.1393,0,0.000885,0,0
0:1:44.489,374.189,21.1738,0,0.000885,0,0
0:1:44.684,375.657,21.2565,0,0.000885,0,0
0:1:44.882,376.186,21.291,0,0.000885,0,0
0:1:45.082,376.947,21.3324,0,0.000885,0,0
0:1:45.286,377.827,21.3806,0,0.000885,0,0
0:1:45.486,378.415,21.4151,0,0.000885,0,0
0:1:45.683,379.527,21.4772,0,0.000885,0,0
0:1:45.880,380.23,21.5185,0,0.000885,0,0
0:1:46.081,381.052,21.5599,0,0.000885,0,0
0:1:46.281,381.697,21.6013,0,0.000885,0,0
0:1:46.484,382.987,21.6702,0,0.000885,0,0
0:1:46.685,383.575,21.7047,0,0.000885,0,0
0:1:46.886,384.455,21.753,0,0.000885,0,0
0:1:47.086,384.807,21.7736,0,0.000885,0,0
0:1:47.285,386.27,21.8564,0,0.000885,0,0
0:1:47.486,387.093,21.9046,0,0.000885,0,0
0:1:47.683,388.619,21.9943,0,0.000885,0,0
0:1:47.881,389.148,22.0219,0,0.000885,0,0
0:1:48.081,390.438,22.0908,0,0.000885,0,0
0:1:48.284,391.083,22.1322,0,0.000885,0,0
0:1:48.485,392.667,22.2218,0,0.000885,0,0
0:1:48.682,393.076,22.2425,0,0.000885,0,0
0:1:48.878,394.544,22.3252,0,0.000885,0,0
0:1:49.079,394.66,22.3321,0,0.000885,0,0
0:1:49.274,395.127,22.3597,0,0.000885,0,0
0:1:49.473,396.301,22.4286,0,0.000885,0,0
0:1:49.673,397.355,22.4838,0,0.000885,0,0
0:1:49.868,398.236,22.539,0,0.000885,0,0
0:1:50.069,398.707,22.5596,0,0.000885,0,0
0:1:50.263,399.526,22.6079,0,0.000885,0,0
0:1:50.462,400.642,22.67,0,0.000885,0,0
0:1:50.662,401.581,22.7251,0,0.000885,0,0
0:1:50.857,402.168,22.7596,0,0.000885,0,0
0:1:51.057,403.752,22.8492,0,0.000885,0,0
0:1:51.256,403.689,22.8423,0,0.000885,0,0
0:1:51.460,404.864,22.9113,0,0.000885,0,0
0:1:51.661,405.509,22.9458,0,0.000885,0,0
0:1:51.862,407.035,23.0354,0,0.000885,0,0
0:1:52.063,407.564,23.063,0,0.000885,0,0
0:1:52.263,408.912,23.1388,0,0.000885,0,0
0:1:52.463,409.263,23.1595,0,0.000885,0,0
0:1:52.664,410.259,23.2146,0,0.000885,0,0
0:1:52.858,411.025,23.256,0,0.000885,0,0
0:1:53.059,411.549,23.2905,0,0.000885,0,0
0:1:53.256,412.96,23.3663,0,0.000885,0,0
0:1:53.452,413.836,23.4215,0,0.000885,0,0
0:1:53.653,415.246,23.4973,0,0.000885,0,0
0:1:53.848,415.833,23.5318,0,0.000885,0,0
0:1:54.047,416.478,23.5663,0,0.000885,0,0
0:1:54.244,416.83,23.587,0,0.000885,0,0
0:1:54.441,418.235,23.6697,0,0.000885,0,0
0:1:54.641,418.942,23.7042,0,0.000885,0,0
0:1:54.837,420.526,23.7938,0,0.000885,0,0
0:1:55.036,420.757,23.8076,0,0.000885,0,0
0:1:55.235,421.816,23.8696,0,0.000885,0,0
0:1:55.428,422.519,23.911,0,0.000885,0,0
0:1:55.628,423.164,23.9455,0,0.000885,0,0
0:1:55.826,424.276,24.0075,0,0.000885,0,0
0:1:56.024,424.921,24.0489,0,0.000885,0,0
0:1:56.225,425.859,24.0972,0,0.000885,0,0
0:1:56.428,426.86,24.1523,0,0.000885,0,0
0:1:56.629,427.914,24.2144,0,0.000885,0,0
0:1:56.831,428.444,24.242,0,0.000885,0,0
0:1:57.029,429.44,24.304,0,0.000885,0,0
0:1:57.229,429.965,24.3316,0,0.000885,0,0
0:1:57.431,431.669,24.4281,0,0.000885,0,0
0:1:57.632,432.078,24.4488,0,0.000885,0,0
0:1:57.828,433.195,24.5109,0,0.000885,0,0
0:1:58.025,433.777,24.5453,0,0.000885,0,0
0:1:58.225,434.6,24.5936,0,0.000885,0,0
0:1:58.419,434.952,24.6143,0,0.000885,0,0
0:1:58.618,436.713,24.7108,0,0.000885,0,0
0:1:58.816,437.358,24.7522,0,0.000885,0,0
0:1:59.013,438.003,24.7867,0,0.000885,0,0
0:1:59.214,439.351,24.8625,0,0.000885,0,0
0:1:59.408,439.996,24.897,0,0.000885,0,0
0:1:59.607,441.344,24.9728,0,0.000885,0,0
0:1:59.805,441.931,25.0073,0,0.000885,0,0
0:2:0.000,443.163,25.0762,0,0.000885,0,0
0:2:0.202,443.692,25.1107,0,0.000885,0,0
0:2:0.397,444.689,25.1659,0,0.000885,0,0
0:2:0.595,445.156,25.1934,0,0.000885,0,0
0:2:0.794,446.508,25.2693,0,0.000885,0,0
0:2:0.998,447.091,25.2969,0,0.000885,0,0
0:2:1.199,448.443,25.3796,0,0.000885,0,0
0:2:1.399,449.261,25.421,0,0.000885,0,0
0:2:1.603,450.32,25.483,0,0.000885,0,0
0:2:1.803,451.196,25.5313,0,0.000885,0,0
0:2:2.004,451.962,25.5727,0,0.000885,0,0
0:2:2.205,452.9,25.6278,0,0.000885,0,0
0:2:2.406,454.248,25.7037,0,0.000885,0,0
0:2:2.607,455.009,25.745,0,0.000885,0,0
0:2:2.807,455.947,25.8002,0,0.000885,0,0
0:2:3.001,456.361,25.8278,0,0.000885,0,0
0:2:3.201,456.712,25.8416,0,0.000885,0,0
0:2:3.400,457.593,25.8967,0,0.000885,0,0
0:2:3.594,458.118,25.9243,0,0.000885,0,0
0:2:3.794,459.47,26.0001,0,0.000885,0,0
0:2:4.000,460.053,26.0346,0,0.000885,0,0
0:2:4.198,460.934,26.0829,0,0.000885,0,0
0:2:4.397,461.757,26.1311,0,0.000885,0,0
0:2:4.591,462.869,26.1932,0,0.000885,0,0
0:2:4.791,463.634,26.2346,0,0.000885,0,0
0:2:4.998,464.982,26.3104,0,0.000885,0,0
0:2:5.194,465.511,26.3449,0,0.000885,0,0
0:2:5.396,466.739,26.4138,0,0.000885,0,0
0:2:5.601,467.446,26.4552,0,0.000885,0,0
0:2:5.801,468.442,26.5103,0,0.000885,0,0
0:2:5.997,469.087,26.5448,0,0.000885,0,0
0:2:6.191,470.319,26.6138,0,0.000885,0,0
0:2:6.391,471.316,26.6689,0,0.000885,0,0
0:2:6.592,472.49,26.7379,0,0.000885,0,0
0:2:6.797,473.073,26.7723,0,0.000885,0,0
0:2:6.999,474.247,26.8344,0,0.000885,0,0
0:2:7.198,474.776,26.8689,0,0.000885,0,0
0:2:7.398,475.07,26.8827,0,0.000885,0,0
0:2:7.599,476.182,26.9447,0,0.000885,0,0
0:2:7.800,476.947,26.993,0,0.000885,0,0
0:2:7.998,477.944,27.0481,0,0.000885,0,0
0:2:8.191,478.882,27.0964,0,0.000885,0,0
0:2:8.391,479.585,27.1378,0,0.000885,0,0
0:2:8.589,480.172,27.1722,0,0.000885,0,0
0:2:8.786,481.756,27.2619,0,0.000885,0,0
0:2:8.985,482.343,27.2963,0,0.000885,0,0
0:2:9.201,483.161,27.3446,0,0.000885,0,0
0:2:9.401,483.984,27.386,0,0.000885,0,0
0:2:9.599,485.216,27.4549,0,0.000885,0,0
0:2:9.796,485.804,27.4894,0,0.000885,0,0
0:2:9.997,487.209,27.5721,0,0.000885,0,0
0:2:10.200,487.796,27.6066,0,0.000885,0,0
0:2:10.399,489.731,27.71,0,0.000885,0,0
0:2:10.596,489.909,27.7238,0,0.000885,0,0
0:2:10.801,490.728,27.7721,0,0.000885,0,0
0:2:11.002,491.373,27.8066,0,0.000885,0,0
0:2:11.202,492.783,27.8824,0,0.000885,0,0
0:2:11.406,493.308,27.9169,0,0.000885,0,0
0:2:11.607,494.54,27.9858,0,0.000885,0,0
0:2:11.806,495.127,28.0203,0,0.000885,0,0
0:2:12.007,495.714,28.0548,0,0.000885,0,0
0:2:12.207,496.359,28.0892,0,0.000885,0,0
0:2:12.408,497.707,28.1651,0,0.000885,0,0
0:2:12.606,498.179,28.1927,0,0.000885,0,0
0:2:12.801,498.881,28.234,0,0.000885,0,0
0:2:13.002,499.878,28.2892,0,0.000885,0,0
0:2:13.199,500.701,28.3306,0,0.000885,0,0
0:2:13.392,501.871,28.3995,0,0.000885,0,0
0:2:13.593,502.516,28.434,0,0.000885,0,0
0:2:13.799,503.926,28.5167,0,0.000885,0,0
0:2:13.998,504.161,28.5305,0,0.000885,0,0
0:2:14.198,505.509,28.6063,0,0.000885,0,0
0:2:14.401,505.976,28.6339,0,0.000885,0,0
0:2:14.602,507.386,28.7098,0,0.000885,0,0
0:2:14.797,508.147,28.758,0,0.000885,0,0
0:2:14.996,509.321,28.8201,0,0.000885,0,0
0:2:15.196,509.615,28.8408,0,0.000885,0,0
0:2:15.399,511.256,28.9304,0,0.000885,0,0
0:2:15.598,511.901,28.9649,0,0.000885,0,0
0:2:15.792,512.662,29.0131,0,0.000885,0,0
0:2:16.001,513.191,29.0407,0,0.000885,0,0
0:2:16.202,514.366,29.1097,0,0.000885,0,0
0:2:16.404,515.126,29.151,0,0.000885,0,0
0:2:16.606,516.301,29.22,0,0.000885,0,0
0:2:16.808,517.124,29.2613,0,0.000885,0,0
0:2:17.007,518.12,29.3165,0,0.000885,0,0
0:2:17.207,518.765,29.3579,0,0.000885,0,0
0:2:17.407,519.41,29.3924,0,0.000885,0,0
0:2:17.608,520.406,29.4475,0,0.000885,0,0
0:2:17.806,521.051,29.4889,0,0.000885,0,0
0:2:18.001,522.635,29.5785,0,0.000885,0,0
0:2:18.202,523.164,29.6061,0,0.000885,0,0
0:2:18.398,523.925,29.6475,0,0.000885,0,0
0:2:18.596,524.921,29.7026,0,0.000885,0,0
0:2:18.796,525.744,29.7509,0,0.000885,0,0
0:2:18.998,526.563,29.7991,0,0.000885,0,0
0:2:19.199,527.737,29.8612,0,0.000885,0,0
0:2:19.397,528.088,29.8819,0,0.000885,0,0
0:2:19.591,529.263,29.9508,0,0.000885,0,0
0:2:19.792,530.375,30.0129,0,0.000885,0,0
0:2:19.986,531.256,30.0611,0,0.000885,0,0
0:2:20.186,532.31,30.1232,0,0.000885,0,0
0:2:20.383,532.723,30.1439,0,0.000885,0,0
0:2:20.589,533.956,30.2128,0,0.000885,0,0
0:2:20.789,534.658,30.2542,0,0.000885,0,0
0:2:20.993,535.539,30.3025,0,0.000885,0,0
0:2:21.192,536.358,30.3507,0,0.000885,0,0
0:2:21.393,537.354,30.4059,0,0.000885,0,0
0:2:21.597,537.768,30.4335,0,0.000885,0,0
0:2:21.797,539.058,30.5024,0,0.000885,0,0
0:2:21.998,539.645,30.5369,0,0.000885,0,0
0:2:22.199,540.463,30.5851,0,0.000885,0,0
0:2:22.400,541.344,30.6334,0,0.000885,0,0
0:2:22.600,542.634,30.7092,0,0.000885,0,0
0:2:22.801,543.106,30.7299,0,0.000885,0,0
0:2:22.998,544.102,30.792,0,0.000885,0,0
0:2:23.192,544.978,30.8402,0,0.000885,0,0
0:2:23.393,546.095,30.9023,0,0.000885,0,0
0:2:23.599,546.624,30.9299,0,0.000885,0,0
0:2:23.800,547.856,30.9988,0,0.000885,0,0
0:2:23.994,548.501,31.0402,0,0.000885,0,0
0:2:24.190,549.965,31.1229,0,0.000885,0,0
0:2:24.391,550.085,31.1298,0,0.000885,0,0
0:2:24.588,551.433,31.2057,0,0.000885,0,0
0:2:24.785,552.078,31.2401,0,0.000885,0,0
0:2:24.985,552.838,31.2815,0,0.000885,0,0
0:2:25.187,553.719,31.3367,0,0.000885,0,0
0:2:25.387,554.6,31.3849,0,0.000885,0,0
0:2:25.585,555.654,31.447,0,0.000885,0,0
0:2:25.780,556.477,31.4884,0,0.000885,0,0
0:2:25.981,557.825,31.5642,0,0.000885,0,0
0:2:26.182,557.825,31.5642,0,0.000885,0,0
0:2:26.385,558.999,31.6331,0,0.000885,0,0
0:2:26.586,559.702,31.6745,0,0.000885,0,0
0:2:26.785,560.934,31.7435,0,0.000885,0,0
0:2:26.985,561.873,31.7986,0,0.000885,0,0
0:2:27.186,563.163,31.8676,0,0.000885,0,0
0:2:27.386,563.514,31.8883,0,0.000885,0,0
0:2:27.584,564.395,31.9365,0,0.000885,0,0
0:2:27.780,564.746,31.9572,0,0.000885,0,0
0:2:27.982,565.921,32.0261,0,0.000885,0,0
0:2:28.186,566.681,32.0675,0,0.000885,0,0
0:2:28.383,567.442,32.1089,0,0.000885,0,0
0:2:28.583,568.207,32.1571,0,0.000885,0,0
0:2:28.787,568.91,32.1916,0,0.000885,0,0
0:2:28.988,569.67,32.2399,0,0.000885,0,0
0:2:29.186,570.903,32.3088,0,0.000885,0,0
0:2:29.381,571.49,32.3364,0,0.000885,0,0
0:2:29.582,572.135,32.3778,0,0.000885,0,0
0:2:29.778,573.483,32.4536,0,0.000885,0,0
0:2:29.978,574.19,32.495,0,0.000885,0,0
0:2:30.177,575.889,32.5915,0,0.000885,0,0
0:2:30.371,576.592,32.626,0,0.000885,0,0
0:2:30.572,577.357,32.6743,0,0.000885,0,0
0:2:30.766,577.944,32.7018,0,0.000885,0,0
0:2:30.966,578.998,32.7639,0,0.000885,0,0
0:2:31.166,579.643,32.7984,0,0.000885,0,0
0:2:31.367,581.227,32.888,0,0.000885,0,0
0:2:31.569,581.52,32.9087,0,0.000885,0,0
0:2:31.771,582.633,32.9707,0,0.000885,0,0
0:2:31.971,583.104,32.9983,0,0.000885,0,0
0:2:32.172,584.278,33.0604,0,0.000885,0,0
0:2:32.372,585.155,33.1155,0,0.000885,0,0
0:2:32.572,585.684,33.1431,0,0.000885,0,0
0:2:32.770,586.151,33.1707,0,0.000885,0,0
0:2:32.966,586.858,33.212,0,0.000885,0,0
0:2:33.166,587.97,33.2741,0,0.000885,0,0
0:2:33.362,588.322,33.2948,0,0.000885,0,0
0:2:33.560,589.145,33.3362,0,0.000885,0,0
0:2:33.759,589.968,33.3844,0,0.000885,0,0
0:2:33.956,590.906,33.4396,0,0.000885,0,0
0:2:34.156,591.551,33.474,0,0.000885,0,0
0:2:34.355,592.312,33.5154,0,0.000885,0,0
0:2:34.553,593.255,33.5706,0,0.000885,0,0
0:2:34.753,594.718,33.6533,0,0.000885,0,0
0:2:34.948,595.074,33.674,0,0.000885,0,0
0:2:35.148,596.6,33.7636,0,0.000885,0,0
0:2:35.347,597.125,33.7912,0,0.000885,0,0
0:2:35.543,598.419,33.8602,0,0.000885,0,0
0:2:35.745,599.006,33.8946,0,0.000885,0,0
0:2:35.940,600.648,33.9912,0,0.000885,0,0
0:2:36.139,601.413,34.0325,0,0.000885,0,0
0:2:36.341,601.586,34.0463,0,0.000885,0,0
0:2:36.545,603.054,34.129,0,0.000885,0,0
0:2:36.747,603.468,34.1497,0,0.000885,0,0
0:2:36.949,605.052,34.2394,0,0.000885,0,0
0:2:37.150,605.523,34.2669,0,0.000885,0,0
0:2:37.352,607.164,34.3566,0,0.000885,0,0
0:2:37.553,607.694,34.391,0,0.000885,0,0
0:2:37.756,608.575,34.4393,0,0.000885,0,0
0:2:37.954,609.687,34.5014,0,0.000885,0,0
0:2:38.152,610.63,34.5565,0,0.000885,0,0
0:2:38.353,610.923,34.5703,0,0.000885,0,0
0:2:38.549,611.92,34.6255,0,0.000885,0,0
0:2:38.750,612.449,34.6599,0,0.000885,0,0
0:2:38.948,613.503,34.7151,0,0.000885,0,0
0:2:39.144,613.975,34.7427,0,0.000885,0,0
0:2:39.347,614.735,34.7841,0,0.000885,0,0
0:2:39.543,615.265,34.8185,0,0.000885,0,0
0:2:39.743,616.145,34.8668,0,0.000885,0,0
0:2:39.943,616.675,34.8944,0,0.000885,0,0
0:2:40.137,617.907,34.9633,0,0.000885,0,0
0:2:40.339,618.2,34.984,0,0.000885,0,0
0:2:40.537,618.374,34.9909,0,0.000885,0,0
0:2:40.735,618.08,34.9771,0,0.000885,0,0
0:2:40.936,618.258,34.984,0,0.000885,0,0
0:2:41.139,618.961,35.0254,0,0.000885,0,0
0:2:41.342,619.611,35.0598,0,0.000885,0,0
0:2:41.545,620.198,35.0943,0,0.000885,0,0
0:2:41.746,620.843,35.1357,0,0.000885,0,0
0:2:41.947,620.901,35.1357,0,0.000885,0,0
0:2:42.147,620.901,35.1357,0,0.000885,0,0
0:2:42.347,620.02,35.0874,0,0.000885,0,0
0:2:42.545,619.139,35.0392,0,0.000885,0,0
0:2:42.742,617.907,34.9633,0,0.000885,0,0
0:2:42.943,617.729,34.9564,0,0.000885,0,0
0:2:43.138,616.617,34.8944,0,0.000885,0,0
0:2:43.338,615.794,34.8461,0,0.000885,0,0
0:2:43.536,613.094,34.6944,0,0.000885,0,0
0:2:43.733,611.804,34.6186,0,0.000885,0,0
0:2:43.934,609.922,34.5152,0,0.000885,0,0
0:2:44.129,609.22,34.4738,0,0.000885,0,0
0:2:44.326,608.868,34.4531,0,0.000885,0,0
0:2:44.526,608.926,34.46,0,0.000885,0,0
0:2:44.721,609.162,34.4738,0,0.000885,0,0
0:2:44.922,609.687,34.5014,0,0.000885,0,0
0:2:45.119,610.394,34.5427,0,0.000885,0,0
0:2:45.315,611.448,34.5979,0,0.000885,0,0
0:2:45.516,612.271,34.6462,0,0.000885,0,0
0:2:45.711,614.09,34.7496,0,0.000885,0,0
0:2:45.911,614.971,34.7978,0,0.000885,0,0
0:2:46.113,616.261,34.8737,0,0.000885,0,0
0:2:46.315,616.968,34.9151,0,0.000885,0,0
0:2:46.517,618.258,34.984,0,0.000885,0,0
0:2:46.718,619.197,35.0392,0,0.000885,0,0
0:2:46.918,620.665,35.1219,0,0.000885,0,0
0:2:47.118,621.546,35.1702,0,0.000885,0,0
0:2:47.321,623.249,35.2667,0,0.000885,0,0
0:2:47.522,623.779,35.3012,0,0.000885,0,0
0:2:47.718,625.891,35.4184,0,0.000885,0,0
0:2:47.917,626.594,35.4597,0,0.000885,0,0
0:2:48.118,628.356,35.5563,0,0.000885,0,0
0:2:48.313,629.41,35.6183,0,0.000885,0,0
0:2:48.514,630.642,35.6873,0,0.000885,0,0
0:2:48.712,632.466,35.7907,0,0.000885,0,0
0:2:48.909,633.462,35.8458,0,0.000885,0,0
0:2:49.111,635.691,35.9699,0,0.000885,0,0
0:2:49.307,636.514,36.0182,0,0.000885,0,0
0:2:49.507,638.453,36.1285,0,0.000885,0,0
0:2:49.705,639.272,36.1768,0,0.000885,0,0
0:2:49.901,640.388,36.2388,0,0.000885,0,0
0:2:50.103,640.446,36.2388,0,0.000885,0,0
0:2:50.300,641.269,36.2871,0,0.000885,0,0
0:2:50.496,641.972,36.3285,0,0.000885,0,0
0:2:50.700,643.266,36.4043,0,0.000885,0,0
0:2:50.893,643.618,36.4181,0,0.000885,0,0
0:2:51.093,645.086,36.5077,0,0.000885,0,0
0:2:51.295,645.731,36.5422,0,0.000885,0,0
0:2:51.501,647.434,36.6387,0,0.000885,0,0
0:2:51.703,648.604,36.7008,0,0.000885,0,0
0:2:51.904,649.254,36.7422,0,0.000885,0,0
0:2:52.105,647.256,36.625,0,0.000885,0,0
0:2:52.306,646.785,36.5974,0,0.000885,0,0
0:2:52.506,646.963,36.6112,0,0.000885,0,0
0:2:52.707,647.078,36.6181,0,0.000885,0,0
0:2:52.903,648.666,36.7077,0,0.000885,0,0
0:2:53.102,649.778,36.7697,0,0.000885,0,0
0:2:53.303,650.779,36.8249,0,0.000885,0,0
0:2:53.497,651.482,36.8663,0,0.000885,0,0
0:2:53.697,639.04,36.163,0,0.000885,0,0
0:2:53.893,637.688,36.0872,0,0.000885,0,0
0:2:54.091,636.865,36.0389,0,0.000885,0,0
0:2:54.291,636.336,36.0113,0,0.000885,0,0
0:2:54.487,634.223,35.8872,0,0.000885,0,0
0:2:54.686,632.875,35.8114,0,0.000885,0,0
0:2:54.893,631.759,35.7493,0,0.000885,0,0
0:2:55.101,631.816,35.7562,0,0.000885,0,0
0:2:55.302,632.172,35.7769,0,0.000885,0,0
0:2:55.506,632.172,35.7769,0,0.000885,0,0
0:2:55.707,632.346,35.7838,0,0.000885,0,0
0:2:55.904,632.524,35.7907,0,0.000885,0,0
0:2:56.100,626.479,35.4528,0,0.000885,0,0
0:2:56.302,622.542,35.2322,0,0.000885,0,0
0:2:56.501,553.252,31.3091,0,0.000885,0,0