File: DataFile2021-07-25_063839.csv
Test ID:,Date Tested:,Time:,Test Type:,Diameter Avg. (mm):,Cyl. Corr. Factor:,Height (mm):,Age (days):,Weight (kN):,Break Type:,Ramp Rate (MPa/s):,Load at Break (kN):,Stress at Break (MPa):
12,7/25/2021,06:38,Cylinder,150,1,300,0,3.89,3,0.32,596.36,33.75
Sample Time,Load (kN),Stress (MPa),Long. Strain,Trans. Strain,Chan1 Deflection (mm),Chan2 Deflection (mm)
0:0:16.683,6.44992,0.365422,0,0.000885,0,0
0:0:16.781,8.91424,0.503317,0,0.000885,0,0
0:0:16.879,8.91424,0.503317,0,0.000885,0,0
0:0:16.981,10.0886,0.572265,0,0.000885,0,0
0:0:17.082,10.44,0.592949,0,0.000885,0,0
0:0:17.180,10.4978,0.592949,0,0.000885,0,0
0:0:17.278,10.4978,0.592949,0,0.000885,0,0
0:0:17.377,10.6757,0.606739,0,0.000885,0,0
0:0:17.478,10.5556,0.599844,0,0.000885,0,0
0:0:17.580,11.085,0.627423,0,0.000885,0,0
0:0:17.678,11.085,0.627423,0,0.000885,0,0
0:0:17.775,11.3207,0.641212,0,0.000885,0,0
0:0:17.876,12.6685,0.717055,0,0.000885,0,0
0:0:17.977,13.2557,0.751529,0,0.000885,0,0
0:0:18.078,13.2557,0.751529,0,0.000885,0,0
0:0:18.175,14.0163,0.792897,0,0.000885,0,0
0:0:18.273,14.7814,0.834266,0,0.000885,0,0
0:0:18.373,14.9549,0.848055,0,0.000885,0,0
0:0:18.475,14.9549,0.848055,0,0.000885,0,0
0:0:18.575,15.075,0.85495,0,0.000885,0,0
0:0:18.674,15.9513,0.903213,0,0.000885,0,0
0:0:18.771,15.9513,0.903213,0,0.000885,0,0
0:0:18.870,16.8321,0.951477,0,0.000885,0,0
0:0:18.972,18.0642,1.02042,0,0.000885,0,0
0:0:19.073,18.767,1.06179,0,0.000885,0,0
0:0:19.172,18.767,1.06179,0,0.000885,0,0
0:0:19.269,19.6478,1.11006,0,0.000885,0,0
0:0:19.368,19.9414,1.13074,0,0.000885,0,0
0:0:19.469,19.9414,1.13074,0,0.000885,0,0
0:0:19.570,19.9414,1.13074,0,0.000885,0,0
0:0:19.668,21.7607,1.23416,0,0.000885,0,0
0:0:19.767,23.4599,1.33069,0,0.000885,0,0
0:0:19.865,24.2206,1.37206,0,0.000885,0,0
0:0:19.966,24.2206,1.37206,0,0.000885,0,0
0:0:20.068,24.9278,1.41343,0,0.000885,0,0
0:0:20.168,25.7463,1.45479,0,0.000885,0,0
0:0:20.264,26.16,1.48237,0,0.000885,0,0
0:0:20.362,26.16,1.48237,0,0.000885,0,0
0:0:20.464,26.9206,1.52374,0,0.000885,0,0
0:0:20.565,27.0986,1.53064,0,0.000885,0,0
0:0:20.664,27.0986,1.53064,0,0.000885,0,0
0:0:20.763,27.6813,1.56511,0,0.000885,0,0
0:0:20.861,28.2684,1.59958,0,0.000885,0,0
0:0:20.964,28.7978,1.62716,0,0.000885,0,0
0:0:21.064,28.7978,1.62716,0,0.000885,0,0
0:0:21.163,29.385,1.66164,0,0.000885,0,0
0:0:21.261,29.9098,1.68922,0,0.000885,0,0
0:0:21.359,30.497,1.72369,0,0.000885,0,0
0:0:21.460,30.497,1.72369,0,0.000885,0,0
0:0:21.561,30.9685,1.75127,0,0.000885,0,0
0:0:21.660,31.3778,1.77885,0,0.000885,0,0
0:0:21.758,31.9071,1.80643,0,0.000885,0,0
0:0:21.856,31.9071,1.80643,0,0.000885,0,0
0:0:21.957,32.432,1.83401,0,0.000885,0,0
0:0:22.060,32.7256,1.85469,0,0.000885,0,0
0:0:22.160,33.6063,1.90295,0,0.000885,0,0
0:0:22.261,33.6063,1.90295,0,0.000885,0,0
0:0:22.363,34.2513,1.93743,0,0.000885,0,0
0:0:22.465,34.7228,1.96501,0,0.000885,0,0
0:0:22.566,35.3055,1.99948,0,0.000885,0,0
0:0:22.668,35.3055,1.99948,0,0.000885,0,0
0:0:22.769,36.0128,2.04085,0,0.000885,0,0
0:0:22.871,36.6578,2.07532,0,0.000885,0,0
0:0:22.972,37.067,2.09601,0,0.000885,0,0
0:0:23.073,37.067,2.09601,0,0.000885,0,0
0:0:23.174,37.5964,2.13048,0,0.000885,0,0
0:0:23.275,38.2992,2.16495,0,0.000885,0,0
0:0:23.375,38.2992,2.16495,0,0.000885,0,0
0:0:23.476,38.9442,2.20632,0,0.000885,0,0
0:0:23.578,39.8249,2.25459,0,0.000885,0,0
0:0:23.680,40.2342,2.27527,0,0.000885,0,0
0:0:23.778,40.2342,2.27527,0,0.000885,0,0
0:0:23.875,41.1727,2.33043,0,0.000885,0,0
0:0:23.976,41.8177,2.3649,0,0.000885,0,0
0:0:24.078,42.6985,2.41317,0,0.000885,0,0
0:0:24.178,42.6985,2.41317,0,0.000885,0,0
0:0:24.277,43.4013,2.45453,0,0.000885,0,0
0:0:24.375,43.9885,2.48901,0,0.000885,0,0
0:0:24.474,44.4555,2.51659,0,0.000885,0,0
0:0:24.576,44.4555,2.51659,0,0.000885,0,0
0:0:24.676,44.8692,2.53727,0,0.000885,0,0
0:0:24.773,45.572,2.57864,0,0.000885,0,0
0:0:24.871,46.4528,2.6269,0,0.000885,0,0
0:0:24.971,46.4528,2.6269,0,0.000885,0,0
0:0:25.073,47.0978,2.66827,0,0.000885,0,0
0:0:25.174,47.507,2.68896,0,0.000885,0,0
0:0:25.274,47.9162,2.70964,0,0.000885,0,0
0:0:25.371,47.9162,2.70964,0,0.000885,0,0
0:0:25.470,48.8548,2.7648,0,0.000885,0,0
0:0:25.572,49.5576,2.80617,0,0.000885,0,0
0:0:25.672,49.5576,2.80617,0,0.000885,0,0
0:0:25.772,50.5585,2.86132,0,0.000885,0,0
0:0:25.868,50.7898,2.87511,0,0.000885,0,0
0:0:25.968,50.8521,2.87511,0,0.000885,0,0
0:0:26.068,50.8521,2.87511,0,0.000885,0,0
0:0:26.170,51.0834,2.8889,0,0.000885,0,0
0:0:26.271,51.7862,2.93027,0,0.000885,0,0
0:0:26.369,52.6091,2.97854,0,0.000885,0,0
0:0:26.465,52.6091,2.97854,0,0.000885,0,0
0:0:26.565,53.1963,3.01301,0,0.000885,0,0
0:0:26.667,53.7834,3.04059,0,0.000885,0,0
0:0:26.768,54.7798,3.10264,0,0.000885,0,0
0:0:26.865,54.7798,3.10264,0,0.000885,0,0
0:0:26.964,55.8919,3.16469,0,0.000885,0,0
0:0:27.064,56.657,3.20606,0,0.000885,0,0
0:0:27.165,57.6534,3.26122,0,0.000885,0,0
0:0:27.265,57.6534,3.26122,0,0.000885,0,0
0:0:27.366,58.5341,3.30948,0,0.000885,0,0
0:0:27.467,59.237,3.35085,0,0.000885,0,0
0:0:27.569,59.237,3.35085,0,0.000885,0,0
0:0:27.670,60.6426,3.43359,0,0.000885,0,0
0:0:27.773,61.4077,3.47496,0,0.000885,0,0
0:0:27.874,62.1105,3.51633,0,0.000885,0,0
0:0:27.975,62.1105,3.51633,0,0.000885,0,0
0:0:28.076,62.7555,3.5508,0,0.000885,0,0
0:0:28.178,63.7519,3.60596,0,0.000885,0,0
0:0:28.278,64.8106,3.66801,0,0.000885,0,0
0:0:28.379,64.8106,3.66801,0,0.000885,0,0
0:0:28.480,65.7492,3.72317,0,0.000885,0,0
0:0:28.581,66.6877,3.77143,0,0.000885,0,0
0:0:28.682,67.6841,3.83349,0,0.000885,0,0
0:0:28.784,67.6841,3.83349,0,0.000885,0,0
0:0:28.884,68.6805,3.88864,0,0.000885,0,0
0:0:28.981,70.0862,3.96449,0,0.000885,0,0
0:0:29.080,70.9091,4.01275,0,0.000885,0,0
0:0:29.181,70.9091,4.01275,0,0.000885,0,0
0:0:29.283,71.7276,4.06101,0,0.000885,0,0
0:0:29.382,72.8441,4.12306,0,0.000885,0,0
0:0:29.481,73.8405,4.17822,0,0.000885,0,0
0:0:29.578,73.8405,4.17822,0,0.000885,0,0
0:0:29.679,74.8947,4.24028,0,0.000885,0,0
0:0:29.780,75.8333,4.28854,0,0.000885,0,0
0:0:29.880,76.714,4.3437,0,0.000885,0,0
0:0:29.977,76.714,4.3437,0,0.000885,0,0
0:0:30.076,77.8305,4.40575,0,0.000885,0,0
0:0:30.176,78.7068,4.45401,0,0.000885,0,0
0:0:30.277,78.7068,4.45401,0,0.000885,0,0
0:0:30.378,80.0013,4.52986,0,0.000885,0,0
0:0:30.475,80.8197,4.57122,0,0.000885,0,0
0:0:30.573,81.8161,4.63328,0,0.000885,0,0
0:0:30.674,81.8161,4.63328,0,0.000885,0,0
0:0:30.774,82.9326,4.69533,0,0.000885,0,0
0:0:30.875,84.3383,4.77117,0,0.000885,0,0
0:0:30.973,85.1612,4.81944,0,0.000885,0,0
0:0:31.070,85.1612,4.81944,0,0.000885,0,0
0:0:31.171,86.1576,4.87459,0,0.000885,0,0
0:0:31.272,87.0384,4.92286,0,0.000885,0,0
0:0:31.374,88.2082,4.9918,0,0.000885,0,0
0:0:31.472,88.2082,4.9918,0,0.000885,0,0
0:0:31.570,89.0312,5.04007,0,0.000885,0,0
0:0:31.670,90.1477,5.10212,0,0.000885,0,0
0:0:31.772,91.2019,5.16417,0,0.000885,0,0
0:0:31.871,91.2019,5.16417,0,0.000885,0,0
0:0:31.973,92.1405,5.21244,0,0.000885,0,0
0:0:32.074,93.4883,5.28828,0,0.000885,0,0
0:0:32.176,93.4883,5.28828,0,0.000885,0,0
0:0:32.278,94.369,5.34344,0,0.000885,0,0
0:0:32.380,95.3654,5.39859,0,0.000885,0,0
0:0:32.481,96.2462,5.44686,0,0.000885,0,0
0:0:32.583,97.4205,5.51581,0,0.000885,0,0
0:0:32.683,97.4205,5.51581,0,0.000885,0,0
0:0:32.784,98.239,5.55717,0,0.000885,0,0
0:0:32.885,99.2354,5.61233,0,0.000885,0,0
0:0:32.986,99.2354,5.61233,0,0.000885,0,0
0:0:33.086,100.294,5.67439,0,0.000885,0,0
0:0:33.187,101.348,5.73644,0,0.000885,0,0
0:0:33.289,102.229,5.7847,0,0.000885,0,0
0:0:33.390,102.229,5.7847,0,0.000885,0,0
0:0:33.491,103.168,5.83986,0,0.000885,0,0
0:0:33.589,104.044,5.88812,0,0.000885,0,0
0:0:33.686,104.982,5.94328,0,0.000885,0,0
0:0:33.789,104.982,5.94328,0,0.000885,0,0
0:0:33.890,106.099,6.00533,0,0.000885,0,0
0:0:33.990,107.211,6.06739,0,0.000885,0,0
0:0:34.086,108.15,6.12254,0,0.000885,0,0
0:0:34.183,108.15,6.12254,0,0.000885,0,0
0:0:34.284,109.15,6.1777,0,0.000885,0,0
0:0:34.386,110.378,6.24665,0,0.000885,0,0
0:0:34.485,111.317,6.30181,0,0.000885,0,0
0:0:34.584,111.317,6.30181,0,0.000885,0,0
0:0:34.682,112.727,6.37765,0,0.000885,0,0
0:0:34.783,113.959,6.4466,0,0.000885,0,0
0:0:34.885,115.191,6.51555,0,0.000885,0,0
0:0:34.985,115.191,6.51555,0,0.000885,0,0
0:0:35.082,116.597,6.59828,0,0.000885,0,0
0:0:35.180,117.771,6.66723,0,0.000885,0,0
0:0:35.280,117.771,6.66723,0,0.000885,0,0
0:0:35.381,118.883,6.72928,0,0.000885,0,0
0:0:35.482,120.525,6.81891,0,0.000885,0,0
0:0:35.581,121.583,6.88097,0,0.000885,0,0
0:0:35.678,121.583,6.88097,0,0.000885,0,0
0:0:35.778,122.758,6.94992,0,0.000885,0,0
0:0:35.880,124.105,7.02576,0,0.000885,0,0
0:0:35.981,125.338,7.09471,0,0.000885,0,0
0:0:36.079,125.338,7.09471,0,0.000885,0,0
0:0:36.176,126.628,7.16365,0,0.000885,0,0
0:0:36.275,127.86,7.2326,0,0.000885,0,0
0:0:36.376,128.678,7.28086,0,0.000885,0,0
0:0:36.476,128.678,7.28086,0,0.000885,0,0
0:0:36.576,130.32,7.37739,0,0.000885,0,0
0:0:36.674,131.494,7.43944,0,0.000885,0,0
0:0:36.774,131.494,7.43944,0,0.000885,0,0
0:0:36.875,132.668,7.50839,0,0.000885,0,0
0:0:36.976,133.607,7.56355,0,0.000885,0,0
0:0:37.077,134.194,7.59113,0,0.000885,0,0
0:0:37.178,134.194,7.59113,0,0.000885,0,0
0:0:37.281,135.07,7.64629,0,0.000885,0,0
0:0:37.383,135.951,7.69455,0,0.000885,0,0
0:0:37.484,137.01,7.74971,0,0.000885,0,0
0:0:37.585,137.01,7.74971,0,0.000885,0,0
0:0:37.687,137.886,7.80487,0,0.000885,0,0
0:0:37.788,138.945,7.86002,0,0.000885,0,0
0:0:37.889,139.883,7.91518,0,0.000885,0,0
0:0:37.990,139.883,7.91518,0,0.000885,0,0
0:0:38.090,140.528,7.94966,0,0.000885,0,0
0:0:38.192,141.289,7.99792,0,0.000885,0,0
0:0:38.293,142.05,8.03929,0,0.000885,0,0
0:0:38.393,142.05,8.03929,0,0.000885,0,0
0:0:38.495,142.637,8.07376,0,0.000885,0,0
0:0:38.594,143.166,8.10134,0,0.000885,0,0
0:0:38.692,144.34,8.17029,0,0.000885,0,0
0:0:38.791,144.34,8.17029,0,0.000885,0,0
0:0:38.893,144.75,8.19097,0,0.000885,0,0
0:0:38.994,145.395,8.22545,0,0.000885,0,0
0:0:39.095,146.097,8.26681,0,0.000885,0,0
0:0:39.192,146.097,8.26681,0,0.000885,0,0
0:0:39.290,146.449,8.2875,0,0.000885,0,0
0:0:39.390,147.156,8.32887,0,0.000885,0,0
0:0:39.492,147.739,8.36334,0,0.000885,0,0
0:0:39.592,147.739,8.36334,0,0.000885,0,0
0:0:39.691,148.21,8.38402,0,0.000885,0,0
0:0:39.786,148.74,8.4185,0,0.000885,0,0
0:0:39.886,148.74,8.4185,0,0.000885,0,0
0:0:39.989,149.558,8.45987,0,0.000885,0,0
0:0:40.090,150.03,8.48745,0,0.000885,0,0
0:0:40.189,150.79,8.53571,0,0.000885,0,0
0:0:40.286,150.79,8.53571,0,0.000885,0,0
0:0:40.386,151.142,8.5495,0,0.000885,0,0
0:0:40.486,152.138,8.61155,0,0.000885,0,0
0:0:40.588,152.961,8.65292,0,0.000885,0,0
0:0:40.684,152.961,8.65292,0,0.000885,0,0
0:0:40.782,153.842,8.70808,0,0.000885,0,0
0:0:40.882,154.367,8.73566,0,0.000885,0,0
0:0:40.983,155.132,8.77703,0,0.000885,0,0
0:0:41.084,155.132,8.77703,0,0.000885,0,0
0:0:41.184,155.892,8.81839,0,0.000885,0,0
0:0:41.282,157.125,8.89424,0,0.000885,0,0
0:0:41.381,157.827,8.92871,0,0.000885,0,0
0:0:41.480,157.827,8.92871,0,0.000885,0,0
0:0:41.582,159.117,9.00455,0,0.000885,0,0
0:0:41.682,159.825,9.04592,0,0.000885,0,0
0:0:41.779,159.825,9.04592,0,0.000885,0,0
0:0:41.877,160.47,9.0804,0,0.000885,0,0
0:0:41.978,160.994,9.10797,0,0.000885,0,0
0:0:42.080,162.169,9.17692,0,0.000885,0,0
0:0:42.180,162.169,9.17692,0,0.000885,0,0
0:0:42.280,162.698,9.2045,0,0.000885,0,0
0:0:42.383,163.459,9.25276,0,0.000885,0,0
0:0:42.484,164.046,9.28034,0,0.000885,0,0
0:0:42.586,164.046,9.28034,0,0.000885,0,0
0:0:42.687,165.1,9.3424,0,0.000885,0,0
0:0:42.789,166.275,9.41134,0,0.000885,0,0
0:0:42.890,167.035,9.45271,0,0.000885,0,0
0:0:42.992,167.035,9.45271,0,0.000885,0,0
0:0:43.092,167.742,9.49408,0,0.000885,0,0
0:0:43.194,168.739,9.54924,0,0.000885,0,0
0:0:43.294,169.793,9.61129,0,0.000885,0,0
0:0:43.395,169.793,9.61129,0,0.000885,0,0
0:0:43.496,170.847,9.66645,0,0.000885,0,0
0:0:43.598,171.786,9.72161,0,0.000885,0,0
0:0:43.699,172.782,9.77677,0,0.000885,0,0
0:0:43.799,172.782,9.77677,0,0.000885,0,0
0:0:43.896,173.841,9.83882,0,0.000885,0,0
0:0:43.995,174.544,9.88019,0,0.000885,0,0
0:0:44.096,175.425,9.92845,0,0.000885,0,0
0:0:44.196,175.425,9.92845,0,0.000885,0,0
0:0:44.296,176.421,9.98361,0,0.000885,0,0
0:0:44.394,177.417,10.0388,0,0.000885,0,0
0:0:44.493,178.178,10.0801,0,0.000885,0,0
0:0:44.595,178.178,10.0801,0,0.000885,0,0
0:0:44.695,178.827,10.1215,0,0.000885,0,0
0:0:44.794,179.824,10.1767,0,0.000885,0,0
0:0:44.892,179.824,10.1767,0,0.000885,0,0
0:0:44.990,180.7,10.2249,0,0.000885,0,0
0:0:45.090,181.407,10.2663,0,0.000885,0,0
0:0:45.192,182.284,10.3146,0,0.000885,0,0
0:0:45.293,182.284,10.3146,0,0.000885,0,0
0:0:45.391,183.107,10.3628,0,0.000885,0,0
0:0:45.489,183.809,10.4042,0,0.000885,0,0
0:0:45.589,184.512,10.4387,0,0.000885,0,0
0:0:45.690,184.512,10.4387,0,0.000885,0,0
0:0:45.791,185.277,10.4869,0,0.000885,0,0
0:0:45.889,186.389,10.549,0,0.000885,0,0
0:0:45.986,187.097,10.5903,0,0.000885,0,0
0:0:46.085,187.097,10.5903,0,0.000885,0,0
0:0:46.186,188.329,10.6593,0,0.000885,0,0
0:0:46.287,189.032,10.6938,0,0.000885,0,0
0:0:46.386,189.619,10.7282,0,0.000885,0,0
0:0:46.483,189.619,10.7282,0,0.000885,0,0
0:0:46.583,190.846,10.7972,0,0.000885,0,0
0:0:46.685,191.669,10.8455,0,0.000885,0,0
0:0:46.783,191.669,10.8455,0,0.000885,0,0
0:0:46.881,192.666,10.9006,0,0.000885,0,0
0:0:46.979,193.369,10.942,0,0.000885,0,0
0:0:47.077,194.369,10.9971,0,0.000885,0,0
0:0:47.178,194.369,10.9971,0,0.000885,0,0
0:0:47.279,195.246,11.0454,0,0.000885,0,0
0:0:47.379,196.184,11.1006,0,0.000885,0,0
0:0:47.479,197.065,11.1488,0,0.000885,0,0
0:0:47.581,197.065,11.1488,0,0.000885,0,0
0:0:47.682,198.062,11.2109,0,0.000885,0,0
0:0:47.783,199.236,11.2729,0,0.000885,0,0
0:0:47.884,199.881,11.3143,0,0.000885,0,0
0:0:47.983,199.881,11.3143,0,0.000885,0,0
0:0:48.083,201.055,11.3763,0,0.000885,0,0
0:0:48.184,201.758,11.4177,0,0.000885,0,0
0:0:48.284,202.287,11.4453,0,0.000885,0,0
0:0:48.384,202.287,11.4453,0,0.000885,0,0
0:0:48.484,203.284,11.5005,0,0.000885,0,0
0:0:48.584,204.28,11.5625,0,0.000885,0,0
0:0:48.686,204.689,11.5832,0,0.000885,0,0
0:0:48.785,204.689,11.5832,0,0.000885,0,0
0:0:48.885,205.686,11.6384,0,0.000885,0,0
0:0:48.981,205.979,11.659,0,0.000885,0,0
0:0:49.078,205.979,11.659,0,0.000885,0,0
0:0:49.178,207.332,11.7349,0,0.000885,0,0
0:0:49.278,207.914,11.7625,0,0.000885,0,0
0:0:49.379,208.501,11.7969,0,0.000885,0,0
0:0:49.477,208.501,11.7969,0,0.000885,0,0
0:0:49.573,209.146,11.8383,0,0.000885,0,0
0:0:49.672,209.912,11.8797,0,0.000885,0,0
0:0:49.774,210.672,11.921,0,0.000885,0,0
0:0:49.873,210.672,11.921,0,0.000885,0,0
0:0:49.972,211.789,11.9831,0,0.000885,0,0
0:0:50.068,212.785,12.0382,0,0.000885,0,0
0:0:50.166,212.785,12.0382,0,0.000885,0,0
0:0:50.267,213.43,12.0796,0,0.000885,0,0
0:0:50.368,213.897,12.1072,0,0.000885,0,0
0:0:50.466,214.894,12.1624,0,0.000885,0,0
0:0:50.564,214.894,12.1624,0,0.000885,0,0
0:0:50.661,215.659,12.2037,0,0.000885,0,0
0:0:50.763,216.419,12.2451,0,0.000885,0,0
0:0:50.863,217.358,12.3002,0,0.000885,0,0
0:0:50.962,217.358,12.3002,0,0.000885,0,0
0:0:51.059,218.239,12.3485,0,0.000885,0,0
0:0:51.155,218.941,12.3899,0,0.000885,0,0
0:0:51.255,219.529,12.4244,0,0.000885,0,0
0:0:51.356,219.529,12.4244,0,0.000885,0,0
0:0:51.455,220.703,12.4864,0,0.000885,0,0
0:0:51.553,221.815,12.5554,0,0.000885,0,0
0:0:51.649,221.815,12.5554,0,0.000885,0,0
0:0:51.749,222.166,12.5691,0,0.000885,0,0
0:0:51.850,222.638,12.5967,0,0.000885,0,0
0:0:51.951,223.577,12.6519,0,0.000885,0,0
0:0:52.051,223.577,12.6519,0,0.000885,0,0
0:0:52.153,224.337,12.6932,0,0.000885,0,0
0:0:52.253,224.982,12.7346,0,0.000885,0,0
0:0:52.355,226.334,12.8105,0,0.000885,0,0
0:0:52.455,226.334,12.8105,0,0.000885,0,0
0:0:52.557,227.211,12.8587,0,0.000885,0,0
0:0:52.655,227.856,12.8932,0,0.000885,0,0
0:0:52.755,229.088,12.9621,0,0.000885,0,0
0:0:52.855,229.088,12.9621,0,0.000885,0,0
0:0:52.955,229.791,13.0035,0,0.000885,0,0
0:0:53.056,230.556,13.0449,0,0.000885,0,0
0:0:53.156,231.668,13.1069,0,0.000885,0,0
0:0:53.255,231.668,13.1069,0,0.000885,0,0
0:0:53.355,232.197,13.1414,0,0.000885,0,0
0:0:53.456,233.136,13.1897,0,0.000885,0,0
0:0:53.553,234.016,13.2448,0,0.000885,0,0
0:0:53.651,234.016,13.2448,0,0.000885,0,0
0:0:53.749,234.897,13.2931,0,0.000885,0,0
0:0:53.850,235.951,13.3551,0,0.000885,0,0
0:0:53.951,235.951,13.3551,0,0.000885,0,0
0:0:54.049,236.596,13.3896,0,0.000885,0,0
0:0:54.146,237.299,13.431,0,0.000885,0,0
0:0:54.243,237.944,13.4655,0,0.000885,0,0
0:0:54.344,237.944,13.4655,0,0.000885,0,0
0:0:54.445,238.941,13.5206,0,0.000885,0,0
0:0:54.543,240.057,13.5827,0,0.000885,0,0
0:0:54.638,241.054,13.6378,0,0.000885,0,0
0:0:54.736,241.054,13.6378,0,0.000885,0,0
0:0:54.837,241.934,13.693,0,0.000885,0,0
0:0:54.938,242.637,13.7275,0,0.000885,0,0
0:0:55.037,242.637,13.7275,0,0.000885,0,0
0:0:55.145,243.34,13.7688,0,0.000885,0,0
0:0:55.251,243.985,13.8102,0,0.000885,0,0
0:0:55.352,244.808,13.8516,0,0.000885,0,0
0:0:55.452,245.511,13.8929,0,0.000885,0,0
0:0:55.552,245.511,13.8929,0,0.000885,0,0
0:0:55.649,246.565,13.955,0,0.000885,0,0
0:0:55.745,247.33,13.9964,0,0.000885,0,0
0:0:55.845,247.33,13.9964,0,0.000885,0,0
0:0:55.947,247.917,14.0308,0,0.000885,0,0
0:0:56.047,248.678,14.0722,0,0.000885,0,0
0:0:56.145,249.559,14.1205,0,0.000885,0,0
0:0:56.239,249.559,14.1205,0,0.000885,0,0
0:0:56.337,250.377,14.1687,0,0.000885,0,0
0:0:56.438,251.2,14.217,0,0.000885,0,0
0:0:56.538,252.081,14.2653,0,0.000885,0,0
0:0:56.636,252.081,14.2653,0,0.000885,0,0
0:0:56.734,252.668,14.2997,0,0.000885,0,0
0:0:56.833,253.606,14.348,0,0.000885,0,0
0:0:56.933,253.606,14.348,0,0.000885,0,0
0:0:57.034,254.776,14.4169,0,0.000885,0,0
0:0:57.133,255.421,14.4514,0,0.000885,0,0
0:0:57.234,256.244,14.4997,0,0.000885,0,0
0:0:57.334,256.244,14.4997,0,0.000885,0,0
0:0:57.436,257.241,14.5548,0,0.000885,0,0
0:0:57.536,258.179,14.61,0,0.000885,0,0
0:0:57.637,259.002,14.6583,0,0.000885,0,0
0:0:57.738,259.002,14.6583,0,0.000885,0,0
0:0:57.836,259.763,14.6996,0,0.000885,0,0
0:0:57.937,260.701,14.7548,0,0.000885,0,0
0:0:58.038,261.64,14.803,0,0.000885,0,0
0:0:58.138,261.64,14.803,0,0.000885,0,0
0:0:58.238,262.814,14.872,0,0.000885,0,0
0:0:58.337,263.281,14.8996,0,0.000885,0,0
0:0:58.438,264.162,14.9478,0,0.000885,0,0
0:0:58.538,264.162,14.9478,0,0.000885,0,0
0:0:58.638,265.158,15.003,0,0.000885,0,0
0:0:58.735,265.919,15.0513,0,0.000885,0,0
0:0:58.832,266.684,15.0926,0,0.000885,0,0
0:0:58.932,266.684,15.0926,0,0.000885,0,0
0:0:59.032,267.565,15.1409,0,0.000885,0,0
0:0:59.132,268.855,15.2167,0,0.000885,0,0
0:0:59.231,268.855,15.2167,0,0.000885,0,0
0:0:59.329,269.736,15.265,0,0.000885,0,0
0:0:59.428,270.612,15.3133,0,0.000885,0,0
0:0:59.528,271.435,15.3615,0,0.000885,0,0
0:0:59.626,271.435,15.3615,0,0.000885,0,0
0:0:59.725,272.253,15.4098,0,0.000885,0,0
0:0:59.822,273.134,15.458,0,0.000885,0,0
0:0:59.920,273.899,15.4994,0,0.000885,0,0
0:1:0.021,273.899,15.4994,0,0.000885,0,0
0:1:0.120,274.486,15.5339,0,0.000885,0,0
0:1:0.220,275.421,15.589,0,0.000885,0,0
0:1:0.327,276.186,15.6304,0,0.000885,0,0
0:1:0.434,276.186,15.6304,0,0.000885,0,0
0:1:0.534,277.124,15.6787,0,0.000885,0,0
0:1:0.635,277.885,15.7269,0,0.000885,0,0
0:1:0.733,278.588,15.7683,0,0.000885,0,0
0:1:0.839,278.588,15.7683,0,0.000885,0,0
0:1:0.949,279.526,15.8166,0,0.000885,0,0
0:1:1.049,280.527,15.8717,0,0.000885,0,0
0:1:1.150,281.523,15.9338,0,0.000885,0,0
0:1:1.249,281.523,15.9338,0,0.000885,0,0
0:1:1.346,282.048,15.9614,0,0.000885,0,0
0:1:1.443,282.871,16.0096,0,0.000885,0,0
0:1:1.544,283.81,16.0579,0,0.000885,0,0
0:1:1.644,283.81,16.0579,0,0.000885,0,0
0:1:1.744,284.571,16.1062,0,0.000885,0,0
0:1:1.838,285.393,16.1475,0,0.000885,0,0
0:1:1.947,285.981,16.182,0,0.000885,0,0
0:1:2.045,285.981,16.182,0,0.000885,0,0
0:1:2.147,286.683,16.2234,0,0.000885,0,0
0:1:2.246,287.444,16.2647,0,0.000885,0,0
0:1:2.347,287.444,16.2647,0,0.000885,0,0
0:1:2.448,288.445,16.3199,0,0.000885,0,0
0:1:2.550,289.09,16.3613,0,0.000885,0,0
0:1:2.650,289.793,16.3957,0,0.000885,0,0
0:1:2.751,289.793,16.3957,0,0.000885,0,0
0:1:2.852,290.731,16.4509,0,0.000885,0,0
0:1:2.953,291.376,16.4854,0,0.000885,0,0
0:1:3.053,292.666,16.5612,0,0.000885,0,0
0:1:3.154,292.666,16.5612,0,0.000885,0,0
0:1:3.254,293.721,16.6233,0,0.000885,0,0
0:1:3.353,294.134,16.6439,0,0.000885,0,0
0:1:3.453,295.011,16.6922,0,0.000885,0,0
0:1:3.554,295.011,16.6922,0,0.000885,0,0
0:1:3.654,296.243,16.7612,0,0.000885,0,0
0:1:3.755,297.066,16.8094,0,0.000885,0,0
0:1:3.854,297.653,16.8439,0,0.000885,0,0
0:1:3.950,297.653,16.8439,0,0.000885,0,0
0:1:4.049,298.356,16.8853,0,0.000885,0,0
0:1:4.149,299.41,16.9404,0,0.000885,0,0
0:1:4.250,299.997,16.9749,0,0.000885,0,0
0:1:4.349,299.997,16.9749,0,0.000885,0,0
0:1:4.446,300.758,17.0163,0,0.000885,0,0
0:1:4.543,301.99,17.0921,0,0.000885,0,0
0:1:4.644,301.99,17.0921,0,0.000885,0,0
0:1:4.745,302.635,17.1266,0,0.000885,0,0
0:1:4.843,303.342,17.1679,0,0.000885,0,0
0:1:4.950,304.396,17.2231,0,0.000885,0,0
0:1:5.046,304.396,17.2231,0,0.000885,0,0
0:1:5.146,304.863,17.2507,0,0.000885,0,0
0:1:5.246,305.45,17.2852,0,0.000885,0,0
0:1:5.346,306.625,17.3541,0,0.000885,0,0
0:1:5.444,306.625,17.3541,0,0.000885,0,0
0:1:5.538,307.385,17.3955,0,0.000885,0,0
0:1:5.638,308.03,17.4299,0,0.000885,0,0
0:1:5.739,308.738,17.4713,0,0.000885,0,0
0:1:5.839,308.738,17.4713,0,0.000885,0,0
0:1:5.937,309.908,17.5403,0,0.000885,0,0
0:1:6.033,310.615,17.5747,0,0.000885,0,0
0:1:6.132,310.615,17.5747,0,0.000885,0,0
0:1:6.232,311.491,17.6299,0,0.000885,0,0
0:1:6.333,312.43,17.6782,0,0.000885,0,0
0:1:6.432,313.368,17.7333,0,0.000885,0,0
0:1:6.538,313.368,17.7333,0,0.000885,0,0
0:1:6.635,314.133,17.7747,0,0.000885,0,0
0:1:6.736,314.658,17.8092,0,0.000885,0,0
0:1:6.836,316.184,17.8919,0,0.000885,0,0
0:1:6.936,316.184,17.8919,0,0.000885,0,0
0:1:7.037,316.887,17.9333,0,0.000885,0,0
0:1:7.140,317.416,17.9608,0,0.000885,0,0
0:1:7.240,318.239,18.0091,0,0.000885,0,0
0:1:7.341,318.239,18.0091,0,0.000885,0,0
0:1:7.444,319.178,18.0643,0,0.000885,0,0
0:1:7.541,319.76,18.0918,0,0.000885,0,0
0:1:7.643,320.819,18.1539,0,0.000885,0,0
0:1:7.744,320.819,18.1539,0,0.000885,0,0
0:1:7.844,321.464,18.1884,0,0.000885,0,0
0:1:7.945,322.051,18.2228,0,0.000885,0,0
0:1:8.045,323.163,18.2849,0,0.000885,0,0
0:1:8.145,323.163,18.2849,0,0.000885,0,0
0:1:8.245,324.16,18.3469,0,0.000885,0,0
0:1:8.345,324.925,18.3883,0,0.000885,0,0
0:1:8.446,325.979,18.4435,0,0.000885,0,0
0:1:8.540,325.979,18.4435,0,0.000885,0,0
0:1:8.638,327.096,18.5124,0,0.000885,0,0
0:1:8.738,327.563,18.5331,0,0.000885,0,0
0:1:8.839,327.563,18.5331,0,0.000885,0,0
0:1:8.939,328.795,18.6089,0,0.000885,0,0
0:1:9.037,329.44,18.6434,0,0.000885,0,0
0:1:9.133,329.675,18.6572,0,0.000885,0,0
0:1:9.231,329.675,18.6572,0,0.000885,0,0
0:1:9.332,330.965,18.7262,0,0.000885,0,0
0:1:9.432,331.784,18.7744,0,0.000885,0,0
0:1:9.530,332.371,18.8089,0,0.000885,0,0
0:1:9.628,332.371,18.8089,0,0.000885,0,0
0:1:9.727,333.43,18.871,0,0.000885,0,0
0:1:9.828,334.133,18.9054,0,0.000885,0,0
0:1:9.929,334.951,18.9537,0,0.000885,0,0
0:1:10.026,334.951,18.9537,0,0.000885,0,0
0:1:10.122,336.068,19.0157,0,0.000885,0,0
0:1:10.220,336.77,19.0571,0,0.000885,0,0
0:1:10.321,336.77,19.0571,0,0.000885,0,0
0:1:10.421,337.358,19.0916,0,0.000885,0,0
0:1:10.520,338.354,19.1467,0,0.000885,0,0
0:1:10.616,338.825,19.1743,0,0.000885,0,0
0:1:10.715,338.825,19.1743,0,0.000885,0,0
0:1:10.815,339.586,19.2157,0,0.000885,0,0
0:1:10.916,341.054,19.2984,0,0.000885,0,0
0:1:11.015,341.699,19.3329,0,0.000885,0,0
0:1:11.111,341.699,19.3329,0,0.000885,0,0
0:1:11.208,342.224,19.3674,0,0.000885,0,0
0:1:11.309,343.634,19.4432,0,0.000885,0,0
0:1:11.409,343.634,19.4432,0,0.000885,0,0
0:1:11.509,344.452,19.4915,0,0.000885,0,0
0:1:11.605,345.097,19.526,0,0.000885,0,0
0:1:11.702,345.863,19.5742,0,0.000885,0,0
0:1:11.802,345.863,19.5742,0,0.000885,0,0
0:1:11.903,346.743,19.6225,0,0.000885,0,0
0:1:12.003,347.446,19.6638,0,0.000885,0,0
0:1:12.104,348.265,19.7052,0,0.000885,0,0
0:1:12.205,348.265,19.7052,0,0.000885,0,0
0:1:12.307,349.439,19.7742,0,0.000885,0,0
0:1:12.408,350.378,19.8293,0,0.000885,0,0
0:1:12.509,351.143,19.8707,0,0.000885,0,0
0:1:12.609,351.143,19.8707,0,0.000885,0,0
0:1:12.710,352.312,19.9396,0,0.000885,0,0
0:1:12.809,353.135,19.981,0,0.000885,0,0
0:1:12.910,353.66,20.0155,0,0.000885,0,0
0:1:13.009,353.66,20.0155,0,0.000885,0,0
0:1:13.110,354.719,20.0706,0,0.000885,0,0
0:1:13.210,355.6,20.1258,0,0.000885,0,0
0:1:13.310,356.125,20.1534,0,0.000885,0,0
0:1:13.411,356.125,20.1534,0,0.000885,0,0
0:1:13.511,357.063,20.2085,0,0.000885,0,0
0:1:13.610,358.353,20.2775,0,0.000885,0,0
0:1:13.707,358.353,20.2775,0,0.000885,0,0
0:1:13.805,358.94,20.312,0,0.000885,0,0
0:1:13.904,359.585,20.3464,0,0.000885,0,0
0:1:14.005,360.817,20.4154,0,0.000885,0,0
0:1:14.105,360.817,20.4154,0,0.000885,0,0
0:1:14.203,360.995,20.4292,0,0.000885,0,0
0:1:14.299,362.165,20.4912,0,0.000885,0,0
0:1:14.400,362.93,20.5395,0,0.000885,0,0
0:1:14.500,362.93,20.5395,0,0.000885,0,0
0:1:14.600,363.518,20.574,0,0.000885,0,0
0:1:14.697,364.572,20.6291,0,0.000885,0,0
0:1:14.793,364.572,20.6291,0,0.000885,0,0
0:1:14.892,365.039,20.6567,0,0.000885,0,0
0:1:14.993,365.92,20.705,0,0.000885,0,0
0:1:15.093,367.094,20.7739,0,0.000885,0,0
0:1:15.192,367.094,20.7739,0,0.000885,0,0
0:1:15.289,367.739,20.8084,0,0.000885,0,0
0:1:15.389,368.735,20.8635,0,0.000885,0,0
0:1:15.489,369.207,20.8911,0,0.000885,0,0
0:1:15.589,369.207,20.8911,0,0.000885,0,0
0:1:15.685,369.91,20.9325,0,0.000885,0,0
0:1:15.782,370.906,20.9876,0,0.000885,0,0
0:1:15.881,372.196,21.0635,0,0.000885,0,0
0:1:15.982,372.196,21.0635,0,0.000885,0,0
0:1:16.082,372.725,21.0911,0,0.000885,0,0
0:1:16.182,373.722,21.1462,0,0.000885,0,0
0:1:16.278,373.722,21.1462,0,0.000885,0,0
0:1:16.376,374.954,21.2152,0,0.000885,0,0
0:1:16.476,375.185,21.229,0,0.000885,0,0
0:1:16.577,375.83,21.2703,0,0.000885,0,0
0:1:16.675,375.83,21.2703,0,0.000885,0,0
0:1:16.772,376.769,21.3186,0,0.000885,0,0
0:1:16.869,377.65,21.3737,0,0.000885,0,0
0:1:16.969,378.646,21.4289,0,0.000885,0,0
0:1:17.070,378.646,21.4289,0,0.000885,0,0
0:1:17.170,379.353,21.4703,0,0.000885,0,0
0:1:17.270,380.35,21.5254,0,0.000885,0,0
0:1:17.372,381.288,21.5737,0,0.000885,0,0
0:1:17.473,381.288,21.5737,0,0.000885,0,0
0:1:17.574,381.582,21.5944,0,0.000885,0,0
0:1:17.675,382.636,21.6495,0,0.000885,0,0
0:1:17.776,383.165,21.684,0,0.000885,0,0
0:1:17.875,383.165,21.684,0,0.000885,0,0
0:1:17.976,383.926,21.7254,0,0.000885,0,0
0:1:18.076,385.158,21.7943,0,0.000885,0,0
0:1:18.176,385.158,21.7943,0,0.000885,0,0
0:1:18.274,385.688,21.8219,0,0.000885,0,0
0:1:18.375,386.684,21.884,0,0.000885,0,0
0:1:18.475,387.738,21.9391,0,0.000885,0,0
0:1:18.575,387.738,21.9391,0,0.000885,0,0
0:1:18.675,388.325,21.9736,0,0.000885,0,0
0:1:18.774,389.086,22.015,0,0.000885,0,0
0:1:18.870,390.202,22.0839,0,0.000885,0,0
0:1:18.968,390.202,22.0839,0,0.000885,0,0
0:1:19.070,390.554,22.0977,0,0.000885,0,0
0:1:19.170,391.666,22.1666,0,0.000885,0,0
0:1:19.270,392.604,22.2149,0,0.000885,0,0
0:1:19.365,392.604,22.2149,0,0.000885,0,0
0:1:19.464,393.312,22.2563,0,0.000885,0,0
0:1:19.564,394.366,22.3183,0,0.000885,0,0
0:1:19.664,394.366,22.3183,0,0.000885,0,0
0:1:19.764,395.362,22.3735,0,0.000885,0,0
0:1:19.861,395.772,22.3942,0,0.000885,0,0
0:1:19.958,396.772,22.4493,0,0.000885,0,0
0:1:20.058,396.772,22.4493,0,0.000885,0,0
0:1:20.158,397.942,22.5183,0,0.000885,0,0
0:1:20.259,398.587,22.5528,0,0.000885,0,0
0:1:20.357,399.232,22.5941,0,0.000885,0,0
0:1:20.452,399.232,22.5941,0,0.000885,0,0
0:1:20.552,400.585,22.67,0,0.000885,0,0
0:1:20.653,401.523,22.7182,0,0.000885,0,0
0:1:20.753,401.99,22.7458,0,0.000885,0,0
0:1:20.850,401.99,22.7458,0,0.000885,0,0
0:1:20.946,403.107,22.8079,0,0.000885,0,0
0:1:21.046,403.689,22.8423,0,0.000885,0,0
0:1:21.146,403.689,22.8423,0,0.000885,0,0
0:1:21.246,404.69,22.8975,0,0.000885,0,0
0:1:21.346,405.629,22.9526,0,0.000885,0,0
0:1:21.440,405.98,22.9733,0,0.000885,0,0
0:1:21.538,405.98,22.9733,0,0.000885,0,0
0:1:21.639,406.919,23.0285,0,0.000885,0,0
0:1:21.739,407.915,23.0836,0,0.000885,0,0
0:1:21.840,408.618,23.125,0,0.000885,0,0
0:1:21.940,408.618,23.125,0,0.000885,0,0
0:1:22.045,409.441,23.1664,0,0.000885,0,0
0:1:22.145,410.495,23.2284,0,0.000885,0,0
0:1:22.247,410.904,23.2491,0,0.000885,0,0
0:1:22.348,410.904,23.2491,0,0.000885,0,0
0:1:22.448,411.901,23.3112,0,0.000885,0,0
0:1:22.546,413.075,23.3732,0,0.000885,0,0
0:1:22.648,413.836,23.4215,0,0.000885,0,0
0:1:22.747,413.836,23.4215,0,0.000885,0,0
0:1:22.847,414.365,23.4491,0,0.000885,0,0
0:1:22.948,415.419,23.5111,0,0.000885,0,0
0:1:23.047,415.419,23.5111,0,0.000885,0,0
0:1:23.148,416.478,23.5663,0,0.000885,0,0
0:1:23.248,416.945,23.5939,0,0.000885,0,0
0:1:23.349,418.235,23.6697,0,0.000885,0,0
0:1:23.454,418.235,23.6697,0,0.000885,0,0
0:1:23.552,418.88,23.7042,0,0.000885,0,0
0:1:23.653,419.587,23.7455,0,0.000885,0,0
0:1:23.753,420.757,23.8076,0,0.000885,0,0
0:1:23.853,420.757,23.8076,0,0.000885,0,0
0:1:23.950,421.522,23.8559,0,0.000885,0,0
0:1:24.046,421.754,23.8696,0,0.000885,0,0
0:1:24.145,422.634,23.9179,0,0.000885,0,0
0:1:24.246,422.634,23.9179,0,0.000885,0,0
0:1:24.346,423.457,23.9662,0,0.000885,0,0
0:1:24.440,424.276,24.0075,0,0.000885,0,0
0:1:24.539,425.214,24.0627,0,0.000885,0,0
0:1:24.637,425.214,24.0627,0,0.000885,0,0
0:1:24.738,426.037,24.111,0,0.000885,0,0
0:1:24.839,426.504,24.1385,0,0.000885,0,0
0:1:24.937,426.504,24.1385,0,0.000885,0,0
0:1:25.042,427.327,24.1799,0,0.000885,0,0
0:1:25.140,428.795,24.2627,0,0.000885,0,0
0:1:25.240,429.027,24.2764,0,0.000885,0,0
0:1:25.341,429.027,24.2764,0,0.000885,0,0
0:1:25.440,430.143,24.3385,0,0.000885,0,0
0:1:25.537,431.375,24.4074,0,0.000885,0,0
0:1:25.635,431.962,24.4419,0,0.000885,0,0
0:1:25.734,431.962,24.4419,0,0.000885,0,0
0:1:25.835,433.074,24.504,0,0.000885,0,0
0:1:25.934,434.071,24.566,0,0.000885,0,0
0:1:26.041,435.187,24.6281,0,0.000885,0,0
0:1:26.149,435.187,24.6281,0,0.000885,0,0
0:1:26.249,435.717,24.6557,0,0.000885,0,0
0:1:26.350,436.713,24.7108,0,0.000885,0,0
0:1:26.450,437.767,24.7729,0,0.000885,0,0
0:1:26.545,437.767,24.7729,0,0.000885,0,0
0:1:26.642,438.119,24.7935,0,0.000885,0,0
0:1:26.741,438.942,24.8418,0,0.000885,0,0
0:1:26.843,439.996,24.897,0,0.000885,0,0
0:1:26.943,439.996,24.897,0,0.000885,0,0
0:1:27.042,440.405,24.9245,0,0.000885,0,0
0:1:27.145,441.112,24.959,0,0.000885,0,0
0:1:27.247,441.637,24.9935,0,0.000885,0,0
0:1:27.347,441.637,24.9935,0,0.000885,0,0
0:1:27.449,442.754,25.0555,0,0.000885,0,0
0:1:27.549,443.692,25.1107,0,0.000885,0,0
0:1:27.650,443.692,25.1107,0,0.000885,0,0
0:1:27.749,444.337,25.1452,0,0.000885,0,0
0:1:27.850,444.569,25.159,0,0.000885,0,0
0:1:27.950,446.094,25.2417,0,0.000885,0,0
0:1:28.050,446.094,25.2417,0,0.000885,0,0
0:1:28.150,446.797,25.2831,0,0.000885,0,0
0:1:28.251,447.678,25.3313,0,0.000885,0,0
0:1:28.352,448.794,25.3934,0,0.000885,0,0
0:1:28.451,448.794,25.3934,0,0.000885,0,0
0:1:28.549,449.733,25.4485,0,0.000885,0,0
0:1:28.646,450.32,25.483,0,0.000885,0,0
0:1:28.743,451.023,25.5244,0,0.000885,0,0
0:1:28.841,451.023,25.5244,0,0.000885,0,0
0:1:28.942,452.371,25.6002,0,0.000885,0,0
0:1:29.042,453.131,25.6416,0,0.000885,0,0
0:1:29.140,453.839,25.683,0,0.000885,0,0
0:1:29.237,453.839,25.683,0,0.000885,0,0
0:1:29.338,454.364,25.7105,0,0.000885,0,0
0:1:29.437,455.302,25.7657,0,0.000885,0,0
0:1:29.537,455.302,25.7657,0,0.000885,0,0
0:1:29.643,456.361,25.8278,0,0.000885,0,0
0:1:29.741,456.712,25.8416,0,0.000885,0,0
0:1:29.841,457.824,25.9105,0,0.000885,0,0
0:1:29.940,457.824,25.9105,0,0.000885,0,0
0:1:30.040,458.883,25.9657,0,0.000885,0,0
0:1:30.138,459.822,26.0208,0,0.000885,0,0
0:1:30.235,460.404,26.0553,0,0.000885,0,0
0:1:30.334,460.404,26.0553,0,0.000885,0,0
0:1:30.434,461.285,26.1036,0,0.000885,0,0
0:1:30.533,462.344,26.1656,0,0.000885,0,0
0:1:30.631,463.34,26.2208,0,0.000885,0,0
0:1:30.728,463.34,26.2208,0,0.000885,0,0
0:1:30.826,463.749,26.2414,0,0.000885,0,0
0:1:30.927,464.866,26.3035,0,0.000885,0,0
0:1:31.027,464.866,26.3035,0,0.000885,0,0
0:1:31.127,465.684,26.3518,0,0.000885,0,0
0:1:31.224,466.329,26.3862,0,0.000885,0,0
0:1:31.321,466.681,26.4069,0,0.000885,0,0
0:1:31.422,466.681,26.4069,0,0.000885,0,0
0:1:31.522,467.797,26.469,0,0.000885,0,0
0:1:31.621,468.972,26.5379,0,0.000885,0,0
0:1:31.719,469.381,26.5586,0,0.000885,0,0
0:1:31.816,469.381,26.5586,0,0.000885,0,0
0:1:31.916,470.199,26.6069,0,0.000885,0,0
0:1:32.016,471.2,26.662,0,0.000885,0,0
0:1:32.115,472.254,26.7241,0,0.000885,0,0
0:1:32.215,472.254,26.7241,0,0.000885,0,0
0:1:32.315,472.957,26.7654,0,0.000885,0,0
0:1:32.417,473.896,26.8137,0,0.000885,0,0
0:1:32.516,473.896,26.8137,0,0.000885,0,0
0:1:32.617,474.483,26.8482,0,0.000885,0,0
0:1:32.718,475.479,26.9033,0,0.000885,0,0
0:1:32.818,476.476,26.9654,0,0.000885,0,0
0:1:32.919,476.476,26.9654,0,0.000885,0,0
0:1:33.020,477.65,27.0274,0,0.000885,0,0
0:1:33.120,478.882,27.0964,0,0.000885,0,0
0:1:33.220,479.349,27.124,0,0.000885,0,0
0:1:33.320,479.349,27.124,0,0.000885,0,0
0:1:33.422,479.936,27.1584,0,0.000885,0,0
0:1:33.522,481.053,27.2205,0,0.000885,0,0
0:1:33.623,481.991,27.2757,0,0.000885,0,0
0:1:33.721,481.991,27.2757,0,0.000885,0,0
0:1:33.817,482.636,27.3101,0,0.000885,0,0
0:1:33.916,483.104,27.3377,0,0.000885,0,0
0:1:34.016,484.394,27.4136,0,0.000885,0,0
0:1:34.116,484.394,27.4136,0,0.000885,0,0
0:1:34.216,485.216,27.4549,0,0.000885,0,0
0:1:34.313,485.684,27.4825,0,0.000885,0,0
0:1:34.411,485.684,27.4825,0,0.000885,0,0
0:1:34.512,486.213,27.517,0,0.000885,0,0
0:1:34.611,487.094,27.5652,0,0.000885,0,0
0:1:34.710,487.796,27.6066,0,0.000885,0,0
0:1:34.807,487.796,27.6066,0,0.000885,0,0
0:1:34.905,488.793,27.6618,0,0.000885,0,0
0:1:35.004,489.496,27.7031,0,0.000885,0,0
0:1:35.105,490.554,27.7583,0,0.000885,0,0
0:1:35.203,490.554,27.7583,0,0.000885,0,0
0:1:35.301,491.373,27.8066,0,0.000885,0,0
0:1:35.399,491.902,27.8341,0,0.000885,0,0
0:1:35.499,492.369,27.8617,0,0.000885,0,0
0:1:35.599,492.369,27.8617,0,0.000885,0,0
0:1:35.699,493.659,27.9376,0,0.000885,0,0
0:1:35.796,494.482,27.9789,0,0.000885,0,0
0:1:35.893,494.482,27.9789,0,0.000885,0,0
0:1:35.992,495.599,28.0479,0,0.000885,0,0
0:1:36.093,496.768,28.1099,0,0.000885,0,0
0:1:36.193,497.471,28.1513,0,0.000885,0,0
0:1:36.292,497.471,28.1513,0,0.000885,0,0
0:1:36.389,497.827,28.172,0,0.000885,0,0
0:1:36.486,498.472,28.2065,0,0.000885,0,0
0:1:36.589,499.762,28.2823,0,0.000885,0,0
0:1:36.687,499.762,28.2823,0,0.000885,0,0
0:1:36.789,500.114,28.303,0,0.000885,0,0
0:1:36.890,501.168,28.3581,0,0.000885,0,0
0:1:36.992,502.049,28.4133,0,0.000885,0,0
0:1:37.092,502.049,28.4133,0,0.000885,0,0
0:1:37.193,502.694,28.4478,0,0.000885,0,0
0:1:37.294,503.574,28.496,0,0.000885,0,0
0:1:37.394,504.571,28.5512,0,0.000885,0,0
0:1:37.495,504.571,28.5512,0,0.000885,0,0
0:1:37.595,505.625,28.6132,0,0.000885,0,0
0:1:37.696,506.506,28.6615,0,0.000885,0,0
0:1:37.795,506.506,28.6615,0,0.000885,0,0
0:1:37.896,507.266,28.7029,0,0.000885,0,0
0:1:37.996,508.031,28.7511,0,0.000885,0,0
0:1:38.095,508.97,28.7994,0,0.000885,0,0
0:1:38.196,508.97,28.7994,0,0.000885,0,0
0:1:38.294,509.321,28.8201,0,0.000885,0,0
0:1:38.391,509.966,28.8615,0,0.000885,0,0
0:1:38.489,510.789,28.9028,0,0.000885,0,0
0:1:38.587,510.789,28.9028,0,0.000885,0,0
0:1:38.689,511.372,28.9373,0,0.000885,0,0
0:1:38.790,512.373,28.9925,0,0.000885,0,0
0:1:38.885,513.543,29.0614,0,0.000885,0,0
0:1:38.982,513.543,29.0614,0,0.000885,0,0
0:1:39.082,514.481,29.1166,0,0.000885,0,0
0:1:39.183,515.713,29.1855,0,0.000885,0,0
0:1:39.282,515.713,29.1855,0,0.000885,0,0
0:1:39.379,516.594,29.2338,0,0.000885,0,0
0:1:39.478,517.826,29.3027,0,0.000885,0,0
0:1:39.576,518.414,29.3372,0,0.000885,0,0
0:1:39.677,518.414,29.3372,0,0.000885,0,0
0:1:39.777,519.232,29.3855,0,0.000885,0,0
0:1:39.875,520.228,29.4406,0,0.000885,0,0
0:1:39.971,521.051,29.4889,0,0.000885,0,0
0:1:40.069,521.051,29.4889,0,0.000885,0,0
0:1:40.170,521.87,29.5302,0,0.000885,0,0
0:1:40.270,522.751,29.5785,0,0.000885,0,0
0:1:40.369,522.871,29.5854,0,0.000885,0,0
0:1:40.465,522.871,29.5854,0,0.000885,0,0
0:1:40.564,523.809,29.6406,0,0.000885,0,0
0:1:40.664,524.628,29.6888,0,0.000885,0,0
0:1:40.765,524.628,29.6888,0,0.000885,0,0
0:1:40.864,525.451,29.7371,0,0.000885,0,0
0:1:40.961,526.153,29.7716,0,0.000885,0,0
0:1:41.058,527.208,29.8336,0,0.000885,0,0
0:1:41.157,527.208,29.8336,0,0.000885,0,0
0:1:41.259,528.266,29.8957,0,0.000885,0,0
0:1:41.359,529.085,29.937,0,0.000885,0,0
0:1:41.456,530.023,29.9922,0,0.000885,0,0
0:1:41.553,530.023,29.9922,0,0.000885,0,0
0:1:41.653,530.846,30.0405,0,0.000885,0,0
0:1:41.754,532.021,30.1094,0,0.000885,0,0
0:1:41.854,532.021,30.1094,0,0.000885,0,0
0:1:41.955,532.897,30.1577,0,0.000885,0,0
0:1:42.056,533.662,30.199,0,0.000885,0,0
0:1:42.159,534.481,30.2473,0,0.000885,0,0
0:1:42.257,534.481,30.2473,0,0.000885,0,0
0:1:42.358,535.126,30.2818,0,0.000885,0,0
0:1:42.459,535.77,30.3162,0,0.000885,0,0
0:1:42.560,536.829,30.3783,0,0.000885,0,0
0:1:42.660,536.829,30.3783,0,0.000885,0,0
0:1:42.759,537.474,30.4128,0,0.000885,0,0
0:1:42.858,538.235,30.461,0,0.000885,0,0
0:1:42.959,539.116,30.5093,0,0.000885,0,0
0:1:43.059,539.116,30.5093,0,0.000885,0,0
0:1:43.159,539.703,30.5438,0,0.000885,0,0
0:1:43.260,540.699,30.5989,0,0.000885,0,0
0:1:43.360,541.522,30.6472,0,0.000885,0,0
0:1:43.459,541.522,30.6472,0,0.000885,0,0
0:1:43.555,542.341,30.6886,0,0.000885,0,0
0:1:43.653,543.337,30.7437,0,0.000885,0,0
0:1:43.753,544.569,30.8196,0,0.000885,0,0
0:1:43.854,544.569,30.8196,0,0.000885,0,0
0:1:43.955,545.214,30.854,0,0.000885,0,0
0:1:44.051,545.623,30.8747,0,0.000885,0,0
0:1:44.148,545.623,30.8747,0,0.000885,0,0
0:1:44.248,546.037,30.9023,0,0.000885,0,0
0:1:44.349,546.682,30.9368,0,0.000885,0,0
0:1:44.449,547.794,30.9988,0,0.000885,0,0
0:1:44.543,547.794,30.9988,0,0.000885,0,0
0:1:44.652,548.559,31.0402,0,0.000885,0,0
0:1:44.751,549.32,31.0885,0,0.000885,0,0
0:1:44.851,550.143,31.1298,0,0.000885,0,0
0:1:44.951,550.143,31.1298,0,0.000885,0,0
0:1:45.050,550.788,31.1712,0,0.000885,0,0
0:1:45.147,551.726,31.2195,0,0.000885,0,0
0:1:45.243,552.193,31.247,0,0.000885,0,0
0:1:45.344,552.193,31.247,0,0.000885,0,0
0:1:45.443,553.252,31.3091,0,0.000885,0,0
0:1:45.541,554.248,31.3643,0,0.000885,0,0
0:1:45.638,554.248,31.3643,0,0.000885,0,0
0:1:45.737,555.009,31.4056,0,0.000885,0,0
0:1:45.839,556.126,31.4677,0,0.000885,0,0
0:1:45.939,557.002,31.5228,0,0.000885,0,0
0:1:46.036,557.002,31.5228,0,0.000885,0,0
0:1:46.142,557.647,31.5573,0,0.000885,0,0
0:1:46.242,558.706,31.6194,0,0.000885,0,0
0:1:46.342,559.466,31.6607,0,0.000885,0,0
0:1:46.443,559.466,31.6607,0,0.000885,0,0
0:1:46.541,560.231,31.7021,0,0.000885,0,0
0:1:46.637,560.876,31.7366,0,0.000885,0,0
0:1:46.735,561.815,31.7917,0,0.000885,0,0
0:1:46.836,561.815,31.7917,0,0.000885,0,0
0:1:46.936,562.691,31.84,0,0.000885,0,0
0:1:47.036,563.22,31.8745,0,0.000885,0,0
0:1:47.138,564.217,31.9296,0,0.000885,0,0
0:1:47.240,564.217,31.9296,0,0.000885,0,0
0:1:47.340,564.804,31.9641,0,0.000885,0,0
0:1:47.442,565.978,32.0261,0,0.000885,0,0
0:1:47.542,566.503,32.0606,0,0.000885,0,0
0:1:47.643,566.503,32.0606,0,0.000885,0,0
0:1:47.742,567.211,32.0951,0,0.000885,0,0
0:1:47.843,568.087,32.1503,0,0.000885,0,0
0:1:47.943,568.087,32.1503,0,0.000885,0,0
0:1:48.044,568.968,32.1985,0,0.000885,0,0
0:1:48.143,570.142,32.2606,0,0.000885,0,0
0:1:48.244,570.551,32.2881,0,0.000885,0,0
0:1:48.344,570.551,32.2881,0,0.000885,0,0
0:1:48.444,571.374,32.3364,0,0.000885,0,0
0:1:48.544,572.193,32.3778,0,0.000885,0,0
0:1:48.642,573.251,32.4398,0,0.000885,0,0
0:1:48.738,573.251,32.4398,0,0.000885,0,0
0:1:48.838,573.838,32.4743,0,0.000885,0,0
0:1:48.938,574.777,32.5226,0,0.000885,0,0
0:1:49.038,575.595,32.5708,0,0.000885,0,0
0:1:49.145,575.595,32.5708,0,0.000885,0,0
0:1:49.254,576.183,32.6053,0,0.000885,0,0
0:1:49.356,576.534,32.626,0,0.000885,0,0
0:1:49.456,577.708,32.6949,0,0.000885,0,0
0:1:49.554,577.708,32.6949,0,0.000885,0,0
0:1:49.652,578.589,32.7432,0,0.000885,0,0
0:1:49.748,579.292,32.7846,0,0.000885,0,0
0:1:49.849,580.288,32.8397,0,0.000885,0,0
0:1:49.949,580.288,32.8397,0,0.000885,0,0
0:1:50.049,581.111,32.8811,0,0.000885,0,0
0:1:50.145,581.814,32.9225,0,0.000885,0,0
0:1:50.241,581.814,32.9225,0,0.000885,0,0
0:1:50.341,582.633,32.9707,0,0.000885,0,0
0:1:50.443,583.455,33.019,0,0.000885,0,0
0:1:50.542,584.452,33.0742,0,0.000885,0,0
0:1:50.639,584.452,33.0742,0,0.000885,0,0
0:1:50.736,585.39,33.1293,0,0.000885,0,0
0:1:50.834,585.8,33.15,0,0.000885,0,0
0:1:50.936,586.623,33.1983,0,0.000885,0,0
0:1:51.035,586.623,33.1983,0,0.000885,0,0
0:1:51.142,587.268,33.2327,0,0.000885,0,0
0:1:51.240,587.855,33.2672,0,0.000885,0,0
0:1:51.340,588.851,33.3224,0,0.000885,0,0
0:1:51.441,588.851,33.3224,0,0.000885,0,0
0:1:51.541,589.38,33.3499,0,0.000885,0,0
0:1:51.650,589.79,33.3775,0,0.000885,0,0
0:1:51.755,590.435,33.412,0,0.000885,0,0
0:1:51.854,590.435,33.412,0,0.000885,0,0
0:1:51.956,591.08,33.4465,0,0.000885,0,0
0:1:52.056,591.431,33.4672,0,0.000885,0,0
0:1:52.157,592.37,33.5223,0,0.000885,0,0
0:1:52.256,592.37,33.5223,0,0.000885,0,0
0:1:52.359,592.721,33.543,0,0.000885,0,0
0:1:52.461,593.077,33.5637,0,0.000885,0,0
0:1:52.563,593.602,33.5913,0,0.000885,0,0
0:1:52.663,593.602,33.5913,0,0.000885,0,0
0:1:52.764,593.958,33.6119,0,0.000885,0,0
0:1:52.865,594.016,33.6119,0,0.000885,0,0
0:1:52.966,594.661,33.6533,0,0.000885,0,0
0:1:53.066,594.661,33.6533,0,0.000885,0,0
0:1:53.167,595.248,33.6809,0,0.000885,0,0
0:1:53.268,595.715,33.7085,0,0.000885,0,0
0:1:53.369,595.95,33.7223,0,0.000885,0,0
0:1:53.469,595.95,33.7223,0,0.000885,0,0
0:1:53.571,596.364,33.7498,0,0.000885,0,0
0:1:53.671,596.716,33.7705,0,0.000885,0,0
0:1:53.766,596.364,33.7498,0,0.000885,0,0
0:1:53.865,596.364,33.7498,0,0.000885,0,0
0:1:53.966,596.658,33.7636,0,0.000885,0,0
0:1:54.066,596.538,33.7567,0,0.000885,0,0
0:1:54.164,596.538,33.7567,0,0.000885,0,0
0:1:54.261,596.302,33.7429,0,0.000885,0,0
0:1:54.361,595.657,33.7085,0,0.000885,0,0
0:1:54.460,595.132,33.6809,0,0.000885,0,0
0:1:54.561,595.132,33.6809,0,0.000885,0,0
0:1:54.661,594.425,33.6395,0,0.000885,0,0
0:1:54.757,593.895,33.605,0,0.000885,0,0
0:1:54.855,593.602,33.5913,0,0.000885,0,0
0:1:54.956,593.602,33.5913,0,0.000885,0,0
0:1:55.056,593.193,33.5706,0,0.000885,0,0
0:1:55.155,592.841,33.5499,0,0.000885,0,0
0:1:55.251,592.841,33.5499,0,0.000885,0,0
0:1:55.350,592.663,33.5361,0,0.000885,0,0
0:1:55.452,591.783,33.4878,0,0.000885,0,0
0:1:55.551,591.373,33.4672,0,0.000885,0,0
0:1:55.651,591.373,33.4672,0,0.000885,0,0
0:1:55.749,590.728,33.4258,0,0.000885,0,0
0:1:55.843,590.67,33.4258,0,0.000885,0,0
0:1:55.943,590.141,33.3982,0,0.000885,0,0
0:1:56.043,590.141,33.3982,0,0.000885,0,0
0:1:56.142,589.438,33.3568,0,0.000885,0,0
0:1:56.250,589.318,33.3499,0,0.000885,0,0
0:1:56.345,589.145,33.3362,0,0.000885,0,0
0:1:56.444,589.145,33.3362,0,0.000885,0,0
0:1:56.544,588.735,33.3155,0,0.000885,0,0
0:1:56.644,587.735,33.2603,0,0.000885,0,0
0:1:56.744,587.21,33.2258,0,0.000885,0,0
0:1:56.844,587.21,33.2258,0,0.000885,0,0
0:1:56.946,586.445,33.1845,0,0.000885,0,0
0:1:57.045,585.626,33.1362,0,0.000885,0,0
0:1:57.146,585.626,33.1362,0,0.000885,0,0
0:1:57.245,584.745,33.0879,0,0.000885,0,0
0:1:57.346,583.455,33.019,0,0.000885,0,0
0:1:57.445,581.694,32.9156,0,0.000885,0,0
0:1:57.545,581.694,32.9156,0,0.000885,0,0
0:1:57.644,580.053,32.8259,0,0.000885,0,0
0:1:57.744,577.882,32.7018,0,0.000885,0,0
0:1:57.844,573.367,32.4467,0,0.000885,0,0
0:1:57.945,573.367,32.4467,0,0.000885,0,0
0:1:58.045,569.146,32.2054,0,0.000885,0,0
0:1:58.144,563.865,31.9089,0,0.000885,0,0
0:1:58.242,555.245,31.4194,0,0.000885,0,0
0:1:58.339,555.245,31.4194,0,0.000885,0,0
0:1:58.436,541.931,30.6679,0,0.000885,0,0
0:1:58.537,528.854,29.9301,0,0.000885,0,0
0:1:58.637,515.656,29.1786,0,0.000885,0,0
0:1:58.735,515.656,29.1786,0,0.000885,0,0
0:1:58.832,500.874,28.3443,0,0.000885,0,0
0:1:58.932,487.619,27.5928,0,0.000885,0,0
0:1:59.033,487.619,27.5928,0,0.000885,0,0
0:1:59.131,476.654,26.9723,0,0.000885,0,0
0:1:59.237,466.449,26.3931,0,0.000885,0,0
0:1:59.343,456.183,25.814,0,0.000885,0,0
0:1:59.442,456.183,25.814,0,0.000885,0,0
0:1:59.543,446.917,25.29,0,0.000885,0,0
0:1:59.642,437.122,24.7384,0,0.000885,0,0
0:1:59.741,427.212,24.173,0,0.000885,0,0
0:1:59.846,427.212,24.173,0,0.000885,0,0