File: DataFile2021-07-17_054218.csv
Test ID:,Date Tested:,Time:,Test Type:,Diameter Avg. (mm):,Cyl. Corr. Factor:,Height (mm):,Age (days):,Weight (kN):,Break Type:,Ramp Rate (MPa/s):,Load at Break (kN):,Stress at Break (MPa):
12,7/17/2021,05:42,Cylinder,100,1,200,0,3.6,3,0.25,727.85,92.67
Sample Time,Load (kN),Stress (MPa),Long. Strain,Trans. Strain,Chan1 Deflection (mm),Chan2 Deflection (mm)
0:0:8.900,5.80493,0.737739,0,0.000885,0,0
0:0:9.295,7.86001,0.99974,0,0.000885,0,0
0:0:9.694,8.03349,1.02042,0,0.000885,0,0
0:0:10.092,7.80218,0.992845,0,0.000885,0,0
0:0:10.489,7.91783,1.00663,0,0.000885,0,0
0:0:10.884,8.21142,1.048,0,0.000885,0,0
0:0:11.281,9.38575,1.19279,0,0.000885,0,0
0:0:11.680,9.44357,1.19969,0,0.000885,0,0
0:0:12.080,11.085,1.41343,0,0.000885,0,0
0:0:12.476,11.73,1.49616,0,0.000885,0,0
0:0:12.870,12.375,1.5789,0,0.000885,0,0
0:0:13.268,13.3135,1.69611,0,0.000885,0,0
0:0:13.668,14.3678,1.82711,0,0.000885,0,0
0:0:14.065,15.075,1.91674,0,0.000885,0,0
0:0:14.470,15.8357,2.01327,0,0.000885,0,0
0:0:14.876,16.7164,2.13048,0,0.000885,0,0
0:0:15.279,17.2413,2.19253,0,0.000885,0,0
0:0:15.682,17.9486,2.28216,0,0.000885,0,0
0:0:16.080,18.767,2.39248,0,0.000885,0,0
0:0:16.476,19.6478,2.5028,0,0.000885,0,0
0:0:16.873,20.7643,2.64069,0,0.000885,0,0
0:0:17.275,21.6406,2.7579,0,0.000885,0,0
0:0:17.673,22.4635,2.86132,0,0.000885,0,0
0:0:18.069,23.5756,2.99922,0,0.000885,0,0
0:0:18.466,23.8692,3.04059,0,0.000885,0,0
0:0:18.866,25.1591,3.20606,0,0.000885,0,0
0:0:19.267,26.3335,3.35085,0,0.000885,0,0
0:0:19.674,27.0363,3.44048,0,0.000885,0,0
0:0:20.079,27.6813,3.52322,0,0.000885,0,0
0:0:20.481,28.4464,3.61975,0,0.000885,0,0
0:0:20.885,28.9713,3.6887,0,0.000885,0,0
0:0:21.281,29.3271,3.73696,0,0.000885,0,0
0:0:21.678,29.9721,3.8128,0,0.000885,0,0
0:0:22.074,30.6171,3.89554,0,0.000885,0,0
0:0:22.476,31.0263,3.9507,0,0.000885,0,0
0:0:22.875,31.9071,4.06101,0,0.000885,0,0
0:0:23.269,33.0191,4.2058,0,0.000885,0,0
0:0:23.667,33.8999,4.31612,0,0.000885,0,0
0:0:24.066,35.0164,4.46091,0,0.000885,0,0
0:0:24.467,35.8927,4.57122,0,0.000885,0,0
0:0:24.876,36.8891,4.69533,0,0.000885,0,0
0:0:25.280,37.5964,4.78496,0,0.000885,0,0
0:0:25.682,38.2992,4.87459,0,0.000885,0,0
0:0:26.085,38.8864,4.95044,0,0.000885,0,0
0:0:26.482,39.8249,5.06765,0,0.000885,0,0
0:0:26.880,40.5277,5.15728,0,0.000885,0,0
0:0:27.275,41.1149,5.23312,0,0.000885,0,0
0:0:27.673,41.9957,5.34344,0,0.000885,0,0
0:0:28.077,43.1655,5.49512,0,0.000885,0,0
0:0:28.475,43.7527,5.57096,0,0.000885,0,0
0:0:28.870,43.9306,5.59165,0,0.000885,0,0
0:0:29.276,45.1628,5.75023,0,0.000885,0,0
0:0:29.681,45.6299,5.81228,0,0.000885,0,0
0:0:30.086,46.7464,5.95018,0,0.000885,0,0
0:0:30.489,47.5648,6.0536,0,0.000885,0,0
0:0:30.886,48.797,6.21218,0,0.000885,0,0
0:0:31.285,49.5576,6.3087,0,0.000885,0,0
0:0:31.685,49.7934,6.34318,0,0.000885,0,0
0:0:32.081,50.2649,6.39833,0,0.000885,0,0
0:0:32.479,51.4971,6.55691,0,0.000885,0,0
0:0:32.875,52.1421,6.63965,0,0.000885,0,0
0:0:33.277,53.3119,6.79134,0,0.000885,0,0
0:0:33.676,53.7834,6.84649,0,0.000885,0,0
0:0:34.072,54.3083,6.91544,0,0.000885,0,0
0:0:34.477,55.0156,7.00507,0,0.000885,0,0
0:0:34.883,56.0698,7.13607,0,0.000885,0,0
0:0:35.286,56.8928,7.24639,0,0.000885,0,0
0:0:35.690,57.6534,7.34292,0,0.000885,0,0
0:0:36.086,58.9434,7.50839,0,0.000885,0,0
0:0:36.483,59.0012,7.51529,0,0.000885,0,0
0:0:36.885,59.882,7.6256,0,0.000885,0,0
0:0:37.284,60.5848,7.71523,0,0.000885,0,0
0:0:37.682,61.6435,7.84623,0,0.000885,0,0
0:0:38.077,62.6977,7.98413,0,0.000885,0,0
0:0:38.477,63.5206,8.08755,0,0.000885,0,0
0:0:38.878,64.2234,8.17718,0,0.000885,0,0
0:0:39.275,64.9262,8.26681,0,0.000885,0,0
0:0:39.680,65.6291,8.35645,0,0.000885,0,0
0:0:40.087,66.3942,8.45297,0,0.000885,0,0
0:0:40.490,67.3906,8.57708,0,0.000885,0,0
0:0:40.895,68.0355,8.65982,0,0.000885,0,0
0:0:41.290,68.4448,8.71497,0,0.000885,0,0
0:0:41.688,69.3255,8.82529,0,0.000885,0,0
0:0:42.086,69.7926,8.88734,0,0.000885,0,0
0:0:42.486,70.6733,8.99766,0,0.000885,0,0
0:0:42.886,71.6119,9.11487,0,0.000885,0,0
0:0:43.281,72.7284,9.25966,0,0.000885,0,0
0:0:43.678,73.7827,9.39755,0,0.000885,0,0
0:0:44.078,73.9561,9.41824,0,0.000885,0,0
0:0:44.478,74.8369,9.52855,0,0.000885,0,0
0:0:44.884,75.7755,9.64577,0,0.000885,0,0
0:0:45.289,76.5405,9.74229,0,0.000885,0,0
0:0:45.692,77.4168,9.8595,0,0.000885,0,0
0:0:46.096,78.004,9.93535,0,0.000885,0,0
0:0:46.493,78.5334,9.9974,0,0.000885,0,0
0:0:46.889,79.7077,10.1491,0,0.000885,0,0
0:0:47.286,80.3527,10.2318,0,0.000885,0,0
0:0:47.687,81.4069,10.3628,0,0.000885,0,0
0:0:48.086,81.9941,10.4387,0,0.000885,0,0
0:0:48.483,83.1684,10.5903,0,0.000885,0,0
0:0:48.879,83.8134,10.6731,0,0.000885,0,0
0:0:49.282,84.574,10.7696,0,0.000885,0,0
0:0:49.689,85.1612,10.8455,0,0.000885,0,0
0:0:50.094,86.2154,10.9765,0,0.000885,0,0
0:0:50.497,86.9805,11.073,0,0.000885,0,0
0:0:50.895,87.6833,11.1626,0,0.000885,0,0
0:0:51.296,88.444,11.2591,0,0.000885,0,0
0:0:51.696,88.9155,11.3212,0,0.000885,0,0
0:0:52.091,89.5027,11.397,0,0.000885,0,0
0:0:52.486,90.0854,11.4729,0,0.000885,0,0
0:0:52.885,91.7312,11.6797,0,0.000885,0,0
0:0:53.286,92.1405,11.7349,0,0.000885,0,0
0:0:53.686,92.9589,11.8383,0,0.000885,0,0
0:0:54.083,93.6662,11.9279,0,0.000885,0,0
0:0:54.488,94.369,12.0176,0,0.000885,0,0
0:0:54.894,95.5434,12.1624,0,0.000885,0,0
0:0:55.298,96.4819,12.2865,0,0.000885,0,0
0:0:55.701,96.8333,12.3278,0,0.000885,0,0
0:0:56.098,97.1269,12.3692,0,0.000885,0,0
0:0:56.495,98.5326,12.5485,0,0.000885,0,0
0:0:56.896,99.8225,12.707,0,0.000885,0,0
0:0:57.295,100.468,12.7898,0,0.000885,0,0
0:0:57.691,101.055,12.8656,0,0.000885,0,0
0:0:58.089,101.878,12.969,0,0.000885,0,0
0:0:58.486,102.638,13.0656,0,0.000885,0,0
0:0:58.889,103.461,13.1759,0,0.000885,0,0
0:0:59.287,103.813,13.2172,0,0.000885,0,0
0:0:59.693,104.631,13.3207,0,0.000885,0,0
0:1:0.099,105.805,13.4724,0,0.000885,0,0
0:1:0.503,106.628,13.5758,0,0.000885,0,0
0:1:0.907,107.505,13.6861,0,0.000885,0,0
0:1:1.306,108.212,13.7757,0,0.000885,0,0
0:1:1.702,108.737,13.8447,0,0.000885,0,0
0:1:2.099,109.382,13.9274,0,0.000885,0,0
0:1:2.497,109.795,13.9826,0,0.000885,0,0
0:1:2.897,110.672,14.0929,0,0.000885,0,0
0:1:3.296,112.024,14.2653,0,0.000885,0,0
0:1:3.691,113.314,14.4307,0,0.000885,0,0
0:1:4.090,113.487,14.4514,0,0.000885,0,0
0:1:4.492,114.132,14.5341,0,0.000885,0,0
0:1:4.899,114.777,14.6169,0,0.000885,0,0
0:1:5.304,116.01,14.7686,0,0.000885,0,0
0:1:5.708,116.481,14.8306,0,0.000885,0,0
0:1:6.115,117.651,14.9823,0,0.000885,0,0
0:1:6.516,118.59,15.0995,0,0.000885,0,0
0:1:6.925,119.355,15.196,0,0.000885,0,0
0:1:7.321,119.88,15.265,0,0.000885,0,0
0:1:7.718,120.173,15.2995,0,0.000885,0,0
0:1:8.124,121.054,15.4098,0,0.000885,0,0
0:1:8.526,121.877,15.5201,0,0.000885,0,0
0:1:8.925,122.637,15.6166,0,0.000885,0,0
0:1:9.343,123.754,15.7545,0,0.000885,0,0
0:1:9.748,124.515,15.851,0,0.000885,0,0
0:1:10.153,125.28,15.9476,0,0.000885,0,0
0:1:10.556,126.276,16.0786,0,0.000885,0,0
0:1:10.961,127.037,16.1751,0,0.000885,0,0
0:1:11.359,128.091,16.3061,0,0.000885,0,0
0:1:11.755,128.563,16.3682,0,0.000885,0,0
0:1:12.155,129.381,16.4716,0,0.000885,0,0
0:1:12.555,129.852,16.5336,0,0.000885,0,0
0:1:12.955,130.262,16.5888,0,0.000885,0,0
0:1:13.351,131.258,16.7129,0,0.000885,0,0
0:1:13.748,132.317,16.8439,0,0.000885,0,0
0:1:14.147,133.429,16.9887,0,0.000885,0,0
0:1:14.547,133.429,16.9887,0,0.000885,0,0
0:1:14.953,134.719,17.1542,0,0.000885,0,0
0:1:15.358,135.364,17.2369,0,0.000885,0,0
0:1:15.761,136.009,17.3196,0,0.000885,0,0
0:1:16.163,136.89,17.4299,0,0.000885,0,0
0:1:16.563,138.064,17.5816,0,0.000885,0,0
0:1:16.961,138.767,17.6713,0,0.000885,0,0
0:1:17.357,140.057,17.8298,0,0.000885,0,0
0:1:17.752,140.35,17.8712,0,0.000885,0,0
0:1:18.153,141.111,17.9677,0,0.000885,0,0
0:1:18.551,141.405,18.0022,0,0.000885,0,0
0:1:18.947,142.579,18.1539,0,0.000885,0,0
0:1:19.345,143.869,18.3194,0,0.000885,0,0
0:1:19.750,143.989,18.3332,0,0.000885,0,0
0:1:20.156,144.75,18.4297,0,0.000885,0,0
0:1:20.560,145.573,18.5331,0,0.000885,0,0
0:1:20.964,146.685,18.6779,0,0.000885,0,0
0:1:21.361,147.623,18.7951,0,0.000885,0,0
0:1:21.761,148.268,18.8778,0,0.000885,0,0
0:1:22.161,148.797,18.9468,0,0.000885,0,0
0:1:22.558,149.967,19.0916,0,0.000885,0,0
0:1:22.953,150.555,19.1674,0,0.000885,0,0
0:1:23.353,151.262,19.2571,0,0.000885,0,0
0:1:23.753,151.965,19.3467,0,0.000885,0,0
0:1:24.151,152.961,19.4777,0,0.000885,0,0
0:1:24.557,153.606,19.5604,0,0.000885,0,0
0:1:24.962,154.367,19.657,0,0.000885,0,0
0:1:25.366,155.599,19.8086,0,0.000885,0,0
0:1:25.770,155.95,19.8569,0,0.000885,0,0
0:1:26.167,156.422,19.919,0,0.000885,0,0
0:1:26.565,157.712,20.0775,0,0.000885,0,0
0:1:26.963,157.947,20.112,0,0.000885,0,0
0:1:27.363,159.295,20.2844,0,0.000885,0,0
0:1:27.762,160.056,20.3809,0,0.000885,0,0
0:1:28.156,160.585,20.443,0,0.000885,0,0
0:1:28.554,161.639,20.5809,0,0.000885,0,0
0:1:28.955,162.578,20.6981,0,0.000885,0,0
0:1:29.353,162.872,20.7394,0,0.000885,0,0
0:1:29.759,163.752,20.8497,0,0.000885,0,0
0:1:30.162,164.575,20.9532,0,0.000885,0,0
0:1:30.565,165.1,21.0221,0,0.000885,0,0
0:1:30.969,165.923,21.1255,0,0.000885,0,0
0:1:31.367,166.977,21.2634,0,0.000885,0,0
0:1:31.761,168.032,21.3944,0,0.000885,0,0
0:1:32.159,168.797,21.491,0,0.000885,0,0
0:1:32.559,169.148,21.5392,0,0.000885,0,0
0:1:32.958,170.438,21.6978,0,0.000885,0,0
0:1:33.356,170.789,21.7461,0,0.000885,0,0
0:1:33.753,171.199,21.8012,0,0.000885,0,0
0:1:34.151,172.373,21.946,0,0.000885,0,0
0:1:34.553,173.547,22.0977,0,0.000885,0,0
0:1:34.959,174.014,22.1597,0,0.000885,0,0
0:1:35.363,174.659,22.2356,0,0.000885,0,0
0:1:35.767,175.66,22.3666,0,0.000885,0,0
0:1:36.169,176.305,22.4493,0,0.000885,0,0
0:1:36.568,177.124,22.5528,0,0.000885,0,0
0:1:36.965,177.947,22.6562,0,0.000885,0,0
0:1:37.361,178.414,22.7182,0,0.000885,0,0
0:1:37.759,179.646,22.8699,0,0.000885,0,0
0:1:38.161,180.349,22.9595,0,0.000885,0,0
0:1:38.559,180.82,23.0216,0,0.000885,0,0
0:1:38.955,181.932,23.1664,0,0.000885,0,0
0:1:39.360,182.577,23.2491,0,0.000885,0,0
0:1:39.766,183.694,23.387,0,0.000885,0,0
0:1:40.169,184.161,23.4491,0,0.000885,0,0
0:1:40.573,185.219,23.5801,0,0.000885,0,0
0:1:40.969,186.274,23.718,0,0.000885,0,0
0:1:41.368,187.154,23.8283,0,0.000885,0,0
0:1:41.768,187.212,23.8352,0,0.000885,0,0
0:1:42.165,187.915,23.9248,0,0.000885,0,0
0:1:42.563,188.912,24.0558,0,0.000885,0,0
0:1:42.959,190.144,24.2075,0,0.000885,0,0
0:1:43.358,190.379,24.242,0,0.000885,0,0
0:1:43.758,191.202,24.3454,0,0.000885,0,0
0:1:44.154,191.785,24.4212,0,0.000885,0,0
0:1:44.558,192.43,24.504,0,0.000885,0,0
0:1:44.961,193.547,24.6419,0,0.000885,0,0
0:1:45.360,194.543,24.7729,0,0.000885,0,0
0:1:45.761,194.894,24.8142,0,0.000885,0,0
0:1:46.155,195.953,24.9521,0,0.000885,0,0
0:1:46.548,196.772,25.0555,0,0.000885,0,0
0:1:46.947,197.71,25.1728,0,0.000885,0,0
0:1:47.344,198.182,25.2348,0,0.000885,0,0
0:1:47.734,199.236,25.3658,0,0.000885,0,0
0:1:48.139,199.765,25.4348,0,0.000885,0,0
0:1:48.533,200.935,25.5864,0,0.000885,0,0
0:1:48.944,201.994,25.7174,0,0.000885,0,0
0:1:49.337,202.754,25.814,0,0.000885,0,0
0:1:49.741,203.048,25.8553,0,0.000885,0,0
0:1:50.143,203.751,25.945,0,0.000885,0,0
0:1:50.542,204.396,26.0277,0,0.000885,0,0
0:1:50.941,206.157,26.2483,0,0.000885,0,0
0:1:51.335,206.273,26.2621,0,0.000885,0,0
0:1:51.739,207.154,26.3724,0,0.000885,0,0
0:1:52.145,207.505,26.4207,0,0.000885,0,0
0:1:52.541,208.092,26.4966,0,0.000885,0,0
0:1:52.944,209.618,26.6896,0,0.000885,0,0
0:1:53.335,209.969,26.731,0,0.000885,0,0
0:1:53.741,210.557,26.8068,0,0.000885,0,0
0:1:54.139,211.669,26.9516,0,0.000885,0,0
0:1:54.533,212.198,27.0206,0,0.000885,0,0
0:1:54.939,212.901,27.1102,0,0.000885,0,0
0:1:55.340,213.666,27.2067,0,0.000885,0,0
0:1:55.740,214.72,27.3377,0,0.000885,0,0
0:1:56.139,215.952,27.4963,0,0.000885,0,0
0:1:56.535,217.006,27.6273,0,0.000885,0,0
0:1:56.928,217.242,27.6618,0,0.000885,0,0
0:1:57.343,218.239,27.7859,0,0.000885,0,0
0:1:57.738,219.293,27.9238,0,0.000885,0,0
0:1:58.133,219.822,27.9858,0,0.000885,0,0
0:1:58.529,220.409,28.0617,0,0.000885,0,0
0:1:58.922,220.819,28.1168,0,0.000885,0,0
0:1:59.325,222.166,28.2892,0,0.000885,0,0
0:1:59.727,222.989,28.3926,0,0.000885,0,0
0:2:0.126,223.399,28.4409,0,0.000885,0,0
0:2:0.528,224.164,28.5443,0,0.000885,0,0
0:2:0.923,224.573,28.5926,0,0.000885,0,0
0:2:1.317,225.276,28.6822,0,0.000885,0,0
0:2:1.715,226.508,28.8408,0,0.000885,0,0
0:2:2.109,227.211,28.9304,0,0.000885,0,0
0:2:2.500,227.682,28.9925,0,0.000885,0,0
0:2:2.897,228.736,29.1235,0,0.000885,0,0
0:2:3.293,229.675,29.2407,0,0.000885,0,0
0:2:3.688,230.378,29.3303,0,0.000885,0,0
0:2:4.081,231.201,29.4406,0,0.000885,0,0
0:2:4.483,232.255,29.5716,0,0.000885,0,0
0:2:4.887,233.078,29.675,0,0.000885,0,0
0:2:5.287,233.839,29.7716,0,0.000885,0,0
0:2:5.689,234.897,29.9095,0,0.000885,0,0
0:2:6.083,235.364,29.9646,0,0.000885,0,0
0:2:6.478,236.067,30.0542,0,0.000885,0,0
0:2:6.877,236.89,30.1646,0,0.000885,0,0
0:2:7.271,237.593,30.2542,0,0.000885,0,0
0:2:7.665,237.709,30.268,0,0.000885,0,0
0:2:8.058,239.061,30.4404,0,0.000885,0,0
0:2:8.454,239.706,30.5231,0,0.000885,0,0
0:2:8.851,240.231,30.5851,0,0.000885,0,0
0:2:9.246,241.347,30.7299,0,0.000885,0,0
0:2:9.649,242.579,30.8885,0,0.000885,0,0
0:2:10.051,243.104,30.9506,0,0.000885,0,0
0:2:10.450,243.811,31.0402,0,0.000885,0,0
0:2:10.852,244.336,31.1091,0,0.000885,0,0
0:2:11.246,245.101,31.2057,0,0.000885,0,0
0:2:11.636,245.217,31.2195,0,0.000885,0,0
0:2:12.043,246.685,31.4056,0,0.000885,0,0
0:2:12.442,247.739,31.5435,0,0.000885,0,0
0:2:12.845,248.736,31.6676,0,0.000885,0,0
0:2:13.236,248.971,31.7021,0,0.000885,0,0
0:2:13.632,249.674,31.7917,0,0.000885,0,0
0:2:14.036,250.204,31.8538,0,0.000885,0,0
0:2:14.433,251.551,32.0261,0,0.000885,0,0
0:2:14.836,252.374,32.1365,0,0.000885,0,0
0:2:15.241,253.371,32.2606,0,0.000885,0,0
0:2:15.640,254.251,32.3709,0,0.000885,0,0
0:2:16.040,254.776,32.4398,0,0.000885,0,0
0:2:16.445,255.484,32.5295,0,0.000885,0,0
0:2:16.846,256.48,32.6536,0,0.000885,0,0
0:2:17.241,257.125,32.7363,0,0.000885,0,0
0:2:17.636,257.419,32.7777,0,0.000885,0,0
0:2:18.043,258.824,32.9569,0,0.000885,0,0
0:2:18.433,259.411,33.0259,0,0.000885,0,0
0:2:18.828,260.644,33.1845,0,0.000885,0,0
0:2:19.229,261.404,33.281,0,0.000885,0,0
0:2:19.631,261.289,33.2672,0,0.000885,0,0
0:2:20.032,262.107,33.3706,0,0.000885,0,0
0:2:20.431,263.224,33.5154,0,0.000885,0,0
0:2:20.827,264.162,33.6326,0,0.000885,0,0
0:2:21.233,265.043,33.7429,0,0.000885,0,0
0:2:21.641,266.039,33.8739,0,0.000885,0,0
0:2:22.046,265.919,33.8602,0,0.000885,0,0
0:2:22.436,266.569,33.9429,0,0.000885,0,0
0:2:22.834,267.681,34.0808,0,0.000885,0,0
0:2:23.231,268.504,34.1842,0,0.000885,0,0
0:2:23.626,269.38,34.3014,0,0.000885,0,0
0:2:24.020,270.381,34.4255,0,0.000885,0,0
0:2:24.422,271.084,34.5152,0,0.000885,0,0
0:2:24.825,271.844,34.6117,0,0.000885,0,0
0:2:25.226,273.254,34.7909,0,0.000885,0,0
0:2:25.626,273.779,34.8599,0,0.000885,0,0
0:2:26.030,274.544,34.9564,0,0.000885,0,0
0:2:26.425,275.247,35.0461,0,0.000885,0,0
0:2:26.821,275.892,35.1288,0,0.000885,0,0
0:2:27.226,276.243,35.1702,0,0.000885,0,0
0:2:27.628,277.24,35.3012,0,0.000885,0,0
0:2:28.022,277.943,35.3908,0,0.000885,0,0
0:2:28.420,278.588,35.4735,0,0.000885,0,0
0:2:28.817,279.646,35.6045,0,0.000885,0,0
0:2:29.210,279.998,35.6528,0,0.000885,0,0
0:2:29.613,281.23,35.8045,0,0.000885,0,0
0:2:30.016,282.048,35.9148,0,0.000885,0,0
0:2:30.417,282.693,35.9906,0,0.000885,0,0
0:2:30.818,283.868,36.1423,0,0.000885,0,0
0:2:31.211,284.046,36.163,0,0.000885,0,0
0:2:31.606,285.042,36.294,0,0.000885,0,0
0:2:32.002,285.981,36.4112,0,0.000885,0,0
0:2:32.398,287.271,36.5767,0,0.000885,0,0
0:2:32.794,288.031,36.6732,0,0.000885,0,0
0:2:33.186,288.445,36.7284,0,0.000885,0,0
0:2:33.583,289.441,36.8525,0,0.000885,0,0
0:2:33.980,290.144,36.9421,0,0.000885,0,0
0:2:34.383,290.553,36.9973,0,0.000885,0,0
0:2:34.785,291.612,37.1283,0,0.000885,0,0
0:2:35.185,291.843,37.1558,0,0.000885,0,0
0:2:35.586,292.782,37.28,0,0.000885,0,0
0:2:35.981,293.547,37.3765,0,0.000885,0,0
0:2:36.373,294.659,37.5144,0,0.000885,0,0
0:2:36.769,295.011,37.5626,0,0.000885,0,0
0:2:37.165,296.069,37.6936,0,0.000885,0,0
0:2:37.561,296.363,37.735,0,0.000885,0,0
0:2:37.957,297.475,37.8729,0,0.000885,0,0
0:2:38.350,298.298,37.9832,0,0.000885,0,0
0:2:38.747,299.294,38.1073,0,0.000885,0,0
0:2:39.147,299.997,38.197,0,0.000885,0,0
0:2:39.549,300.584,38.2728,0,0.000885,0,0
0:2:39.950,301.758,38.4176,0,0.000885,0,0
0:2:40.351,302.11,38.4659,0,0.000885,0,0
0:2:40.749,303.106,38.59,0,0.000885,0,0
0:2:41.147,303.693,38.6658,0,0.000885,0,0
0:2:41.549,304.512,38.7692,0,0.000885,0,0
0:2:41.943,305.219,38.8589,0,0.000885,0,0
0:2:42.349,306.509,39.0243,0,0.000885,0,0
0:2:42.746,306.625,39.0381,0,0.000885,0,0
0:2:43.139,307.621,39.1691,0,0.000885,0,0
0:2:43.540,308.738,39.307,0,0.000885,0,0
0:2:43.936,309.441,39.3966,0,0.000885,0,0
0:2:44.336,310.143,39.4863,0,0.000885,0,0
0:2:44.743,310.908,39.5828,0,0.000885,0,0
0:2:45.143,311.905,39.7138,0,0.000885,0,0
0:2:45.540,312.492,39.7896,0,0.000885,0,0
0:2:45.938,313.488,39.9137,0,0.000885,0,0
0:2:46.335,314.543,40.0516,0,0.000885,0,0
0:2:46.739,315.072,40.1137,0,0.000885,0,0
0:2:47.131,316.184,40.2585,0,0.000885,0,0
0:2:47.529,316.713,40.3274,0,0.000885,0,0
0:2:47.926,317.301,40.3964,0,0.000885,0,0
0:2:48.320,317.474,40.424,0,0.000885,0,0
0:2:48.715,318.884,40.6032,0,0.000885,0,0
0:2:49.117,319.178,40.6377,0,0.000885,0,0
0:2:49.520,319.996,40.7411,0,0.000885,0,0
0:2:49.920,321.055,40.879,0,0.000885,0,0
0:2:50.321,321.931,40.9893,0,0.000885,0,0
0:2:50.733,322.928,41.1134,0,0.000885,0,0
0:2:51.138,323.693,41.2169,0,0.000885,0,0
0:2:51.536,324.453,41.3134,0,0.000885,0,0
0:2:51.931,324.925,41.3685,0,0.000885,0,0
0:2:52.333,325.863,41.4926,0,0.000885,0,0
0:2:52.729,326.86,41.6168,0,0.000885,0,0
0:2:53.126,327.269,41.6719,0,0.000885,0,0
0:2:53.521,328.034,41.7684,0,0.000885,0,0
0:2:53.916,328.853,41.8719,0,0.000885,0,0
0:2:54.320,330.027,42.0235,0,0.000885,0,0
0:2:54.722,330.965,42.1408,0,0.000885,0,0
0:2:55.121,331.553,42.2166,0,0.000885,0,0
0:2:55.522,331.962,42.2649,0,0.000885,0,0
0:2:55.915,332.491,42.3338,0,0.000885,0,0
0:2:56.309,333.368,42.4441,0,0.000885,0,0
0:2:56.706,334.19,42.5475,0,0.000885,0,0
0:2:57.104,335.365,42.6992,0,0.000885,0,0
0:2:57.496,335.658,42.7337,0,0.000885,0,0
0:2:57.890,336.068,42.7889,0,0.000885,0,0
0:2:58.287,337.18,42.9337,0,0.000885,0,0
0:2:58.683,337.887,43.0233,0,0.000885,0,0
0:2:59.077,338.825,43.1405,0,0.000885,0,0
0:2:59.481,339.644,43.2439,0,0.000885,0,0
0:2:59.884,340.231,43.3198,0,0.000885,0,0
0:3:0.284,340.76,43.3887,0,0.000885,0,0
0:3:0.684,341.93,43.5335,0,0.000885,0,0
0:3:1.077,343.456,43.7334,0,0.000885,0,0
0:3:1.472,344.221,43.83,0,0.000885,0,0
0:3:1.869,345.04,43.9334,0,0.000885,0,0
0:3:2.267,345.685,44.0161,0,0.000885,0,0
0:3:2.661,346.975,44.1816,0,0.000885,0,0
0:3:3.053,347.326,44.223,0,0.000885,0,0
0:3:3.450,347.504,44.2437,0,0.000885,0,0
0:3:3.849,348.443,44.3678,0,0.000885,0,0
0:3:4.252,349.439,44.4919,0,0.000885,0,0
0:3:4.654,350.671,44.6504,0,0.000885,0,0
0:3:5.054,351.316,44.7332,0,0.000885,0,0
0:3:5.451,352.139,44.8366,0,0.000885,0,0
0:3:5.847,352.606,44.8987,0,0.000885,0,0
0:3:6.239,353.251,44.9745,0,0.000885,0,0
0:3:6.653,354.31,45.1124,0,0.000885,0,0
0:3:7.050,355.07,45.2089,0,0.000885,0,0
0:3:7.448,355.773,45.2986,0,0.000885,0,0
0:3:7.850,356.303,45.3675,0,0.000885,0,0
0:3:8.242,357.357,45.4985,0,0.000885,0,0
0:3:8.637,357.886,45.5675,0,0.000885,0,0
0:3:9.036,358.825,45.6847,0,0.000885,0,0
0:3:9.440,359.763,45.8088,0,0.000885,0,0
0:3:9.841,360.35,45.8777,0,0.000885,0,0
0:3:10.239,361.347,46.0087,0,0.000885,0,0
0:3:10.637,362.401,46.1397,0,0.000885,0,0
0:3:11.046,362.752,46.188,0,0.000885,0,0
0:3:11.437,363.927,46.3397,0,0.000885,0,0
0:3:11.831,364.572,46.4155,0,0.000885,0,0
0:3:12.236,365.275,46.5051,0,0.000885,0,0
0:3:12.632,365.51,46.5396,0,0.000885,0,0
0:3:13.028,366.622,46.6775,0,0.000885,0,0
0:3:13.422,367.33,46.7671,0,0.000885,0,0
0:3:13.816,368.033,46.8568,0,0.000885,0,0
0:3:14.217,369.145,47.0016,0,0.000885,0,0
0:3:14.620,369.852,47.0912,0,0.000885,0,0
0:3:15.021,370.145,47.1257,0,0.000885,0,0
0:3:15.419,371.142,47.2567,0,0.000885,0,0
0:3:15.815,371.902,47.3532,0,0.000885,0,0
0:3:16.215,373.019,47.4911,0,0.000885,0,0
0:3:16.609,373.25,47.5256,0,0.000885,0,0
0:3:17.001,374.482,47.6841,0,0.000885,0,0
0:3:17.397,375.421,47.8014,0,0.000885,0,0
0:3:17.794,375.715,47.8358,0,0.000885,0,0
0:3:18.188,375.83,47.8496,0,0.000885,0,0
0:3:18.583,377.062,48.0082,0,0.000885,0,0
0:3:18.984,377.707,48.0909,0,0.000885,0,0
0:3:19.388,378.352,48.1737,0,0.000885,0,0
0:3:19.789,379.705,48.346,0,0.000885,0,0
0:3:20.190,380.407,48.4357,0,0.000885,0,0
0:3:20.583,380.995,48.5115,0,0.000885,0,0
0:3:20.980,381.697,48.6011,0,0.000885,0,0
0:3:21.378,382.752,48.7321,0,0.000885,0,0
0:3:21.782,383.575,48.8356,0,0.000885,0,0
0:3:22.174,384.277,48.9252,0,0.000885,0,0
0:3:22.569,385.274,49.0562,0,0.000885,0,0
0:3:22.967,386.039,49.1527,0,0.000885,0,0
0:3:23.363,387.209,49.3044,0,0.000885,0,0
0:3:23.756,388.032,49.4078,0,0.000885,0,0
0:3:24.161,388.677,49.4906,0,0.000885,0,0
0:3:24.562,389.322,49.5733,0,0.000885,0,0
0:3:24.963,390.202,49.6836,0,0.000885,0,0
0:3:25.362,390.438,49.7112,0,0.000885,0,0
0:3:25.756,391.199,49.8077,0,0.000885,0,0
0:3:26.150,392.253,49.9456,0,0.000885,0,0
0:3:26.548,393.312,50.0766,0,0.000885,0,0
0:3:26.954,393.837,50.1456,0,0.000885,0,0
0:3:27.348,394.953,50.2835,0,0.000885,0,0
0:3:27.752,395.772,50.3938,0,0.000885,0,0
0:3:28.148,396.185,50.442,0,0.000885,0,0
0:3:28.543,396.71,50.511,0,0.000885,0,0
0:3:28.950,398.12,50.6903,0,0.000885,0,0
0:3:29.353,398.881,50.7868,0,0.000885,0,0
0:3:29.754,399.526,50.8695,0,0.000885,0,0
0:3:30.156,400.585,51.0005,0,0.000885,0,0
0:3:30.558,401.287,51.0902,0,0.000885,0,0
0:3:30.953,402.048,51.1936,0,0.000885,0,0
0:3:31.343,403.222,51.3384,0,0.000885,0,0
0:3:31.750,403.044,51.3177,0,0.000885,0,0
0:3:32.148,403.867,51.4211,0,0.000885,0,0
0:3:32.553,405.393,51.6142,0,0.000885,0,0
0:3:32.943,405.567,51.6417,0,0.000885,0,0
0:3:33.338,406.212,51.7176,0,0.000885,0,0
0:3:33.733,406.857,51.8003,0,0.000885,0,0
0:3:34.140,407.502,51.883,0,0.000885,0,0
0:3:34.542,408.267,51.9796,0,0.000885,0,0
0:3:34.944,409.147,52.0968,0,0.000885,0,0
0:3:35.344,409.908,52.1933,0,0.000885,0,0
0:3:35.754,410.789,52.3036,0,0.000885,0,0
0:3:36.151,411.843,52.4346,0,0.000885,0,0
0:3:36.545,412.43,52.5105,0,0.000885,0,0
0:3:36.938,413.191,52.607,0,0.000885,0,0
0:3:37.332,414.307,52.7518,0,0.000885,0,0
0:3:37.729,414.952,52.8345,0,0.000885,0,0
0:3:38.124,415.891,52.9517,0,0.000885,0,0
0:3:38.519,416.536,53.0345,0,0.000885,0,0
0:3:38.911,417.71,53.1862,0,0.000885,0,0
0:3:39.313,418.471,53.2827,0,0.000885,0,0
0:3:39.715,419.409,53.3999,0,0.000885,0,0
0:3:40.117,419.645,53.4275,0,0.000885,0,0
0:3:40.516,420.935,53.5929,0,0.000885,0,0
0:3:40.913,421.287,53.6412,0,0.000885,0,0
0:3:41.309,422.399,53.7791,0,0.000885,0,0
0:3:41.706,422.634,53.8136,0,0.000885,0,0
0:3:42.098,423.982,53.9859,0,0.000885,0,0
0:3:42.493,424.569,54.0549,0,0.000885,0,0
0:3:42.889,425.214,54.1376,0,0.000885,0,0
0:3:43.287,426.389,54.2893,0,0.000885,0,0
0:3:43.680,426.624,54.3169,0,0.000885,0,0
0:3:44.083,427.443,54.4272,0,0.000885,0,0
0:3:44.486,428.15,54.5168,0,0.000885,0,0
0:3:44.884,428.324,54.5375,0,0.000885,0,0
0:3:45.285,429.147,54.641,0,0.000885,0,0
0:3:45.679,430.143,54.7651,0,0.000885,0,0
0:3:46.073,430.788,54.8478,0,0.000885,0,0
0:3:46.469,431.491,54.9374,0,0.000885,0,0
0:3:46.866,432.723,55.096,0,0.000885,0,0
0:3:47.260,433.426,55.1856,0,0.000885,0,0
0:3:47.653,434.191,55.2822,0,0.000885,0,0
0:3:48.047,435.539,55.4545,0,0.000885,0,0
0:3:48.455,436.535,55.5786,0,0.000885,0,0
0:3:48.851,437.474,55.7027,0,0.000885,0,0
0:3:49.252,438.061,55.7786,0,0.000885,0,0
0:3:49.654,438.942,55.8889,0,0.000885,0,0
0:3:50.054,439.587,55.9716,0,0.000885,0,0
0:3:50.456,440.467,56.082,0,0.000885,0,0
0:3:50.859,441.522,56.213,0,0.000885,0,0
0:3:51.252,442.402,56.3302,0,0.000885,0,0
0:3:51.656,442.869,56.3853,0,0.000885,0,0
0:3:52.053,443.75,56.5025,0,0.000885,0,0
0:3:52.447,444.689,56.6197,0,0.000885,0,0
0:3:52.840,445.218,56.6887,0,0.000885,0,0
0:3:53.234,446.037,56.7921,0,0.000885,0,0
0:3:53.632,447.269,56.9507,0,0.000885,0,0
0:3:54.028,447.62,56.9921,0,0.000885,0,0
0:3:54.431,447.914,57.0334,0,0.000885,0,0
0:3:54.832,448.616,57.1231,0,0.000885,0,0
0:3:55.234,449.439,57.2265,0,0.000885,0,0
0:3:55.634,449.906,57.2816,0,0.000885,0,0
0:3:56.030,450.729,57.392,0,0.000885,0,0
0:3:56.423,451.841,57.5299,0,0.000885,0,0
0:3:56.816,452.255,57.585,0,0.000885,0,0
0:3:57.215,452.9,57.6677,0,0.000885,0,0
0:3:57.611,454.012,57.8056,0,0.000885,0,0
0:3:58.004,454.484,57.8677,0,0.000885,0,0
0:3:58.397,455.654,58.0125,0,0.000885,0,0
0:3:58.799,456.654,58.1435,0,0.000885,0,0
0:3:59.204,457.121,58.2055,0,0.000885,0,0
0:3:59.604,458.176,58.3365,0,0.000885,0,0
0:4:0.004,458.705,58.4055,0,0.000885,0,0
0:4:0.402,459.644,58.5227,0,0.000885,0,0
0:4:0.799,459.937,58.5641,0,0.000885,0,0
0:4:1.194,460.64,58.6537,0,0.000885,0,0
0:4:1.587,461.699,58.7847,0,0.000885,0,0
0:4:1.982,462.459,58.8812,0,0.000885,0,0
0:4:2.378,462.811,58.9295,0,0.000885,0,0
0:4:2.775,464.337,59.1225,0,0.000885,0,0
0:4:3.169,464.746,59.1708,0,0.000885,0,0
0:4:3.561,465.626,59.288,0,0.000885,0,0
0:4:3.962,466.387,59.3845,0,0.000885,0,0
0:4:4.367,467.268,59.4949,0,0.000885,0,0
0:4:4.769,467.971,59.5845,0,0.000885,0,0
0:4:5.170,468.616,59.6672,0,0.000885,0,0
0:4:5.564,469.496,59.7775,0,0.000885,0,0
0:4:5.962,470.435,59.8948,0,0.000885,0,0
0:4:6.359,471.258,60.0051,0,0.000885,0,0
0:4:6.749,472.548,60.1637,0,0.000885,0,0
0:4:7.154,473.429,60.2809,0,0.000885,0,0
0:4:7.549,473.486,60.2878,0,0.000885,0,0
0:4:7.946,474.247,60.3843,0,0.000885,0,0
0:4:8.341,475.128,60.4946,0,0.000885,0,0
0:4:8.733,476.476,60.667,0,0.000885,0,0
0:4:9.135,477.121,60.7497,0,0.000885,0,0
0:4:9.539,477.65,60.8187,0,0.000885,0,0
0:4:9.940,478.882,60.9703,0,0.000885,0,0
0:4:10.340,479.407,61.0393,0,0.000885,0,0
0:4:10.743,479.821,61.0944,0,0.000885,0,0
0:4:11.140,481.169,61.2668,0,0.000885,0,0
0:4:11.538,481.462,61.3013,0,0.000885,0,0
0:4:11.952,482.574,61.4461,0,0.000885,0,0
0:4:12.356,482.988,61.4943,0,0.000885,0,0
0:4:12.749,483.984,61.6253,0,0.000885,0,0
0:4:13.146,484.629,61.7081,0,0.000885,0,0
0:4:13.556,485.39,61.8046,0,0.000885,0,0
0:4:13.959,486.449,61.9356,0,0.000885,0,0
0:4:14.361,486.449,61.9356,0,0.000885,0,0
0:4:14.760,487.681,62.0942,0,0.000885,0,0
0:4:15.159,488.384,62.1838,0,0.000885,0,0
0:4:15.554,489.438,62.3148,0,0.000885,0,0
0:4:15.945,490.203,62.4113,0,0.000885,0,0
0:4:16.359,490.728,62.4803,0,0.000885,0,0
0:4:16.759,491.551,62.5837,0,0.000885,0,0
0:4:17.154,492.547,62.7147,0,0.000885,0,0
0:4:17.543,493.428,62.825,0,0.000885,0,0
0:4:17.939,493.895,62.8871,0,0.000885,0,0
0:4:18.344,494.598,62.9767,0,0.000885,0,0
0:4:18.754,495.363,63.0732,0,0.000885,0,0
0:4:19.156,495.714,63.1146,0,0.000885,0,0
0:4:19.557,496.711,63.2456,0,0.000885,0,0
0:4:19.959,497.413,63.3352,0,0.000885,0,0
0:4:20.357,498.179,63.4318,0,0.000885,0,0
0:4:20.748,498.53,63.4731,0,0.000885,0,0
0:4:21.142,498.939,63.5283,0,0.000885,0,0
0:4:21.536,499.936,63.6524,0,0.000885,0,0
0:4:21.934,501.288,63.8248,0,0.000885,0,0
0:4:22.331,502.4,63.9696,0,0.000885,0,0
0:4:22.723,502.929,64.0316,0,0.000885,0,0
0:4:23.117,503.806,64.1488,0,0.000885,0,0
0:4:23.513,505.216,64.3281,0,0.000885,0,0
0:4:23.911,506.39,64.4729,0,0.000885,0,0
0:4:24.314,506.506,64.4936,0,0.000885,0,0
0:4:24.716,506.915,64.5418,0,0.000885,0,0
0:4:25.116,508.031,64.6866,0,0.000885,0,0
0:4:25.516,509.379,64.859,0,0.000885,0,0
0:4:25.913,510.554,65.0038,0,0.000885,0,0
0:4:26.307,511.314,65.1003,0,0.000885,0,0
0:4:26.699,511.959,65.183,0,0.000885,0,0
0:4:27.097,512.195,65.2175,0,0.000885,0,0
0:4:27.493,513.721,65.4106,0,0.000885,0,0
0:4:27.886,514.775,65.5416,0,0.000885,0,0
0:4:28.278,515.011,65.576,0,0.000885,0,0
0:4:28.680,515.771,65.6726,0,0.000885,0,0
0:4:29.083,516.416,65.7553,0,0.000885,0,0
0:4:29.485,517.003,65.8242,0,0.000885,0,0
0:4:29.885,517.884,65.9415,0,0.000885,0,0
0:4:30.281,518.703,66.0449,0,0.000885,0,0
0:4:30.677,518.765,66.0518,0,0.000885,0,0
0:4:31.073,519.583,66.1552,0,0.000885,0,0
0:4:31.467,520.522,66.2724,0,0.000885,0,0
0:4:31.861,521.403,66.3896,0,0.000885,0,0
0:4:32.255,522.163,66.4861,0,0.000885,0,0
0:4:32.654,522.986,66.5896,0,0.000885,0,0
0:4:33.059,523.631,66.6723,0,0.000885,0,0
0:4:33.461,524.041,66.7206,0,0.000885,0,0
0:4:33.864,525.566,66.9205,0,0.000885,0,0
0:4:34.266,526.153,66.9895,0,0.000885,0,0
0:4:34.667,526.331,67.017,0,0.000885,0,0
0:4:35.068,527.737,67.1963,0,0.000885,0,0
0:4:35.462,528.791,67.3273,0,0.000885,0,0
0:4:35.864,529.085,67.3687,0,0.000885,0,0
0:4:36.259,529.73,67.4445,0,0.000885,0,0
0:4:36.657,530.611,67.5617,0,0.000885,0,0
0:4:37.061,532.021,67.741,0,0.000885,0,0
0:4:37.463,533.075,67.872,0,0.000885,0,0
0:4:37.858,533.191,67.8858,0,0.000885,0,0
0:4:38.263,534.481,68.0513,0,0.000885,0,0
0:4:38.661,534.481,68.0513,0,0.000885,0,0
0:4:39.064,535.597,68.196,0,0.000885,0,0
0:4:39.465,535.891,68.2305,0,0.000885,0,0
0:4:39.865,536.771,68.3408,0,0.000885,0,0
0:4:40.265,537.883,68.4856,0,0.000885,0,0
0:4:40.660,538.471,68.5615,0,0.000885,0,0
0:4:41.064,539.173,68.6511,0,0.000885,0,0
0:4:41.456,540.641,68.8373,0,0.000885,0,0
0:4:41.861,540.993,68.8786,0,0.000885,0,0
0:4:42.259,541.696,68.9683,0,0.000885,0,0
0:4:42.652,542.75,69.1062,0,0.000885,0,0
0:4:43.055,543.457,69.1958,0,0.000885,0,0
0:4:43.460,543.751,69.2303,0,0.000885,0,0
0:4:43.862,545.334,69.4371,0,0.000885,0,0
0:4:44.264,545.45,69.4509,0,0.000885,0,0
0:4:44.665,546.682,69.6026,0,0.000885,0,0
0:4:45.067,547.385,69.6922,0,0.000885,0,0
0:4:45.462,547.678,69.7336,0,0.000885,0,0
0:4:45.859,548.911,69.8922,0,0.000885,0,0
0:4:46.256,550.023,70.03,0,0.000885,0,0
0:4:46.660,550.61,70.1059,0,0.000885,0,0
0:4:47.061,551.023,70.1611,0,0.000885,0,0
0:4:47.457,551.375,70.2024,0,0.000885,0,0
0:4:47.853,552.665,70.3679,0,0.000885,0,0
0:4:48.259,553.955,70.5334,0,0.000885,0,0
0:4:48.651,554.306,70.5747,0,0.000885,0,0
0:4:49.056,555.245,70.6988,0,0.000885,0,0
0:4:49.458,556.126,70.8092,0,0.000885,0,0
0:4:49.860,556.593,70.8643,0,0.000885,0,0
0:4:50.260,557.883,71.0298,0,0.000885,0,0
0:4:50.651,558.292,71.0849,0,0.000885,0,0
0:4:51.046,558.999,71.1746,0,0.000885,0,0
0:4:51.443,560.169,71.3263,0,0.000885,0,0
0:4:51.841,560.814,71.4021,0,0.000885,0,0
0:4:52.245,561.815,71.5331,0,0.000885,0,0
0:4:52.646,562.166,71.5745,0,0.000885,0,0
0:4:53.043,563.105,71.6986,0,0.000885,0,0
0:4:53.439,563.572,71.7537,0,0.000885,0,0
0:4:53.833,565.04,71.9399,0,0.000885,0,0
0:4:54.237,565.213,71.9675,0,0.000885,0,0
0:4:54.639,566.152,72.0847,0,0.000885,0,0
0:4:55.039,566.917,72.1812,0,0.000885,0,0
0:4:55.441,567.268,72.2295,0,0.000885,0,0
0:4:55.844,568.443,72.3743,0,0.000885,0,0
0:4:56.259,569.733,72.5397,0,0.000885,0,0
0:4:56.661,569.906,72.5604,0,0.000885,0,0
0:4:57.059,570.729,72.6707,0,0.000885,0,0
0:4:57.466,571.841,72.8086,0,0.000885,0,0
0:4:57.860,572.722,72.919,0,0.000885,0,0
0:4:58.263,573.309,72.9948,0,0.000885,0,0
0:4:58.664,573.545,73.0224,0,0.000885,0,0
0:4:59.068,574.893,73.1947,0,0.000885,0,0
0:4:59.468,575.711,73.3051,0,0.000885,0,0
0:4:59.869,576.298,73.374,0,0.000885,0,0
0:5:0.264,577.415,73.5188,0,0.000885,0,0
0:5:0.660,577.944,73.5877,0,0.000885,0,0
0:5:1.057,578.878,73.705,0,0.000885,0,0
0:5:1.463,579.528,73.7877,0,0.000885,0,0
0:5:1.864,580.462,73.9049,0,0.000885,0,0
0:5:2.260,581.169,73.9945,0,0.000885,0,0
0:5:2.658,581.988,74.098,0,0.000885,0,0
0:5:3.064,582.459,74.16,0,0.000885,0,0
0:5:3.467,583.455,74.291,0,0.000885,0,0
0:5:3.869,584.51,74.422,0,0.000885,0,0
0:5:4.271,585.039,74.491,0,0.000885,0,0
0:5:4.671,585.626,74.5668,0,0.000885,0,0
0:5:5.071,586.507,74.6771,0,0.000885,0,0
0:5:5.464,587.268,74.7736,0,0.000885,0,0
0:5:5.859,588.558,74.9391,0,0.000885,0,0
0:5:6.267,588.673,74.9529,0,0.000885,0,0
0:5:6.663,590.199,75.146,0,0.000885,0,0
0:5:7.059,590.377,75.1666,0,0.000885,0,0
0:5:7.453,591.2,75.277,0,0.000885,0,0
0:5:7.863,591.787,75.3459,0,0.000885,0,0
0:5:8.261,593.255,75.5321,0,0.000885,0,0
0:5:8.665,593.371,75.5528,0,0.000885,0,0
0:5:9.070,594.661,75.7113,0,0.000885,0,0
0:5:9.473,595.012,75.7596,0,0.000885,0,0
0:5:9.875,595.893,75.8699,0,0.000885,0,0
0:5:10.279,596.894,76.0009,0,0.000885,0,0
0:5:10.673,597.423,76.063,0,0.000885,0,0
0:5:11.070,598.419,76.194,0,0.000885,0,0
0:5:11.467,598.949,76.2629,0,0.000885,0,0
0:5:11.865,599.945,76.387,0,0.000885,0,0
0:5:12.261,600.59,76.4698,0,0.000885,0,0
0:5:12.665,601.235,76.5525,0,0.000885,0,0
0:5:13.063,602.294,76.6835,0,0.000885,0,0
0:5:13.464,603.117,76.7938,0,0.000885,0,0
0:5:13.870,603.704,76.8628,0,0.000885,0,0
0:5:14.273,604.642,76.9869,0,0.000885,0,0
0:5:14.675,605.581,77.1041,0,0.000885,0,0
0:5:15.075,606.048,77.1661,0,0.000885,0,0
0:5:15.475,607.049,77.2902,0,0.000885,0,0
0:5:15.870,608.397,77.4626,0,0.000885,0,0
0:5:16.264,608.397,77.4626,0,0.000885,0,0
0:5:16.662,609.397,77.5936,0,0.000885,0,0
0:5:17.061,609.571,77.6143,0,0.000885,0,0
0:5:17.467,610.51,77.7315,0,0.000885,0,0
0:5:17.861,611.92,77.9108,0,0.000885,0,0
0:5:18.266,612.449,77.9797,0,0.000885,0,0
0:5:18.668,613.036,78.0555,0,0.000885,0,0
0:5:19.073,613.917,78.1659,0,0.000885,0,0
0:5:19.477,614.855,78.2831,0,0.000885,0,0
0:5:19.880,615.674,78.3934,0,0.000885,0,0
0:5:20.275,616.555,78.5037,0,0.000885,0,0
0:5:20.675,617.142,78.5795,0,0.000885,0,0
0:5:21.073,618.436,78.745,0,0.000885,0,0
0:5:21.467,619.081,78.8209,0,0.000885,0,0
0:5:21.864,619.49,78.876,0,0.000885,0,0
0:5:22.262,620.607,79.0208,0,0.000885,0,0
0:5:22.660,621.252,79.1036,0,0.000885,0,0
0:5:23.065,621.839,79.1725,0,0.000885,0,0
0:5:23.460,622.778,79.2966,0,0.000885,0,0
0:5:23.864,623.952,79.4414,0,0.000885,0,0
0:5:24.269,624.366,79.4966,0,0.000885,0,0
0:5:24.673,624.717,79.5379,0,0.000885,0,0
0:5:25.074,626.479,79.7654,0,0.000885,0,0
0:5:25.470,626.772,79.7999,0,0.000885,0,0
0:5:25.871,627.475,79.8896,0,0.000885,0,0
0:5:26.268,627.769,79.9309,0,0.000885,0,0
0:5:26.662,628.765,80.055,0,0.000885,0,0
0:5:27.056,629.997,80.2136,0,0.000885,0,0
0:5:27.465,630.175,80.2343,0,0.000885,0,0
0:5:27.864,630.998,80.3377,0,0.000885,0,0
0:5:28.272,632.346,80.5101,0,0.000885,0,0
0:5:28.666,633.111,80.6066,0,0.000885,0,0
0:5:29.069,633.578,80.6687,0,0.000885,0,0
0:5:29.475,634.285,80.7583,0,0.000885,0,0
0:5:29.878,635.397,80.9031,0,0.000885,0,0
0:5:30.281,636.456,81.0341,0,0.000885,0,0
0:5:30.674,637.043,81.1099,0,0.000885,0,0
0:5:31.073,637.452,81.1651,0,0.000885,0,0
0:5:31.472,638.217,81.2616,0,0.000885,0,0
0:5:31.866,639.685,81.4478,0,0.000885,0,0
0:5:32.261,640.095,81.496,0,0.000885,0,0
0:5:32.667,640.797,81.5857,0,0.000885,0,0
0:5:33.067,641.914,81.7305,0,0.000885,0,0
0:5:33.466,642.265,81.7787,0,0.000885,0,0
0:5:33.871,642.91,81.8615,0,0.000885,0,0
0:5:34.274,644.32,82.0407,0,0.000885,0,0
0:5:34.676,644.672,82.0821,0,0.000885,0,0
0:5:35.076,645.201,82.151,0,0.000885,0,0
0:5:35.473,645.966,82.2476,0,0.000885,0,0
0:5:35.867,647.141,82.3992,0,0.000885,0,0
0:5:36.263,647.901,82.4958,0,0.000885,0,0
0:5:36.662,648.137,82.5233,0,0.000885,0,0
0:5:37.069,648.782,82.6061,0,0.000885,0,0
0:5:37.466,650.192,82.7854,0,0.000885,0,0
0:5:37.861,650.779,82.8612,0,0.000885,0,0
0:5:38.268,651.602,82.9646,0,0.000885,0,0
0:5:38.669,652.363,83.0611,0,0.000885,0,0
0:5:39.074,653.186,83.1646,0,0.000885,0,0
0:5:39.478,654.596,83.3438,0,0.000885,0,0
0:5:39.881,655.65,83.4817,0,0.000885,0,0
0:5:40.280,655.708,83.4886,0,0.000885,0,0
0:5:40.678,656.415,83.5782,0,0.000885,0,0
0:5:41.073,657.469,83.7092,0,0.000885,0,0
0:5:41.467,657.879,83.7644,0,0.000885,0,0
0:5:41.866,658.528,83.8471,0,0.000885,0,0
0:5:42.265,659.173,83.9299,0,0.000885,0,0
0:5:42.669,660.521,84.1022,0,0.000885,0,0
0:5:43.064,661.58,84.2332,0,0.000885,0,0
0:5:43.469,662.46,84.3436,0,0.000885,0,0
0:5:43.871,662.927,84.4056,0,0.000885,0,0
0:5:44.277,663.577,84.4884,0,0.000885,0,0
0:5:44.680,664.573,84.6194,0,0.000885,0,0
0:5:45.082,665.396,84.7228,0,0.000885,0,0
0:5:45.481,665.57,84.7435,0,0.000885,0,0
0:5:45.880,667.038,84.9296,0,0.000885,0,0
0:5:46.275,667.683,85.0124,0,0.000885,0,0
0:5:46.669,667.976,85.0468,0,0.000885,0,0
0:5:47.066,668.683,85.1365,0,0.000885,0,0
0:5:47.467,669.68,85.2675,0,0.000885,0,0
0:5:47.873,670.561,85.3778,0,0.000885,0,0
0:5:48.269,671.321,85.4743,0,0.000885,0,0
0:5:48.674,672.967,85.688,0,0.000885,0,0
0:5:49.076,673.261,85.7225,0,0.000885,0,0
0:5:49.479,673.67,85.7777,0,0.000885,0,0
0:5:49.882,674.257,85.8466,0,0.000885,0,0
0:5:50.277,675.138,85.9638,0,0.000885,0,0
0:5:50.673,676.018,86.0741,0,0.000885,0,0
0:5:51.072,676.957,86.1914,0,0.000885,0,0
0:5:51.470,677.896,86.3155,0,0.000885,0,0
0:5:51.865,678.896,86.4396,0,0.000885,0,0
0:5:52.270,679.364,86.5016,0,0.000885,0,0
0:5:52.668,680.009,86.5844,0,0.000885,0,0
0:5:53.066,680.952,86.7016,0,0.000885,0,0
0:5:53.471,681.832,86.8119,0,0.000885,0,0
0:5:53.875,682.184,86.8602,0,0.000885,0,0
0:5:54.280,683.358,87.0049,0,0.000885,0,0
0:5:54.681,683.532,87.0325,0,0.000885,0,0
0:5:55.083,684.412,87.1428,0,0.000885,0,0
0:5:55.478,685.529,87.2807,0,0.000885,0,0
0:5:55.874,686.41,87.3979,0,0.000885,0,0
0:5:56.270,687.584,87.5427,0,0.000885,0,0
0:5:56.670,688.344,87.6462,0,0.000885,0,0
0:5:57.066,688.696,87.6875,0,0.000885,0,0
0:5:57.469,689.639,87.8047,0,0.000885,0,0
0:5:57.866,690.226,87.8806,0,0.000885,0,0
0:5:58.264,690.751,87.9495,0,0.000885,0,0
0:5:58.671,691.632,88.0598,0,0.000885,0,0
0:5:59.078,692.69,88.1977,0,0.000885,0,0
0:5:59.481,693.629,88.3149,0,0.000885,0,0
0:5:59.883,694.39,88.4115,0,0.000885,0,0
0:6:0.286,695.27,88.5218,0,0.000885,0,0
0:6:0.682,695.742,88.5838,0,0.000885,0,0
0:6:1.078,696.507,88.6804,0,0.000885,0,0
0:6:1.473,697.268,88.7769,0,0.000885,0,0
0:6:1.873,697.739,88.8389,0,0.000885,0,0
0:6:2.271,699.323,89.0389,0,0.000885,0,0
0:6:2.666,700.088,89.1354,0,0.000885,0,0
0:6:3.070,699.732,89.0941,0,0.000885,0,0
0:6:3.469,701.2,89.2802,0,0.000885,0,0
0:6:3.868,701.729,89.3492,0,0.000885,0,0
0:6:4.273,703.019,89.5146,0,0.000885,0,0
0:6:4.678,703.784,89.6112,0,0.000885,0,0
0:6:5.079,704.429,89.6939,0,0.000885,0,0
0:6:5.481,705.132,89.7835,0,0.000885,0,0
0:6:5.878,706.133,89.9076,0,0.000885,0,0
0:6:6.273,706.951,90.0111,0,0.000885,0,0
0:6:6.667,707.423,90.0731,0,0.000885,0,0
0:6:7.065,708.01,90.149,0,0.000885,0,0
0:6:7.466,708.539,90.211,0,0.000885,0,0
0:6:7.870,709.714,90.3627,0,0.000885,0,0
0:6:8.266,710.826,90.5075,0,0.000885,0,0
0:6:8.670,711.591,90.604,0,0.000885,0,0
0:6:9.076,712.765,90.7488,0,0.000885,0,0
0:6:9.476,713.059,90.7902,0,0.000885,0,0
0:6:9.881,714.055,90.9143,0,0.000885,0,0
0:6:10.273,714.469,90.9694,0,0.000885,0,0
0:6:10.672,715.407,91.0866,0,0.000885,0,0
0:6:11.071,716.168,91.1832,0,0.000885,0,0
0:6:11.467,716.813,91.2659,0,0.000885,0,0
0:6:11.872,717.756,91.39,0,0.000885,0,0
0:6:12.266,718.517,91.4865,0,0.000885,0,0
0:6:12.666,718.632,91.5003,0,0.000885,0,0
0:6:13.073,719.162,91.5693,0,0.000885,0,0
0:6:13.469,720.808,91.7761,0,0.000885,0,0
0:6:13.873,721.626,91.8795,0,0.000885,0,0
0:6:14.276,722.155,91.9485,0,0.000885,0,0
0:6:14.680,723.036,92.0588,0,0.000885,0,0
0:6:15.082,723.859,92.1622,0,0.000885,0,0
0:6:15.478,725.033,92.3139,0,0.000885,0,0
0:6:15.874,725.914,92.4242,0,0.000885,0,0
0:6:16.270,726.088,92.4518,0,0.000885,0,0
0:6:16.668,726.15,92.4587,0,0.000885,0,0
0:6:17.076,727.031,92.569,0,0.000885,0,0
0:6:17.470,727.556,92.638,0,0.000885,0,0
0:6:17.865,727.089,92.5759,0,0.000885,0,0
0:6:18.273,629.824,80.1929,0,0.000885,0,0
0:6:18.672,629.997,80.2136,0,0.000885,0,0
0:6:19.077,632.817,80.5721,0,0.000885,0,0
0:6:19.479,635.753,80.9445,0,0.000885,0,0
0:6:19.881,638.04,81.2409,0,0.000885,0,0
0:6:20.281,640.037,81.4891,0,0.000885,0,0
0:6:20.678,640.446,81.5443,0,0.000885,0,0
0:6:21.072,623.543,79.3931,0,0.000885,0,0
0:6:21.466,619.255,78.8484,0,0.000885,0,0
0:6:21.870,616.911,78.5451,0,0.000885,0,0
0:6:22.270,616.145,78.4485,0,0.000885,0,0
0:6:22.675,614.735,78.2693,0,0.000885,0,0
0:6:23.069,606.168,77.1799,0,0.000885,0,0
0:6:23.473,603.348,76.8214,0,0.000885,0,0
0:6:23.875,603.117,76.7938,0,0.000885,0,0
0:6:24.280,601.293,76.5594,0,0.000885,0,0
0:6:24.682,594.661,75.7113,0,0.000885,0,0
0:6:25.082,586.916,74.7254,0,0.000885,0,0
0:6:25.475,585.097,74.4979,0,0.000885,0,0
0:6:25.871,573.545,73.0224,0,0.000885,0,0
0:6:26.068,565.276,71.9744,0,0.000885,0,0