File: DataFile2021-07-17_044857.csv
Test ID:,Date Tested:,Time:,Test Type:,Diameter Avg. (mm):,Cyl. Corr. Factor:,Height (mm):,Age (days):,Weight (kN):,Break Type:,Ramp Rate (MPa/s):,Load at Break (kN):,Stress at Break (MPa):
12,7/17/2021,04:48,Cylinder,100,1,200,0,3.6,3,0.25,1282.38,163.27
Sample Time,Load (kN),Stress (MPa),Long. Strain,Trans. Strain,Chan1 Deflection (mm),Chan2 Deflection (mm)
0:0:6.674,5.15994,0.655002,0,0.000885,0,0
0:0:7.292,6.68568,0.848055,0,0.000885,0,0
0:0:7.890,7.21502,0.917003,0,0.000885,0,0
0:0:8.495,8.56283,1.08937,0,0.000885,0,0
0:0:9.089,10.1464,1.28932,0,0.000885,0,0
0:0:9.694,10.4978,1.33758,0,0.000885,0,0
0:0:10.289,11.9079,1.51685,0,0.000885,0,0
0:0:10.888,13.2557,1.68922,0,0.000885,0,0
0:0:11.482,14.6613,1.86848,0,0.000885,0,0
0:0:12.079,15.3686,1.95811,0,0.000885,0,0
0:0:12.689,16.4228,2.08911,0,0.000885,0,0
0:0:13.294,17.7128,2.25459,0,0.000885,0,0
0:0:13.893,18.767,2.39248,0,0.000885,0,0
0:0:14.491,19.9414,2.53727,0,0.000885,0,0
0:0:15.089,20.9956,2.67517,0,0.000885,0,0
0:0:15.694,22.8728,2.90959,0,0.000885,0,0
0:0:16.290,24.0471,3.06127,0,0.000885,0,0
0:0:16.883,25.5728,3.25433,0,0.000885,0,0
0:0:17.493,26.805,3.4129,0,0.000885,0,0
0:0:18.097,27.8014,3.53701,0,0.000885,0,0
0:0:18.703,28.9134,3.6818,0,0.000885,0,0
0:0:19.299,29.9721,3.8128,0,0.000885,0,0
0:0:19.895,31.2621,3.97827,0,0.000885,0,0
0:0:20.494,32.6677,4.15754,0,0.000885,0,0
0:0:21.091,33.6063,4.28164,0,0.000885,0,0
0:0:21.689,34.3091,4.37128,0,0.000885,0,0
0:0:22.284,36.1863,4.6057,0,0.000885,0,0
0:0:22.895,37.1827,4.7367,0,0.000885,0,0
0:0:23.500,37.89,4.82633,0,0.000885,0,0
0:0:24.100,39.3534,5.01249,0,0.000885,0,0
0:0:24.700,40.7057,5.18486,0,0.000885,0,0
0:0:25.296,41.7021,5.30896,0,0.000885,0,0
0:0:25.892,42.5206,5.41238,0,0.000885,0,0
0:0:26.490,44.1619,5.62612,0,0.000885,0,0
0:0:27.095,45.2784,5.76402,0,0.000885,0,0
0:0:27.704,46.7464,5.95018,0,0.000885,0,0
0:0:28.310,47.3914,6.03291,0,0.000885,0,0
0:0:28.912,48.6191,6.19149,0,0.000885,0,0
0:0:29.507,50.087,6.37765,0,0.000885,0,0
0:0:30.106,50.732,6.46039,0,0.000885,0,0
0:0:30.703,52.2577,6.65344,0,0.000885,0,0
0:0:31.303,53.0184,6.74997,0,0.000885,0,0
0:0:31.900,54.8377,6.98439,0,0.000885,0,0
0:0:32.508,55.6028,7.08092,0,0.000885,0,0
0:0:33.114,57.1241,7.27397,0,0.000885,0,0
0:0:33.711,58.3562,7.43255,0,0.000885,0,0
0:0:34.310,59.5305,7.57734,0,0.000885,0,0
0:0:34.907,60.1755,7.66008,0,0.000885,0,0
0:0:35.505,61.9949,7.8945,0,0.000885,0,0
0:0:36.101,63.0491,8.0255,0,0.000885,0,0
0:0:36.695,64.2813,8.18408,0,0.000885,0,0
0:0:37.301,65.3355,8.32197,0,0.000885,0,0
0:0:37.909,66.5676,8.47366,0,0.000885,0,0
0:0:38.514,67.4484,8.59087,0,0.000885,0,0
0:0:39.113,69.0898,8.79771,0,0.000885,0,0
0:0:39.709,69.9705,8.90803,0,0.000885,0,0
0:0:40.304,71.0248,9.04592,0,0.000885,0,0
0:0:40.901,71.9633,9.16313,0,0.000885,0,0
0:0:41.499,73.4891,9.35619,0,0.000885,0,0
0:0:42.097,75.0726,9.55613,0,0.000885,0,0
0:0:42.704,75.8956,9.66645,0,0.000885,0,0
0:0:43.309,77.0654,9.81124,0,0.000885,0,0
0:0:43.909,78.0618,9.94224,0,0.000885,0,0
0:0:44.506,79.3563,10.1008,0,0.000885,0,0
0:0:45.104,80.584,10.2594,0,0.000885,0,0
0:0:45.700,81.7005,10.4042,0,0.000885,0,0
0:0:46.300,83.1061,10.5835,0,0.000885,0,0
0:0:46.897,84.2805,10.7282,0,0.000885,0,0
0:0:47.496,84.6897,10.7834,0,0.000885,0,0
0:0:48.103,85.8062,10.9282,0,0.000885,0,0
0:0:48.708,87.799,11.1764,0,0.000885,0,0
0:0:49.306,88.8577,11.3143,0,0.000885,0,0
0:0:49.903,90.379,11.5073,0,0.000885,0,0
0:0:50.500,91.2019,11.6108,0,0.000885,0,0
0:0:51.095,92.1405,11.7349,0,0.000885,0,0
0:0:51.687,93.5461,11.9141,0,0.000885,0,0
0:0:52.297,94.4268,12.0245,0,0.000885,0,0
0:0:52.904,95.5434,12.1624,0,0.000885,0,0
0:0:53.509,97.5362,12.4175,0,0.000885,0,0
0:0:54.105,98.0032,12.4795,0,0.000885,0,0
0:0:54.701,99.3555,12.6519,0,0.000885,0,0
0:0:55.296,100.232,12.7622,0,0.000885,0,0
0:0:55.893,101.7,12.9484,0,0.000885,0,0
0:0:56.501,102.816,13.0931,0,0.000885,0,0
0:0:57.099,104.337,13.2862,0,0.000885,0,0
0:0:57.707,105.045,13.3758,0,0.000885,0,0
0:0:58.311,106.628,13.5758,0,0.000885,0,0
0:0:58.909,107.625,13.6999,0,0.000885,0,0
0:0:59.508,108.973,13.8723,0,0.000885,0,0
0:1:0.106,110.027,14.0101,0,0.000885,0,0
0:1:0.704,111.437,14.1894,0,0.000885,0,0
0:1:1.301,112.024,14.2653,0,0.000885,0,0
0:1:1.897,113.078,14.3963,0,0.000885,0,0
0:1:2.503,114.546,14.5824,0,0.000885,0,0
0:1:3.110,115.716,14.7341,0,0.000885,0,0
0:1:3.714,117.771,14.9961,0,0.000885,0,0
0:1:4.312,118.238,15.0581,0,0.000885,0,0
0:1:4.909,119.297,15.1892,0,0.000885,0,0
0:1:5.504,120.76,15.3753,0,0.000885,0,0
0:1:6.101,121.819,15.5132,0,0.000885,0,0
0:1:6.699,122.989,15.658,0,0.000885,0,0
0:1:7.307,123.927,15.7821,0,0.000885,0,0
0:1:7.913,125.511,15.982,0,0.000885,0,0
0:1:8.517,126.685,16.1268,0,0.000885,0,0
0:1:9.112,127.624,16.2509,0,0.000885,0,0
0:1:9.708,128.62,16.375,0,0.000885,0,0
0:1:10.307,129.852,16.5336,0,0.000885,0,0
0:1:10.905,131.027,16.6853,0,0.000885,0,0
0:1:11.502,131.845,16.7887,0,0.000885,0,0
0:1:12.101,133.607,17.0094,0,0.000885,0,0
0:1:12.709,134.545,17.1335,0,0.000885,0,0
0:1:13.314,136.187,17.3403,0,0.000885,0,0
0:1:13.915,137.299,17.4851,0,0.000885,0,0
0:1:14.514,138.473,17.6299,0,0.000885,0,0
0:1:15.111,139.763,17.7954,0,0.000885,0,0
0:1:15.709,140.35,17.8712,0,0.000885,0,0
0:1:16.304,141.818,18.0574,0,0.000885,0,0
0:1:16.901,142.988,18.2091,0,0.000885,0,0
0:1:17.510,144.278,18.3676,0,0.000885,0,0
0:1:18.115,145.101,18.4779,0,0.000885,0,0
0:1:18.721,146.627,18.671,0,0.000885,0,0
0:1:19.317,147.507,18.7813,0,0.000885,0,0
0:1:19.913,149.149,18.9882,0,0.000885,0,0
0:1:20.508,150.439,19.1536,0,0.000885,0,0
0:1:21.107,151.377,19.2708,0,0.000885,0,0
0:1:21.705,152.489,19.4156,0,0.000885,0,0
0:1:22.303,153.077,19.4915,0,0.000885,0,0
0:1:22.911,154.545,19.6776,0,0.000885,0,0
0:1:23.517,156.48,19.9258,0,0.000885,0,0
0:1:24.113,157.125,20.0086,0,0.000885,0,0
0:1:24.711,158.299,20.1534,0,0.000885,0,0
0:1:25.310,159.002,20.243,0,0.000885,0,0
0:1:25.908,160.879,20.4843,0,0.000885,0,0
0:1:26.506,161.697,20.5877,0,0.000885,0,0
0:1:27.106,163.401,20.8015,0,0.000885,0,0
0:1:27.712,164.162,20.9049,0,0.000885,0,0
0:1:28.318,165.687,21.098,0,0.000885,0,0
0:1:28.917,166.742,21.229,0,0.000885,0,0
0:1:29.514,167.916,21.3806,0,0.000885,0,0
0:1:30.111,169.264,21.553,0,0.000885,0,0
0:1:30.706,169.851,21.6289,0,0.000885,0,0
0:1:31.301,171.141,21.7874,0,0.000885,0,0
0:1:31.898,172.431,21.9529,0,0.000885,0,0
0:1:32.507,173.605,22.1046,0,0.000885,0,0
0:1:33.111,175.015,22.2839,0,0.000885,0,0
0:1:33.714,176.07,22.4149,0,0.000885,0,0
0:1:34.308,177.182,22.5596,0,0.000885,0,0
0:1:34.905,177.827,22.6424,0,0.000885,0,0
0:1:35.502,178.943,22.7803,0,0.000885,0,0
0:1:36.101,180.762,23.0147,0,0.000885,0,0
0:1:36.699,181.874,23.1595,0,0.000885,0,0
0:1:37.298,183.107,23.3112,0,0.000885,0,0
0:1:37.908,184.632,23.5111,0,0.000885,0,0
0:1:38.512,185.099,23.5663,0,0.000885,0,0
0:1:39.111,186.389,23.7318,0,0.000885,0,0
0:1:39.709,187.27,23.8421,0,0.000885,0,0
0:1:40.308,188.68,24.0213,0,0.000885,0,0
0:1:40.902,190.379,24.242,0,0.000885,0,0
0:1:41.498,191.024,24.3247,0,0.000885,0,0
0:1:42.096,192.55,24.5178,0,0.000885,0,0
0:1:42.703,194.076,24.7108,0,0.000885,0,0
0:1:43.303,194.485,24.766,0,0.000885,0,0
0:1:43.903,196.362,25.0004,0,0.000885,0,0
0:1:44.502,197.417,25.1383,0,0.000885,0,0
0:1:45.092,198.591,25.2831,0,0.000885,0,0
0:1:45.697,199.703,25.4279,0,0.000885,0,0
0:1:46.288,200.29,25.5037,0,0.000885,0,0
0:1:46.883,201.816,25.6968,0,0.000885,0,0
0:1:47.487,202.932,25.8347,0,0.000885,0,0
0:1:48.089,204.28,26.007,0,0.000885,0,0
0:1:48.693,205.392,26.1518,0,0.000885,0,0
0:1:49.285,206.624,26.3104,0,0.000885,0,0
0:1:49.880,207.683,26.4414,0,0.000885,0,0
0:1:50.473,208.915,26.6,0,0.000885,0,0
0:1:51.066,210.085,26.7517,0,0.000885,0,0
0:1:51.657,211.202,26.8896,0,0.000885,0,0
0:1:52.257,212.434,27.0481,0,0.000885,0,0
0:1:52.860,213.955,27.2412,0,0.000885,0,0
0:1:53.459,214.778,27.3446,0,0.000885,0,0
0:1:54.053,215.659,27.4618,0,0.000885,0,0
0:1:54.646,216.477,27.5652,0,0.000885,0,0
0:1:55.238,218.003,27.7583,0,0.000885,0,0
0:1:55.827,219.177,27.9031,0,0.000885,0,0
0:1:56.419,220.231,28.041,0,0.000885,0,0
0:1:57.014,221.348,28.1858,0,0.000885,0,0
0:1:57.619,223.047,28.3995,0,0.000885,0,0
0:1:58.220,224.337,28.565,0,0.000885,0,0
0:1:58.818,225.511,28.7098,0,0.000885,0,0
0:1:59.409,226.45,28.8339,0,0.000885,0,0
0:2:0.002,228.034,29.0338,0,0.000885,0,0
0:2:0.598,228.327,29.0683,0,0.000885,0,0
0:2:1.200,230.026,29.2889,0,0.000885,0,0
0:2:1.792,230.849,29.3924,0,0.000885,0,0
0:2:2.399,232.197,29.5647,0,0.000885,0,0
0:2:2.999,233.371,29.7164,0,0.000885,0,0
0:2:3.604,235.249,29.9508,0,0.000885,0,0
0:2:4.195,235.658,30.006,0,0.000885,0,0
0:2:4.789,236.77,30.1439,0,0.000885,0,0
0:2:5.380,238.589,30.3783,0,0.000885,0,0
0:2:5.989,239.061,30.4404,0,0.000885,0,0
0:2:6.582,241.111,30.7024,0,0.000885,0,0
0:2:7.183,241.169,30.7092,0,0.000885,0,0
0:2:7.787,243.166,30.9575,0,0.000885,0,0
0:2:8.388,244.572,31.1367,0,0.000885,0,0
0:2:8.990,245.275,31.2264,0,0.000885,0,0
0:2:9.590,246.507,31.3849,0,0.000885,0,0
0:2:10.191,247.797,31.5504,0,0.000885,0,0
0:2:10.784,248.971,31.7021,0,0.000885,0,0
0:2:11.396,249.559,31.7779,0,0.000885,0,0
0:2:12.001,251.142,31.9779,0,0.000885,0,0
0:2:12.606,252.606,32.164,0,0.000885,0,0
0:2:13.205,253.429,32.2675,0,0.000885,0,0
0:2:13.796,255.364,32.5157,0,0.000885,0,0
0:2:14.400,255.715,32.557,0,0.000885,0,0
0:2:15.003,257.125,32.7363,0,0.000885,0,0
0:2:15.608,258.357,32.8949,0,0.000885,0,0
0:2:16.200,259.585,33.0535,0,0.000885,0,0
0:2:16.807,259.999,33.1017,0,0.000885,0,0
0:2:17.404,261.64,33.3155,0,0.000885,0,0
0:2:18.008,262.872,33.4672,0,0.000885,0,0
0:2:18.610,264.336,33.6533,0,0.000885,0,0
0:2:19.204,265.394,33.7912,0,0.000885,0,0
0:2:19.794,266.333,33.9084,0,0.000885,0,0
0:2:20.406,267.623,34.0739,0,0.000885,0,0
0:2:20.995,268.913,34.2394,0,0.000885,0,0
0:2:21.589,270.025,34.3842,0,0.000885,0,0
0:2:22.192,271.435,34.5634,0,0.000885,0,0
0:2:22.792,272.489,34.6944,0,0.000885,0,0
0:2:23.390,273.192,34.7841,0,0.000885,0,0
0:2:23.990,274.015,34.8875,0,0.000885,0,0
0:2:24.592,275.834,35.1219,0,0.000885,0,0
0:2:25.183,276.715,35.2322,0,0.000885,0,0
0:2:25.779,278.121,35.4115,0,0.000885,0,0
0:2:26.372,279.411,35.5769,0,0.000885,0,0
0:2:26.968,280.349,35.6942,0,0.000885,0,0
0:2:27.573,281.875,35.8872,0,0.000885,0,0
0:2:28.172,282.929,36.0251,0,0.000885,0,0
0:2:28.765,284.219,36.1906,0,0.000885,0,0
0:2:29.359,285.393,36.3354,0,0.000885,0,0
0:2:29.952,286.096,36.425,0,0.000885,0,0
0:2:30.546,287.328,36.5836,0,0.000885,0,0
0:2:31.140,288.503,36.7353,0,0.000885,0,0
0:2:31.728,289.673,36.8801,0,0.000885,0,0
0:2:32.328,290.731,37.018,0,0.000885,0,0
0:2:32.930,292.079,37.1903,0,0.000885,0,0
0:2:33.532,293.311,37.3489,0,0.000885,0,0
0:2:34.126,294.423,37.4868,0,0.000885,0,0
0:2:34.717,295.776,37.6592,0,0.000885,0,0
0:2:35.309,296.83,37.7902,0,0.000885,0,0
0:2:35.910,297.946,37.935,0,0.000885,0,0
0:2:36.504,299.236,38.1004,0,0.000885,0,0
0:2:37.107,300.233,38.2245,0,0.000885,0,0
0:2:37.709,301.638,38.4038,0,0.000885,0,0
0:2:38.309,302.813,38.5555,0,0.000885,0,0
0:2:38.898,304.512,38.7692,0,0.000885,0,0
0:2:39.499,305.219,38.8589,0,0.000885,0,0
0:2:40.092,306.038,38.9692,0,0.000885,0,0
0:2:40.698,307.679,39.176,0,0.000885,0,0
0:2:41.311,308.796,39.3139,0,0.000885,0,0
0:2:41.905,309.85,39.4518,0,0.000885,0,0
0:2:42.509,310.673,39.5552,0,0.000885,0,0
0:2:43.110,312.256,39.7552,0,0.000885,0,0
0:2:43.706,313.488,39.9137,0,0.000885,0,0
0:2:44.297,314.485,40.0448,0,0.000885,0,0
0:2:44.889,315.366,40.1551,0,0.000885,0,0
0:2:45.489,316.887,40.3481,0,0.000885,0,0
0:2:46.099,318.177,40.5136,0,0.000885,0,0
0:2:46.702,319.115,40.6308,0,0.000885,0,0
0:2:47.306,320.054,40.748,0,0.000885,0,0
0:2:47.908,322.109,41.01,0,0.000885,0,0
0:2:48.509,322.696,41.0859,0,0.000885,0,0
0:2:49.098,324.044,41.2582,0,0.000885,0,0
0:2:49.711,325.45,41.4375,0,0.000885,0,0
0:2:50.306,326.451,41.5616,0,0.000885,0,0
0:2:50.897,328.034,41.7684,0,0.000885,0,0
0:2:51.491,328.208,41.7891,0,0.000885,0,0
0:2:52.084,330.085,42.0304,0,0.000885,0,0
0:2:52.689,331.201,42.1683,0,0.000885,0,0
0:2:53.291,332.02,42.2718,0,0.000885,0,0
0:2:53.894,333.603,42.4786,0,0.000885,0,0
0:2:54.488,335.071,42.6648,0,0.000885,0,0
0:2:55.080,335.48,42.713,0,0.000885,0,0
0:2:55.672,336.948,42.8992,0,0.000885,0,0
0:2:56.262,337.945,43.0302,0,0.000885,0,0
0:2:56.854,339.235,43.1957,0,0.000885,0,0
0:2:57.458,340.703,43.3818,0,0.000885,0,0
0:2:58.061,341.405,43.4714,0,0.000885,0,0
0:2:58.661,342.753,43.6438,0,0.000885,0,0
0:2:59.251,343.576,43.7472,0,0.000885,0,0
0:2:59.844,345.218,43.9541,0,0.000885,0,0
0:3:0.435,346.156,44.0713,0,0.000885,0,0
0:3:1.033,347.268,44.2161,0,0.000885,0,0
0:3:1.627,348.5,44.3747,0,0.000885,0,0
0:3:2.231,349.323,44.4781,0,0.000885,0,0
0:3:2.831,350.787,44.6642,0,0.000885,0,0
0:3:3.426,352.606,44.8987,0,0.000885,0,0
0:3:4.020,353.545,45.0159,0,0.000885,0,0
0:3:4.613,355.07,45.2089,0,0.000885,0,0
0:3:5.207,355.715,45.2917,0,0.000885,0,0
0:3:5.809,356.476,45.3882,0,0.000885,0,0
0:3:6.411,357.944,45.5743,0,0.000885,0,0
0:3:7.008,358.589,45.6571,0,0.000885,0,0
0:3:7.611,359.879,45.8226,0,0.000885,0,0
0:3:8.212,361.347,46.0087,0,0.000885,0,0
0:3:8.806,363.104,46.2293,0,0.000885,0,0
0:3:9.396,363.811,46.319,0,0.000885,0,0
0:3:10.007,365.332,46.5189,0,0.000885,0,0
0:3:10.597,365.92,46.5879,0,0.000885,0,0
0:3:11.188,367.036,46.7327,0,0.000885,0,0
0:3:11.783,368.851,46.9671,0,0.000885,0,0
0:3:12.388,369.558,47.0567,0,0.000885,0,0
0:3:12.989,371.609,47.3118,0,0.000885,0,0
0:3:13.588,372.432,47.4221,0,0.000885,0,0
0:3:14.178,373.428,47.5462,0,0.000885,0,0
0:3:14.771,374.66,47.7048,0,0.000885,0,0
0:3:15.363,375.363,47.7945,0,0.000885,0,0
0:3:15.957,376.595,47.9461,0,0.000885,0,0
0:3:16.551,377.707,48.0909,0,0.000885,0,0
0:3:17.155,378.882,48.2426,0,0.000885,0,0
0:3:17.755,380.114,48.3943,0,0.000885,0,0
0:3:18.350,381.404,48.5598,0,0.000885,0,0
0:3:18.945,382.93,48.7528,0,0.000885,0,0
0:3:19.538,384.104,48.9045,0,0.000885,0,0
0:3:20.132,384.571,48.9666,0,0.000885,0,0
0:3:20.723,385.981,49.1458,0,0.000885,0,0
0:3:21.314,386.857,49.2561,0,0.000885,0,0
0:3:21.911,388.792,49.5044,0,0.000885,0,0
0:3:22.515,389.673,49.6147,0,0.000885,0,0
0:3:23.113,390.145,49.6767,0,0.000885,0,0
0:3:23.707,391.786,49.8836,0,0.000885,0,0
0:3:24.300,393.485,50.0973,0,0.000885,0,0
0:3:24.890,394.833,50.2697,0,0.000885,0,0
0:3:25.511,395.42,50.3455,0,0.000885,0,0
0:3:26.113,396.946,50.5386,0,0.000885,0,0
0:3:26.714,397.355,50.5937,0,0.000885,0,0
0:3:27.319,398.765,50.773,0,0.000885,0,0
0:3:27.920,400.994,51.0557,0,0.000885,0,0
0:3:28.517,401.23,51.0833,0,0.000885,0,0
0:3:29.108,402.462,51.2418,0,0.000885,0,0
0:3:29.709,403.338,51.3522,0,0.000885,0,0
0:3:30.313,404.628,51.5176,0,0.000885,0,0
0:3:30.904,406.332,51.7383,0,0.000885,0,0
0:3:31.509,407.68,51.9106,0,0.000885,0,0
0:3:32.114,408.209,51.9727,0,0.000885,0,0
0:3:32.714,409.147,52.0968,0,0.000885,0,0
0:3:33.304,410.669,52.2898,0,0.000885,0,0
0:3:33.912,411.785,52.4277,0,0.000885,0,0
0:3:34.514,412.839,52.5656,0,0.000885,0,0
0:3:35.108,414.481,52.7725,0,0.000885,0,0
0:3:35.710,415.775,52.9379,0,0.000885,0,0
0:3:36.310,417.181,53.1172,0,0.000885,0,0
0:3:36.910,418.119,53.2344,0,0.000885,0,0
0:3:37.512,419.232,53.3792,0,0.000885,0,0
0:3:38.112,419.587,53.4206,0,0.000885,0,0
0:3:38.702,421.522,53.6688,0,0.000885,0,0
0:3:39.305,422.519,53.7998,0,0.000885,0,0
0:3:39.906,423.751,53.9515,0,0.000885,0,0
0:3:40.497,424.454,54.0411,0,0.000885,0,0
0:3:41.090,425.922,54.2273,0,0.000885,0,0
0:3:41.703,427.149,54.3858,0,0.000885,0,0
0:3:42.306,427.914,54.4824,0,0.000885,0,0
0:3:42.911,429.614,54.703,0,0.000885,0,0
0:3:43.506,430.61,54.8271,0,0.000885,0,0
0:3:44.096,432.194,55.0271,0,0.000885,0,0
0:3:44.700,432.959,55.1236,0,0.000885,0,0
0:3:45.293,434.836,55.3649,0,0.000885,0,0
0:3:45.886,435.89,55.4959,0,0.000885,0,0
0:3:46.498,436.419,55.5648,0,0.000885,0,0
0:3:47.092,437.709,55.7303,0,0.000885,0,0
0:3:47.697,439.293,55.9303,0,0.000885,0,0
0:3:48.296,440.699,56.1095,0,0.000885,0,0
0:3:48.890,440.819,56.1233,0,0.000885,0,0
0:3:49.504,442.927,56.3922,0,0.000885,0,0
0:3:50.096,443.514,56.4681,0,0.000885,0,0
0:3:50.688,445.218,56.6887,0,0.000885,0,0
0:3:51.278,446.214,56.8128,0,0.000885,0,0
0:3:51.879,447.153,56.93,0,0.000885,0,0
0:3:52.482,449.03,57.1713,0,0.000885,0,0
0:3:53.082,449.319,57.2127,0,0.000885,0,0
0:3:53.675,451.139,57.4402,0,0.000885,0,0
0:3:54.267,451.962,57.5436,0,0.000885,0,0
0:3:54.857,453.367,57.7229,0,0.000885,0,0
0:3:55.448,454.484,57.8677,0,0.000885,0,0
0:3:56.042,455.244,57.9642,0,0.000885,0,0
0:3:56.636,456.886,58.1711,0,0.000885,0,0
0:3:57.242,458.118,58.3296,0,0.000885,0,0
0:3:57.840,458.763,58.4124,0,0.000885,0,0
0:3:58.437,460.115,58.5848,0,0.000885,0,0
0:3:59.029,461.169,58.7158,0,0.000885,0,0
0:3:59.622,461.463,58.7571,0,0.000885,0,0
0:4:0.217,463.282,58.9846,0,0.000885,0,0
0:4:0.811,464.866,59.1915,0,0.000885,0,0
0:4:1.413,466.387,59.3845,0,0.000885,0,0
0:4:2.016,467.152,59.4811,0,0.000885,0,0
0:4:2.617,468.322,59.6259,0,0.000885,0,0
0:4:3.211,469.617,59.7913,0,0.000885,0,0
0:4:3.815,470.613,59.9223,0,0.000885,0,0
0:4:4.418,471.725,60.0602,0,0.000885,0,0
0:4:5.012,472.664,60.1843,0,0.000885,0,0
0:4:5.602,474.367,60.3981,0,0.000885,0,0
0:4:6.212,475.831,60.5842,0,0.000885,0,0
0:4:6.814,477.063,60.7428,0,0.000885,0,0
0:4:7.415,476.947,60.729,0,0.000885,0,0
0:4:8.017,478.704,60.9497,0,0.000885,0,0
0:4:8.609,479.879,61.1013,0,0.000885,0,0
0:4:9.212,481.462,61.3013,0,0.000885,0,0
0:4:9.801,482.343,61.4116,0,0.000885,0,0
0:4:10.393,483.633,61.5771,0,0.000885,0,0
0:4:10.999,484.394,61.6736,0,0.000885,0,0
0:4:11.602,485.861,61.8598,0,0.000885,0,0
0:4:12.205,486.742,61.977,0,0.000885,0,0
0:4:12.807,488.557,62.2045,0,0.000885,0,0
0:4:13.413,489.616,62.3424,0,0.000885,0,0
0:4:14.017,490.786,62.4872,0,0.000885,0,0
0:4:14.609,491.96,62.6389,0,0.000885,0,0
0:4:15.214,493.014,62.7699,0,0.000885,0,0
0:4:15.814,494.015,62.9009,0,0.000885,0,0
0:4:16.404,494.954,63.0181,0,0.000885,0,0
0:4:17.008,496.711,63.2456,0,0.000885,0,0
0:4:17.610,498.058,63.418,0,0.000885,0,0
0:4:18.212,499.411,63.5835,0,0.000885,0,0
0:4:18.803,500.349,63.7076,0,0.000885,0,0
0:4:19.394,501.519,63.8523,0,0.000885,0,0
0:4:19.984,502.458,63.9765,0,0.000885,0,0
0:4:20.579,503.223,64.073,0,0.000885,0,0
0:4:21.172,504.864,64.2798,0,0.000885,0,0
0:4:21.767,505.861,64.4108,0,0.000885,0,0
0:4:22.372,507.386,64.6039,0,0.000885,0,0
0:4:22.971,508.031,64.6866,0,0.000885,0,0
0:4:23.568,509.379,64.859,0,0.000885,0,0
0:4:24.161,510.963,65.0589,0,0.000885,0,0
0:4:24.755,511.844,65.1692,0,0.000885,0,0
0:4:25.347,512.898,65.3071,0,0.000885,0,0
0:4:25.939,514.246,65.4726,0,0.000885,0,0
0:4:26.537,515.771,65.6726,0,0.000885,0,0
0:4:27.139,516.007,65.7001,0,0.000885,0,0
0:4:27.740,517.239,65.8587,0,0.000885,0,0
0:4:28.336,519.059,66.0862,0,0.000885,0,0
0:4:28.929,520.522,66.2724,0,0.000885,0,0
0:4:29.518,521.225,66.362,0,0.000885,0,0
0:4:30.108,522.457,66.5206,0,0.000885,0,0
0:4:30.714,523.689,66.6792,0,0.000885,0,0
0:4:31.316,524.57,66.7895,0,0.000885,0,0
0:4:31.921,525.624,66.9274,0,0.000885,0,0
0:4:32.522,527.034,67.1067,0,0.000885,0,0
0:4:33.119,528.146,67.2446,0,0.000885,0,0
0:4:33.708,529.085,67.3687,0,0.000885,0,0
0:4:34.314,530.437,67.5341,0,0.000885,0,0
0:4:34.917,531.491,67.672,0,0.000885,0,0
0:4:35.508,533.017,67.8651,0,0.000885,0,0
0:4:36.118,534.249,68.0237,0,0.000885,0,0
0:4:36.718,535.655,68.2029,0,0.000885,0,0
0:4:37.320,536.478,68.3064,0,0.000885,0,0
0:4:37.920,537.71,68.4649,0,0.000885,0,0
0:4:38.512,538.235,68.527,0,0.000885,0,0
0:4:39.114,539.761,68.7269,0,0.000885,0,0
0:4:39.704,541.58,68.9545,0,0.000885,0,0
0:4:40.294,542.225,69.0372,0,0.000885,0,0
0:4:40.888,543.395,69.1889,0,0.000885,0,0
0:4:41.481,544.92,69.3819,0,0.000885,0,0
0:4:42.085,545.859,69.4992,0,0.000885,0,0
0:4:42.686,546.976,69.6439,0,0.000885,0,0
0:4:43.280,548.145,69.7956,0,0.000885,0,0
0:4:43.872,549.084,69.9128,0,0.000885,0,0
0:4:44.463,550.61,70.1059,0,0.000885,0,0
0:4:45.058,551.784,70.2576,0,0.000885,0,0
0:4:45.649,553.016,70.4093,0,0.000885,0,0
0:4:46.242,554.013,70.5403,0,0.000885,0,0
0:4:46.848,554.893,70.6506,0,0.000885,0,0
0:4:47.448,556.419,70.8436,0,0.000885,0,0
0:4:48.041,557.647,71.0022,0,0.000885,0,0
0:4:48.634,558.585,71.1194,0,0.000885,0,0
0:4:49.228,559.586,71.2504,0,0.000885,0,0
0:4:49.821,560.992,71.4297,0,0.000885,0,0
0:4:50.410,562.166,71.5745,0,0.000885,0,0
0:4:51.000,563.456,71.7399,0,0.000885,0,0
0:4:51.601,564.51,71.8778,0,0.000885,0,0
0:4:52.203,565.565,72.0088,0,0.000885,0,0
0:4:52.802,566.739,72.1605,0,0.000885,0,0
0:4:53.396,567.856,72.2984,0,0.000885,0,0
0:4:54.007,569.203,72.4708,0,0.000885,0,0
0:4:54.609,570.551,72.6432,0,0.000885,0,0
0:4:55.207,571.374,72.7466,0,0.000885,0,0
0:4:55.811,572.958,72.9534,0,0.000885,0,0
0:4:56.402,573.896,73.0706,0,0.000885,0,0
0:4:57.007,575.244,73.243,0,0.000885,0,0
0:4:57.607,576.125,73.3533,0,0.000885,0,0
0:4:58.213,578.002,73.5946,0,0.000885,0,0
0:4:58.814,578.353,73.636,0,0.000885,0,0
0:4:59.420,579.465,73.7808,0,0.000885,0,0
0:5:0.025,581.463,74.0359,0,0.000885,0,0
0:5:0.620,582.045,74.1117,0,0.000885,0,0
0:5:1.209,583.104,74.2427,0,0.000885,0,0
0:5:1.819,583.865,74.3393,0,0.000885,0,0
0:5:2.423,586.151,74.6289,0,0.000885,0,0
0:5:3.024,587.268,74.7736,0,0.000885,0,0
0:5:3.622,588.033,74.8702,0,0.000885,0,0
0:5:4.220,589.496,75.0563,0,0.000885,0,0
0:5:4.821,589.968,75.1184,0,0.000885,0,0
0:5:5.426,591.609,75.3252,0,0.000885,0,0
0:5:6.018,592.023,75.3804,0,0.000885,0,0
0:5:6.626,594.309,75.67,0,0.000885,0,0
0:5:7.231,595.19,75.7803,0,0.000885,0,0
0:5:7.834,596.071,75.8975,0,0.000885,0,0
0:5:8.430,597.481,76.0768,0,0.000885,0,0
0:5:9.024,598.771,76.2353,0,0.000885,0,0
0:5:9.619,599.772,76.3663,0,0.000885,0,0
0:5:10.214,601.297,76.5594,0,0.000885,0,0
0:5:10.823,601.827,76.6283,0,0.000885,0,0
0:5:11.420,603.646,76.8559,0,0.000885,0,0
0:5:12.027,604.349,76.9455,0,0.000885,0,0
0:5:12.630,605.407,77.0834,0,0.000885,0,0
0:5:13.229,607.049,77.2902,0,0.000885,0,0
0:5:13.828,608.281,77.4488,0,0.000885,0,0
0:5:14.423,609.046,77.5453,0,0.000885,0,0
0:5:15.020,610.572,77.7384,0,0.000885,0,0
0:5:15.613,611.746,77.8901,0,0.000885,0,0
0:5:16.207,612.507,77.9866,0,0.000885,0,0
0:5:16.813,614.095,78.1865,0,0.000885,0,0
0:5:17.419,614.976,78.3038,0,0.000885,0,0
0:5:18.023,616.03,78.4348,0,0.000885,0,0
0:5:18.619,617.498,78.6209,0,0.000885,0,0
0:5:19.213,618.672,78.7726,0,0.000885,0,0
0:5:19.807,620.02,78.945,0,0.000885,0,0
0:5:20.404,621.314,79.1104,0,0.000885,0,0
0:5:21.011,622.133,79.2139,0,0.000885,0,0
0:5:21.608,623.427,79.3793,0,0.000885,0,0
0:5:22.216,624.775,79.5517,0,0.000885,0,0
0:5:22.822,625.714,79.6689,0,0.000885,0,0
0:5:23.421,626.657,79.7861,0,0.000885,0,0
0:5:24.014,628.476,80.0206,0,0.000885,0,0
0:5:24.613,629.357,80.1309,0,0.000885,0,0
0:5:25.207,630.237,80.2412,0,0.000885,0,0
0:5:25.811,631.585,80.4136,0,0.000885,0,0
0:5:26.408,632.995,80.5928,0,0.000885,0,0
0:5:27.015,633.992,80.7238,0,0.000885,0,0
0:5:27.622,635.282,80.8893,0,0.000885,0,0
0:5:28.224,636.456,81.0341,0,0.000885,0,0
0:5:28.820,637.337,81.1513,0,0.000885,0,0
0:5:29.423,638.862,81.3443,0,0.000885,0,0
0:5:30.020,639.979,81.4822,0,0.000885,0,0
0:5:30.616,641.447,81.6684,0,0.000885,0,0
0:5:31.213,642.15,81.758,0,0.000885,0,0
0:5:31.824,643.618,81.9511,0,0.000885,0,0
0:5:32.426,643.969,81.9925,0,0.000885,0,0
0:5:33.023,645.615,82.1993,0,0.000885,0,0
0:5:33.617,646.496,82.3165,0,0.000885,0,0
0:5:34.216,648.315,82.544,0,0.000885,0,0
0:5:34.821,649.138,82.6475,0,0.000885,0,0
0:5:35.426,651.015,82.8888,0,0.000885,0,0
0:5:36.022,651.66,82.9715,0,0.000885,0,0
0:5:36.628,652.541,83.0818,0,0.000885,0,0
0:5:37.233,654.187,83.2956,0,0.000885,0,0
0:5:37.835,655.65,83.4817,0,0.000885,0,0
0:5:38.430,656.357,83.5714,0,0.000885,0,0
0:5:39.024,657.412,83.7024,0,0.000885,0,0
0:5:39.618,658.644,83.8609,0,0.000885,0,0
0:5:40.216,660.641,84.116,0,0.000885,0,0
0:5:40.813,660.819,84.1367,0,0.000885,0,0
0:5:41.408,662.225,84.316,0,0.000885,0,0
0:5:42.015,663.225,84.447,0,0.000885,0,0
0:5:42.621,664.809,84.6469,0,0.000885,0,0
0:5:43.217,666.041,84.8055,0,0.000885,0,0
0:5:43.816,667.038,84.9296,0,0.000885,0,0
0:5:44.411,668.274,85.0882,0,0.000885,0,0
0:5:45.007,669.506,85.2468,0,0.000885,0,0
0:5:45.623,670.503,85.3709,0,0.000885,0,0
0:5:46.216,671.735,85.5295,0,0.000885,0,0
0:5:46.822,673.025,85.6949,0,0.000885,0,0
0:5:47.427,673.674,85.7777,0,0.000885,0,0
0:5:48.032,675.436,85.9983,0,0.000885,0,0
0:5:48.628,676.548,86.1431,0,0.000885,0,0
0:5:49.223,677.313,86.2396,0,0.000885,0,0
0:5:49.827,678.425,86.3775,0,0.000885,0,0
0:5:50.422,679.662,86.5361,0,0.000885,0,0
0:5:51.019,681.187,86.7292,0,0.000885,0,0
0:5:51.616,682.713,86.9222,0,0.000885,0,0
0:5:52.224,683.594,87.0394,0,0.000885,0,0
0:5:52.828,684.826,87.198,0,0.000885,0,0
0:5:53.426,685.822,87.3221,0,0.000885,0,0
0:5:54.022,686.881,87.4531,0,0.000885,0,0
0:5:54.617,687.993,87.5979,0,0.000885,0,0
0:5:55.214,689.11,87.7427,0,0.000885,0,0
0:5:55.819,690.462,87.9151,0,0.000885,0,0
0:5:56.418,691.93,88.1012,0,0.000885,0,0
0:5:57.027,693.162,88.2529,0,0.000885,0,0
0:5:57.633,694.274,88.3977,0,0.000885,0,0
0:5:58.229,695.275,88.5218,0,0.000885,0,0
0:5:58.827,696.329,88.6597,0,0.000885,0,0
0:5:59.423,697.797,88.8458,0,0.000885,0,0
0:6:0.026,698.442,88.9286,0,0.000885,0,0
0:6:0.620,700.03,89.1285,0,0.000885,0,0
0:6:1.216,700.555,89.1975,0,0.000885,0,0
0:6:1.826,702.846,89.4871,0,0.000885,0,0
0:6:2.431,703.491,89.5698,0,0.000885,0,0
0:6:3.033,704.843,89.7422,0,0.000885,0,0
0:6:3.629,705.661,89.8456,0,0.000885,0,0
0:6:4.220,706.662,89.9766,0,0.000885,0,0
0:6:4.817,708.482,90.2041,0,0.000885,0,0
0:6:5.412,709.772,90.3696,0,0.000885,0,0
0:6:6.010,710.595,90.473,0,0.000885,0,0
0:6:6.607,711.475,90.5902,0,0.000885,0,0
0:6:7.214,712.885,90.7695,0,0.000885,0,0
0:6:7.818,714.175,90.935,0,0.000885,0,0
0:6:8.427,715.35,91.0797,0,0.000885,0,0
0:6:9.025,716.524,91.2314,0,0.000885,0,0
0:6:9.619,717.52,91.3555,0,0.000885,0,0
0:6:10.218,718.459,91.4796,0,0.000885,0,0
0:6:10.810,719.575,91.6175,0,0.000885,0,0
0:6:11.413,721.395,91.852,0,0.000885,0,0
0:6:12.019,722.333,91.9692,0,0.000885,0,0
0:6:12.625,723.859,92.1622,0,0.000885,0,0
0:6:13.220,724.976,92.307,0,0.000885,0,0
0:6:13.815,725.972,92.4311,0,0.000885,0,0
0:6:14.410,727.382,92.6104,0,0.000885,0,0
0:6:15.003,728.321,92.7345,0,0.000885,0,0
0:6:15.600,730.376,92.9965,0,0.000885,0,0
0:6:16.195,730.727,93.0379,0,0.000885,0,0
0:6:16.800,731.786,93.1757,0,0.000885,0,0
0:6:17.404,732.84,93.3068,0,0.000885,0,0
0:6:18.007,733.957,93.4515,0,0.000885,0,0
0:6:18.602,735.247,93.617,0,0.000885,0,0
0:6:19.197,736.421,93.7618,0,0.000885,0,0
0:6:19.794,737.653,93.9204,0,0.000885,0,0
0:6:20.389,738.827,94.0721,0,0.000885,0,0
0:6:20.986,739.886,94.2031,0,0.000885,0,0
0:6:21.583,741.176,94.3685,0,0.000885,0,0
0:6:22.190,742.057,94.4789,0,0.000885,0,0
0:6:22.792,743.231,94.6305,0,0.000885,0,0
0:6:23.390,744.463,94.7891,0,0.000885,0,0
0:6:23.989,745.58,94.927,0,0.000885,0,0
0:6:24.584,747.163,95.1339,0,0.000885,0,0
0:6:25.180,748.102,95.2511,0,0.000885,0,0
0:6:25.775,749.628,95.4441,0,0.000885,0,0
0:6:26.376,750.277,95.5269,0,0.000885,0,0
0:6:26.983,752.27,95.782,0,0.000885,0,0
0:6:27.587,752.799,95.8509,0,0.000885,0,0
0:6:28.186,754.383,96.0509,0,0.000885,0,0
0:6:28.779,755.148,96.1474,0,0.000885,0,0
0:6:29.374,756.264,96.2922,0,0.000885,0,0
0:6:29.968,758.084,96.5197,0,0.000885,0,0
0:6:30.564,758.844,96.6162,0,0.000885,0,0
0:6:31.157,760.019,96.7679,0,0.000885,0,0
0:6:31.764,760.957,96.8851,0,0.000885,0,0
0:6:32.371,761.838,97.0023,0,0.000885,0,0
0:6:32.973,763.6,97.223,0,0.000885,0,0
0:6:33.568,764.832,97.3816,0,0.000885,0,0
0:6:34.163,766.064,97.5401,0,0.000885,0,0
0:6:34.761,767.002,97.6573,0,0.000885,0,0
0:6:35.355,768.177,97.809,0,0.000885,0,0
0:6:35.952,769.409,97.9676,0,0.000885,0,0
0:6:36.550,770.29,98.0779,0,0.000885,0,0
0:6:37.155,771.642,98.2503,0,0.000885,0,0
0:6:37.761,772.816,98.3951,0,0.000885,0,0
0:6:38.358,774.342,98.595,0,0.000885,0,0
0:6:38.956,775.516,98.7398,0,0.000885,0,0
0:6:39.553,776.571,98.8777,0,0.000885,0,0
0:6:40.149,777.393,98.9811,0,0.000885,0,0
0:6:40.743,778.452,99.1121,0,0.000885,0,0
0:6:41.338,779.8,99.2845,0,0.000885,0,0
0:6:41.943,780.623,99.3948,0,0.000885,0,0
0:6:42.550,782.736,99.6637,0,0.000885,0,0
0:6:43.153,783.501,99.7602,0,0.000885,0,0
0:6:43.747,784.791,99.9257,0,0.000885,0,0
0:6:44.340,786.023,100.077,0,0.000885,0,0
0:6:44.936,787.197,100.229,0,0.000885,0,0
0:6:45.533,787.958,100.326,0,0.000885,0,0
0:6:46.128,788.839,100.436,0,0.000885,0,0
0:6:46.735,790.249,100.615,0,0.000885,0,0
0:6:47.341,791.659,100.794,0,0.000885,0,0
0:6:47.939,793.478,101.029,0,0.000885,0,0
0:6:48.537,794.123,101.112,0,0.000885,0,0
0:6:49.133,795.298,101.263,0,0.000885,0,0
0:6:49.730,796.294,101.387,0,0.000885,0,0
0:6:50.323,797.588,101.553,0,0.000885,0,0
0:6:50.916,798.878,101.718,0,0.000885,0,0
0:6:51.520,799.408,101.78,0,0.000885,0,0
0:6:52.125,801.049,101.994,0,0.000885,0,0
0:6:52.734,802.633,102.194,0,0.000885,0,0
0:6:53.329,803.34,102.284,0,0.000885,0,0
0:6:53.935,805.217,102.525,0,0.000885,0,0
0:6:54.529,806.276,102.656,0,0.000885,0,0
0:6:55.136,807.33,102.794,0,0.000885,0,0
0:6:55.732,808.153,102.897,0,0.000885,0,0
0:6:56.339,809.563,103.077,0,0.000885,0,0
0:6:56.945,810.444,103.187,0,0.000885,0,0
0:6:57.550,811.907,103.373,0,0.000885,0,0
0:6:58.149,812.788,103.49,0,0.000885,0,0
0:6:58.747,813.437,103.573,0,0.000885,0,0
0:6:59.345,815.43,103.821,0,0.000885,0,0
0:6:59.942,816.489,103.959,0,0.000885,0,0
0:7:0.534,817.721,104.118,0,0.000885,0,0
0:7:1.130,818.544,104.221,0,0.000885,0,0
0:7:1.738,820.128,104.421,0,0.000885,0,0
0:7:2.343,821.066,104.538,0,0.000885,0,0
0:7:2.946,822.125,104.676,0,0.000885,0,0
0:7:3.540,823.357,104.835,0,0.000885,0,0
0:7:4.134,824.589,104.986,0,0.000885,0,0
0:7:4.730,826.057,105.18,0,0.000885,0,0
0:7:5.326,827.347,105.338,0,0.000885,0,0
0:7:5.934,828.286,105.462,0,0.000885,0,0
0:7:6.532,829.518,105.621,0,0.000885,0,0
0:7:7.140,830.519,105.745,0,0.000885,0,0
0:7:7.743,831.399,105.855,0,0.000885,0,0
0:7:8.341,832.454,105.993,0,0.000885,0,0
0:7:8.940,834.157,106.207,0,0.000885,0,0
0:7:9.534,835.154,106.338,0,0.000885,0,0
0:7:10.127,836.564,106.517,0,0.000885,0,0
0:7:10.722,837.738,106.662,0,0.000885,0,0
0:7:11.315,838.441,106.752,0,0.000885,0,0
0:7:11.924,840.26,106.986,0,0.000885,0,0
0:7:12.531,841.319,107.117,0,0.000885,0,0
0:7:13.134,842.493,107.269,0,0.000885,0,0
0:7:13.726,843.725,107.427,0,0.000885,0,0
0:7:14.321,844.664,107.544,0,0.000885,0,0
0:7:14.919,846.074,107.724,0,0.000885,0,0
0:7:15.516,846.777,107.813,0,0.000885,0,0
0:7:16.122,847.951,107.965,0,0.000885,0,0
0:7:16.731,849.183,108.124,0,0.000885,0,0
0:7:17.334,850.593,108.303,0,0.000885,0,0
0:7:17.931,851.59,108.427,0,0.000885,0,0
0:7:18.527,853.058,108.613,0,0.000885,0,0
0:7:19.122,854.29,108.772,0,0.000885,0,0
0:7:19.719,855.228,108.889,0,0.000885,0,0
0:7:20.335,856.461,109.047,0,0.000885,0,0
0:7:20.937,857.341,109.158,0,0.000885,0,0
0:7:21.543,858.929,109.365,0,0.000885,0,0
0:7:22.149,859.748,109.468,0,0.000885,0,0
0:7:22.753,861.274,109.661,0,0.000885,0,0
0:7:23.351,862.448,109.813,0,0.000885,0,0
0:7:23.944,863.974,110.006,0,0.000885,0,0
0:7:24.538,864.561,110.082,0,0.000885,0,0
0:7:25.133,865.793,110.233,0,0.000885,0,0
0:7:25.729,867.087,110.399,0,0.000885,0,0
0:7:26.325,868.199,110.544,0,0.000885,0,0
0:7:26.933,869.494,110.709,0,0.000885,0,0
0:7:27.537,870.962,110.895,0,0.000885,0,0
0:7:28.136,871.9,111.012,0,0.000885,0,0
0:7:28.729,872.723,111.116,0,0.000885,0,0
0:7:29.325,874.187,111.302,0,0.000885,0,0
0:7:29.922,875.01,111.412,0,0.000885,0,0
0:7:30.518,876.656,111.619,0,0.000885,0,0
0:7:31.115,877.71,111.75,0,0.000885,0,0
0:7:31.715,878.768,111.888,0,0.000885,0,0
0:7:32.321,880.001,112.047,0,0.000885,0,0
0:7:32.923,881.584,112.247,0,0.000885,0,0
0:7:33.534,882.465,112.357,0,0.000885,0,0
0:7:34.128,883.581,112.502,0,0.000885,0,0
0:7:34.733,884.814,112.66,0,0.000885,0,0
0:7:35.338,885.872,112.791,0,0.000885,0,0
0:7:35.930,887.22,112.964,0,0.000885,0,0
0:7:36.539,888.159,113.081,0,0.000885,0,0
0:7:37.144,888.924,113.184,0,0.000885,0,0
0:7:37.749,890.623,113.398,0,0.000885,0,0
0:7:38.344,892.033,113.577,0,0.000885,0,0
0:7:38.937,893.559,113.77,0,0.000885,0,0
0:7:39.533,894.675,113.915,0,0.000885,0,0
0:7:40.125,895.436,114.012,0,0.000885,0,0
0:7:40.722,896.552,114.15,0,0.000885,0,0
0:7:41.341,897.26,114.239,0,0.000885,0,0
0:7:41.948,899.079,114.474,0,0.000885,0,0
0:7:42.551,900.075,114.598,0,0.000885,0,0
0:7:43.149,900.956,114.715,0,0.000885,0,0
0:7:43.747,902.188,114.874,0,0.000885,0,0
0:7:44.343,903.541,115.039,0,0.000885,0,0
0:7:44.941,905.124,115.246,0,0.000885,0,0
0:7:45.535,905.827,115.335,0,0.000885,0,0
0:7:46.128,907.473,115.542,0,0.000885,0,0
0:7:46.731,908.291,115.646,0,0.000885,0,0
0:7:47.340,909.528,115.804,0,0.000885,0,0
0:7:47.944,910.346,115.908,0,0.000885,0,0
0:7:48.542,912.166,116.142,0,0.000885,0,0
0:7:49.135,912.931,116.239,0,0.000885,0,0
0:7:49.729,913.985,116.37,0,0.000885,0,0
0:7:50.336,915.924,116.618,0,0.000885,0,0
0:7:50.943,916.276,116.666,0,0.000885,0,0
0:7:51.540,917.802,116.859,0,0.000885,0,0
0:7:52.148,919.154,117.032,0,0.000885,0,0
0:7:52.752,920.444,117.197,0,0.000885,0,0
0:7:53.350,921.089,117.28,0,0.000885,0,0
0:7:53.948,922.441,117.445,0,0.000885,0,0
0:7:54.546,923.38,117.569,0,0.000885,0,0
0:7:55.143,924.434,117.7,0,0.000885,0,0
0:7:55.738,926.195,117.928,0,0.000885,0,0
0:7:56.340,926.903,118.018,0,0.000885,0,0
0:7:56.946,928.486,118.218,0,0.000885,0,0
0:7:57.550,929.247,118.314,0,0.000885,0,0
0:7:58.148,931.071,118.548,0,0.000885,0,0
0:7:58.743,932.24,118.7,0,0.000885,0,0
0:7:59.337,933.063,118.804,0,0.000885,0,0
0:7:59.930,934.18,118.941,0,0.000885,0,0
0:8:0.527,935.59,119.121,0,0.000885,0,0
0:8:1.124,936.88,119.286,0,0.000885,0,0
0:8:1.731,937.641,119.383,0,0.000885,0,0
0:8:2.336,938.877,119.541,0,0.000885,0,0
0:8:2.943,940.109,119.7,0,0.000885,0,0
0:8:3.540,940.928,119.803,0,0.000885,0,0
0:8:4.138,943.219,120.093,0,0.000885,0,0
0:8:4.733,943.922,120.183,0,0.000885,0,0
0:8:5.328,945.158,120.341,0,0.000885,0,0
0:8:5.922,945.861,120.431,0,0.000885,0,0
0:8:6.525,947.209,120.603,0,0.000885,0,0
0:8:7.132,948.267,120.734,0,0.000885,0,0
0:8:7.738,949.384,120.879,0,0.000885,0,0
0:8:8.332,950.79,121.058,0,0.000885,0,0
0:8:8.925,952.142,121.231,0,0.000885,0,0
0:8:9.521,953.258,121.375,0,0.000885,0,0
0:8:10.117,954.197,121.493,0,0.000885,0,0
0:8:10.715,955.251,121.624,0,0.000885,0,0
0:8:11.313,956.661,121.803,0,0.000885,0,0
0:8:11.920,957.658,121.934,0,0.000885,0,0
0:8:12.523,959.01,122.106,0,0.000885,0,0
0:8:13.119,960.42,122.285,0,0.000885,0,0
0:8:13.717,961.474,122.416,0,0.000885,0,0
0:8:14.315,962.239,122.513,0,0.000885,0,0
0:8:14.913,964.116,122.754,0,0.000885,0,0
0:8:15.506,965.171,122.892,0,0.000885,0,0
0:8:16.099,965.994,122.996,0,0.000885,0,0
0:8:16.705,966.759,123.092,0,0.000885,0,0
0:8:17.309,968.227,123.278,0,0.000885,0,0
0:8:17.913,969.868,123.485,0,0.000885,0,0
0:8:18.509,970.749,123.602,0,0.000885,0,0
0:8:19.103,971.923,123.747,0,0.000885,0,0
0:8:19.698,973.213,123.913,0,0.000885,0,0
0:8:20.291,973.978,124.009,0,0.000885,0,0
0:8:20.890,975.446,124.195,0,0.000885,0,0
0:8:21.486,976.678,124.354,0,0.000885,0,0
0:8:22.093,977.795,124.499,0,0.000885,0,0
0:8:22.696,978.733,124.616,0,0.000885,0,0
0:8:23.296,980.259,124.809,0,0.000885,0,0
0:8:23.892,981.549,124.974,0,0.000885,0,0
0:8:24.489,982.194,125.057,0,0.000885,0,0
0:8:25.086,983.546,125.229,0,0.000885,0,0
0:8:25.681,984.721,125.381,0,0.000885,0,0
0:8:26.281,986.246,125.574,0,0.000885,0,0
0:8:26.887,987.185,125.691,0,0.000885,0,0
0:8:27.492,988.475,125.857,0,0.000885,0,0
0:8:28.087,989.885,126.036,0,0.000885,0,0
0:8:28.686,990.766,126.146,0,0.000885,0,0
0:8:29.281,991.526,126.243,0,0.000885,0,0
0:8:29.874,992.701,126.395,0,0.000885,0,0
0:8:30.470,994.347,126.602,0,0.000885,0,0
0:8:31.062,995.169,126.712,0,0.000885,0,0
0:8:31.669,996.637,126.898,0,0.000885,0,0
0:8:32.275,997.927,127.057,0,0.000885,0,0
0:8:32.880,999.044,127.201,0,0.000885,0,0
0:8:33.476,1000.16,127.346,0,0.000885,0,0
0:8:34.069,1001.21,127.477,0,0.000885,0,0
0:8:34.665,1002.5,127.643,0,0.000885,0,0
0:8:35.261,1003.86,127.815,0,0.000885,0,0
0:8:35.858,1004.56,127.905,0,0.000885,0,0
0:8:36.454,1006.09,128.098,0,0.000885,0,0
0:8:37.062,1007.2,128.242,0,0.000885,0,0
0:8:37.666,1008.79,128.442,0,0.000885,0,0
0:8:38.262,1009.61,128.546,0,0.000885,0,0
0:8:38.860,1010.9,128.711,0,0.000885,0,0
0:8:39.456,1012.19,128.877,0,0.000885,0,0
0:8:40.054,1012.95,128.973,0,0.000885,0,0
0:8:40.649,1014.24,129.139,0,0.000885,0,0
0:8:41.248,1015.3,129.27,0,0.000885,0,0
0:8:41.856,1016.06,129.366,0,0.000885,0,0
0:8:42.460,1017.53,129.559,0,0.000885,0,0
0:8:43.055,1018.76,129.711,0,0.000885,0,0
0:8:43.653,1020.41,129.925,0,0.000885,0,0
0:8:44.248,1021.23,130.028,0,0.000885,0,0
0:8:44.841,1022.64,130.207,0,0.000885,0,0
0:8:45.434,1024.05,130.387,0,0.000885,0,0
0:8:46.030,1025.11,130.518,0,0.000885,0,0
0:8:46.635,1025.69,130.594,0,0.000885,0,0
0:8:47.242,1027.22,130.787,0,0.000885,0,0
0:8:47.845,1028.69,130.973,0,0.000885,0,0
0:8:48.450,1029.21,131.042,0,0.000885,0,0
0:8:49.043,1030.51,131.207,0,0.000885,0,0
0:8:49.640,1032.03,131.4,0,0.000885,0,0
0:8:50.234,1033.21,131.552,0,0.000885,0,0
0:8:50.832,1034.44,131.711,0,0.000885,0,0
0:8:51.428,1035.79,131.883,0,0.000885,0,0
0:8:52.035,1036.61,131.986,0,0.000885,0,0
0:8:52.641,1037.49,132.097,0,0.000885,0,0
0:8:53.238,1038.78,132.262,0,0.000885,0,0
0:8:53.833,1040.01,132.421,0,0.000885,0,0
0:8:54.429,1041.48,132.607,0,0.000885,0,0
0:8:55.028,1042.95,132.793,0,0.000885,0,0
0:8:55.629,1043.59,132.876,0,0.000885,0,0
0:8:56.230,1044.3,132.965,0,0.000885,0,0
0:8:56.836,1045.65,133.138,0,0.000885,0,0
0:8:57.444,1047.35,133.352,0,0.000885,0,0
0:8:58.039,1047.82,133.414,0,0.000885,0,0
0:8:58.634,1049.52,133.627,0,0.000885,0,0
0:8:59.237,1050.29,133.724,0,0.000885,0,0
0:8:59.833,1051.93,133.938,0,0.000885,0,0
0:9:0.429,1053.1,134.082,0,0.000885,0,0
0:9:1.027,1054.46,134.255,0,0.000885,0,0
0:9:1.633,1055.45,134.386,0,0.000885,0,0
0:9:2.236,1056.74,134.551,0,0.000885,0,0
0:9:2.836,1058.21,134.737,0,0.000885,0,0
0:9:3.431,1058.62,134.786,0,0.000885,0,0
0:9:4.024,1059.86,134.944,0,0.000885,0,0
0:9:4.621,1060.74,135.055,0,0.000885,0,0
0:9:5.238,1062.08,135.227,0,0.000885,0,0
0:9:5.845,1063.73,135.441,0,0.000885,0,0
0:9:6.439,1065.26,135.634,0,0.000885,0,0
0:9:7.049,1066.37,135.772,0,0.000885,0,0
0:9:7.654,1067.72,135.944,0,0.000885,0,0
0:9:8.251,1068.36,136.027,0,0.000885,0,0
0:9:8.848,1069.25,136.144,0,0.000885,0,0
0:9:9.440,1070.71,136.33,0,0.000885,0,0
0:9:10.036,1071.95,136.482,0,0.000885,0,0
0:9:10.631,1073.71,136.709,0,0.000885,0,0
0:9:11.246,1074.65,136.826,0,0.000885,0,0
0:9:11.854,1075.76,136.971,0,0.000885,0,0
0:9:12.457,1076.41,137.054,0,0.000885,0,0
0:9:13.061,1077.76,137.226,0,0.000885,0,0
0:9:13.655,1078.93,137.371,0,0.000885,0,0
0:9:14.249,1080.05,137.516,0,0.000885,0,0
0:9:14.847,1081.75,137.73,0,0.000885,0,0
0:9:15.440,1082.39,137.812,0,0.000885,0,0
0:9:16.038,1083.68,137.978,0,0.000885,0,0
0:9:16.647,1084.98,138.143,0,0.000885,0,0
0:9:17.250,1085.74,138.24,0,0.000885,0,0
0:9:17.847,1087.15,138.419,0,0.000885,0,0
0:9:18.444,1088.2,138.557,0,0.000885,0,0
0:9:19.038,1089.73,138.75,0,0.000885,0,0
0:9:19.635,1090.79,138.881,0,0.000885,0,0
0:9:20.241,1092.02,139.04,0,0.000885,0,0
0:9:20.835,1093.55,139.233,0,0.000885,0,0
0:9:21.435,1093.9,139.281,0,0.000885,0,0
0:9:22.044,1095.31,139.46,0,0.000885,0,0
0:9:22.648,1096.48,139.612,0,0.000885,0,0
0:9:23.254,1098.07,139.812,0,0.000885,0,0
0:9:23.849,1099.01,139.929,0,0.000885,0,0
0:9:24.442,1096.78,139.646,0,0.000885,0,0
0:9:25.045,1095.01,139.419,0,0.000885,0,0
0:9:25.638,1097.77,139.771,0,0.000885,0,0
0:9:26.234,1102.53,140.377,0,0.000885,0,0
0:9:26.841,1105.87,140.805,0,0.000885,0,0
0:9:27.446,1108.93,141.191,0,0.000885,0,0
0:9:28.047,1110.4,141.377,0,0.000885,0,0
0:9:28.640,1110.86,141.439,0,0.000885,0,0
0:9:29.233,1110.69,141.418,0,0.000885,0,0
0:9:29.831,1111.45,141.515,0,0.000885,0,0
0:9:30.427,1112.51,141.646,0,0.000885,0,0
0:9:31.023,1112.57,141.66,0,0.000885,0,0
0:9:31.632,1114.97,141.963,0,0.000885,0,0
0:9:32.235,1115.8,142.066,0,0.000885,0,0
0:9:32.833,1117.5,142.287,0,0.000885,0,0
0:9:33.429,1118.2,142.377,0,0.000885,0,0
0:9:34.035,1119.31,142.515,0,0.000885,0,0
0:9:34.649,1120.14,142.618,0,0.000885,0,0
0:9:35.241,1120.61,142.68,0,0.000885,0,0
0:9:35.837,1122.37,142.908,0,0.000885,0,0
0:9:36.446,1122.96,142.977,0,0.000885,0,0
0:9:37.051,1125.19,143.266,0,0.000885,0,0
0:9:37.653,1125.83,143.342,0,0.000885,0,0
0:9:38.248,1128.12,143.638,0,0.000885,0,0
0:9:38.853,1129.06,143.756,0,0.000885,0,0
0:9:39.451,1129.76,143.845,0,0.000885,0,0
0:9:40.046,1130.94,143.997,0,0.000885,0,0
0:9:40.652,1132,144.128,0,0.000885,0,0
0:9:41.252,1133.4,144.307,0,0.000885,0,0
0:9:41.857,1134.4,144.438,0,0.000885,0,0
0:9:42.462,1135.69,144.604,0,0.000885,0,0
0:9:43.062,1137.05,144.776,0,0.000885,0,0
0:9:43.658,1138.22,144.921,0,0.000885,0,0
0:9:44.252,1139.27,145.059,0,0.000885,0,0
0:9:44.847,1140.04,145.155,0,0.000885,0,0
0:9:45.451,1141.97,145.404,0,0.000885,0,0
0:9:46.049,1142.62,145.486,0,0.000885,0,0
0:9:46.656,1143.79,145.631,0,0.000885,0,0
0:9:47.259,1144.91,145.776,0,0.000885,0,0
0:9:47.859,1146.44,145.969,0,0.000885,0,0
0:9:48.453,1147.08,146.052,0,0.000885,0,0
0:9:49.051,1148.2,146.19,0,0.000885,0,0
0:9:49.656,1149.61,146.376,0,0.000885,0,0
0:9:50.252,1151.25,146.583,0,0.000885,0,0
0:9:50.855,1152.6,146.755,0,0.000885,0,0
0:9:51.457,1153.78,146.9,0,0.000885,0,0
0:9:52.064,1154.71,147.024,0,0.000885,0,0
0:9:52.667,1155.07,147.065,0,0.000885,0,0
0:9:53.262,1156.53,147.251,0,0.000885,0,0
0:9:53.859,1157.88,147.424,0,0.000885,0,0
0:9:54.452,1158.94,147.562,0,0.000885,0,0
0:9:55.057,1160.35,147.741,0,0.000885,0,0
0:9:55.653,1161.81,147.927,0,0.000885,0,0
0:9:56.250,1163.17,148.099,0,0.000885,0,0
0:9:56.856,1163.99,148.203,0,0.000885,0,0
0:9:57.461,1164.58,148.279,0,0.000885,0,0
0:9:58.061,1165.92,148.451,0,0.000885,0,0
0:9:58.656,1167.39,148.637,0,0.000885,0,0
0:9:59.250,1168.86,148.823,0,0.000885,0,0
0:9:59.849,1169.8,148.941,0,0.000885,0,0
0:10:0.444,1171.21,149.12,0,0.000885,0,0
0:10:1.051,1172.03,149.23,0,0.000885,0,0
0:10:1.660,1173.32,149.389,0,0.000885,0,0
0:10:2.262,1174.5,149.54,0,0.000885,0,0
0:10:2.859,1175.79,149.706,0,0.000885,0,0
0:10:3.455,1177.2,149.885,0,0.000885,0,0
0:10:4.052,1177.84,149.968,0,0.000885,0,0
0:10:4.658,1179.19,150.14,0,0.000885,0,0
0:10:5.251,1180.36,150.292,0,0.000885,0,0
0:10:5.854,1181.13,150.388,0,0.000885,0,0
0:10:6.455,1182.12,150.513,0,0.000885,0,0
0:10:7.062,1183.83,150.726,0,0.000885,0,0
0:10:7.666,1185.24,150.906,0,0.000885,0,0
0:10:8.264,1186.82,151.112,0,0.000885,0,0
0:10:8.857,1187.47,151.195,0,0.000885,0,0
0:10:9.452,1188.29,151.299,0,0.000885,0,0
0:10:10.044,1189.7,151.478,0,0.000885,0,0
0:10:10.640,1190.64,151.595,0,0.000885,0,0
0:10:11.257,1192.28,151.809,0,0.000885,0,0
0:10:11.864,1193.22,151.926,0,0.000885,0,0
0:10:12.467,1194.63,152.105,0,0.000885,0,0
0:10:13.067,1195.57,152.222,0,0.000885,0,0
0:10:13.662,1196.68,152.367,0,0.000885,0,0
0:10:14.259,1198.39,152.581,0,0.000885,0,0
0:10:14.856,1199.68,152.746,0,0.000885,0,0
0:10:15.452,1199.97,152.788,0,0.000885,0,0
0:10:16.056,1201.38,152.967,0,0.000885,0,0
0:10:16.656,1202.79,153.146,0,0.000885,0,0
0:10:17.263,1203.96,153.291,0,0.000885,0,0
0:10:17.867,1205.66,153.512,0,0.000885,0,0
0:10:18.464,1206.54,153.622,0,0.000885,0,0
0:10:19.061,1207.78,153.781,0,0.000885,0,0
0:10:19.654,1208.77,153.905,0,0.000885,0,0
0:10:20.256,1209.48,153.994,0,0.000885,0,0
0:10:20.859,1210.83,154.167,0,0.000885,0,0
0:10:21.465,1211.77,154.284,0,0.000885,0,0
0:10:22.071,1213.35,154.491,0,0.000885,0,0
0:10:22.676,1214.41,154.622,0,0.000885,0,0
0:10:23.271,1215.76,154.794,0,0.000885,0,0
0:10:23.862,1216.94,154.946,0,0.000885,0,0
0:10:24.458,1218.23,155.111,0,0.000885,0,0
0:10:25.055,1219.75,155.304,0,0.000885,0,0
0:10:25.652,1219.99,155.332,0,0.000885,0,0
0:10:26.258,1221.75,155.56,0,0.000885,0,0
0:10:26.864,1222.51,155.656,0,0.000885,0,0
0:10:27.469,1223.8,155.822,0,0.000885,0,0
0:10:28.066,1225.09,155.987,0,0.000885,0,0
0:10:28.663,1226.09,156.111,0,0.000885,0,0
0:10:29.259,1227.5,156.29,0,0.000885,0,0
0:10:29.852,1228.73,156.449,0,0.000885,0,0
0:10:30.455,1229.79,156.58,0,0.000885,0,0
0:10:31.051,1231.14,156.752,0,0.000885,0,0
0:10:31.658,1231.9,156.849,0,0.000885,0,0
0:10:32.262,1233.6,157.069,0,0.000885,0,0
0:10:32.865,1234.25,157.152,0,0.000885,0,0
0:10:33.458,1235.42,157.297,0,0.000885,0,0
0:10:34.052,1236.65,157.456,0,0.000885,0,0
0:10:34.658,1238.42,157.683,0,0.000885,0,0
0:10:35.255,1239.42,157.807,0,0.000885,0,0
0:10:35.860,1240.59,157.959,0,0.000885,0,0
0:10:36.458,1241,158.007,0,0.000885,0,0
0:10:37.066,1242.76,158.235,0,0.000885,0,0
0:10:37.672,1244.17,158.414,0,0.000885,0,0
0:10:38.270,1245.11,158.531,0,0.000885,0,0
0:10:38.866,1246.4,158.697,0,0.000885,0,0
0:10:39.459,1247.4,158.821,0,0.000885,0,0
0:10:40.053,1248.46,158.959,0,0.000885,0,0
0:10:40.657,1249.92,159.145,0,0.000885,0,0
0:10:41.253,1250.98,159.283,0,0.000885,0,0
0:10:41.860,1252.33,159.448,0,0.000885,0,0
0:10:42.464,1253.15,159.558,0,0.000885,0,0
0:10:43.064,1254.39,159.71,0,0.000885,0,0
0:10:43.658,1255.56,159.862,0,0.000885,0,0
0:10:44.254,1257.26,160.082,0,0.000885,0,0
0:10:44.862,1257.79,160.145,0,0.000885,0,0
0:10:45.456,1259.49,160.365,0,0.000885,0,0
0:10:46.050,1260.55,160.496,0,0.000885,0,0
0:10:46.660,1261.84,160.662,0,0.000885,0,0
0:10:47.266,1262.66,160.765,0,0.000885,0,0
0:10:47.870,1263.95,160.931,0,0.000885,0,0
0:10:48.467,1265.83,161.172,0,0.000885,0,0
0:10:49.062,1266.42,161.248,0,0.000885,0,0
0:10:49.655,1267.47,161.379,0,0.000885,0,0
0:10:50.258,1268.35,161.489,0,0.000885,0,0
0:10:50.856,1269.94,161.696,0,0.000885,0,0
0:10:51.463,1271.17,161.848,0,0.000885,0,0
0:10:52.067,1272.05,161.965,0,0.000885,0,0
0:10:52.670,1273.23,162.11,0,0.000885,0,0
0:10:53.262,1273.29,162.116,0,0.000885,0,0
0:10:53.855,1274.81,162.316,0,0.000885,0,0
0:10:54.461,1276.87,162.578,0,0.000885,0,0
0:10:55.057,1278.16,162.737,0,0.000885,0,0
0:10:55.664,1279.51,162.909,0,0.000885,0,0
0:10:56.260,1280.27,163.006,0,0.000885,0,0
0:10:56.866,1281.8,163.206,0,0.000885,0,0
0:10:57.470,1282.91,163.344,0,0.000885,0,0
0:10:58.063,1272.23,161.985,0,0.000885,0,0
0:10:58.303,1260.37,160.475,0,0.000885,0,0