File: DataFile2021-07-25_062633.csv
Test ID:,Date Tested:,Time:,Test Type:,Diameter Avg. (mm):,Cyl. Corr. Factor:,Height (mm):,Age (days):,Weight (kN):,Break Type:,Ramp Rate (MPa/s):,Load at Break (kN):,Stress at Break (MPa):
12,7/25/2021,06:26,Cylinder,150,1,300,0,3.89,3,0.31,525.1,29.72
Sample Time,Load (kN),Stress (MPa),Long. Strain,Trans. Strain,Chan1 Deflection (mm),Chan2 Deflection (mm)
0:0:12.688,6.57002,0.372317,0,0.000885,0,0
0:0:12.786,8.03349,0.455054,0,0.000885,0,0
0:0:12.886,8.3849,0.475738,0,0.000885,0,0
0:0:12.987,8.3849,0.475738,0,0.000885,0,0
0:0:13.088,9.14999,0.517107,0,0.000885,0,0
0:0:13.185,9.5014,0.537791,0,0.000885,0,0
0:0:13.282,9.5014,0.537791,0,0.000885,0,0
0:0:13.382,10.9693,0.620528,0,0.000885,0,0
0:0:13.484,11.8456,0.668791,0,0.000885,0,0
0:0:13.583,11.552,0.655002,0,0.000885,0,0
0:0:13.681,11.552,0.655002,0,0.000885,0,0
0:0:13.780,11.9657,0.675686,0,0.000885,0,0
0:0:13.880,12.2593,0.69637,0,0.000885,0,0
0:0:13.982,13.1356,0.744634,0,0.000885,0,0
0:0:14.082,13.1356,0.744634,0,0.000885,0,0
0:0:14.180,14.6035,0.827371,0,0.000885,0,0
0:0:14.278,16.0714,0.910108,0,0.000885,0,0
0:0:14.376,17.3036,0.979056,0,0.000885,0,0
0:0:14.477,17.3036,0.979056,0,0.000885,0,0
0:0:14.579,17.9486,1.01353,0,0.000885,0,0
0:0:14.677,18.4156,1.04111,0,0.000885,0,0
0:0:14.776,18.4156,1.04111,0,0.000885,0,0
0:0:14.874,18.6514,1.0549,0,0.000885,0,0
0:0:14.976,18.8871,1.06869,0,0.000885,0,0
0:0:15.076,19.2386,1.08937,0,0.000885,0,0
0:0:15.175,19.2386,1.08937,0,0.000885,0,0
0:0:15.272,19.7056,1.11695,0,0.000885,0,0
0:0:15.371,20.5864,1.16521,0,0.000885,0,0
0:0:15.472,21.347,1.20658,0,0.000885,0,0
0:0:15.572,21.347,1.20658,0,0.000885,0,0
0:0:15.672,22.1699,1.25485,0,0.000885,0,0
0:0:15.770,23.1085,1.31,0,0.000885,0,0
0:0:15.869,23.6378,1.33758,0,0.000885,0,0
0:0:15.969,23.6378,1.33758,0,0.000885,0,0
0:0:16.069,24.7499,1.39964,0,0.000885,0,0
0:0:16.170,25.6885,1.45479,0,0.000885,0,0
0:0:16.268,26.4536,1.49616,0,0.000885,0,0
0:0:16.366,26.4536,1.49616,0,0.000885,0,0
0:0:16.466,27.0986,1.53064,0,0.000885,0,0
0:0:16.568,28.0371,1.58579,0,0.000885,0,0
0:0:16.667,28.0371,1.58579,0,0.000885,0,0
0:0:16.765,28.6821,1.62027,0,0.000885,0,0
0:0:16.864,29.7942,1.68922,0,0.000885,0,0
0:0:16.964,30.7906,1.74437,0,0.000885,0,0
0:0:17.065,30.7906,1.74437,0,0.000885,0,0
0:0:17.166,31.6713,1.79264,0,0.000885,0,0
0:0:17.265,32.7834,1.85469,0,0.000885,0,0
0:0:17.362,33.5485,1.89606,0,0.000885,0,0
0:0:17.460,33.5485,1.89606,0,0.000885,0,0
0:0:17.562,34.1935,1.93743,0,0.000885,0,0
0:0:17.662,35.3678,1.99948,0,0.000885,0,0
0:0:17.762,36.5377,2.06843,0,0.000885,0,0
0:0:17.860,36.5377,2.06843,0,0.000885,0,0
0:0:17.959,37.1827,2.1029,0,0.000885,0,0
0:0:18.061,37.89,2.14427,0,0.000885,0,0
0:0:18.160,37.89,2.14427,0,0.000885,0,0
0:0:18.262,38.7663,2.19253,0,0.000885,0,0
0:0:18.363,39.9984,2.26148,0,0.000885,0,0
0:0:18.464,41.1727,2.33043,0,0.000885,0,0
0:0:18.567,41.8177,2.3649,0,0.000885,0,0
0:0:18.668,41.8177,2.3649,0,0.000885,0,0
0:0:18.769,43.0499,2.43385,0,0.000885,0,0
0:0:18.871,43.7527,2.47522,0,0.000885,0,0
0:0:18.972,43.7527,2.47522,0,0.000885,0,0
0:0:19.073,44.8069,2.53727,0,0.000885,0,0
0:0:19.174,46.0391,2.60622,0,0.000885,0,0
0:0:19.276,46.9198,2.65448,0,0.000885,0,0
0:0:19.377,46.9198,2.65448,0,0.000885,0,0
0:0:19.478,47.8584,2.70964,0,0.000885,0,0
0:0:19.578,48.8548,2.7648,0,0.000885,0,0
0:0:19.680,49.6777,2.81306,0,0.000885,0,0
0:0:19.781,49.6777,2.81306,0,0.000885,0,0
0:0:19.879,50.5585,2.86132,0,0.000885,0,0
0:0:19.977,51.1412,2.8958,0,0.000885,0,0
0:0:20.077,51.9641,2.93717,0,0.000885,0,0
0:0:20.178,51.9641,2.93717,0,0.000885,0,0
0:0:20.280,52.4935,2.97164,0,0.000885,0,0
0:0:20.379,53.3698,3.0199,0,0.000885,0,0
0:0:20.476,53.9569,3.05438,0,0.000885,0,0
0:0:20.574,53.9569,3.05438,0,0.000885,0,0
0:0:20.676,54.9533,3.10954,0,0.000885,0,0
0:0:20.777,56.0698,3.17159,0,0.000885,0,0
0:0:20.876,57.1241,3.23364,0,0.000885,0,0
0:0:20.973,57.1241,3.23364,0,0.000885,0,0
0:0:21.073,57.8892,3.27501,0,0.000885,0,0
0:0:21.172,59.059,3.34396,0,0.000885,0,0
0:0:21.274,59.059,3.34396,0,0.000885,0,0
0:0:21.374,59.8241,3.38533,0,0.000885,0,0
0:0:21.472,61.1719,3.46117,0,0.000885,0,0
0:0:21.572,61.8169,3.49564,0,0.000885,0,0
0:0:21.672,61.8169,3.49564,0,0.000885,0,0
0:0:21.773,62.3463,3.53012,0,0.000885,0,0
0:0:21.871,63.1069,3.57148,0,0.000885,0,0
0:0:21.969,64.0455,3.62664,0,0.000885,0,0
0:0:22.069,64.0455,3.62664,0,0.000885,0,0
0:0:22.170,64.6905,3.66112,0,0.000885,0,0
0:0:22.270,65.5712,3.70938,0,0.000885,0,0
0:0:22.370,66.3319,3.75075,0,0.000885,0,0
0:0:22.468,66.3319,3.75075,0,0.000885,0,0
0:0:22.566,67.097,3.79901,0,0.000885,0,0
0:0:22.668,67.7998,3.83349,0,0.000885,0,0
0:0:22.768,68.4448,3.87485,0,0.000885,0,0
0:0:22.868,68.4448,3.87485,0,0.000885,0,0
0:0:22.969,69.2054,3.91622,0,0.000885,0,0
0:0:23.072,70.0284,3.96449,0,0.000885,0,0
0:0:23.174,70.4999,3.99206,0,0.000885,0,0
0:0:23.274,70.4999,3.99206,0,0.000885,0,0
0:0:23.376,71.2605,4.03343,0,0.000885,0,0
0:0:23.477,72.0834,4.0817,0,0.000885,0,0
0:0:23.579,72.9019,4.12306,0,0.000885,0,0
0:0:23.679,72.9019,4.12306,0,0.000885,0,0
0:0:23.781,73.7248,4.17133,0,0.000885,0,0
0:0:23.881,74.6056,4.21959,0,0.000885,0,0
0:0:23.982,75.3084,4.26096,0,0.000885,0,0
0:0:24.082,75.3084,4.26096,0,0.000885,0,0
0:0:24.183,76.247,4.31612,0,0.000885,0,0
0:0:24.284,77.1233,4.36438,0,0.000885,0,0
0:0:24.385,78.3554,4.43333,0,0.000885,0,0
0:0:24.483,78.3554,4.43333,0,0.000885,0,0
0:0:24.581,78.8848,4.46091,0,0.000885,0,0
0:0:24.681,79.8812,4.52296,0,0.000885,0,0
0:0:24.783,79.8812,4.52296,0,0.000885,0,0
0:0:24.882,80.8197,4.57122,0,0.000885,0,0
0:0:24.980,81.6427,4.61949,0,0.000885,0,0
0:0:25.078,82.4033,4.66086,0,0.000885,0,0
0:0:25.178,82.4033,4.66086,0,0.000885,0,0
0:0:25.280,83.0483,4.70222,0,0.000885,0,0
0:0:25.381,84.0447,4.75738,0,0.000885,0,0
0:0:25.479,84.9254,4.80565,0,0.000885,0,0
0:0:25.577,84.9254,4.80565,0,0.000885,0,0
0:0:25.676,85.8062,4.85391,0,0.000885,0,0
0:0:25.778,86.6247,4.90217,0,0.000885,0,0
0:0:25.879,87.3319,4.94354,0,0.000885,0,0
0:0:25.978,87.3319,4.94354,0,0.000885,0,0
0:0:26.074,88.2082,4.9918,0,0.000885,0,0
0:0:26.173,89.1468,5.04696,0,0.000885,0,0
0:0:26.274,89.1468,5.04696,0,0.000885,0,0
0:0:26.376,89.734,5.07454,0,0.000885,0,0
0:0:26.477,90.5569,5.1228,0,0.000885,0,0
0:0:26.573,91.5533,5.17796,0,0.000885,0,0
0:0:26.672,91.5533,5.17796,0,0.000885,0,0
0:0:26.773,91.9625,5.20554,0,0.000885,0,0
0:0:26.874,92.9589,5.2607,0,0.000885,0,0
0:0:26.973,93.5461,5.29517,0,0.000885,0,0
0:0:27.071,93.5461,5.29517,0,0.000885,0,0
0:0:27.168,94.6048,5.35033,0,0.000885,0,0
0:0:27.269,95.6012,5.41238,0,0.000885,0,0
0:0:27.370,96.5398,5.46065,0,0.000885,0,0
0:0:27.471,96.5398,5.46065,0,0.000885,0,0
0:0:27.570,97.1269,5.49512,0,0.000885,0,0
0:0:27.667,97.7719,5.5296,0,0.000885,0,0
0:0:27.767,97.7719,5.5296,0,0.000885,0,0
0:0:27.869,98.7105,5.58475,0,0.000885,0,0
0:0:27.969,99.529,5.63302,0,0.000885,0,0
0:0:28.071,100.352,5.68128,0,0.000885,0,0
0:0:28.172,100.352,5.68128,0,0.000885,0,0
0:0:28.275,100.939,5.70886,0,0.000885,0,0
0:0:28.375,101.7,5.75712,0,0.000885,0,0
0:0:28.477,102.171,5.7847,0,0.000885,0,0
0:0:28.578,102.171,5.7847,0,0.000885,0,0
0:0:28.679,103.168,5.83986,0,0.000885,0,0
0:0:28.780,104.4,5.90881,0,0.000885,0,0
0:0:28.882,104.867,5.93639,0,0.000885,0,0
0:0:28.982,104.867,5.93639,0,0.000885,0,0
0:0:29.082,106.335,6.01912,0,0.000885,0,0
0:0:29.182,106.86,6.0467,0,0.000885,0,0
0:0:29.283,108.27,6.12944,0,0.000885,0,0
0:0:29.385,108.27,6.12944,0,0.000885,0,0
0:0:29.486,109.088,6.17081,0,0.000885,0,0
0:0:29.585,109.795,6.21218,0,0.000885,0,0
0:0:29.684,110.734,6.26733,0,0.000885,0,0
0:0:29.782,110.734,6.26733,0,0.000885,0,0
0:0:29.884,111.379,6.30181,0,0.000885,0,0
0:0:29.984,112.491,6.36386,0,0.000885,0,0
0:0:30.084,113.314,6.41212,0,0.000885,0,0
0:0:30.181,113.314,6.41212,0,0.000885,0,0
0:0:30.280,114.132,6.46039,0,0.000885,0,0
0:0:30.381,115.543,6.53623,0,0.000885,0,0
0:0:30.483,116.597,6.59828,0,0.000885,0,0
0:0:30.581,116.597,6.59828,0,0.000885,0,0
0:0:30.679,117.362,6.63965,0,0.000885,0,0
0:0:30.779,118.474,6.7017,0,0.000885,0,0
0:0:30.879,118.474,6.7017,0,0.000885,0,0
0:0:30.981,119.297,6.74997,0,0.000885,0,0
0:0:31.081,120,6.79134,0,0.000885,0,0
0:0:31.178,120.702,6.8327,0,0.000885,0,0
0:0:31.275,120.702,6.8327,0,0.000885,0,0
0:0:31.376,121.641,6.88097,0,0.000885,0,0
0:0:31.477,122.402,6.92923,0,0.000885,0,0
0:0:31.578,122.931,6.95681,0,0.000885,0,0
0:0:31.676,122.931,6.95681,0,0.000885,0,0
0:0:31.774,123.927,7.01197,0,0.000885,0,0
0:0:31.874,124.457,7.03955,0,0.000885,0,0
0:0:31.976,125.044,7.07402,0,0.000885,0,0
0:0:32.077,125.044,7.07402,0,0.000885,0,0
0:0:32.175,125.925,7.12918,0,0.000885,0,0
0:0:32.273,126.921,7.18434,0,0.000885,0,0
0:0:32.373,127.624,7.21881,0,0.000885,0,0
0:0:32.474,127.624,7.21881,0,0.000885,0,0
0:0:32.574,128.563,7.27397,0,0.000885,0,0
0:0:32.672,129.207,7.30844,0,0.000885,0,0
0:0:32.770,129.207,7.30844,0,0.000885,0,0
0:0:32.871,130.382,7.37739,0,0.000885,0,0
0:0:32.971,130.907,7.40497,0,0.000885,0,0
0:0:33.073,131.436,7.43944,0,0.000885,0,0
0:0:33.173,131.436,7.43944,0,0.000885,0,0
0:0:33.274,132.081,7.47392,0,0.000885,0,0
0:0:33.377,133.02,7.52907,0,0.000885,0,0
0:0:33.479,133.843,7.57044,0,0.000885,0,0
0:0:33.580,133.843,7.57044,0,0.000885,0,0
0:0:33.682,134.194,7.59113,0,0.000885,0,0
0:0:33.782,134.777,7.6256,0,0.000885,0,0
0:0:33.884,135.951,7.69455,0,0.000885,0,0
0:0:33.984,135.951,7.69455,0,0.000885,0,0
0:0:34.086,136.654,7.73592,0,0.000885,0,0
0:0:34.187,137.299,7.77039,0,0.000885,0,0
0:0:34.288,138.357,7.83244,0,0.000885,0,0
0:0:34.388,138.357,7.83244,0,0.000885,0,0
0:0:34.489,139.238,7.88071,0,0.000885,0,0
0:0:34.590,139.821,7.91518,0,0.000885,0,0
0:0:34.690,140.937,7.97723,0,0.000885,0,0
0:0:34.787,140.937,7.97723,0,0.000885,0,0
0:0:34.887,141.698,8.0186,0,0.000885,0,0
0:0:34.989,142.579,8.06687,0,0.000885,0,0
0:0:35.089,143.402,8.11513,0,0.000885,0,0
0:0:35.188,143.402,8.11513,0,0.000885,0,0
0:0:35.286,144.34,8.17029,0,0.000885,0,0
0:0:35.385,145.217,8.21855,0,0.000885,0,0
0:0:35.487,146.04,8.26681,0,0.000885,0,0
0:0:35.587,146.04,8.26681,0,0.000885,0,0
0:0:35.686,146.742,8.30129,0,0.000885,0,0
0:0:35.783,147.565,8.34955,0,0.000885,0,0
0:0:35.882,147.565,8.34955,0,0.000885,0,0
0:0:35.983,148.855,8.42539,0,0.000885,0,0
0:0:36.084,149.794,8.47366,0,0.000885,0,0
0:0:36.184,151.026,8.5495,0,0.000885,0,0
0:0:36.281,151.026,8.5495,0,0.000885,0,0
0:0:36.380,151.965,8.59776,0,0.000885,0,0
0:0:36.482,153.134,8.66671,0,0.000885,0,0
0:0:36.582,154.251,8.72876,0,0.000885,0,0
0:0:36.681,154.251,8.72876,0,0.000885,0,0
0:0:36.779,155.132,8.77703,0,0.000885,0,0
0:0:36.877,156.244,8.83908,0,0.000885,0,0
0:0:36.978,157.24,8.90113,0,0.000885,0,0
0:0:37.079,157.24,8.90113,0,0.000885,0,0
0:0:37.180,157.885,8.93561,0,0.000885,0,0
0:0:37.278,159.06,8.99766,0,0.000885,0,0
0:0:37.377,159.647,9.03213,0,0.000885,0,0
0:0:37.476,159.647,9.03213,0,0.000885,0,0
0:0:37.578,160.763,9.09418,0,0.000885,0,0
0:0:37.678,161.875,9.16313,0,0.000885,0,0
0:0:37.776,161.875,9.16313,0,0.000885,0,0
0:0:37.874,162.284,9.18382,0,0.000885,0,0
0:0:37.974,162.992,9.22519,0,0.000885,0,0
0:0:38.074,164.513,9.30792,0,0.000885,0,0
0:0:38.176,164.513,9.30792,0,0.000885,0,0
0:0:38.276,165.336,9.35619,0,0.000885,0,0
0:0:38.379,166.097,9.39755,0,0.000885,0,0
0:0:38.482,166.977,9.44582,0,0.000885,0,0
0:0:38.582,166.977,9.44582,0,0.000885,0,0
0:0:38.684,168.094,9.51477,0,0.000885,0,0
0:0:38.784,169.032,9.56303,0,0.000885,0,0
0:0:38.886,169.909,9.61819,0,0.000885,0,0
0:0:38.986,169.909,9.61819,0,0.000885,0,0
0:0:39.088,170.732,9.65955,0,0.000885,0,0
0:0:39.189,171.377,9.70092,0,0.000885,0,0
0:0:39.290,172.373,9.75608,0,0.000885,0,0
0:0:39.390,172.373,9.75608,0,0.000885,0,0
0:0:39.492,173.018,9.79056,0,0.000885,0,0
0:0:39.593,173.841,9.83882,0,0.000885,0,0
0:0:39.694,174.544,9.88019,0,0.000885,0,0
0:0:39.791,174.544,9.88019,0,0.000885,0,0
0:0:39.889,175.425,9.92845,0,0.000885,0,0
0:0:39.990,176.243,9.97671,0,0.000885,0,0
0:0:40.092,177.182,10.025,0,0.000885,0,0
0:0:40.191,177.182,10.025,0,0.000885,0,0
0:0:40.289,177.889,10.0663,0,0.000885,0,0
0:0:40.389,178.356,10.0939,0,0.000885,0,0
0:0:40.488,179.41,10.156,0,0.000885,0,0
0:0:40.589,179.41,10.156,0,0.000885,0,0
0:0:40.690,180.117,10.1905,0,0.000885,0,0
0:0:40.788,180.82,10.2318,0,0.000885,0,0
0:0:40.886,180.82,10.2318,0,0.000885,0,0
0:0:40.985,181.639,10.2801,0,0.000885,0,0
0:0:41.086,182.226,10.3146,0,0.000885,0,0
0:0:41.187,183.285,10.3697,0,0.000885,0,0
0:0:41.285,183.285,10.3697,0,0.000885,0,0
0:0:41.384,183.636,10.3904,0,0.000885,0,0
0:0:41.484,184.223,10.4249,0,0.000885,0,0
0:0:41.586,185.162,10.48,0,0.000885,0,0
0:0:41.685,185.162,10.48,0,0.000885,0,0
0:0:41.784,186.1,10.5283,0,0.000885,0,0
0:0:41.881,186.625,10.5628,0,0.000885,0,0
0:0:41.981,187.564,10.611,0,0.000885,0,0
0:0:42.083,187.564,10.611,0,0.000885,0,0
0:0:42.182,188.209,10.6524,0,0.000885,0,0
0:0:42.280,188.974,10.6938,0,0.000885,0,0
0:0:42.378,188.974,10.6938,0,0.000885,0,0
0:0:42.479,189.557,10.7282,0,0.000885,0,0
0:0:42.580,190.495,10.7765,0,0.000885,0,0
0:0:42.682,191.202,10.8179,0,0.000885,0,0
0:0:42.779,191.202,10.8179,0,0.000885,0,0
0:0:42.877,192.372,10.8868,0,0.000885,0,0
0:0:42.976,193.369,10.942,0,0.000885,0,0
0:0:43.077,193.84,10.9696,0,0.000885,0,0
0:0:43.177,193.84,10.9696,0,0.000885,0,0
0:0:43.277,194.952,11.0316,0,0.000885,0,0
0:0:43.377,195.953,11.0868,0,0.000885,0,0
0:0:43.480,196.536,11.1212,0,0.000885,0,0
0:0:43.580,196.536,11.1212,0,0.000885,0,0
0:0:43.680,197.065,11.1488,0,0.000885,0,0
0:0:43.782,198.119,11.2109,0,0.000885,0,0
0:0:43.882,199.058,11.266,0,0.000885,0,0
0:0:43.983,199.058,11.266,0,0.000885,0,0
0:0:44.082,199.939,11.3143,0,0.000885,0,0
0:0:44.183,200.877,11.3695,0,0.000885,0,0
0:0:44.283,201.58,11.4039,0,0.000885,0,0
0:0:44.383,201.58,11.4039,0,0.000885,0,0
0:0:44.483,202.581,11.466,0,0.000885,0,0
0:0:44.584,203.635,11.5211,0,0.000885,0,0
0:0:44.684,204.516,11.5763,0,0.000885,0,0
0:0:44.784,204.516,11.5763,0,0.000885,0,0
0:0:44.880,205.57,11.6315,0,0.000885,0,0
0:0:44.977,206.157,11.6659,0,0.000885,0,0
0:0:45.077,206.157,11.6659,0,0.000885,0,0
0:0:45.178,206.976,11.7142,0,0.000885,0,0
0:0:45.277,207.856,11.7625,0,0.000885,0,0
0:0:45.375,208.737,11.8107,0,0.000885,0,0
0:0:45.471,208.737,11.8107,0,0.000885,0,0
0:0:45.571,209.969,11.8797,0,0.000885,0,0
0:0:45.671,211.024,11.9417,0,0.000885,0,0
0:0:45.772,211.553,11.9693,0,0.000885,0,0
0:0:45.870,211.553,11.9693,0,0.000885,0,0
0:0:45.968,212.492,12.0245,0,0.000885,0,0
0:0:46.068,213.31,12.0727,0,0.000885,0,0
0:0:46.167,213.31,12.0727,0,0.000885,0,0
0:0:46.267,214.191,12.121,0,0.000885,0,0
0:0:46.364,215.014,12.1692,0,0.000885,0,0
0:0:46.462,215.774,12.2106,0,0.000885,0,0
0:0:46.559,215.774,12.2106,0,0.000885,0,0
0:0:46.661,216.771,12.2658,0,0.000885,0,0
0:0:46.760,217.064,12.2865,0,0.000885,0,0
0:0:46.859,218.417,12.3623,0,0.000885,0,0
0:0:46.955,218.417,12.3623,0,0.000885,0,0
0:0:47.054,218.941,12.3899,0,0.000885,0,0
0:0:47.155,219.822,12.4381,0,0.000885,0,0
0:0:47.255,220.645,12.4864,0,0.000885,0,0
0:0:47.352,220.645,12.4864,0,0.000885,0,0
0:0:47.449,221.584,12.5416,0,0.000885,0,0
0:0:47.548,222.402,12.5829,0,0.000885,0,0
0:0:47.648,222.402,12.5829,0,0.000885,0,0
0:0:47.749,223.456,12.645,0,0.000885,0,0
0:0:47.848,224.222,12.6864,0,0.000885,0,0
0:0:47.944,225.102,12.7415,0,0.000885,0,0
0:0:48.043,225.102,12.7415,0,0.000885,0,0
0:0:48.143,225.685,12.7691,0,0.000885,0,0
0:0:48.243,226.272,12.8036,0,0.000885,0,0
0:0:48.343,227.095,12.8518,0,0.000885,0,0
0:0:48.444,227.095,12.8518,0,0.000885,0,0
0:0:48.546,228.091,12.907,0,0.000885,0,0
0:0:48.648,228.501,12.9277,0,0.000885,0,0
0:0:48.748,229.146,12.969,0,0.000885,0,0
0:0:48.849,229.146,12.969,0,0.000885,0,0
0:0:48.949,230.32,13.0311,0,0.000885,0,0
0:0:49.050,231.023,13.0725,0,0.000885,0,0
0:0:49.150,231.023,13.0725,0,0.000885,0,0
0:0:49.250,231.904,13.1207,0,0.000885,0,0
0:0:49.351,232.958,13.1828,0,0.000885,0,0
0:0:49.451,233.665,13.2241,0,0.000885,0,0
0:0:49.550,233.665,13.2241,0,0.000885,0,0
0:0:49.650,234.541,13.2724,0,0.000885,0,0
0:0:49.752,235.186,13.3069,0,0.000885,0,0
0:0:49.851,236.125,13.362,0,0.000885,0,0
0:0:49.948,236.125,13.362,0,0.000885,0,0
0:0:50.046,236.596,13.3896,0,0.000885,0,0
0:0:50.146,237.709,13.4517,0,0.000885,0,0
0:0:50.247,238.354,13.4861,0,0.000885,0,0
0:0:50.346,238.354,13.4861,0,0.000885,0,0
0:0:50.442,239.292,13.5413,0,0.000885,0,0
0:0:50.539,239.879,13.5758,0,0.000885,0,0
0:0:50.640,240.644,13.6171,0,0.000885,0,0
0:0:50.739,240.644,13.6171,0,0.000885,0,0
0:0:50.839,241.521,13.6654,0,0.000885,0,0
0:0:50.937,242.637,13.7275,0,0.000885,0,0
0:0:51.034,242.637,13.7275,0,0.000885,0,0
0:0:51.134,243.282,13.7688,0,0.000885,0,0
0:0:51.235,244.163,13.8171,0,0.000885,0,0
0:0:51.335,244.981,13.8654,0,0.000885,0,0
0:0:51.440,244.981,13.8654,0,0.000885,0,0
0:0:51.537,245.746,13.9067,0,0.000885,0,0
0:0:51.637,246.859,13.9688,0,0.000885,0,0
0:0:51.738,247.624,14.0101,0,0.000885,0,0
0:0:51.838,247.624,14.0101,0,0.000885,0,0
0:0:51.934,248.033,14.0377,0,0.000885,0,0
0:0:52.041,248.914,14.086,0,0.000885,0,0
0:0:52.142,249.91,14.1411,0,0.000885,0,0
0:0:52.242,249.91,14.1411,0,0.000885,0,0
0:0:52.342,250.555,14.1756,0,0.000885,0,0
0:0:52.440,251.436,14.2308,0,0.000885,0,0
0:0:52.536,252.316,14.279,0,0.000885,0,0
0:0:52.635,252.316,14.279,0,0.000885,0,0
0:0:52.736,253.019,14.3204,0,0.000885,0,0
0:0:52.836,253.606,14.348,0,0.000885,0,0
0:0:52.937,254.425,14.3963,0,0.000885,0,0
0:0:53.038,254.425,14.3963,0,0.000885,0,0
0:0:53.139,255.248,14.4445,0,0.000885,0,0
0:0:53.239,256.186,14.4997,0,0.000885,0,0
0:0:53.342,257.183,14.5548,0,0.000885,0,0
0:0:53.440,257.183,14.5548,0,0.000885,0,0
0:0:53.541,258.121,14.61,0,0.000885,0,0
0:0:53.641,258.766,14.6445,0,0.000885,0,0
0:0:53.742,258.766,14.6445,0,0.000885,0,0
0:0:53.842,259.589,14.6927,0,0.000885,0,0
0:0:53.943,260.644,14.7479,0,0.000885,0,0
0:0:54.041,261.524,14.7961,0,0.000885,0,0
0:0:54.142,261.524,14.7961,0,0.000885,0,0
0:0:54.242,262.401,14.8513,0,0.000885,0,0
0:0:54.343,263.339,14.8996,0,0.000885,0,0
0:0:54.443,264.513,14.9685,0,0.000885,0,0
0:0:54.539,264.513,14.9685,0,0.000885,0,0
0:0:54.637,265.158,15.003,0,0.000885,0,0
0:0:54.738,265.981,15.0513,0,0.000885,0,0
0:0:54.838,266.978,15.1064,0,0.000885,0,0
0:0:54.936,266.978,15.1064,0,0.000885,0,0
0:0:55.041,267.387,15.134,0,0.000885,0,0
0:0:55.140,268.09,15.1685,0,0.000885,0,0
0:0:55.240,268.913,15.2167,0,0.000885,0,0
0:0:55.340,268.913,15.2167,0,0.000885,0,0
0:0:55.441,270.087,15.2857,0,0.000885,0,0
0:0:55.537,270.79,15.3202,0,0.000885,0,0
0:0:55.634,270.79,15.3202,0,0.000885,0,0
0:0:55.735,271.377,15.3546,0,0.000885,0,0
0:0:55.836,271.964,15.3891,0,0.000885,0,0
0:0:55.935,272.961,15.4443,0,0.000885,0,0
0:0:56.030,272.961,15.4443,0,0.000885,0,0
0:0:56.139,273.837,15.4994,0,0.000885,0,0
0:0:56.240,274.776,15.5477,0,0.000885,0,0
0:0:56.340,275.541,15.589,0,0.000885,0,0
0:0:56.440,275.541,15.589,0,0.000885,0,0
0:0:56.537,276.595,15.6511,0,0.000885,0,0
0:0:56.634,277.24,15.6856,0,0.000885,0,0
0:0:56.734,278.121,15.7407,0,0.000885,0,0
0:0:56.835,278.121,15.7407,0,0.000885,0,0
0:0:56.934,278.881,15.7821,0,0.000885,0,0
0:0:57.040,279.882,15.8373,0,0.000885,0,0
0:0:57.137,280.465,15.8717,0,0.000885,0,0
0:0:57.238,280.465,15.8717,0,0.000885,0,0
0:0:57.338,281.523,15.9338,0,0.000885,0,0
0:0:57.438,282.111,15.9614,0,0.000885,0,0
0:0:57.536,282.636,15.9958,0,0.000885,0,0
0:0:57.641,282.636,15.9958,0,0.000885,0,0
0:0:57.742,283.458,16.0372,0,0.000885,0,0
0:0:57.843,284.219,16.0855,0,0.000885,0,0
0:0:57.943,284.922,16.1268,0,0.000885,0,0
0:0:58.044,284.922,16.1268,0,0.000885,0,0
0:0:58.145,285.803,16.1751,0,0.000885,0,0
0:0:58.247,286.626,16.2165,0,0.000885,0,0
0:0:58.348,287.68,16.2785,0,0.000885,0,0
0:0:58.448,287.68,16.2785,0,0.000885,0,0
0:0:58.548,288.676,16.3337,0,0.000885,0,0
0:0:58.649,289.384,16.375,0,0.000885,0,0
0:0:58.749,289.384,16.375,0,0.000885,0,0
0:0:58.850,290.438,16.4371,0,0.000885,0,0
0:0:58.949,291.025,16.4716,0,0.000885,0,0
0:0:59.051,291.963,16.5198,0,0.000885,0,0
0:0:59.149,291.963,16.5198,0,0.000885,0,0
0:0:59.249,292.84,16.5681,0,0.000885,0,0
0:0:59.350,294.134,16.6439,0,0.000885,0,0
0:0:59.450,294.601,16.6715,0,0.000885,0,0
0:0:59.549,294.601,16.6715,0,0.000885,0,0
0:0:59.644,295.598,16.7267,0,0.000885,0,0
0:0:59.743,296.478,16.7749,0,0.000885,0,0
0:0:59.844,297.59,16.837,0,0.000885,0,0
0:0:59.944,297.59,16.837,0,0.000885,0,0
0:1:0.041,297.826,16.8508,0,0.000885,0,0
0:1:0.138,298.471,16.8922,0,0.000885,0,0
0:1:0.237,298.471,16.8922,0,0.000885,0,0
0:1:0.338,299.41,16.9404,0,0.000885,0,0
0:1:0.439,300.526,17.0094,0,0.000885,0,0
0:1:0.537,301.287,17.0507,0,0.000885,0,0
0:1:0.634,301.287,17.0507,0,0.000885,0,0
0:1:0.741,302.11,17.099,0,0.000885,0,0
0:1:0.842,302.871,17.1404,0,0.000885,0,0
0:1:0.942,303.4,17.1679,0,0.000885,0,0
0:1:1.040,303.4,17.1679,0,0.000885,0,0
0:1:1.136,304.512,17.23,0,0.000885,0,0
0:1:1.234,305.219,17.2714,0,0.000885,0,0
0:1:1.334,306.095,17.3196,0,0.000885,0,0
0:1:1.435,306.095,17.3196,0,0.000885,0,0
0:1:1.535,306.861,17.3679,0,0.000885,0,0
0:1:1.640,307.679,17.4093,0,0.000885,0,0
0:1:1.738,308.266,17.4437,0,0.000885,0,0
0:1:1.838,308.266,17.4437,0,0.000885,0,0
0:1:1.939,308.969,17.4851,0,0.000885,0,0
0:1:2.039,309.97,17.5403,0,0.000885,0,0
0:1:2.134,310.379,17.5609,0,0.000885,0,0
0:1:2.240,310.379,17.5609,0,0.000885,0,0
0:1:2.341,311.376,17.623,0,0.000885,0,0
0:1:2.441,312.021,17.6575,0,0.000885,0,0
0:1:2.541,312.021,17.6575,0,0.000885,0,0
0:1:2.640,312.723,17.6988,0,0.000885,0,0
0:1:2.736,313.72,17.754,0,0.000885,0,0
0:1:2.836,314.365,17.7885,0,0.000885,0,0
0:1:2.937,314.365,17.7885,0,0.000885,0,0
0:1:3.037,315.01,17.8229,0,0.000885,0,0
0:1:3.138,316.011,17.885,0,0.000885,0,0
0:1:3.239,317.065,17.9402,0,0.000885,0,0
0:1:3.340,317.065,17.9402,0,0.000885,0,0
0:1:3.441,317.71,17.9815,0,0.000885,0,0
0:1:3.543,318.413,18.016,0,0.000885,0,0
0:1:3.642,319.178,18.0643,0,0.000885,0,0
0:1:3.742,319.178,18.0643,0,0.000885,0,0
0:1:3.842,319.881,18.0987,0,0.000885,0,0
0:1:3.943,320.819,18.1539,0,0.000885,0,0
0:1:4.043,321.522,18.1953,0,0.000885,0,0
0:1:4.142,321.522,18.1953,0,0.000885,0,0
0:1:4.242,322.46,18.2504,0,0.000885,0,0
0:1:4.342,323.221,18.2918,0,0.000885,0,0
0:1:4.443,324.28,18.3538,0,0.000885,0,0
0:1:4.542,324.28,18.3538,0,0.000885,0,0
0:1:4.640,325.218,18.4021,0,0.000885,0,0
0:1:4.739,325.921,18.4435,0,0.000885,0,0
0:1:4.836,325.921,18.4435,0,0.000885,0,0
0:1:4.937,326.744,18.4917,0,0.000885,0,0
0:1:5.038,327.62,18.54,0,0.000885,0,0
0:1:5.136,328.443,18.5883,0,0.000885,0,0
0:1:5.242,328.443,18.5883,0,0.000885,0,0
0:1:5.339,329.618,18.6503,0,0.000885,0,0
0:1:5.440,330.845,18.7193,0,0.000885,0,0
0:1:5.541,331.668,18.7675,0,0.000885,0,0
0:1:5.639,331.668,18.7675,0,0.000885,0,0
0:1:5.736,332.843,18.8365,0,0.000885,0,0
0:1:5.834,333.897,18.8916,0,0.000885,0,0
0:1:5.935,334.778,18.9468,0,0.000885,0,0
0:1:6.035,334.778,18.9468,0,0.000885,0,0
0:1:6.135,335.774,19.002,0,0.000885,0,0
0:1:6.230,336.597,19.0502,0,0.000885,0,0
0:1:6.339,337.651,19.1054,0,0.000885,0,0
0:1:6.437,337.651,19.1054,0,0.000885,0,0
0:1:6.538,338.474,19.1536,0,0.000885,0,0
0:1:6.638,339.408,19.2088,0,0.000885,0,0
0:1:6.736,340.347,19.2571,0,0.000885,0,0
0:1:6.834,340.347,19.2571,0,0.000885,0,0
0:1:6.931,341.463,19.326,0,0.000885,0,0
0:1:7.031,342.344,19.3743,0,0.000885,0,0
0:1:7.132,342.344,19.3743,0,0.000885,0,0
0:1:7.240,342.931,19.4087,0,0.000885,0,0
0:1:7.337,343.985,19.4639,0,0.000885,0,0
0:1:7.436,344.924,19.5191,0,0.000885,0,0
0:1:7.536,344.924,19.5191,0,0.000885,0,0
0:1:7.637,345.863,19.5742,0,0.000885,0,0
0:1:7.744,346.565,19.6087,0,0.000885,0,0
0:1:7.841,347.446,19.6638,0,0.000885,0,0
0:1:7.939,347.446,19.6638,0,0.000885,0,0
0:1:8.040,348.265,19.7052,0,0.000885,0,0
0:1:8.140,348.972,19.7466,0,0.000885,0,0
0:1:8.241,349.733,19.788,0,0.000885,0,0
0:1:8.342,349.733,19.788,0,0.000885,0,0
0:1:8.444,350.849,19.8569,0,0.000885,0,0
0:1:8.545,351.494,19.8914,0,0.000885,0,0
0:1:8.647,352.197,19.9327,0,0.000885,0,0
0:1:8.747,352.197,19.9327,0,0.000885,0,0
0:1:8.848,353.078,19.981,0,0.000885,0,0
0:1:8.948,353.66,20.0155,0,0.000885,0,0
0:1:9.048,354.541,20.0637,0,0.000885,0,0
0:1:9.148,354.541,20.0637,0,0.000885,0,0
0:1:9.248,355.306,20.1051,0,0.000885,0,0
0:1:9.349,356.245,20.1603,0,0.000885,0,0
0:1:9.448,357.241,20.2154,0,0.000885,0,0
0:1:9.548,357.241,20.2154,0,0.000885,0,0
0:1:9.648,358.238,20.2706,0,0.000885,0,0
0:1:9.749,359.118,20.3188,0,0.000885,0,0
0:1:9.844,359.118,20.3188,0,0.000885,0,0
0:1:9.941,359.937,20.3671,0,0.000885,0,0
0:1:10.041,360.995,20.4292,0,0.000885,0,0
0:1:10.142,361.698,20.4705,0,0.000885,0,0
0:1:10.242,361.698,20.4705,0,0.000885,0,0
0:1:10.339,362.873,20.5326,0,0.000885,0,0
0:1:10.436,363.633,20.5809,0,0.000885,0,0
0:1:10.536,364.514,20.6291,0,0.000885,0,0
0:1:10.635,364.514,20.6291,0,0.000885,0,0
0:1:10.736,365.275,20.6705,0,0.000885,0,0
0:1:10.842,366.04,20.7119,0,0.000885,0,0
0:1:10.939,366.916,20.7601,0,0.000885,0,0
0:1:11.038,366.916,20.7601,0,0.000885,0,0
0:1:11.138,367.797,20.8153,0,0.000885,0,0
0:1:11.240,368.442,20.8497,0,0.000885,0,0
0:1:11.338,369.558,20.9118,0,0.000885,0,0
0:1:11.435,369.558,20.9118,0,0.000885,0,0
0:1:11.542,369.967,20.9325,0,0.000885,0,0
0:1:11.642,371.08,21.0014,0,0.000885,0,0
0:1:11.743,372.547,21.0842,0,0.000885,0,0
0:1:11.842,372.547,21.0842,0,0.000885,0,0
0:1:11.938,373.428,21.1324,0,0.000885,0,0
0:1:12.036,374.189,21.1738,0,0.000885,0,0
0:1:12.135,374.189,21.1738,0,0.000885,0,0
0:1:12.236,375.07,21.2221,0,0.000885,0,0
0:1:12.337,375.541,21.2496,0,0.000885,0,0
0:1:12.442,376.302,21.291,0,0.000885,0,0
0:1:12.539,376.302,21.291,0,0.000885,0,0
0:1:12.640,377.062,21.3393,0,0.000885,0,0
0:1:12.740,377.77,21.3806,0,0.000885,0,0
0:1:12.841,378.295,21.4082,0,0.000885,0,0
0:1:12.939,378.295,21.4082,0,0.000885,0,0
0:1:13.042,378.824,21.4358,0,0.000885,0,0
0:1:13.143,379.762,21.491,0,0.000885,0,0
0:1:13.243,380.581,21.5392,0,0.000885,0,0
0:1:13.343,380.581,21.5392,0,0.000885,0,0
0:1:13.445,381.697,21.6013,0,0.000885,0,0
0:1:13.544,382.52,21.6495,0,0.000885,0,0
0:1:13.645,382.987,21.6702,0,0.000885,0,0
0:1:13.744,382.987,21.6702,0,0.000885,0,0
0:1:13.844,383.397,21.6978,0,0.000885,0,0
0:1:13.944,384.335,21.7461,0,0.000885,0,0
0:1:14.044,385.1,21.7943,0,0.000885,0,0
0:1:14.144,385.1,21.7943,0,0.000885,0,0
0:1:14.247,385.567,21.8219,0,0.000885,0,0
0:1:14.347,386.212,21.8564,0,0.000885,0,0
0:1:14.447,386.684,21.884,0,0.000885,0,0
0:1:14.542,386.684,21.884,0,0.000885,0,0
0:1:14.640,387.387,21.9184,0,0.000885,0,0
0:1:14.741,388.619,21.9943,0,0.000885,0,0
0:1:14.841,388.619,21.9943,0,0.000885,0,0
0:1:14.939,389.557,22.0425,0,0.000885,0,0
0:1:15.035,390.082,22.077,0,0.000885,0,0
0:1:15.142,390.963,22.1253,0,0.000885,0,0
0:1:15.242,390.963,22.1253,0,0.000885,0,0
0:1:15.342,392.08,22.1873,0,0.000885,0,0
0:1:15.443,392.898,22.2356,0,0.000885,0,0
0:1:15.539,393.663,22.277,0,0.000885,0,0
0:1:15.636,393.663,22.277,0,0.000885,0,0
0:1:15.737,394.544,22.3252,0,0.000885,0,0
0:1:15.837,395.714,22.3942,0,0.000885,0,0
0:1:15.937,396.946,22.4631,0,0.000885,0,0
0:1:16.042,396.946,22.4631,0,0.000885,0,0
0:1:16.139,397.591,22.4976,0,0.000885,0,0
0:1:16.240,398.356,22.539,0,0.000885,0,0
0:1:16.340,399.352,22.601,0,0.000885,0,0
0:1:16.440,399.352,22.601,0,0.000885,0,0
0:1:16.537,400.464,22.6631,0,0.000885,0,0
0:1:16.644,401.23,22.7044,0,0.000885,0,0
0:1:16.743,402.226,22.7596,0,0.000885,0,0
0:1:16.844,402.226,22.7596,0,0.000885,0,0
0:1:16.944,403.107,22.8079,0,0.000885,0,0
0:1:17.041,403.752,22.8492,0,0.000885,0,0
0:1:17.137,403.752,22.8492,0,0.000885,0,0
0:1:17.237,404.57,22.8975,0,0.000885,0,0
0:1:17.337,405.157,22.9251,0,0.000885,0,0
0:1:17.438,406.505,23.0009,0,0.000885,0,0
0:1:17.536,406.505,23.0009,0,0.000885,0,0
0:1:17.643,407.328,23.0492,0,0.000885,0,0
0:1:17.741,408.382,23.1112,0,0.000885,0,0
0:1:17.841,409.085,23.1526,0,0.000885,0,0
0:1:17.942,409.085,23.1526,0,0.000885,0,0
0:1:18.041,409.792,23.1871,0,0.000885,0,0
0:1:18.143,410.38,23.2215,0,0.000885,0,0
0:1:18.244,411.434,23.2836,0,0.000885,0,0
0:1:18.346,411.434,23.2836,0,0.000885,0,0
0:1:18.447,412.252,23.3319,0,0.000885,0,0
0:1:18.548,413.191,23.3801,0,0.000885,0,0
0:1:18.647,414.129,23.4353,0,0.000885,0,0
0:1:18.747,414.129,23.4353,0,0.000885,0,0
0:1:18.848,414.601,23.4629,0,0.000885,0,0
0:1:18.948,415.362,23.5042,0,0.000885,0,0
0:1:19.048,416.358,23.5594,0,0.000885,0,0
0:1:19.148,416.358,23.5594,0,0.000885,0,0
0:1:19.249,417.003,23.6008,0,0.000885,0,0
0:1:19.349,418.177,23.6628,0,0.000885,0,0
0:1:19.449,419,23.7111,0,0.000885,0,0
0:1:19.548,419,23.7111,0,0.000885,0,0
0:1:19.647,419.587,23.7455,0,0.000885,0,0
0:1:19.743,420.526,23.7938,0,0.000885,0,0
0:1:19.842,420.526,23.7938,0,0.000885,0,0
0:1:19.942,421.229,23.8352,0,0.000885,0,0
0:1:20.042,422.11,23.8834,0,0.000885,0,0
0:1:20.140,423.048,23.9386,0,0.000885,0,0
0:1:20.236,423.048,23.9386,0,0.000885,0,0
0:1:20.336,423.4,23.9593,0,0.000885,0,0
0:1:20.437,424.16,24.0007,0,0.000885,0,0
0:1:20.537,425.041,24.0489,0,0.000885,0,0
0:1:20.643,425.041,24.0489,0,0.000885,0,0
0:1:20.741,425.744,24.0903,0,0.000885,0,0
0:1:20.841,426.389,24.1317,0,0.000885,0,0
0:1:20.941,427.443,24.1868,0,0.000885,0,0
0:1:21.042,427.443,24.1868,0,0.000885,0,0
0:1:21.138,427.972,24.2213,0,0.000885,0,0
0:1:21.236,429.089,24.2833,0,0.000885,0,0
0:1:21.344,430.259,24.3454,0,0.000885,0,0
0:1:21.444,430.259,24.3454,0,0.000885,0,0
0:1:21.545,430.73,24.373,0,0.000885,0,0
0:1:21.642,431.669,24.4281,0,0.000885,0,0
0:1:21.739,431.669,24.4281,0,0.000885,0,0
0:1:21.837,432.665,24.4833,0,0.000885,0,0
0:1:21.938,433.484,24.5315,0,0.000885,0,0
0:1:22.039,434.133,24.566,0,0.000885,0,0
0:1:22.137,434.133,24.566,0,0.000885,0,0
0:1:22.242,435.187,24.6281,0,0.000885,0,0
0:1:22.340,436.299,24.6901,0,0.000885,0,0
0:1:22.440,437.3,24.7453,0,0.000885,0,0
0:1:22.541,437.3,24.7453,0,0.000885,0,0
0:1:22.640,438.177,24.7935,0,0.000885,0,0
0:1:22.737,439.235,24.8556,0,0.000885,0,0
0:1:22.844,439.996,24.897,0,0.000885,0,0
0:1:22.944,439.996,24.897,0,0.000885,0,0
0:1:23.045,440.699,24.9383,0,0.000885,0,0
0:1:23.147,441.579,24.9866,0,0.000885,0,0
0:1:23.248,442.224,25.028,0,0.000885,0,0
0:1:23.348,442.224,25.028,0,0.000885,0,0
0:1:23.450,442.696,25.0487,0,0.000885,0,0
0:1:23.550,442.754,25.0555,0,0.000885,0,0
0:1:23.651,443.399,25.09,0,0.000885,0,0
0:1:23.751,443.399,25.09,0,0.000885,0,0
0:1:23.851,444.044,25.1245,0,0.000885,0,0
0:1:23.951,445.156,25.1934,0,0.000885,0,0
0:1:24.052,445.569,25.2141,0,0.000885,0,0
0:1:24.151,445.569,25.2141,0,0.000885,0,0
0:1:24.252,446.566,25.2693,0,0.000885,0,0
0:1:24.351,447.269,25.3107,0,0.000885,0,0
0:1:24.451,448.265,25.3658,0,0.000885,0,0
0:1:24.552,448.265,25.3658,0,0.000885,0,0
0:1:24.652,448.852,25.4003,0,0.000885,0,0
0:1:24.750,450.258,25.4761,0,0.000885,0,0
0:1:24.845,450.258,25.4761,0,0.000885,0,0
0:1:24.945,451.374,25.5451,0,0.000885,0,0
0:1:25.045,452.371,25.6002,0,0.000885,0,0
0:1:25.147,453.367,25.6554,0,0.000885,0,0
0:1:25.244,453.367,25.6554,0,0.000885,0,0
0:1:25.340,454.719,25.7312,0,0.000885,0,0
0:1:25.438,455.48,25.7726,0,0.000885,0,0
0:1:25.539,456.828,25.8484,0,0.000885,0,0
0:1:25.639,456.828,25.8484,0,0.000885,0,0
0:1:25.737,457.709,25.9036,0,0.000885,0,0
0:1:25.844,458.647,25.9519,0,0.000885,0,0
0:1:25.942,459.292,25.9932,0,0.000885,0,0
0:1:26.042,459.292,25.9932,0,0.000885,0,0
0:1:26.142,460.053,26.0346,0,0.000885,0,0
0:1:26.242,460.934,26.0829,0,0.000885,0,0
0:1:26.339,460.934,26.0829,0,0.000885,0,0
0:1:26.437,461.521,26.1173,0,0.000885,0,0
0:1:26.534,462.459,26.1725,0,0.000885,0,0
0:1:26.636,463.282,26.2139,0,0.000885,0,0
0:1:26.734,463.282,26.2139,0,0.000885,0,0
0:1:26.842,464.221,26.269,0,0.000885,0,0
0:1:26.940,464.982,26.3104,0,0.000885,0,0
0:1:27.040,465.862,26.3656,0,0.000885,0,0
0:1:27.140,465.862,26.3656,0,0.000885,0,0
0:1:27.240,466.507,26.4,0,0.000885,0,0
0:1:27.338,467.388,26.4483,0,0.000885,0,0
0:1:27.444,468.322,26.5034,0,0.000885,0,0
0:1:27.543,468.322,26.5034,0,0.000885,0,0
0:1:27.644,469.145,26.5448,0,0.000885,0,0
0:1:27.744,470.199,26.6069,0,0.000885,0,0
0:1:27.841,470.844,26.6413,0,0.000885,0,0
0:1:27.938,470.844,26.6413,0,0.000885,0,0
0:1:28.037,471.725,26.6965,0,0.000885,0,0
0:1:28.137,472.197,26.7241,0,0.000885,0,0
0:1:28.238,472.197,26.7241,0,0.000885,0,0
0:1:28.337,473.015,26.7654,0,0.000885,0,0
0:1:28.438,473.838,26.8137,0,0.000885,0,0
0:1:28.540,474.95,26.8758,0,0.000885,0,0
0:1:28.641,474.95,26.8758,0,0.000885,0,0
0:1:28.741,475.773,26.924,0,0.000885,0,0
0:1:28.843,476.534,26.9654,0,0.000885,0,0
0:1:28.943,477.414,27.0137,0,0.000885,0,0
0:1:29.044,477.414,27.0137,0,0.000885,0,0
0:1:29.144,478.117,27.055,0,0.000885,0,0
0:1:29.243,478.762,27.0895,0,0.000885,0,0
0:1:29.343,479.234,27.1171,0,0.000885,0,0
0:1:29.444,479.234,27.1171,0,0.000885,0,0
0:1:29.544,480.23,27.1722,0,0.000885,0,0
0:1:29.645,481.053,27.2205,0,0.000885,0,0
0:1:29.745,481.698,27.2619,0,0.000885,0,0
0:1:29.844,481.698,27.2619,0,0.000885,0,0
0:1:29.941,482.636,27.3101,0,0.000885,0,0
0:1:30.039,483.749,27.3722,0,0.000885,0,0
0:1:30.139,484.687,27.4273,0,0.000885,0,0
0:1:30.239,484.687,27.4273,0,0.000885,0,0
0:1:30.340,485.216,27.4549,0,0.000885,0,0
0:1:30.437,486.155,27.5101,0,0.000885,0,0
0:1:30.543,487.267,27.5721,0,0.000885,0,0
0:1:30.644,487.267,27.5721,0,0.000885,0,0
0:1:30.743,487.796,27.6066,0,0.000885,0,0
0:1:30.843,488.326,27.6342,0,0.000885,0,0
0:1:30.940,488.326,27.6342,0,0.000885,0,0
0:1:31.046,489.144,27.6825,0,0.000885,0,0
0:1:31.145,489.496,27.7031,0,0.000885,0,0
0:1:31.248,490.083,27.7307,0,0.000885,0,0
0:1:31.346,490.083,27.7307,0,0.000885,0,0
0:1:31.445,490.728,27.7721,0,0.000885,0,0
0:1:31.541,491.431,27.8066,0,0.000885,0,0
0:1:31.640,491.902,27.8341,0,0.000885,0,0
0:1:31.740,491.902,27.8341,0,0.000885,0,0
0:1:31.841,492.899,27.8893,0,0.000885,0,0
0:1:31.939,493.192,27.91,0,0.000885,0,0
0:1:32.044,494.073,27.9582,0,0.000885,0,0
0:1:32.142,494.073,27.9582,0,0.000885,0,0
0:1:32.244,494.54,27.9858,0,0.000885,0,0
0:1:32.344,495.069,28.0134,0,0.000885,0,0
0:1:32.444,495.95,28.0617,0,0.000885,0,0
0:1:32.541,495.95,28.0617,0,0.000885,0,0
0:1:32.638,496.653,28.103,0,0.000885,0,0
0:1:32.738,497.24,28.1375,0,0.000885,0,0
0:1:32.839,497.24,28.1375,0,0.000885,0,0
0:1:32.938,498.179,28.1927,0,0.000885,0,0
0:1:33.040,498.703,28.2202,0,0.000885,0,0
0:1:33.141,499.348,28.2547,0,0.000885,0,0
0:1:33.242,499.348,28.2547,0,0.000885,0,0
0:1:33.342,500.581,28.3306,0,0.000885,0,0
0:1:33.444,501.404,28.3719,0,0.000885,0,0
0:1:33.543,502.516,28.434,0,0.000885,0,0
0:1:33.644,502.516,28.434,0,0.000885,0,0
0:1:33.744,503.516,28.496,0,0.000885,0,0
0:1:33.845,504.744,28.565,0,0.000885,0,0
0:1:33.944,505.451,28.5995,0,0.000885,0,0
0:1:34.044,505.451,28.5995,0,0.000885,0,0
0:1:34.145,506.212,28.6477,0,0.000885,0,0
0:1:34.247,506.741,28.6753,0,0.000885,0,0
0:1:34.346,507.68,28.7305,0,0.000885,0,0
0:1:34.447,507.68,28.7305,0,0.000885,0,0
0:1:34.543,508.383,28.7718,0,0.000885,0,0
0:1:34.640,509.143,28.8132,0,0.000885,0,0
0:1:34.740,510.024,28.8615,0,0.000885,0,0
0:1:34.841,510.024,28.8615,0,0.000885,0,0
0:1:34.941,510.727,28.9028,0,0.000885,0,0
0:1:35.038,511.723,28.958,0,0.000885,0,0
0:1:35.144,512.546,29.0062,0,0.000885,0,0
0:1:35.242,512.546,29.0062,0,0.000885,0,0
0:1:35.343,513.485,29.0545,0,0.000885,0,0
0:1:35.443,514.601,29.1235,0,0.000885,0,0
0:1:35.542,514.601,29.1235,0,0.000885,0,0
0:1:35.639,515.536,29.1717,0,0.000885,0,0
0:1:35.737,516.768,29.2407,0,0.000885,0,0
0:1:35.839,517.239,29.2682,0,0.000885,0,0
0:1:35.938,517.239,29.2682,0,0.000885,0,0
0:1:36.037,518.178,29.3234,0,0.000885,0,0
0:1:36.144,518.881,29.3648,0,0.000885,0,0
0:1:36.241,519.761,29.413,0,0.000885,0,0
0:1:36.340,519.761,29.413,0,0.000885,0,0
0:1:36.441,520.642,29.4613,0,0.000885,0,0
0:1:36.540,521.287,29.4958,0,0.000885,0,0
0:1:36.639,521.812,29.5302,0,0.000885,0,0
0:1:36.744,521.812,29.5302,0,0.000885,0,0
0:1:36.845,522.341,29.5578,0,0.000885,0,0
0:1:36.945,522.871,29.5854,0,0.000885,0,0
0:1:37.045,523.338,29.613,0,0.000885,0,0
0:1:37.142,523.338,29.613,0,0.000885,0,0
0:1:37.239,523.925,29.6475,0,0.000885,0,0
0:1:37.339,524.041,29.6544,0,0.000885,0,0
0:1:37.439,524.041,29.6544,0,0.000885,0,0
0:1:37.539,524.041,29.6544,0,0.000885,0,0
0:1:37.634,524.218,29.6612,0,0.000885,0,0
0:1:37.733,524.454,29.675,0,0.000885,0,0
0:1:37.830,524.454,29.675,0,0.000885,0,0
0:1:37.931,524.334,29.6681,0,0.000885,0,0
0:1:38.031,524.806,29.6957,0,0.000885,0,0
0:1:38.132,525.041,29.7095,0,0.000885,0,0
0:1:38.232,525.041,29.7095,0,0.000885,0,0
0:1:38.333,525.099,29.7164,0,0.000885,0,0
0:1:38.433,525.099,29.7164,0,0.000885,0,0
0:1:38.534,525.099,29.7164,0,0.000885,0,0
0:1:38.634,525.099,29.7164,0,0.000885,0,0
0:1:38.738,525.157,29.7164,0,0.000885,0,0
0:1:38.835,524.863,29.7026,0,0.000885,0,0
0:1:38.938,524.748,29.6957,0,0.000885,0,0
0:1:39.034,524.748,29.6957,0,0.000885,0,0
0:1:39.135,524.57,29.6819,0,0.000885,0,0
0:1:39.233,523.925,29.6475,0,0.000885,0,0
0:1:39.333,523.338,29.613,0,0.000885,0,0
0:1:39.434,523.338,29.613,0,0.000885,0,0
0:1:39.532,522.283,29.5578,0,0.000885,0,0
0:1:39.642,521.287,29.4958,0,0.000885,0,0
0:1:39.739,520.464,29.4544,0,0.000885,0,0
0:1:39.838,520.464,29.4544,0,0.000885,0,0
0:1:39.938,519.641,29.4061,0,0.000885,0,0
0:1:40.039,518.587,29.3441,0,0.000885,0,0
0:1:40.147,517.181,29.2682,0,0.000885,0,0
0:1:40.242,517.181,29.2682,0,0.000885,0,0
0:1:40.340,516.185,29.2131,0,0.000885,0,0
0:1:40.440,515.184,29.151,0,0.000885,0,0
0:1:40.540,515.184,29.151,0,0.000885,0,0
0:1:40.639,514.014,29.089,0,0.000885,0,0
0:1:40.744,512.662,29.0131,0,0.000885,0,0
0:1:40.842,511.608,28.9511,0,0.000885,0,0
0:1:40.943,511.608,28.9511,0,0.000885,0,0
0:1:41.042,510.554,28.889,0,0.000885,0,0
0:1:41.143,509.264,28.8201,0,0.000885,0,0
0:1:41.238,508.383,28.7718,0,0.000885,0,0
0:1:41.344,508.383,28.7718,0,0.000885,0,0
0:1:41.444,507.386,28.7098,0,0.000885,0,0
0:1:41.544,505.976,28.6339,0,0.000885,0,0
0:1:41.644,504.041,28.5236,0,0.000885,0,0
0:1:41.740,504.041,28.5236,0,0.000885,0,0
0:1:41.845,502.049,28.4133,0,0.000885,0,0
0:1:41.945,499.762,28.2823,0,0.000885,0,0
0:1:42.045,496.889,28.1168,0,0.000885,0,0
0:1:42.147,496.889,28.1168,0,0.000885,0,0
0:1:42.243,493.37,27.9169,0,0.000885,0,0
0:1:42.339,489.029,27.6756,0,0.000885,0,0
0:1:42.435,489.029,27.6756,0,0.000885,0,0
0:1:42.538,483.926,27.386,0,0.000885,0,0
0:1:42.638,479.234,27.1171,0,0.000885,0,0
0:1:42.734,473.251,26.7792,0,0.000885,0,0
0:1:42.842,473.251,26.7792,0,0.000885,0,0
0:1:42.940,466.623,26.4069,0,0.000885,0,0
0:1:43.039,461.463,26.1104,0,0.000885,0,0
0:1:43.139,456.361,25.8278,0,0.000885,0,0
0:1:43.240,456.361,25.8278,0,0.000885,0,0
0:1:43.340,451.668,25.5589,0,0.000885,0,0
0:1:43.442,445.743,25.221,0,0.000885,0,0
0:1:43.540,438.999,24.8418,0,0.000885,0,0
0:1:43.641,438.999,24.8418,0,0.000885,0,0
0:1:43.741,432.194,24.4557,0,0.000885,0,0
0:1:43.842,422.692,23.9179,0,0.000885,0,0
0:1:43.941,413.369,23.3939,0,0.000885,0,0
0:1:44.042,413.369,23.3939,0,0.000885,0,0
0:1:44.141,407.092,23.0354,0,0.000885,0,0
0:1:44.242,402.226,22.7596,0,0.000885,0,0
0:1:44.341,398.062,22.5252,0,0.000885,0,0
0:1:44.441,398.062,22.5252,0,0.000885,0,0
0:1:44.540,394.66,22.3321,0,0.000885,0,0
0:1:44.640,391.786,22.1735,0,0.000885,0,0
0:1:44.740,391.786,22.1735,0,0.000885,0,0
0:1:44.847,389.264,22.0287,0,0.000885,0,0
0:1:44.943,387.68,21.9391,0,0.000885,0,0
0:1:45.043,385.625,21.8219,0,0.000885,0,0
0:1:45.144,385.625,21.8219,0,0.000885,0,0
0:1:45.242,383.575,21.7047,0,0.000885,0,0
0:1:45.340,381.288,21.5737,0,0.000885,0,0
0:1:45.447,379.175,21.4565,0,0.000885,0,0
0:1:45.547,379.175,21.4565,0,0.000885,0,0
0:1:45.647,377.356,21.3531,0,0.000885,0,0
0:1:45.747,375.95,21.2772,0,0.000885,0,0
0:1:45.842,374.367,21.1876,0,0.000885,0,0
0:1:45.939,374.367,21.1876,0,0.000885,0,0
0:1:46.036,372.49,21.0773,0,0.000885,0,0
0:1:46.139,370.964,20.9945,0,0.000885,0,0
0:1:46.235,368.62,20.8566,0,0.000885,0,0
0:1:46.345,368.62,20.8566,0,0.000885,0,0
0:1:46.356,368.62,20.8566,0,0.000885,0,0