File: DataFile2021-07-17_055727.csv
Test ID:,Date Tested:,Time:,Test Type:,Diameter Avg. (mm):,Cyl. Corr. Factor:,Height (mm):,Age (days):,Weight (kN):,Break Type:,Ramp Rate (MPa/s):,Load at Break (kN):,Stress at Break (MPa):
12,7/17/2021,05:57,Cylinder,100,1,200,0,3.6,3,0.2,330.2,42.04
Sample Time,Load (kN),Stress (MPa),Long. Strain,Trans. Strain,Chan1 Deflection (mm),Chan2 Deflection (mm)
0:0:6.701,5.8672,0.744634,0,0.000885,0,0
0:0:6.902,6.5122,0.827371,0,0.000885,0,0
0:0:7.098,7.03709,0.896318,0,0.000885,0,0
0:0:7.297,6.92143,0.882529,0,0.000885,0,0
0:0:7.495,6.97926,0.889424,0,0.000885,0,0
0:0:7.694,7.27284,0.923897,0,0.000885,0,0
0:0:7.895,7.27284,0.923897,0,0.000885,0,0
0:0:8.090,7.15719,0.910108,0,0.000885,0,0
0:0:8.291,7.86001,0.99974,0,0.000885,0,0
0:0:8.488,8.26924,1.0549,0,0.000885,0,0
0:0:8.686,8.3849,1.06869,0,0.000885,0,0
0:0:8.888,8.85641,1.13074,0,0.000885,0,0
0:0:9.086,9.96846,1.26864,0,0.000885,0,0
0:0:9.288,10.0886,1.28242,0,0.000885,0,0
0:0:9.484,10.4978,1.33758,0,0.000885,0,0
0:0:9.682,10.907,1.38585,0,0.000885,0,0
0:0:9.884,11.1428,1.42032,0,0.000885,0,0
0:0:10.080,10.9693,1.39964,0,0.000885,0,0
0:0:10.280,11.2629,1.43411,0,0.000885,0,0
0:0:10.480,12.0235,1.53064,0,0.000885,0,0
0:0:10.672,11.9657,1.52374,0,0.000885,0,0
0:0:10.874,12.7842,1.62716,0,0.000885,0,0
0:0:11.071,13.2557,1.68922,0,0.000885,0,0
0:0:11.282,13.785,1.75816,0,0.000885,0,0
0:0:11.483,14.4879,1.84779,0,0.000885,0,0
0:0:11.675,14.8393,1.88916,0,0.000885,0,0
0:0:11.876,15.4843,1.9719,0,0.000885,0,0
0:0:12.081,15.7778,2.00637,0,0.000885,0,0
0:0:12.281,15.7778,2.00637,0,0.000885,0,0
0:0:12.484,16.1293,2.05464,0,0.000885,0,0
0:0:12.686,16.4807,2.09601,0,0.000885,0,0
0:0:12.888,16.9522,2.15806,0,0.000885,0,0
0:0:13.090,17.0678,2.17185,0,0.000885,0,0
0:0:13.289,17.8863,2.27527,0,0.000885,0,0
0:0:13.491,18.3578,2.33732,0,0.000885,0,0
0:0:13.690,18.7092,2.38559,0,0.000885,0,0
0:0:13.889,18.6514,2.3718,0,0.000885,0,0
0:0:14.090,19.2964,2.45453,0,0.000885,0,0
0:0:14.286,19.8257,2.52348,0,0.000885,0,0
0:0:14.488,20.5864,2.62001,0,0.000885,0,0
0:0:14.686,21.0534,2.68206,0,0.000885,0,0
0:0:14.885,21.4671,2.73032,0,0.000885,0,0
0:0:15.086,21.9342,2.79238,0,0.000885,0,0
0:0:15.282,22.3479,2.84753,0,0.000885,0,0
0:0:15.485,22.4635,2.86132,0,0.000885,0,0
0:0:15.682,22.7571,2.8958,0,0.000885,0,0
0:0:15.880,23.4599,2.98543,0,0.000885,0,0
0:0:16.082,23.6378,3.00611,0,0.000885,0,0
0:0:16.286,24.3985,3.10954,0,0.000885,0,0
0:0:16.488,24.8077,3.1578,0,0.000885,0,0
0:0:16.688,25.5728,3.25433,0,0.000885,0,0
0:0:16.884,25.515,3.24743,0,0.000885,0,0
0:0:17.086,26.0977,3.32327,0,0.000885,0,0
0:0:17.288,26.5114,3.37843,0,0.000885,0,0
0:0:17.491,26.9206,3.42669,0,0.000885,0,0
0:0:17.694,27.0363,3.44048,0,0.000885,0,0
0:0:17.897,27.5078,3.50254,0,0.000885,0,0
0:0:18.098,27.6235,3.51633,0,0.000885,0,0
0:0:18.300,28.0371,3.57148,0,0.000885,0,0
0:0:18.502,28.74,3.66112,0,0.000885,0,0
0:0:18.705,29.385,3.74385,0,0.000885,0,0
0:0:18.900,29.4428,3.75075,0,0.000885,0,0
0:0:19.101,29.6207,3.77143,0,0.000885,0,0
0:0:19.298,30.0299,3.82659,0,0.000885,0,0
0:0:19.496,30.1456,3.84038,0,0.000885,0,0
0:0:19.698,30.6171,3.89554,0,0.000885,0,0
0:0:19.894,31.3778,3.99206,0,0.000885,0,0
0:0:20.096,31.5557,4.01964,0,0.000885,0,0
0:0:20.293,31.4934,4.01275,0,0.000885,0,0
0:0:20.491,32.2585,4.10928,0,0.000885,0,0
0:0:20.693,31.9649,4.06791,0,0.000885,0,0
0:0:20.889,33.1393,4.21959,0,0.000885,0,0
0:0:21.089,33.3127,4.24028,0,0.000885,0,0
0:0:21.289,33.6063,4.28164,0,0.000885,0,0
0:0:21.485,34.0156,4.32991,0,0.000885,0,0
0:0:21.687,34.5449,4.39886,0,0.000885,0,0
0:0:21.885,34.6605,4.41264,0,0.000885,0,0
0:0:22.084,35.3678,4.50228,0,0.000885,0,0
0:0:22.286,35.8349,4.56433,0,0.000885,0,0
0:0:22.488,36.1863,4.6057,0,0.000885,0,0
0:0:22.692,36.9514,4.70222,0,0.000885,0,0
0:0:22.894,37.245,4.74359,0,0.000885,0,0
0:0:23.095,37.4763,4.77117,0,0.000885,0,0
0:0:23.297,38.5349,4.90907,0,0.000885,0,0
0:0:23.499,38.5928,4.91596,0,0.000885,0,0
0:0:23.702,39.0598,4.97112,0,0.000885,0,0
0:0:23.902,39.2956,5.00559,0,0.000885,0,0
0:0:24.098,39.7671,5.06075,0,0.000885,0,0
0:0:24.300,40.3498,5.13659,0,0.000885,0,0
0:0:24.495,40.0562,5.10212,0,0.000885,0,0
0:0:24.696,40.5277,5.15728,0,0.000885,0,0
0:0:24.896,40.5277,5.15728,0,0.000885,0,0
0:0:25.092,41.1727,5.24002,0,0.000885,0,0
0:0:25.295,41.582,5.29517,0,0.000885,0,0
0:0:25.492,41.8756,5.32965,0,0.000885,0,0
0:0:25.691,42.3471,5.3917,0,0.000885,0,0
0:0:25.893,43.2234,5.50202,0,0.000885,0,0
0:0:26.088,43.517,5.54338,0,0.000885,0,0
0:0:26.290,43.8728,5.58475,0,0.000885,0,0
0:0:26.487,44.1041,5.61233,0,0.000885,0,0
0:0:26.685,44.4555,5.6606,0,0.000885,0,0
0:0:26.888,44.8069,5.70196,0,0.000885,0,0
0:0:27.090,45.1628,5.75023,0,0.000885,0,0
0:0:27.293,45.4519,5.7847,0,0.000885,0,0
0:0:27.497,45.8656,5.83986,0,0.000885,0,0
0:0:27.698,45.8656,5.83986,0,0.000885,0,0
0:0:27.901,46.9198,5.97086,0,0.000885,0,0
0:0:28.101,47.4492,6.03981,0,0.000885,0,0
0:0:28.302,47.3914,6.03291,0,0.000885,0,0
0:0:28.503,48.0363,6.11565,0,0.000885,0,0
0:0:28.699,48.2677,6.14323,0,0.000885,0,0
0:0:28.902,49.0906,6.25354,0,0.000885,0,0
0:0:29.098,49.7934,6.34318,0,0.000885,0,0
0:0:29.298,49.8512,6.35007,0,0.000885,0,0
0:0:29.500,50.3227,6.40523,0,0.000885,0,0
0:0:29.694,50.2649,6.39833,0,0.000885,0,0
0:0:29.896,50.8521,6.47418,0,0.000885,0,0
0:0:30.095,51.377,6.54312,0,0.000885,0,0
0:0:30.292,51.3191,6.53623,0,0.000885,0,0
0:0:30.495,51.8485,6.59828,0,0.000885,0,0
0:0:30.691,51.7862,6.59139,0,0.000885,0,0
0:0:30.891,52.3734,6.66723,0,0.000885,0,0
0:0:31.089,53.0184,6.74997,0,0.000885,0,0
0:0:31.287,53.4899,6.81202,0,0.000885,0,0
0:0:31.490,53.6633,6.8327,0,0.000885,0,0
0:0:31.686,54.0192,6.88097,0,0.000885,0,0
0:0:31.885,54.0192,6.88097,0,0.000885,0,0
0:0:32.087,54.8955,6.99128,0,0.000885,0,0
0:0:32.291,55.1313,7.01886,0,0.000885,0,0
0:0:32.493,55.6606,7.08781,0,0.000885,0,0
0:0:32.696,55.7184,7.09471,0,0.000885,0,0
0:0:32.898,56.8305,7.2395,0,0.000885,0,0
0:0:33.098,56.8928,7.24639,0,0.000885,0,0
0:0:33.301,57.5956,7.33602,0,0.000885,0,0
0:0:33.503,57.8313,7.3636,0,0.000885,0,0
0:0:33.703,58.3562,7.43255,0,0.000885,0,0
0:0:33.900,58.7699,7.48081,0,0.000885,0,0
0:0:34.102,59.059,7.52218,0,0.000885,0,0
0:0:34.298,59.5305,7.57734,0,0.000885,0,0
0:0:34.497,59.8241,7.61871,0,0.000885,0,0
0:0:34.699,60.527,7.70834,0,0.000885,0,0
0:0:34.894,60.4113,7.69455,0,0.000885,0,0
0:0:35.097,60.8205,7.74281,0,0.000885,0,0
0:0:35.294,61.2298,7.79797,0,0.000885,0,0
0:0:35.494,61.937,7.8876,0,0.000885,0,0
0:0:35.695,62.5198,7.96344,0,0.000885,0,0
0:0:35.890,62.4619,7.94966,0,0.000885,0,0
0:0:36.091,62.7555,7.99102,0,0.000885,0,0
0:0:36.288,63.5784,8.09445,0,0.000885,0,0
0:0:36.486,63.6941,8.10823,0,0.000885,0,0
0:0:36.689,64.3391,8.19097,0,0.000885,0,0
0:0:36.886,64.5748,8.21855,0,0.000885,0,0
0:0:37.087,65.0419,8.2806,0,0.000885,0,0
0:0:37.289,65.6291,8.35645,0,0.000885,0,0
0:0:37.493,65.7492,8.37024,0,0.000885,0,0
0:0:37.697,66.2162,8.43229,0,0.000885,0,0
0:0:37.898,66.8612,8.51503,0,0.000885,0,0
0:0:38.100,67.0391,8.53571,0,0.000885,0,0
0:0:38.300,67.564,8.60466,0,0.000885,0,0
0:0:38.501,67.742,8.62534,0,0.000885,0,0
0:0:38.705,67.9154,8.64603,0,0.000885,0,0
0:0:38.903,68.3291,8.70118,0,0.000885,0,0
0:0:39.103,68.5026,8.72187,0,0.000885,0,0
0:0:39.302,68.9163,8.77703,0,0.000885,0,0
0:0:39.497,69.3255,8.82529,0,0.000885,0,0
0:0:39.699,69.7926,8.88734,0,0.000885,0,0
0:0:39.897,70.2641,8.94939,0,0.000885,0,0
0:0:40.096,70.6155,8.99076,0,0.000885,0,0
0:0:40.297,70.6733,8.99766,0,0.000885,0,0
0:0:40.494,71.8477,9.14934,0,0.000885,0,0
0:0:40.694,72.0212,9.17003,0,0.000885,0,0
0:0:40.894,72.6083,9.24587,0,0.000885,0,0
0:0:41.090,73.0798,9.30792,0,0.000885,0,0
0:0:41.292,73.5469,9.36308,0,0.000885,0,0
0:0:41.487,73.5469,9.36308,0,0.000885,0,0
0:0:41.688,74.1919,9.44582,0,0.000885,0,0
0:0:41.886,74.0184,9.42513,0,0.000885,0,0
0:0:42.085,74.5433,9.49408,0,0.000885,0,0
0:0:42.287,74.7212,9.51477,0,0.000885,0,0
0:0:42.489,75.602,9.62508,0,0.000885,0,0
0:0:42.693,75.7755,9.64577,0,0.000885,0,0
0:0:42.896,76.3626,9.72161,0,0.000885,0,0
0:0:43.098,76.4783,9.7354,0,0.000885,0,0
0:0:43.300,77.1855,9.82503,0,0.000885,0,0
0:0:43.502,77.5948,9.88019,0,0.000885,0,0
0:0:43.703,78.0618,9.94224,0,0.000885,0,0
0:0:43.904,78.5912,10.0043,0,0.000885,0,0
0:0:44.099,78.5334,9.9974,0,0.000885,0,0
0:0:44.301,79.4719,10.1215,0,0.000885,0,0
0:0:44.499,79.4719,10.1215,0,0.000885,0,0
0:0:44.696,79.8233,10.1629,0,0.000885,0,0
0:0:44.898,80.2326,10.218,0,0.000885,0,0
0:0:45.093,80.8776,10.3008,0,0.000885,0,0
0:0:45.294,80.7041,10.2732,0,0.000885,0,0
0:0:45.495,81.229,10.3421,0,0.000885,0,0
0:0:45.690,80.8776,10.3008,0,0.000885,0,0
0:0:45.892,82.1097,10.4525,0,0.000885,0,0
0:0:46.088,81.9941,10.4387,0,0.000885,0,0
0:0:46.287,82.9326,10.5559,0,0.000885,0,0
0:0:46.489,83.3419,10.611,0,0.000885,0,0
0:0:46.684,83.6933,10.6593,0,0.000885,0,0
0:0:46.886,83.929,10.6869,0,0.000885,0,0
0:0:47.088,84.6897,10.7834,0,0.000885,0,0
0:0:47.292,85.0411,10.8248,0,0.000885,0,0
0:0:47.495,85.864,10.9351,0,0.000885,0,0
0:0:47.697,85.9797,10.9489,0,0.000885,0,0
0:0:47.900,86.2154,10.9765,0,0.000885,0,0
0:0:48.100,86.8026,11.0523,0,0.000885,0,0
0:0:48.303,87.2118,11.1075,0,0.000885,0,0
0:0:48.505,87.3898,11.1281,0,0.000885,0,0
0:0:48.702,87.7412,11.1695,0,0.000885,0,0
0:0:48.902,88.0348,11.2109,0,0.000885,0,0
0:0:49.102,88.3862,11.2522,0,0.000885,0,0
0:0:49.297,88.7954,11.3074,0,0.000885,0,0
0:0:49.500,88.9733,11.3281,0,0.000885,0,0
0:0:49.697,89.734,11.4246,0,0.000885,0,0
0:0:49.897,90.0276,11.466,0,0.000885,0,0
0:0:50.098,90.6147,11.5349,0,0.000885,0,0
0:0:50.294,91.2597,11.6177,0,0.000885,0,0
0:0:50.495,90.9661,11.5832,0,0.000885,0,0
0:0:50.692,91.4955,11.6521,0,0.000885,0,0
0:0:50.891,92.0248,11.7142,0,0.000885,0,0
0:0:51.092,92.6075,11.79,0,0.000885,0,0
0:0:51.286,92.5497,11.7831,0,0.000885,0,0
0:0:51.488,92.9011,11.8314,0,0.000885,0,0
0:0:51.687,93.2525,11.8728,0,0.000885,0,0
0:0:51.885,93.724,11.9348,0,0.000885,0,0
0:0:52.087,94.2534,12.0038,0,0.000885,0,0
0:0:52.290,95.014,12.1003,0,0.000885,0,0
0:0:52.494,95.0718,12.1072,0,0.000885,0,0
0:0:52.696,95.3654,12.1417,0,0.000885,0,0
0:0:52.898,95.4232,12.1486,0,0.000885,0,0
0:0:53.101,96.0104,12.2244,0,0.000885,0,0
0:0:53.302,96.7755,12.3209,0,0.000885,0,0
0:0:53.503,97.0646,12.3623,0,0.000885,0,0
0:0:53.704,97.7096,12.4381,0,0.000885,0,0
0:0:53.901,98.0655,12.4864,0,0.000885,0,0
0:0:54.103,98.4747,12.5416,0,0.000885,0,0
0:0:54.299,99.0041,12.6036,0,0.000885,0,0
0:0:54.498,99.2932,12.645,0,0.000885,0,0
0:0:54.700,100.058,12.7415,0,0.000885,0,0
0:0:54.895,99.7069,12.6932,0,0.000885,0,0
0:0:55.097,100.468,12.7898,0,0.000885,0,0
0:0:55.294,100.352,12.776,0,0.000885,0,0
0:0:55.492,101.055,12.8656,0,0.000885,0,0
0:0:55.694,101.526,12.9277,0,0.000885,0,0
0:0:55.890,102.109,13.0035,0,0.000885,0,0
0:0:56.091,102.287,13.0242,0,0.000885,0,0
0:0:56.289,101.993,12.9828,0,0.000885,0,0
0:0:56.486,102.696,13.0725,0,0.000885,0,0
0:0:56.688,103.225,13.1414,0,0.000885,0,0
0:0:56.885,103.577,13.1897,0,0.000885,0,0
0:0:57.085,103.928,13.231,0,0.000885,0,0
0:0:57.288,104.458,13.3,0,0.000885,0,0
0:0:57.490,104.867,13.3551,0,0.000885,0,0
0:0:57.695,105.396,13.4172,0,0.000885,0,0
0:0:57.897,105.512,13.431,0,0.000885,0,0
0:0:58.099,105.983,13.493,0,0.000885,0,0
0:0:58.299,106.566,13.5689,0,0.000885,0,0
0:0:58.502,107.095,13.6378,0,0.000885,0,0
0:0:58.704,107.389,13.6723,0,0.000885,0,0
0:0:58.902,107.976,13.7481,0,0.000885,0,0
0:0:59.100,108.092,13.7619,0,0.000885,0,0
0:0:59.302,108.443,13.8102,0,0.000885,0,0
0:0:59.497,109.15,13.8998,0,0.000885,0,0
0:0:59.698,109.618,13.955,0,0.000885,0,0
0:0:59.898,110.027,14.0101,0,0.000885,0,0
0:1:0.095,110.378,14.0515,0,0.000885,0,0
0:1:0.296,110.378,14.0515,0,0.000885,0,0
0:1:0.494,110.734,14.0998,0,0.000885,0,0
0:1:0.694,111.259,14.1687,0,0.000885,0,0
0:1:0.895,111.673,14.217,0,0.000885,0,0
0:1:1.088,111.495,14.1963,0,0.000885,0,0
0:1:1.290,112.024,14.2653,0,0.000885,0,0
0:1:1.489,112.607,14.3411,0,0.000885,0,0
0:1:1.687,113.194,14.41,0,0.000885,0,0
0:1:1.890,113.43,14.4445,0,0.000885,0,0
0:1:2.092,114.075,14.5273,0,0.000885,0,0
0:1:2.296,114.368,14.5617,0,0.000885,0,0
0:1:2.499,114.546,14.5824,0,0.000885,0,0
0:1:2.701,115.6,14.7203,0,0.000885,0,0
0:1:2.903,115.894,14.7548,0,0.000885,0,0
0:1:3.105,116.423,14.8237,0,0.000885,0,0
0:1:3.308,116.655,14.8513,0,0.000885,0,0
0:1:3.507,116.89,14.8858,0,0.000885,0,0
0:1:3.704,117.184,14.9203,0,0.000885,0,0
0:1:3.907,117.242,14.9271,0,0.000885,0,0
0:1:4.104,117.357,14.9409,0,0.000885,0,0
0:1:4.304,118.065,15.0306,0,0.000885,0,0
0:1:4.505,118.474,15.0857,0,0.000885,0,0
0:1:4.700,119.235,15.1823,0,0.000885,0,0
0:1:4.902,119.119,15.1685,0,0.000885,0,0
0:1:5.097,119.648,15.2305,0,0.000885,0,0
0:1:5.296,120.235,15.3064,0,0.000885,0,0
0:1:5.499,120.938,15.396,0,0.000885,0,0
0:1:5.694,121.174,15.4305,0,0.000885,0,0
0:1:5.896,121.463,15.4649,0,0.000885,0,0
0:1:6.093,121.583,15.4787,0,0.000885,0,0
0:1:6.290,121.877,15.5201,0,0.000885,0,0
0:1:6.494,122.402,15.5822,0,0.000885,0,0
0:1:6.689,122.464,15.589,0,0.000885,0,0
0:1:6.890,123.518,15.7269,0,0.000885,0,0
0:1:7.091,123.46,15.72,0,0.000885,0,0
0:1:7.296,124.866,15.8993,0,0.000885,0,0
0:1:7.498,124.457,15.8442,0,0.000885,0,0
0:1:7.700,125.338,15.9614,0,0.000885,0,0
0:1:7.902,125.511,15.982,0,0.000885,0,0
0:1:8.105,126.214,16.0717,0,0.000885,0,0
0:1:8.306,126.685,16.1268,0,0.000885,0,0
0:1:8.508,127.095,16.182,0,0.000885,0,0
0:1:8.707,126.921,16.1613,0,0.000885,0,0
0:1:8.905,127.037,16.1751,0,0.000885,0,0
0:1:9.106,127.388,16.2165,0,0.000885,0,0
0:1:9.300,127.797,16.2716,0,0.000885,0,0
0:1:9.502,128.033,16.2992,0,0.000885,0,0
0:1:9.701,128.914,16.4164,0,0.000885,0,0
0:1:9.898,129.207,16.4509,0,0.000885,0,0
0:1:10.100,129.617,16.506,0,0.000885,0,0
0:1:10.296,129.852,16.5336,0,0.000885,0,0
0:1:10.497,130.791,16.6508,0,0.000885,0,0
0:1:10.697,131.085,16.6922,0,0.000885,0,0
0:1:10.894,131.494,16.7405,0,0.000885,0,0
0:1:11.096,131.672,16.768,0,0.000885,0,0
0:1:11.294,132.317,16.8439,0,0.000885,0,0
0:1:11.491,132.548,16.8784,0,0.000885,0,0
0:1:11.692,132.904,16.9197,0,0.000885,0,0
0:1:11.888,133.313,16.9749,0,0.000885,0,0
0:1:12.090,133.255,16.968,0,0.000885,0,0
0:1:12.291,133.607,17.0094,0,0.000885,0,0
0:1:12.496,133.9,17.0507,0,0.000885,0,0
0:1:12.700,134.777,17.1611,0,0.000885,0,0
0:1:12.902,135.07,17.1955,0,0.000885,0,0
0:1:13.103,135.07,17.1955,0,0.000885,0,0
0:1:13.305,135.835,17.2921,0,0.000885,0,0
0:1:13.507,136.187,17.3403,0,0.000885,0,0
0:1:13.709,136.596,17.3955,0,0.000885,0,0
0:1:13.905,137.01,17.4437,0,0.000885,0,0
0:1:14.106,137.068,17.4506,0,0.000885,0,0
0:1:14.307,137.886,17.5541,0,0.000885,0,0
0:1:14.502,138.531,17.6368,0,0.000885,0,0
0:1:14.705,138.651,17.6506,0,0.000885,0,0
0:1:14.902,139.354,17.7402,0,0.000885,0,0
0:1:15.099,139.763,17.7954,0,0.000885,0,0
0:1:15.302,140.235,17.8574,0,0.000885,0,0
0:1:15.498,140.76,17.9195,0,0.000885,0,0
0:1:15.700,141.053,17.9608,0,0.000885,0,0
0:1:15.897,141.289,17.9884,0,0.000885,0,0
0:1:16.095,141.525,18.016,0,0.000885,0,0
0:1:16.297,141.698,18.0436,0,0.000885,0,0
0:1:16.493,142.05,18.0849,0,0.000885,0,0
0:1:16.695,142.343,18.1263,0,0.000885,0,0
0:1:16.894,143.224,18.2366,0,0.000885,0,0
0:1:17.091,143.575,18.278,0,0.000885,0,0
0:1:17.293,143.633,18.2849,0,0.000885,0,0
0:1:17.494,144.105,18.3469,0,0.000885,0,0
0:1:17.699,144.634,18.4159,0,0.000885,0,0
0:1:17.901,144.572,18.409,0,0.000885,0,0
0:1:18.103,145.337,18.5055,0,0.000885,0,0
0:1:18.305,145.573,18.5331,0,0.000885,0,0
0:1:18.506,145.862,18.5745,0,0.000885,0,0
0:1:18.709,146.155,18.6089,0,0.000885,0,0
0:1:18.908,146.627,18.671,0,0.000885,0,0
0:1:19.105,147.156,18.7331,0,0.000885,0,0
0:1:19.308,147.859,18.8227,0,0.000885,0,0
0:1:19.505,148.152,18.8641,0,0.000885,0,0
0:1:19.705,148.677,18.933,0,0.000885,0,0
0:1:19.906,149.029,18.9744,0,0.000885,0,0
0:1:20.101,149.322,19.0157,0,0.000885,0,0
0:1:20.303,149.678,19.0571,0,0.000885,0,0
0:1:20.502,150.323,19.1398,0,0.000885,0,0
0:1:20.700,150.79,19.2019,0,0.000885,0,0
0:1:20.901,151.2,19.2502,0,0.000885,0,0
0:1:21.095,151.613,19.3053,0,0.000885,0,0
0:1:21.297,152.022,19.3536,0,0.000885,0,0
0:1:21.496,152.022,19.3536,0,0.000885,0,0
0:1:21.695,152.432,19.4087,0,0.000885,0,0
0:1:21.897,153.019,19.4846,0,0.000885,0,0
0:1:22.100,153.197,19.5053,0,0.000885,0,0
0:1:22.304,153.9,19.5949,0,0.000885,0,0
0:1:22.507,153.606,19.5604,0,0.000885,0,0
0:1:22.708,154.015,19.6087,0,0.000885,0,0
0:1:22.910,154.487,19.6707,0,0.000885,0,0
0:1:23.112,154.66,19.6914,0,0.000885,0,0
0:1:23.314,155.425,19.788,0,0.000885,0,0
0:1:23.513,156.128,19.8776,0,0.000885,0,0
0:1:23.711,156.244,19.8914,0,0.000885,0,0
0:1:23.914,156.947,19.981,0,0.000885,0,0
0:1:24.109,157.009,19.9879,0,0.000885,0,0
0:1:24.311,157.712,20.0775,0,0.000885,0,0
0:1:24.510,157.947,20.112,0,0.000885,0,0
0:1:24.708,158.472,20.1741,0,0.000885,0,0
0:1:24.910,158.944,20.2361,0,0.000885,0,0
0:1:25.107,159.589,20.3188,0,0.000885,0,0
0:1:25.307,159.825,20.3464,0,0.000885,0,0
0:1:25.505,159.705,20.3326,0,0.000885,0,0
0:1:25.702,160.114,20.3878,0,0.000885,0,0
0:1:25.905,160.821,20.4774,0,0.000885,0,0
0:1:26.101,161.172,20.5188,0,0.000885,0,0
0:1:26.301,161.23,20.5257,0,0.000885,0,0
0:1:26.500,161.466,20.5602,0,0.000885,0,0
0:1:26.697,161.875,20.6084,0,0.000885,0,0
0:1:26.900,162.872,20.7394,0,0.000885,0,0
0:1:27.101,163.343,20.7946,0,0.000885,0,0
0:1:27.305,163.401,20.8015,0,0.000885,0,0
0:1:27.507,163.81,20.8566,0,0.000885,0,0
0:1:27.710,164.219,20.9118,0,0.000885,0,0
0:1:27.911,164.749,20.9739,0,0.000885,0,0
0:1:28.114,165.452,21.0635,0,0.000885,0,0
0:1:28.316,165.514,21.0704,0,0.000885,0,0
0:1:28.517,165.923,21.1255,0,0.000885,0,0
0:1:28.712,166.039,21.1393,0,0.000885,0,0
0:1:28.914,166.097,21.1462,0,0.000885,0,0
0:1:29.113,166.51,21.2014,0,0.000885,0,0
0:1:29.310,167.449,21.3186,0,0.000885,0,0
0:1:29.512,167.8,21.3669,0,0.000885,0,0
0:1:29.706,168.267,21.422,0,0.000885,0,0
0:1:29.908,168.503,21.4565,0,0.000885,0,0
0:1:30.108,168.854,21.4979,0,0.000885,0,0
0:1:30.305,169.326,21.5599,0,0.000885,0,0
0:1:30.507,169.735,21.6082,0,0.000885,0,0
0:1:30.704,170.087,21.6564,0,0.000885,0,0
0:1:30.904,170.789,21.7461,0,0.000885,0,0
0:1:31.106,171.025,21.7736,0,0.000885,0,0
0:1:31.301,171.199,21.8012,0,0.000885,0,0
0:1:31.503,172.079,21.9115,0,0.000885,0,0
0:1:31.699,172.373,21.946,0,0.000885,0,0
0:1:31.897,172.431,21.9529,0,0.000885,0,0
0:1:32.098,172.431,21.9529,0,0.000885,0,0
0:1:32.301,173.312,22.0701,0,0.000885,0,0
0:1:32.505,173.49,22.0908,0,0.000885,0,0
0:1:32.708,174.25,22.1873,0,0.000885,0,0
0:1:32.910,174.544,22.2218,0,0.000885,0,0
0:1:33.113,175.131,22.2976,0,0.000885,0,0
0:1:33.314,175.425,22.339,0,0.000885,0,0
0:1:33.516,176.127,22.4286,0,0.000885,0,0
0:1:33.718,176.363,22.4562,0,0.000885,0,0
0:1:33.914,176.95,22.5321,0,0.000885,0,0
0:1:34.116,177.244,22.5665,0,0.000885,0,0
0:1:34.314,177.182,22.5596,0,0.000885,0,0
0:1:34.512,177.711,22.6286,0,0.000885,0,0
0:1:34.713,178.414,22.7182,0,0.000885,0,0
0:1:34.907,178.24,22.6906,0,0.000885,0,0
0:1:35.110,178.765,22.7596,0,0.000885,0,0
0:1:35.309,179.001,22.7941,0,0.000885,0,0
0:1:35.507,179.53,22.8561,0,0.000885,0,0
0:1:35.708,179.824,22.8975,0,0.000885,0,0
0:1:35.903,179.766,22.8906,0,0.000885,0,0
0:1:36.105,180.291,22.9526,0,0.000885,0,0
0:1:36.304,180.994,23.0423,0,0.000885,0,0
0:1:36.501,181.581,23.1181,0,0.000885,0,0
0:1:36.703,181.523,23.1112,0,0.000885,0,0
0:1:36.900,181.995,23.1733,0,0.000885,0,0
0:1:37.099,182.462,23.2284,0,0.000885,0,0
0:1:37.301,182.64,23.256,0,0.000885,0,0
0:1:37.505,182.929,23.2905,0,0.000885,0,0
0:1:37.707,183.516,23.3663,0,0.000885,0,0
0:1:37.909,184.045,23.4353,0,0.000885,0,0
0:1:38.112,184.806,23.5318,0,0.000885,0,0
0:1:38.312,184.926,23.5456,0,0.000885,0,0
0:1:38.514,185.807,23.6559,0,0.000885,0,0
0:1:38.717,185.922,23.6697,0,0.000885,0,0
0:1:38.916,186.567,23.7524,0,0.000885,0,0
0:1:39.114,186.683,23.7662,0,0.000885,0,0
0:1:39.316,186.977,23.8076,0,0.000885,0,0
0:1:39.512,187.622,23.8903,0,0.000885,0,0
0:1:39.714,188.209,23.9662,0,0.000885,0,0
0:1:39.911,188.444,23.9938,0,0.000885,0,0
0:1:40.109,188.912,24.0558,0,0.000885,0,0
0:1:40.311,188.854,24.0489,0,0.000885,0,0
0:1:40.507,189.557,24.1385,0,0.000885,0,0
0:1:40.709,190.264,24.2282,0,0.000885,0,0
0:1:40.908,190.495,24.2558,0,0.000885,0,0
0:1:41.105,190.673,24.2764,0,0.000885,0,0
0:1:41.307,190.615,24.2695,0,0.000885,0,0
0:1:41.502,190.967,24.3178,0,0.000885,0,0
0:1:41.703,191.612,24.3937,0,0.000885,0,0
0:1:41.905,192.257,24.4764,0,0.000885,0,0
0:1:42.108,192.199,24.4695,0,0.000885,0,0
0:1:42.311,192.199,24.4695,0,0.000885,0,0
0:1:42.512,192.844,24.5522,0,0.000885,0,0
0:1:42.713,193.547,24.6419,0,0.000885,0,0
0:1:42.912,193.782,24.6763,0,0.000885,0,0
0:1:43.114,194.485,24.766,0,0.000885,0,0
0:1:43.314,194.779,24.8004,0,0.000885,0,0
0:1:43.512,195.308,24.8694,0,0.000885,0,0
0:1:43.708,195.775,24.9245,0,0.000885,0,0
0:1:43.908,196.069,24.9659,0,0.000885,0,0
0:1:44.103,196.42,25.0073,0,0.000885,0,0
0:1:44.302,197.243,25.1107,0,0.000885,0,0
0:1:44.501,197.537,25.1521,0,0.000885,0,0
0:1:44.695,197.888,25.1934,0,0.000885,0,0
0:1:44.896,198.239,25.2417,0,0.000885,0,0
0:1:45.093,198.239,25.2417,0,0.000885,0,0
0:1:45.291,199,25.3382,0,0.000885,0,0
0:1:45.490,199.587,25.4141,0,0.000885,0,0
0:1:45.683,199.939,25.4554,0,0.000885,0,0
0:1:45.883,200.41,25.5175,0,0.000885,0,0
0:1:46.080,199.939,25.4554,0,0.000885,0,0
0:1:46.275,200.526,25.5313,0,0.000885,0,0
0:1:46.475,201.286,25.6278,0,0.000885,0,0
0:1:46.670,201.464,25.6485,0,0.000885,0,0
0:1:46.866,201.349,25.6347,0,0.000885,0,0
0:1:47.067,201.816,25.6968,0,0.000885,0,0
0:1:47.269,202.754,25.814,0,0.000885,0,0
0:1:47.471,202.87,25.8278,0,0.000885,0,0
0:1:47.672,203.399,25.8967,0,0.000885,0,0
0:1:47.871,203.399,25.8967,0,0.000885,0,0
0:1:48.073,204.338,26.0139,0,0.000885,0,0
0:1:48.273,203.987,25.9726,0,0.000885,0,0
0:1:48.472,204.222,26.0001,0,0.000885,0,0
0:1:48.671,205.161,26.1242,0,0.000885,0,0
0:1:48.867,205.922,26.2208,0,0.000885,0,0
0:1:49.067,206.451,26.2828,0,0.000885,0,0
0:1:49.263,206.624,26.3104,0,0.000885,0,0
0:1:49.461,207.332,26.4,0,0.000885,0,0
0:1:49.659,207.332,26.4,0,0.000885,0,0
0:1:49.854,207.389,26.4069,0,0.000885,0,0
0:1:50.054,207.621,26.4345,0,0.000885,0,0
0:1:50.252,208.853,26.5931,0,0.000885,0,0
0:1:50.448,209.618,26.6896,0,0.000885,0,0
0:1:50.648,209.382,26.662,0,0.000885,0,0
0:1:50.841,209.791,26.7103,0,0.000885,0,0
0:1:51.041,210.027,26.7448,0,0.000885,0,0
0:1:51.239,210.379,26.7861,0,0.000885,0,0
0:1:51.435,210.73,26.8344,0,0.000885,0,0
0:1:51.636,211.962,26.9861,0,0.000885,0,0
0:1:51.831,212.492,27.055,0,0.000885,0,0
0:1:52.029,212.082,26.9999,0,0.000885,0,0
0:1:52.229,212.256,27.0274,0,0.000885,0,0
0:1:52.431,213.43,27.1722,0,0.000885,0,0
0:1:52.633,213.488,27.1791,0,0.000885,0,0
0:1:52.835,213.724,27.2136,0,0.000885,0,0
0:1:53.035,213.488,27.1791,0,0.000885,0,0
0:1:53.236,214.6,27.3239,0,0.000885,0,0
0:1:53.436,214.894,27.3584,0,0.000885,0,0
0:1:53.638,214.894,27.3584,0,0.000885,0,0
0:1:53.835,214.956,27.3722,0,0.000885,0,0
0:1:54.030,215.774,27.4756,0,0.000885,0,0
0:1:54.231,215.952,27.4963,0,0.000885,0,0
0:1:54.425,216.597,27.579,0,0.000885,0,0
0:1:54.626,217.242,27.6618,0,0.000885,0,0
0:1:54.823,217.122,27.648,0,0.000885,0,0
0:1:55.017,217.767,27.7238,0,0.000885,0,0
0:1:55.218,218.296,27.7928,0,0.000885,0,0
0:1:55.416,218.768,27.8548,0,0.000885,0,0
0:1:55.612,218.768,27.8548,0,0.000885,0,0
0:1:55.813,219.177,27.9031,0,0.000885,0,0
0:1:56.007,219.471,27.9445,0,0.000885,0,0
0:1:56.208,220.058,28.0203,0,0.000885,0,0
0:1:56.404,220.645,28.0961,0,0.000885,0,0
0:1:56.602,221.054,28.1444,0,0.000885,0,0
0:1:56.803,221.521,28.2065,0,0.000885,0,0
0:1:57.005,221.757,28.234,0,0.000885,0,0
0:1:57.207,221.993,28.2616,0,0.000885,0,0
0:1:57.408,221.993,28.2616,0,0.000885,0,0
0:1:57.609,223.047,28.3995,0,0.000885,0,0
0:1:57.810,223.519,28.4616,0,0.000885,0,0
0:1:58.009,224.044,28.5236,0,0.000885,0,0
0:1:58.209,224.044,28.5236,0,0.000885,0,0
0:1:58.408,224.689,28.6063,0,0.000885,0,0
0:1:58.604,224.924,28.6408,0,0.000885,0,0
0:1:58.805,225.396,28.696,0,0.000885,0,0
0:1:59.001,225.921,28.7649,0,0.000885,0,0
0:1:59.199,226.508,28.8408,0,0.000885,0,0
0:1:59.397,226.624,28.8546,0,0.000885,0,0
0:1:59.592,227.037,28.9097,0,0.000885,0,0
0:1:59.792,226.744,28.8683,0,0.000885,0,0
0:1:59.990,227.976,29.0269,0,0.000885,0,0
0:2:0.185,228.501,29.0959,0,0.000885,0,0
0:2:0.384,228.207,29.0545,0,0.000885,0,0
0:2:0.588,228.621,29.1097,0,0.000885,0,0
0:2:0.790,229.03,29.1579,0,0.000885,0,0
0:2:0.986,229.733,29.2476,0,0.000885,0,0
0:2:1.193,230.147,29.3027,0,0.000885,0,0
0:2:1.394,230.378,29.3303,0,0.000885,0,0
0:2:1.596,230.262,29.3165,0,0.000885,0,0
0:2:1.796,231.494,29.4751,0,0.000885,0,0
0:2:1.996,232.139,29.5578,0,0.000885,0,0
0:2:2.197,232.082,29.5509,0,0.000885,0,0
0:2:2.398,232.139,29.5578,0,0.000885,0,0
0:2:2.599,233.078,29.675,0,0.000885,0,0
0:2:2.800,233.723,29.7578,0,0.000885,0,0
0:2:3.001,233.603,29.744,0,0.000885,0,0
0:2:3.199,233.723,29.7578,0,0.000885,0,0
0:2:3.401,234.541,29.8612,0,0.000885,0,0
0:2:3.597,234.484,29.8543,0,0.000885,0,0
0:2:3.797,234.897,29.9095,0,0.000885,0,0
0:2:3.997,235.716,30.0129,0,0.000885,0,0
0:2:4.191,236.245,30.0818,0,0.000885,0,0
0:2:4.392,236.303,30.0887,0,0.000885,0,0
0:2:4.585,236.596,30.1232,0,0.000885,0,0
0:2:4.794,237.419,30.2266,0,0.000885,0,0
0:2:4.992,237.419,30.2266,0,0.000885,0,0
0:2:5.186,237.535,30.2404,0,0.000885,0,0
0:2:5.385,238.002,30.3025,0,0.000885,0,0
0:2:5.583,238.883,30.4128,0,0.000885,0,0
0:2:5.778,239.119,30.4472,0,0.000885,0,0
0:2:5.979,239.292,30.4679,0,0.000885,0,0
0:2:6.175,239.879,30.5438,0,0.000885,0,0
0:2:6.374,240.351,30.5989,0,0.000885,0,0
0:2:6.580,239.999,30.5576,0,0.000885,0,0
0:2:6.786,240.76,30.6541,0,0.000885,0,0
0:2:6.987,241.463,30.7437,0,0.000885,0,0
0:2:7.187,241.521,30.7506,0,0.000885,0,0
0:2:7.391,241.463,30.7437,0,0.000885,0,0
0:2:7.592,242.459,30.8678,0,0.000885,0,0
0:2:7.792,242.579,30.8885,0,0.000885,0,0
0:2:7.993,243.104,30.9506,0,0.000885,0,0
0:2:8.194,243.34,30.985,0,0.000885,0,0
0:2:8.394,243.985,31.0678,0,0.000885,0,0
0:2:8.593,244.221,31.0954,0,0.000885,0,0
0:2:8.787,245.337,31.2401,0,0.000885,0,0
0:2:8.986,245.337,31.2401,0,0.000885,0,0
0:2:9.181,245.626,31.2746,0,0.000885,0,0
0:2:9.379,245.92,31.3091,0,0.000885,0,0
0:2:9.579,245.804,31.2953,0,0.000885,0,0
0:2:9.772,246.801,31.4263,0,0.000885,0,0
0:2:9.973,247.272,31.4815,0,0.000885,0,0
0:2:10.170,247.855,31.5573,0,0.000885,0,0
0:2:10.366,248.211,31.6056,0,0.000885,0,0
0:2:10.568,248.562,31.6469,0,0.000885,0,0
0:2:10.761,248.856,31.6883,0,0.000885,0,0
0:2:10.962,249.674,31.7917,0,0.000885,0,0
0:2:11.158,249.674,31.7917,0,0.000885,0,0
0:2:11.356,249.794,31.8055,0,0.000885,0,0
0:2:11.556,250.146,31.8469,0,0.000885,0,0
0:2:11.750,251.436,32.0124,0,0.000885,0,0
0:2:11.950,251.436,32.0124,0,0.000885,0,0
0:2:12.149,251.378,32.0055,0,0.000885,0,0
0:2:12.351,251.903,32.0744,0,0.000885,0,0
0:2:12.553,252.784,32.1847,0,0.000885,0,0
0:2:12.754,253.135,32.233,0,0.000885,0,0
0:2:12.955,252.899,32.1985,0,0.000885,0,0
0:2:13.155,253.664,32.295,0,0.000885,0,0
0:2:13.354,254.251,32.3709,0,0.000885,0,0
0:2:13.555,254.074,32.3502,0,0.000885,0,0
0:2:13.751,254.016,32.3433,0,0.000885,0,0
0:2:13.950,255.306,32.5088,0,0.000885,0,0
0:2:14.147,255.657,32.5501,0,0.000885,0,0
0:2:14.342,255.599,32.5433,0,0.000885,0,0
0:2:14.542,255.893,32.5846,0,0.000885,0,0
0:2:14.739,257.067,32.7294,0,0.000885,0,0
0:2:14.937,257.476,32.7846,0,0.000885,0,0
0:2:15.136,257.712,32.8121,0,0.000885,0,0
0:2:15.330,257.65,32.8053,0,0.000885,0,0
0:2:15.530,258.295,32.888,0,0.000885,0,0
0:2:15.727,258.709,32.9363,0,0.000885,0,0
0:2:15.922,258.473,32.9087,0,0.000885,0,0
0:2:16.122,259.296,33.0121,0,0.000885,0,0
0:2:16.315,260.056,33.1086,0,0.000885,0,0
0:2:16.516,260.234,33.1362,0,0.000885,0,0
0:2:16.714,259.941,33.0948,0,0.000885,0,0
0:2:16.910,260.879,33.2189,0,0.000885,0,0
0:2:17.111,261.404,33.281,0,0.000885,0,0
0:2:17.312,261.756,33.3293,0,0.000885,0,0
0:2:17.514,261.582,33.3086,0,0.000885,0,0
0:2:17.715,262.93,33.474,0,0.000885,0,0
0:2:17.915,262.814,33.4603,0,0.000885,0,0
0:2:18.115,262.93,33.474,0,0.000885,0,0
0:2:18.315,263.459,33.543,0,0.000885,0,0
0:2:18.517,264.22,33.6395,0,0.000885,0,0
0:2:18.715,264.22,33.6395,0,0.000885,0,0
0:2:18.910,264.278,33.6464,0,0.000885,0,0
0:2:19.111,264.398,33.6671,0,0.000885,0,0
0:2:19.305,264.985,33.736,0,0.000885,0,0
0:2:19.504,266.275,33.9015,0,0.000885,0,0
0:2:19.704,266.333,33.9084,0,0.000885,0,0
0:2:19.897,266.506,33.936,0,0.000885,0,0
0:2:20.098,266.742,33.9636,0,0.000885,0,0
0:2:20.295,267.093,34.0049,0,0.000885,0,0
0:2:20.493,267.329,34.0394,0,0.000885,0,0
0:2:20.692,267.916,34.1153,0,0.000885,0,0
0:2:20.895,268.383,34.1704,0,0.000885,0,0
0:2:21.095,268.797,34.2256,0,0.000885,0,0
0:2:21.294,268.971,34.2463,0,0.000885,0,0
0:2:21.488,269.322,34.2945,0,0.000885,0,0
0:2:21.689,269.616,34.329,0,0.000885,0,0
0:2:21.890,269.736,34.3428,0,0.000885,0,0
0:2:22.095,270.261,34.4117,0,0.000885,0,0
0:2:22.295,270.732,34.4738,0,0.000885,0,0
0:2:22.496,271.319,34.5427,0,0.000885,0,0
0:2:22.697,271.493,34.5703,0,0.000885,0,0
0:2:22.896,271.786,34.6048,0,0.000885,0,0
0:2:23.098,272.08,34.6393,0,0.000885,0,0
0:2:23.296,272.961,34.7565,0,0.000885,0,0
0:2:23.489,273.254,34.7909,0,0.000885,0,0
0:2:23.693,273.779,34.8599,0,0.000885,0,0
0:2:23.896,273.957,34.8806,0,0.000885,0,0
0:2:24.095,274.776,34.984,0,0.000885,0,0
0:2:24.294,275.305,35.0529,0,0.000885,0,0
0:2:24.486,275.483,35.0736,0,0.000885,0,0
0:2:24.686,276.359,35.1839,0,0.000885,0,0
0:2:24.882,276.479,35.2046,0,0.000885,0,0
0:2:25.079,276.831,35.246,0,0.000885,0,0
0:2:25.279,277.004,35.2667,0,0.000885,0,0
0:2:25.473,277.711,35.3563,0,0.000885,0,0
0:2:25.674,278.472,35.4528,0,0.000885,0,0
0:2:25.870,278.588,35.4735,0,0.000885,0,0
0:2:26.066,279.001,35.5218,0,0.000885,0,0
0:2:26.267,279.526,35.5907,0,0.000885,0,0
0:2:26.461,279.237,35.5563,0,0.000885,0,0
0:2:26.662,280.171,35.6735,0,0.000885,0,0
0:2:26.862,280.407,35.7011,0,0.000885,0,0
0:2:27.065,280.994,35.7769,0,0.000885,0,0
0:2:27.267,281.523,35.8458,0,0.000885,0,0
0:2:27.467,281.523,35.8458,0,0.000885,0,0
0:2:27.667,281.933,35.8941,0,0.000885,0,0
0:2:27.868,282.52,35.9699,0,0.000885,0,0
0:2:28.068,282.813,36.0113,0,0.000885,0,0
0:2:28.269,283.165,36.0527,0,0.000885,0,0
0:2:28.462,283.338,36.0734,0,0.000885,0,0
0:2:28.664,283.926,36.1492,0,0.000885,0,0
0:2:28.861,284.103,36.1699,0,0.000885,0,0
0:2:29.056,284.806,36.2595,0,0.000885,0,0
0:2:29.257,285.393,36.3354,0,0.000885,0,0
0:2:29.452,285.745,36.3836,0,0.000885,0,0
0:2:29.651,285.803,36.3905,0,0.000885,0,0
0:2:29.850,286.39,36.4664,0,0.000885,0,0
0:2:30.045,286.506,36.4802,0,0.000885,0,0
0:2:30.245,286.799,36.5146,0,0.000885,0,0
0:2:30.441,287.213,36.5698,0,0.000885,0,0
0:2:30.638,287.506,36.6043,0,0.000885,0,0
0:2:30.838,288.445,36.7284,0,0.000885,0,0
0:2:31.033,288.561,36.7422,0,0.000885,0,0
0:2:31.231,288.676,36.756,0,0.000885,0,0
0:2:31.429,288.912,36.7835,0,0.000885,0,0
0:2:31.623,289.263,36.8318,0,0.000885,0,0
0:2:31.825,289.908,36.9145,0,0.000885,0,0
0:2:32.026,290.496,36.9904,0,0.000885,0,0
0:2:32.229,291.318,37.0938,0,0.000885,0,0
0:2:32.430,291.786,37.149,0,0.000885,0,0
0:2:32.629,291.612,37.1283,0,0.000885,0,0
0:2:32.830,292.373,37.2248,0,0.000885,0,0
0:2:33.030,292.315,37.2179,0,0.000885,0,0
0:2:33.231,292.902,37.2937,0,0.000885,0,0
0:2:33.431,293.311,37.3489,0,0.000885,0,0
0:2:33.625,293.369,37.3558,0,0.000885,0,0
0:2:33.826,294.072,37.4454,0,0.000885,0,0
0:2:34.023,294.308,37.473,0,0.000885,0,0
0:2:34.218,294.486,37.4937,0,0.000885,0,0
0:2:34.419,294.659,37.5144,0,0.000885,0,0
0:2:34.613,295.131,37.5764,0,0.000885,0,0
0:2:34.812,295.891,37.673,0,0.000885,0,0
0:2:35.011,295.891,37.673,0,0.000885,0,0
0:2:35.205,296.363,37.735,0,0.000885,0,0
0:2:35.406,296.945,37.8108,0,0.000885,0,0
0:2:35.601,297.359,37.8591,0,0.000885,0,0
0:2:35.799,297.59,37.8936,0,0.000885,0,0
0:2:36.000,298.529,38.0108,0,0.000885,0,0
0:2:36.202,298.471,38.0039,0,0.000885,0,0
0:2:36.403,299.116,38.0866,0,0.000885,0,0
0:2:36.600,299.294,38.1073,0,0.000885,0,0
0:2:36.797,299.703,38.1625,0,0.000885,0,0
0:2:36.998,300.526,38.2659,0,0.000885,0,0
0:2:37.199,300.7,38.2866,0,0.000885,0,0
0:2:37.402,300.993,38.3211,0,0.000885,0,0
0:2:37.602,301.229,38.3555,0,0.000885,0,0
0:2:37.803,301.932,38.4452,0,0.000885,0,0
0:2:38.003,302.519,38.521,0,0.000885,0,0
0:2:38.203,302.226,38.4796,0,0.000885,0,0
0:2:38.403,302.813,38.5555,0,0.000885,0,0
0:2:38.604,303.693,38.6658,0,0.000885,0,0
0:2:38.798,303.751,38.6727,0,0.000885,0,0
0:2:38.999,303.987,38.7072,0,0.000885,0,0
0:2:39.196,304.218,38.7347,0,0.000885,0,0
0:2:39.392,304.863,38.8175,0,0.000885,0,0
0:2:39.590,305.45,38.8933,0,0.000885,0,0
0:2:39.785,306.273,38.9967,0,0.000885,0,0
0:2:39.985,306.331,39.0036,0,0.000885,0,0
0:2:40.191,306.803,39.0657,0,0.000885,0,0
0:2:40.400,307.154,39.1071,0,0.000885,0,0
0:2:40.601,308.03,39.2174,0,0.000885,0,0
0:2:40.803,307.973,39.2105,0,0.000885,0,0
0:2:41.003,308.324,39.2587,0,0.000885,0,0
0:2:41.200,308.151,39.2381,0,0.000885,0,0
0:2:41.397,309.205,39.3691,0,0.000885,0,0
0:2:41.597,308.675,39.3001,0,0.000885,0,0
0:2:41.799,309.498,39.4035,0,0.000885,0,0
0:2:42.001,309.792,39.4449,0,0.000885,0,0
0:2:42.203,309.908,39.4587,0,0.000885,0,0
0:2:42.403,310.437,39.5276,0,0.000885,0,0
0:2:42.603,311.14,39.6173,0,0.000885,0,0
0:2:42.803,310.788,39.569,0,0.000885,0,0
0:2:43.002,311.611,39.6724,0,0.000885,0,0
0:2:43.201,311.785,39.7,0,0.000885,0,0
0:2:43.396,312.43,39.7827,0,0.000885,0,0
0:2:43.597,312.608,39.8034,0,0.000885,0,0
0:2:43.802,312.843,39.831,0,0.000885,0,0
0:2:44.000,313.368,39.9,0,0.000885,0,0
0:2:44.200,313.72,39.9413,0,0.000885,0,0
0:2:44.402,314.076,39.9896,0,0.000885,0,0
0:2:44.602,314.6,40.0585,0,0.000885,0,0
0:2:44.801,315.188,40.1344,0,0.000885,0,0
0:2:44.995,315.89,40.2171,0,0.000885,0,0
0:2:45.196,316.362,40.2792,0,0.000885,0,0
0:2:45.400,316.304,40.2723,0,0.000885,0,0
0:2:45.598,316.949,40.355,0,0.000885,0,0
0:2:45.798,316.949,40.355,0,0.000885,0,0
0:2:45.991,317.416,40.4171,0,0.000885,0,0
0:2:46.190,317.946,40.4791,0,0.000885,0,0
0:2:46.387,318.764,40.5894,0,0.000885,0,0
0:2:46.582,318.413,40.5412,0,0.000885,0,0
0:2:46.783,318.884,40.6032,0,0.000885,0,0
0:2:46.984,319.645,40.6998,0,0.000885,0,0
0:2:47.185,319.293,40.6515,0,0.000885,0,0
0:2:47.386,320.232,40.7756,0,0.000885,0,0
0:2:47.588,320.641,40.8239,0,0.000885,0,0
0:2:47.789,320.405,40.7963,0,0.000885,0,0
0:2:47.988,321.406,40.9204,0,0.000885,0,0
0:2:48.189,321.931,40.9893,0,0.000885,0,0
0:2:48.398,322.051,41.0031,0,0.000885,0,0
0:2:48.591,322.576,41.0721,0,0.000885,0,0
0:2:48.790,322.403,41.0514,0,0.000885,0,0
0:2:48.987,323.163,41.1479,0,0.000885,0,0
0:2:49.184,323.457,41.1824,0,0.000885,0,0
0:2:49.384,323.808,41.2306,0,0.000885,0,0
0:2:49.578,324.28,41.2858,0,0.000885,0,0
0:2:49.778,324.338,41.2927,0,0.000885,0,0
0:2:49.984,324.28,41.2858,0,0.000885,0,0
0:2:50.191,325.098,41.3961,0,0.000885,0,0
0:2:50.391,325.512,41.4444,0,0.000885,0,0
0:2:50.596,326.273,41.5409,0,0.000885,0,0
0:2:50.797,326.624,41.5892,0,0.000885,0,0
0:2:50.992,326.682,41.5961,0,0.000885,0,0
0:2:51.187,326.451,41.5616,0,0.000885,0,0
0:2:51.387,327.033,41.6374,0,0.000885,0,0
0:2:51.591,327.447,41.6926,0,0.000885,0,0
0:2:51.789,327.505,41.6995,0,0.000885,0,0
0:2:51.990,326.566,41.5823,0,0.000885,0,0
0:2:52.192,325.979,41.5064,0,0.000885,0,0
0:2:52.392,324.222,41.2789,0,0.000885,0,0
0:2:52.592,323.515,41.1893,0,0.000885,0,0
0:2:52.793,322.812,41.0996,0,0.000885,0,0
0:2:52.993,322.638,41.079,0,0.000885,0,0
0:2:53.192,322.225,41.0238,0,0.000885,0,0
0:2:53.391,322.345,41.0445,0,0.000885,0,0
0:2:53.598,322.345,41.0445,0,0.000885,0,0
0:2:53.796,322.225,41.0238,0,0.000885,0,0
0:2:53.992,321.931,40.9893,0,0.000885,0,0
0:2:54.187,321.993,40.9962,0,0.000885,0,0
0:2:54.386,322.283,41.0376,0,0.000885,0,0
0:2:54.592,322.167,41.0169,0,0.000885,0,0
0:2:54.799,322.345,41.0445,0,0.000885,0,0
0:2:54.999,321.873,40.9824,0,0.000885,0,0
0:2:55.202,321.931,40.9893,0,0.000885,0,0
0:2:55.402,322.167,41.0169,0,0.000885,0,0
0:2:55.598,322.696,41.0859,0,0.000885,0,0
0:2:55.803,322.754,41.0928,0,0.000885,0,0
0:2:56.002,323.048,41.1341,0,0.000885,0,0
0:2:56.197,323.048,41.1341,0,0.000885,0,0
0:2:56.393,323.808,41.2306,0,0.000885,0,0
0:2:56.593,323.928,41.2444,0,0.000885,0,0
0:2:56.797,323.635,41.2031,0,0.000885,0,0
0:2:56.998,324.28,41.2858,0,0.000885,0,0
0:2:57.199,324.511,41.3203,0,0.000885,0,0
0:2:57.398,324.453,41.3134,0,0.000885,0,0
0:2:57.597,324.573,41.3272,0,0.000885,0,0
0:2:57.797,324.573,41.3272,0,0.000885,0,0
0:2:57.997,324.747,41.3479,0,0.000885,0,0
0:2:58.192,325.04,41.3823,0,0.000885,0,0
0:2:58.388,325.512,41.4444,0,0.000885,0,0
0:2:58.589,326.095,41.5202,0,0.000885,0,0
0:2:58.792,326.273,41.5409,0,0.000885,0,0
0:2:58.990,326.508,41.5754,0,0.000885,0,0
0:2:59.188,326.682,41.5961,0,0.000885,0,0
0:2:59.383,326.918,41.6236,0,0.000885,0,0
0:2:59.583,326.918,41.6236,0,0.000885,0,0
0:2:59.778,327.153,41.6512,0,0.000885,0,0
0:2:59.975,326.918,41.6236,0,0.000885,0,0
0:3:0.175,327.153,41.6512,0,0.000885,0,0
0:3:0.368,327.096,41.6443,0,0.000885,0,0
0:3:0.568,327.269,41.6719,0,0.000885,0,0
0:3:0.766,327.62,41.7133,0,0.000885,0,0
0:3:0.960,327.327,41.6788,0,0.000885,0,0
0:3:1.161,327.914,41.7547,0,0.000885,0,0
0:3:1.354,328.034,41.7684,0,0.000885,0,0
0:3:1.555,328.559,41.8305,0,0.000885,0,0
0:3:1.755,328.795,41.865,0,0.000885,0,0
0:3:1.958,329.204,41.9132,0,0.000885,0,0
0:3:2.159,329.324,41.9339,0,0.000885,0,0
0:3:2.360,329.618,41.9684,0,0.000885,0,0
0:3:2.560,329.618,41.9684,0,0.000885,0,0
0:3:2.760,329.849,41.996,0,0.000885,0,0
0:3:2.960,330.027,42.0235,0,0.000885,0,0
0:3:3.161,330.32,42.058,0,0.000885,0,0
0:3:3.357,330.027,42.0235,0,0.000885,0,0
0:3:3.554,330.027,42.0235,0,0.000885,0,0
0:3:3.754,329.907,42.0029,0,0.000885,0,0
0:3:3.948,330.2,42.0442,0,0.000885,0,0
0:3:4.147,330.672,42.0994,0,0.000885,0,0
0:3:4.345,330.556,42.0856,0,0.000885,0,0
0:3:4.539,330.143,42.0373,0,0.000885,0,0
0:3:4.739,330.2,42.0442,0,0.000885,0,0
0:3:4.936,329.849,41.996,0,0.000885,0,0
0:3:5.132,329.262,41.9201,0,0.000885,0,0
0:3:5.332,328.853,41.8719,0,0.000885,0,0
0:3:5.523,328.679,41.8512,0,0.000885,0,0
0:3:5.723,328.15,41.7822,0,0.000885,0,0
0:3:5.921,327.327,41.6788,0,0.000885,0,0
0:3:6.116,327.447,41.6926,0,0.000885,0,0
0:3:6.317,327.033,41.6374,0,0.000885,0,0
0:3:6.510,326.975,41.6305,0,0.000885,0,0
0:3:6.709,327.211,41.665,0,0.000885,0,0
0:3:6.909,327.033,41.6374,0,0.000885,0,0
0:3:7.110,326.095,41.5202,0,0.000885,0,0
0:3:7.311,326.157,41.5271,0,0.000885,0,0
0:3:7.512,325.743,41.472,0,0.000885,0,0
0:3:7.712,325.57,41.4513,0,0.000885,0,0
0:3:7.911,325.218,41.4099,0,0.000885,0,0
0:3:8.110,324.747,41.3479,0,0.000885,0,0
0:3:8.311,324.983,41.3754,0,0.000885,0,0
0:3:8.507,324.631,41.3341,0,0.000885,0,0
0:3:8.703,324.511,41.3203,0,0.000885,0,0
0:3:8.905,324.573,41.3272,0,0.000885,0,0
0:3:9.098,324.222,41.2789,0,0.000885,0,0
0:3:9.297,323.928,41.2444,0,0.000885,0,0
0:3:9.505,323.635,41.2031,0,0.000885,0,0
0:3:9.697,323.283,41.1617,0,0.000885,0,0
0:3:9.898,322.812,41.0996,0,0.000885,0,0
0:3:10.104,321.873,40.9824,0,0.000885,0,0
0:3:10.300,321.58,40.948,0,0.000885,0,0
0:3:10.499,321.228,40.8997,0,0.000885,0,0
0:3:10.690,320.877,40.8583,0,0.000885,0,0
0:3:10.891,320.468,40.8032,0,0.000885,0,0
0:3:11.089,320.054,40.748,0,0.000885,0,0
0:3:11.283,319.058,40.6239,0,0.000885,0,0
0:3:11.483,319,40.617,0,0.000885,0,0
0:3:11.685,318.591,40.5619,0,0.000885,0,0
0:3:11.887,318.648,40.5688,0,0.000885,0,0
0:3:12.087,317.946,40.4791,0,0.000885,0,0
0:3:12.287,317.825,40.4653,0,0.000885,0,0
0:3:12.487,317.768,40.4584,0,0.000885,0,0
0:3:12.686,316.887,40.3481,0,0.000885,0,0
0:3:12.887,316.656,40.3205,0,0.000885,0,0
0:3:13.084,315.13,40.1206,0,0.000885,0,0
0:3:13.279,313.898,39.9689,0,0.000885,0,0
0:3:13.479,312.608,39.8034,0,0.000885,0,0
0:3:13.675,311.905,39.7138,0,0.000885,0,0
0:3:13.871,311.26,39.6311,0,0.000885,0,0
0:3:14.070,311.024,39.6035,0,0.000885,0,0
0:3:14.265,311.14,39.6173,0,0.000885,0,0
0:3:14.464,311.082,39.6104,0,0.000885,0,0
0:3:14.660,311.553,39.6655,0,0.000885,0,0
0:3:14.855,311.669,39.6862,0,0.000885,0,0
0:3:15.056,311.963,39.7207,0,0.000885,0,0
0:3:15.250,312.078,39.7345,0,0.000885,0,0
0:3:15.449,312.198,39.7483,0,0.000885,0,0
0:3:15.648,312.723,39.8172,0,0.000885,0,0
0:3:15.841,312.608,39.8034,0,0.000885,0,0
0:3:16.041,312.843,39.831,0,0.000885,0,0
0:3:16.237,312.665,39.8103,0,0.000885,0,0
0:3:16.432,313.075,39.8655,0,0.000885,0,0
0:3:16.633,313.017,39.8517,0,0.000885,0,0
0:3:16.835,312.843,39.831,0,0.000885,0,0
0:3:17.037,312.901,39.8379,0,0.000885,0,0
0:3:17.236,313.253,39.8862,0,0.000885,0,0
0:3:17.437,313.253,39.8862,0,0.000885,0,0
0:3:17.637,313.84,39.962,0,0.000885,0,0
0:3:17.837,313.898,39.9689,0,0.000885,0,0
0:3:18.038,314.191,40.0034,0,0.000885,0,0
0:3:18.236,314.249,40.0103,0,0.000885,0,0
0:3:18.429,314.543,40.0516,0,0.000885,0,0
0:3:18.629,315.072,40.1137,0,0.000885,0,0
0:3:18.825,315.072,40.1137,0,0.000885,0,0
0:3:19.021,315.659,40.1895,0,0.000885,0,0
0:3:19.219,315.597,40.1826,0,0.000885,0,0
0:3:19.413,315.539,40.1758,0,0.000885,0,0
0:3:19.613,315.423,40.162,0,0.000885,0,0
0:3:19.810,315.366,40.1551,0,0.000885,0,0
0:3:20.006,315.659,40.1895,0,0.000885,0,0
0:3:20.206,316.184,40.2585,0,0.000885,0,0
0:3:20.399,316.593,40.3068,0,0.000885,0,0
0:3:20.595,316.656,40.3205,0,0.000885,0,0
0:3:20.794,317.007,40.3619,0,0.000885,0,0
0:3:21.000,317.123,40.3757,0,0.000885,0,0
0:3:21.200,317.594,40.4378,0,0.000885,0,0
0:3:21.404,317.888,40.4722,0,0.000885,0,0
0:3:21.601,318.413,40.5412,0,0.000885,0,0
0:3:21.800,318.706,40.5756,0,0.000885,0,0
0:3:22.000,318.706,40.5756,0,0.000885,0,0
0:3:22.202,318.884,40.6032,0,0.000885,0,0
0:3:22.403,318.648,40.5688,0,0.000885,0,0
0:3:22.603,319.178,40.6377,0,0.000885,0,0
0:3:22.803,319.409,40.6653,0,0.000885,0,0
0:3:23.002,319.881,40.7273,0,0.000885,0,0
0:3:23.203,320.232,40.7756,0,0.000885,0,0
0:3:23.401,320.641,40.8239,0,0.000885,0,0
0:3:23.604,321.055,40.879,0,0.000885,0,0
0:3:23.805,321.406,40.9204,0,0.000885,0,0
0:3:23.999,321.638,40.9549,0,0.000885,0,0
0:3:24.196,321.758,40.9686,0,0.000885,0,0
0:3:24.393,321.815,40.9755,0,0.000885,0,0
0:3:24.607,321.873,40.9824,0,0.000885,0,0
0:3:24.808,322.109,41.01,0,0.000885,0,0
0:3:25.005,321.993,40.9962,0,0.000885,0,0
0:3:25.201,322.109,41.01,0,0.000885,0,0
0:3:25.401,321.931,40.9893,0,0.000885,0,0
0:3:25.602,321.873,40.9824,0,0.000885,0,0
0:3:25.802,321.7,40.9618,0,0.000885,0,0
0:3:25.999,320.468,40.8032,0,0.000885,0,0
0:3:26.205,319.996,40.7411,0,0.000885,0,0
0:3:26.405,318.119,40.5067,0,0.000885,0,0
0:3:26.605,314.778,40.0792,0,0.000885,0,0
0:3:26.807,314.427,40.031,0,0.000885,0,0
0:3:27.008,313.368,39.9,0,0.000885,0,0
0:3:27.207,313.195,39.8793,0,0.000885,0,0
0:3:27.408,311.553,39.6655,0,0.000885,0,0
0:3:27.607,310.028,39.4725,0,0.000885,0,0
0:3:27.808,308.796,39.3139,0,0.000885,0,0
0:3:28.005,308.266,39.2519,0,0.000885,0,0
0:3:28.200,306.861,39.0726,0,0.000885,0,0
0:3:28.402,304.632,38.7899,0,0.000885,0,0
0:3:28.605,302.461,38.5072,0,0.000885,0,0
0:3:28.802,300.233,38.2245,0,0.000885,0,0
0:3:29.001,296.536,37.7557,0,0.000885,0,0
0:3:29.204,293.956,37.4247,0,0.000885,0,0
0:3:29.404,285.336,36.3285,0,0.000885,0,0
0:3:29.600,273.837,34.8668,0,0.000885,0,0
0:3:29.658,273.837,34.8668,0,0.000885,0,0