File: DataFile2021-06-29_043218.csv
Test ID:,Date Tested:,Time:,Test Type:,Width (mm):,Depth (mm):,Height (mm):,Age (days):,Weight (kN):,Ramp Rate (MPa/s):,Load at Break (kN):,Stress at Break (MPa):
12,6/29/2021,04:32,Cube,150,150,150,7,8.37,0,77.3,3.43
Sample Time,Load (kN),Stress (MPa),Long. Strain,Trans. Strain,Chan1 Deflection (mm),Chan2 Deflection (mm)
0:0:10.165,10.0886,0.448159,0,0.000885,0,0
0:0:10.358,11.1428,0.496423,0,0.000885,0,0
0:0:10.557,11.0271,0.489528,0,0.000885,0,0
0:0:10.750,10.9693,0.489528,0,0.000885,0,0
0:0:10.948,11.1428,0.496423,0,0.000885,0,0
0:0:11.143,11.0271,0.489528,0,0.000885,0,0
0:0:11.336,10.907,0.482633,0,0.000885,0,0
0:0:11.532,11.2629,0.503317,0,0.000885,0,0
0:0:11.747,11.7878,0.524002,0,0.000885,0,0
0:0:11.945,11.9657,0.530896,0,0.000885,0,0
0:0:12.141,12.9621,0.57916,0,0.000885,0,0
0:0:12.332,13.0778,0.57916,0,0.000885,0,0
0:0:12.530,13.9007,0.620528,0,0.000885,0,0
0:0:12.737,13.8429,0.613633,0,0.000885,0,0
0:0:12.931,14.5457,0.648107,0,0.000885,0,0
0:0:13.128,15.4843,0.689476,0,0.000885,0,0
0:0:13.341,15.9513,0.71016,0,0.000885,0,0
0:0:13.541,16.0714,0.717055,0,0.000885,0,0
0:0:13.733,16.8321,0.751529,0,0.000885,0,0
0:0:13.941,17.1835,0.765318,0,0.000885,0,0
0:0:14.139,16.7742,0.744634,0,0.000885,0,0
0:0:14.339,17.7706,0.792897,0,0.000885,0,0
0:0:14.538,18.0642,0.799792,0,0.000885,0,0
0:0:14.744,18.8249,0.834266,0,0.000885,0,0
0:0:14.946,19.59,0.868739,0,0.000885,0,0
0:0:15.146,20.1193,0.896318,0,0.000885,0,0
0:0:15.338,20.6442,0.917003,0,0.000885,0,0
0:0:15.533,21.4671,0.951477,0,0.000885,0,0
0:0:15.731,21.6406,0.965266,0,0.000885,0,0
0:0:15.932,22.1121,0.98595,0,0.000885,0,0
0:0:16.132,22.5792,1.00663,0,0.000885,0,0
0:0:16.330,23.6957,1.0549,0,0.000885,0,0
0:0:16.529,24.3407,1.08248,0,0.000885,0,0
0:0:16.727,24.4563,1.08937,0,0.000885,0,0
0:0:16.925,24.8077,1.10316,0,0.000885,0,0
0:0:17.125,25.3949,1.13074,0,0.000885,0,0
0:0:17.330,25.6885,1.14453,0,0.000885,0,0
0:0:17.538,26.0399,1.15832,0,0.000885,0,0
0:0:17.738,26.5692,1.179,0,0.000885,0,0
0:0:17.939,26.9206,1.19969,0,0.000885,0,0
0:0:18.138,27.3299,1.21348,0,0.000885,0,0
0:0:18.344,27.7436,1.23416,0,0.000885,0,0
0:0:18.538,28.2106,1.25485,0,0.000885,0,0
0:0:18.738,28.8556,1.28242,0,0.000885,0,0
0:0:18.939,29.0914,1.29621,0,0.000885,0,0
0:0:19.138,29.3271,1.30311,0,0.000885,0,0
0:0:19.344,29.6785,1.3169,0,0.000885,0,0
0:0:19.538,29.9721,1.33069,0,0.000885,0,0
0:0:19.738,30.6171,1.35827,0,0.000885,0,0
0:0:19.940,30.6749,1.36516,0,0.000885,0,0
0:0:20.138,31.4934,1.39964,0,0.000885,0,0
0:0:20.337,32.0227,1.42032,0,0.000885,0,0
0:0:20.537,32.5521,1.4479,0,0.000885,0,0
0:0:20.738,32.6099,1.4479,0,0.000885,0,0
0:0:20.937,33.3706,1.48237,0,0.000885,0,0
0:0:21.137,33.7842,1.50306,0,0.000885,0,0
0:0:21.332,33.7842,1.50306,0,0.000885,0,0
0:0:21.531,34.0156,1.50995,0,0.000885,0,0
0:0:21.730,34.4292,1.53064,0,0.000885,0,0
0:0:21.927,35.0164,1.55822,0,0.000885,0,0
0:0:22.129,35.8349,1.59269,0,0.000885,0,0
0:0:22.328,36.2441,1.61337,0,0.000885,0,0
0:0:22.532,36.8313,1.63406,0,0.000885,0,0
0:0:22.728,37.4763,1.66853,0,0.000885,0,0
0:0:22.926,37.7698,1.67543,0,0.000885,0,0
0:0:23.129,38.1213,1.69611,0,0.000885,0,0
0:0:23.327,38.4148,1.7099,0,0.000885,0,0
0:0:23.533,39.0598,1.73748,0,0.000885,0,0
0:0:23.740,39.5892,1.75816,0,0.000885,0,0
0:0:23.938,40.2342,1.78574,0,0.000885,0,0
0:0:24.149,40.6434,1.80643,0,0.000885,0,0
0:0:24.348,40.9948,1.82022,0,0.000885,0,0
0:0:24.544,41.2884,1.83401,0,0.000885,0,0
0:0:24.739,41.8756,1.86158,0,0.000885,0,0
0:0:24.938,42.1113,1.86848,0,0.000885,0,0
0:0:25.139,42.6407,1.89606,0,0.000885,0,0
0:0:25.338,42.9921,1.90985,0,0.000885,0,0
0:0:25.534,43.5792,1.93743,0,0.000885,0,0
0:0:25.738,43.8105,1.94432,0,0.000885,0,0
0:0:25.938,44.7491,1.98569,0,0.000885,0,0
0:0:26.134,45.0427,1.99948,0,0.000885,0,0
0:0:26.333,45.6877,2.03395,0,0.000885,0,0
0:0:26.532,45.9813,2.04085,0,0.000885,0,0
0:0:26.731,46.8042,2.08222,0,0.000885,0,0
0:0:26.930,46.6841,2.07532,0,0.000885,0,0
0:0:27.125,47.0978,2.09601,0,0.000885,0,0
0:0:27.322,47.7428,2.12359,0,0.000885,0,0
0:0:27.528,47.7428,2.12359,0,0.000885,0,0
0:0:27.731,48.2677,2.14427,0,0.000885,0,0
0:0:27.929,48.5612,2.15806,0,0.000885,0,0
0:0:28.145,49.4998,2.19943,0,0.000885,0,0
0:0:28.343,49.7934,2.21322,0,0.000885,0,0
0:0:28.539,50.087,2.22701,0,0.000885,0,0
0:0:28.744,50.5585,2.24769,0,0.000885,0,0
0:0:28.944,51.2035,2.27527,0,0.000885,0,0
0:0:29.146,51.6127,2.29595,0,0.000885,0,0
0:0:29.344,52.1999,2.31664,0,0.000885,0,0
0:0:29.540,52.7248,2.34422,0,0.000885,0,0
0:0:29.744,53.1963,2.3649,0,0.000885,0,0
0:0:29.943,53.432,2.3718,0,0.000885,0,0
0:0:30.135,53.9569,2.39938,0,0.000885,0,0
0:0:30.343,54.077,2.40627,0,0.000885,0,0
0:0:30.542,54.722,2.43385,0,0.000885,0,0
0:0:30.742,55.0734,2.44764,0,0.000885,0,0
0:0:30.942,55.8919,2.48211,0,0.000885,0,0
0:0:31.140,56.2478,2.5028,0,0.000885,0,0
0:0:31.340,56.657,2.51659,0,0.000885,0,0
0:0:31.538,57.0084,2.53038,0,0.000885,0,0
0:0:31.735,57.4755,2.55795,0,0.000885,0,0
0:0:31.934,58.1205,2.58553,0,0.000885,0,0
0:0:32.142,58.3562,2.59243,0,0.000885,0,0
0:0:32.347,58.8856,2.62001,0,0.000885,0,0
0:0:32.546,59.5305,2.64759,0,0.000885,0,0
0:0:32.739,59.704,2.65448,0,0.000885,0,0
0:0:32.935,59.882,2.66138,0,0.000885,0,0
0:0:33.133,60.2912,2.68206,0,0.000885,0,0
0:0:33.335,60.9362,2.70964,0,0.000885,0,0
0:0:33.534,61.4655,2.73032,0,0.000885,0,0
0:0:33.749,61.7013,2.74411,0,0.000885,0,0
0:0:33.946,62.2884,2.77169,0,0.000885,0,0
0:0:34.144,62.9334,2.79927,0,0.000885,0,0
0:0:34.335,63.1647,2.80617,0,0.000885,0,0
0:0:34.534,63.4583,2.81996,0,0.000885,0,0
0:0:34.740,64.0455,2.84753,0,0.000885,0,0
0:0:34.934,64.4547,2.86132,0,0.000885,0,0
0:0:35.132,64.3391,2.86132,0,0.000885,0,0
0:0:35.346,65.0419,2.8889,0,0.000885,0,0
0:0:35.545,65.4556,2.90959,0,0.000885,0,0
0:0:35.744,65.162,2.8958,0,0.000885,0,0
0:0:35.945,65.8648,2.93027,0,0.000885,0,0
0:0:36.144,66.2741,2.94406,0,0.000885,0,0
0:0:36.343,65.1042,2.8958,0,0.000885,0,0
0:0:36.542,65.1042,2.8958,0,0.000885,0,0
0:0:36.739,65.2777,2.90269,0,0.000885,0,0
0:0:36.934,65.807,2.92338,0,0.000885,0,0
0:0:37.133,65.9226,2.93027,0,0.000885,0,0
0:0:37.347,66.7456,2.96475,0,0.000885,0,0
0:0:37.547,67.742,3.01301,0,0.000885,0,0
0:0:37.743,68.1512,3.0268,0,0.000885,0,0
0:0:37.946,68.6805,3.05438,0,0.000885,0,0
0:0:38.146,69.6191,3.09575,0,0.000885,0,0
0:0:38.348,70.144,3.11643,0,0.000885,0,0
0:0:38.546,67.4484,2.99922,0,0.000885,0,0
0:0:38.743,67.6219,3.00611,0,0.000885,0,0
0:0:38.944,68.7962,3.05438,0,0.000885,0,0
0:0:39.143,69.6769,3.09575,0,0.000885,0,0
0:0:39.335,70.8513,3.1509,0,0.000885,0,0
0:0:39.544,71.2027,3.16469,0,0.000885,0,0
0:0:39.743,72.3147,3.21296,0,0.000885,0,0
0:0:39.944,72.8441,3.24054,0,0.000885,0,0
0:0:40.143,74.1341,3.29569,0,0.000885,0,0
0:0:40.339,74.3698,3.30259,0,0.000885,0,0
0:0:40.531,74.6634,3.31638,0,0.000885,0,0
0:0:40.730,74.8369,3.32327,0,0.000885,0,0
0:0:40.930,75.3662,3.35085,0,0.000885,0,0
0:0:41.130,75.4819,3.35775,0,0.000885,0,0
0:0:41.331,75.602,3.35775,0,0.000885,0,0
0:0:41.528,75.5397,3.35775,0,0.000885,0,0
0:0:41.726,75.8333,3.37154,0,0.000885,0,0
0:0:41.926,76.4204,3.39912,0,0.000885,0,0
0:0:42.123,76.8341,3.4129,0,0.000885,0,0
0:0:42.322,77.3012,3.43359,0,0.000885,0,0
0:0:42.525,77.4791,3.44048,0,0.000885,0,0
0:0:42.723,76.8341,3.4129,0,0.000885,0,0
0:0:42.928,75.7176,3.36464,0,0.000885,0,0
0:0:43.122,74.957,3.33017,0,0.000885,0,0
0:0:43.330,74.7212,3.32327,0,0.000885,0,0
0:0:43.544,73.1955,3.25433,0,0.000885,0,0
0:0:43.744,73.1377,3.24743,0,0.000885,0,0
0:0:43.946,72.6083,3.22675,0,0.000885,0,0
0:0:44.141,72.7863,3.23364,0,0.000885,0,0
0:0:44.340,72.9597,3.24054,0,0.000885,0,0
0:0:44.541,73.3734,3.26122,0,0.000885,0,0
0:0:44.740,73.6047,3.26811,0,0.000885,0,0
0:0:44.933,73.4891,3.26811,0,0.000885,0,0
0:0:45.135,73.6047,3.26811,0,0.000885,0,0
0:0:45.335,73.9561,3.2888,0,0.000885,0,0
0:0:45.533,74.0762,3.29569,0,0.000885,0,0
0:0:45.733,74.312,3.30259,0,0.000885,0,0
0:0:45.933,74.1919,3.29569,0,0.000885,0,0
0:0:46.130,73.9561,3.2888,0,0.000885,0,0
0:0:46.330,74.1341,3.29569,0,0.000885,0,0
0:0:46.528,74.1919,3.29569,0,0.000885,0,0
0:0:46.725,74.1919,3.29569,0,0.000885,0,0
0:0:46.925,74.3698,3.30259,0,0.000885,0,0
0:0:47.135,74.312,3.30259,0,0.000885,0,0
0:0:47.332,74.0184,3.2888,0,0.000885,0,0
0:0:47.536,73.667,3.27501,0,0.000885,0,0
0:0:47.731,72.5505,3.22675,0,0.000885,0,0
0:0:47.929,71.9055,3.19917,0,0.000885,0,0
0:0:48.144,70.9091,3.1509,0,0.000885,0,0
0:0:48.343,70.7312,3.14401,0,0.000885,0,0
0:0:48.546,70.144,3.11643,0,0.000885,0,0
0:0:48.741,70.0862,3.11643,0,0.000885,0,0
0:0:48.935,69.032,3.06817,0,0.000885,0,0
0:0:49.141,69.032,3.06817,0,0.000885,0,0
0:0:49.348,68.3291,3.03369,0,0.000885,0,0
0:0:49.544,68.0934,3.0268,0,0.000885,0,0
0:0:49.747,67.4484,2.99922,0,0.000885,0,0
0:0:49.946,67.0391,2.97854,0,0.000885,0,0
0:0:50.148,65.5134,2.90959,0,0.000885,0,0
0:0:50.347,64.8106,2.88201,0,0.000885,0,0
0:0:50.546,63.1069,2.80617,0,0.000885,0,0
0:0:50.746,62.1105,2.7579,0,0.000885,0,0
0:0:50.944,61.2298,2.72343,0,0.000885,0,0
0:0:51.144,60.9985,2.70964,0,0.000885,0,0
0:0:51.342,60.2334,2.67517,0,0.000885,0,0
0:0:51.549,59.9398,2.66138,0,0.000885,0,0
0:0:51.747,60.0599,2.66827,0,0.000885,0,0
0:0:51.946,59.704,2.65448,0,0.000885,0,0
0:0:52.141,59.882,2.66138,0,0.000885,0,0
0:0:52.334,59.9398,2.66138,0,0.000885,0,0
0:0:52.542,60.1177,2.67517,0,0.000885,0,0
0:0:52.745,60.2334,2.67517,0,0.000885,0,0
0:0:52.944,60.2334,2.67517,0,0.000885,0,0
0:0:53.147,60.3535,2.68206,0,0.000885,0,0
0:0:53.343,60.5848,2.69585,0,0.000885,0,0
0:0:53.549,60.8784,2.70274,0,0.000885,0,0
0:0:53.742,60.9362,2.70964,0,0.000885,0,0
0:0:53.936,61.1719,2.71653,0,0.000885,0,0
0:0:54.144,61.4077,2.73032,0,0.000885,0,0
0:0:54.337,61.4655,2.73032,0,0.000885,0,0
0:0:54.533,61.5234,2.73722,0,0.000885,0,0
0:0:54.747,61.6435,2.73722,0,0.000885,0,0
0:0:54.946,61.8748,2.75101,0,0.000885,0,0
0:0:55.141,61.8169,2.74411,0,0.000885,0,0
0:0:55.345,61.8748,2.75101,0,0.000885,0,0
0:0:55.544,61.8169,2.74411,0,0.000885,0,0
0:0:55.743,62.1105,2.7579,0,0.000885,0,0
0:0:55.943,61.5234,2.73722,0,0.000885,0,0
0:0:56.142,61.7013,2.74411,0,0.000885,0,0
0:0:56.337,61.5812,2.73722,0,0.000885,0,0
0:0:56.536,61.8169,2.74411,0,0.000885,0,0
0:0:56.733,61.6435,2.73722,0,0.000885,0,0
0:0:56.932,61.8169,2.74411,0,0.000885,0,0
0:0:57.129,61.3499,2.72343,0,0.000885,0,0
0:0:57.331,61.8748,2.75101,0,0.000885,0,0
0:0:57.531,61.7013,2.74411,0,0.000885,0,0
0:0:57.734,61.6435,2.73722,0,0.000885,0,0
0:0:57.938,61.5234,2.73722,0,0.000885,0,0
0:0:58.136,61.5234,2.73722,0,0.000885,0,0
0:0:58.350,61.5234,2.73722,0,0.000885,0,0
0:0:58.548,61.5812,2.73722,0,0.000885,0,0
0:0:58.744,61.7013,2.74411,0,0.000885,0,0
0:0:58.947,61.7013,2.74411,0,0.000885,0,0
0:0:59.147,61.6435,2.73722,0,0.000885,0,0
0:0:59.347,61.3499,2.72343,0,0.000885,0,0
0:0:59.546,61.4077,2.73032,0,0.000885,0,0
0:0:59.742,61.2876,2.72343,0,0.000885,0,0
0:0:59.945,61.0563,2.71653,0,0.000885,0,0
0:1:0.143,60.6426,2.69585,0,0.000885,0,0
0:1:0.346,60.7627,2.70274,0,0.000885,0,0
0:1:0.542,60.527,2.68896,0,0.000885,0,0
0:1:0.738,60.1755,2.67517,0,0.000885,0,0
0:1:0.938,60.3535,2.68206,0,0.000885,0,0
0:1:1.137,60.4113,2.68206,0,0.000885,0,0
0:1:1.336,60.1755,2.67517,0,0.000885,0,0
0:1:1.535,59.8241,2.66138,0,0.000885,0,0
0:1:1.732,59.6462,2.64759,0,0.000885,0,0
0:1:1.931,59.1213,2.6269,0,0.000885,0,0
0:1:2.150,59.059,2.6269,0,0.000885,0,0
0:1:2.345,58.8277,2.61311,0,0.000885,0,0
0:1:2.548,58.5341,2.59932,0,0.000885,0,0
0:1:2.747,58.3562,2.59243,0,0.000885,0,0
0:1:2.949,58.2406,2.58553,0,0.000885,0,0
0:1:3.147,58.0626,2.57864,0,0.000885,0,0
0:1:3.342,57.6534,2.56485,0,0.000885,0,0
0:1:3.544,57.8892,2.57174,0,0.000885,0,0
0:1:3.743,57.5956,2.55795,0,0.000885,0,0
0:1:3.947,57.7691,2.56485,0,0.000885,0,0
0:1:4.142,57.3598,2.55106,0,0.000885,0,0
0:1:4.348,57.5956,2.55795,0,0.000885,0,0
0:1:4.550,57.6534,2.56485,0,0.000885,0,0
0:1:4.750,57.6534,2.56485,0,0.000885,0,0
0:1:4.944,57.5956,2.55795,0,0.000885,0,0
0:1:5.148,58.0626,2.57864,0,0.000885,0,0
0:1:5.347,58.2406,2.58553,0,0.000885,0,0
0:1:5.547,58.0048,2.57864,0,0.000885,0,0
0:1:5.747,57.8892,2.57174,0,0.000885,0,0
0:1:5.946,57.8313,2.57174,0,0.000885,0,0
0:1:6.145,57.6534,2.56485,0,0.000885,0,0
0:1:6.343,57.5956,2.55795,0,0.000885,0,0
0:1:6.538,57.2442,2.54417,0,0.000885,0,0
0:1:6.737,57.4176,2.55106,0,0.000885,0,0
0:1:6.945,57.4755,2.55795,0,0.000885,0,0
0:1:7.147,57.5377,2.55795,0,0.000885,0,0
0:1:7.346,57.5377,2.55795,0,0.000885,0,0
0:1:7.548,57.2442,2.54417,0,0.000885,0,0
0:1:7.745,57.5377,2.55795,0,0.000885,0,0
0:1:7.951,57.4176,2.55106,0,0.000885,0,0
0:1:8.144,57.3598,2.55106,0,0.000885,0,0
0:1:8.343,57.302,2.54417,0,0.000885,0,0
0:1:8.547,57.3598,2.55106,0,0.000885,0,0
0:1:8.751,57.3598,2.55106,0,0.000885,0,0
0:1:8.949,57.0084,2.53038,0,0.000885,0,0
0:1:9.150,56.7148,2.52348,0,0.000885,0,0
0:1:9.349,56.4212,2.50969,0,0.000885,0,0
0:1:9.545,56.4791,2.50969,0,0.000885,0,0
0:1:9.747,56.4791,2.50969,0,0.000885,0,0
0:1:9.946,56.1277,2.4959,0,0.000885,0,0
0:1:10.150,56.2478,2.5028,0,0.000885,0,0
0:1:10.347,56.3056,2.5028,0,0.000885,0,0
0:1:10.545,56.4791,2.50969,0,0.000885,0,0
0:1:10.746,56.3056,2.5028,0,0.000885,0,0
0:1:10.945,56.2478,2.5028,0,0.000885,0,0
0:1:11.144,56.3056,2.5028,0,0.000885,0,0
0:1:11.343,56.1855,2.4959,0,0.000885,0,0
0:1:11.537,56.012,2.48901,0,0.000885,0,0
0:1:11.735,56.012,2.48901,0,0.000885,0,0
0:1:11.932,55.9542,2.48901,0,0.000885,0,0
0:1:12.148,55.7184,2.47522,0,0.000885,0,0
0:1:12.345,55.4248,2.46143,0,0.000885,0,0
0:1:12.543,55.6028,2.46832,0,0.000885,0,0
0:1:12.744,55.1891,2.45453,0,0.000885,0,0
0:1:12.943,55.367,2.46143,0,0.000885,0,0
0:1:13.147,55.3092,2.46143,0,0.000885,0,0
0:1:13.350,55.0156,2.44764,0,0.000885,0,0
0:1:13.549,55.1891,2.45453,0,0.000885,0,0
0:1:13.751,55.0156,2.44764,0,0.000885,0,0
0:1:13.948,54.8955,2.44074,0,0.000885,0,0
0:1:14.144,54.8377,2.43385,0,0.000885,0,0
0:1:14.348,55.1313,2.44764,0,0.000885,0,0
0:1:14.547,54.8377,2.43385,0,0.000885,0,0
0:1:14.749,54.7798,2.43385,0,0.000885,0,0
0:1:14.945,54.5441,2.42695,0,0.000885,0,0
0:1:15.152,54.7798,2.43385,0,0.000885,0,0
0:1:15.345,54.6019,2.42695,0,0.000885,0,0
0:1:15.543,54.4284,2.42006,0,0.000885,0,0
0:1:15.752,54.2505,2.41317,0,0.000885,0,0
0:1:15.953,54.2505,2.41317,0,0.000885,0,0
0:1:16.152,54.3706,2.41317,0,0.000885,0,0
0:1:16.351,54.5441,2.42695,0,0.000885,0,0
0:1:16.549,54.7798,2.43385,0,0.000885,0,0
0:1:16.747,54.8377,2.43385,0,0.000885,0,0
0:1:16.944,54.6642,2.42695,0,0.000885,0,0
0:1:17.143,54.722,2.43385,0,0.000885,0,0
0:1:17.344,54.4284,2.42006,0,0.000885,0,0
0:1:17.550,54.4284,2.42006,0,0.000885,0,0
0:1:17.749,54.1927,2.40627,0,0.000885,0,0
0:1:17.950,54.077,2.40627,0,0.000885,0,0
0:1:18.149,54.6019,2.42695,0,0.000885,0,0
0:1:18.351,54.1927,2.40627,0,0.000885,0,0
0:1:18.548,54.2505,2.41317,0,0.000885,0,0
0:1:18.746,54.2505,2.41317,0,0.000885,0,0
0:1:18.947,54.077,2.40627,0,0.000885,0,0
0:1:19.146,54.0192,2.39938,0,0.000885,0,0
0:1:19.348,54.077,2.40627,0,0.000885,0,0
0:1:19.544,54.1927,2.40627,0,0.000885,0,0
0:1:19.744,54.077,2.40627,0,0.000885,0,0
0:1:19.945,53.6633,2.38559,0,0.000885,0,0
0:1:20.152,53.7256,2.38559,0,0.000885,0,0
0:1:20.347,53.6633,2.38559,0,0.000885,0,0
0:1:20.549,53.6055,2.38559,0,0.000885,0,0
0:1:20.748,53.1963,2.3649,0,0.000885,0,0
0:1:20.947,52.9605,2.35111,0,0.000885,0,0
0:1:21.147,52.1421,2.31664,0,0.000885,0,0
0:1:21.347,51.6705,2.29595,0,0.000885,0,0
0:1:21.545,51.5549,2.28906,0,0.000885,0,0
0:1:21.745,51.4971,2.28906,0,0.000885,0,0
0:1:21.939,51.5549,2.28906,0,0.000885,0,0
0:1:22.137,51.4348,2.28906,0,0.000885,0,0
0:1:22.336,51.0834,2.26838,0,0.000885,0,0
0:1:22.549,51.0834,2.26838,0,0.000885,0,0
0:1:22.746,51.0255,2.26838,0,0.000885,0,0
0:1:22.951,51.2035,2.27527,0,0.000885,0,0
0:1:23.146,51.0834,2.26838,0,0.000885,0,0
0:1:23.341,51.2035,2.27527,0,0.000885,0,0
0:1:23.545,51.0834,2.26838,0,0.000885,0,0
0:1:23.740,51.0834,2.26838,0,0.000885,0,0
0:1:23.950,51.1412,2.27527,0,0.000885,0,0
0:1:24.152,51.2035,2.27527,0,0.000885,0,0
0:1:24.350,51.2035,2.27527,0,0.000885,0,0
0:1:24.552,51.3191,2.28216,0,0.000885,0,0
0:1:24.749,51.4348,2.28906,0,0.000885,0,0
0:1:24.947,51.2035,2.27527,0,0.000885,0,0
0:1:25.148,51.4971,2.28906,0,0.000885,0,0
0:1:25.348,51.3191,2.28216,0,0.000885,0,0
0:1:25.547,51.5549,2.28906,0,0.000885,0,0
0:1:25.747,51.6705,2.29595,0,0.000885,0,0
0:1:25.947,51.6705,2.29595,0,0.000885,0,0
0:1:26.152,51.5549,2.28906,0,0.000885,0,0
0:1:26.352,51.3191,2.28216,0,0.000885,0,0
0:1:26.550,51.5549,2.28906,0,0.000885,0,0
0:1:26.746,51.3191,2.28216,0,0.000885,0,0
0:1:26.946,51.6705,2.29595,0,0.000885,0,0
0:1:27.148,51.6705,2.29595,0,0.000885,0,0
0:1:27.346,51.4971,2.28906,0,0.000885,0,0
0:1:27.550,51.3191,2.28216,0,0.000885,0,0
0:1:27.754,51.4348,2.28906,0,0.000885,0,0
0:1:27.953,51.4348,2.28906,0,0.000885,0,0
0:1:28.146,51.7284,2.29595,0,0.000885,0,0
0:1:28.352,51.5549,2.28906,0,0.000885,0,0
0:1:28.549,51.4971,2.28906,0,0.000885,0,0
0:1:28.751,51.3191,2.28216,0,0.000885,0,0
0:1:28.949,51.3191,2.28216,0,0.000885,0,0
0:1:29.153,51.0834,2.26838,0,0.000885,0,0
0:1:29.350,51.1412,2.27527,0,0.000885,0,0
0:1:29.548,51.0834,2.26838,0,0.000885,0,0
0:1:29.749,51.2613,2.27527,0,0.000885,0,0
0:1:29.947,51.377,2.28216,0,0.000885,0,0
0:1:30.151,51.3191,2.28216,0,0.000885,0,0
0:1:30.347,51.5549,2.28906,0,0.000885,0,0
0:1:30.545,51.377,2.28216,0,0.000885,0,0
0:1:30.745,51.4348,2.28906,0,0.000885,0,0
0:1:30.946,51.6705,2.29595,0,0.000885,0,0
0:1:31.141,51.3191,2.28216,0,0.000885,0,0
0:1:31.340,51.4348,2.28906,0,0.000885,0,0
0:1:31.538,51.6127,2.29595,0,0.000885,0,0
0:1:31.736,51.7284,2.29595,0,0.000885,0,0
0:1:31.934,52.0798,2.31664,0,0.000885,0,0
0:1:32.140,52.022,2.30974,0,0.000885,0,0
0:1:32.345,52.3734,2.33043,0,0.000885,0,0
0:1:32.541,52.6091,2.33732,0,0.000885,0,0
0:1:32.747,52.7248,2.34422,0,0.000885,0,0
0:1:32.952,52.9027,2.35111,0,0.000885,0,0
0:1:33.150,53.0184,2.35801,0,0.000885,0,0
0:1:33.351,52.8449,2.35111,0,0.000885,0,0
0:1:33.549,52.9605,2.35111,0,0.000885,0,0
0:1:33.746,53.0806,2.35801,0,0.000885,0,0
0:1:33.948,53.0184,2.35801,0,0.000885,0,0
0:1:34.148,53.1385,2.3649,0,0.000885,0,0
0:1:34.350,53.2541,2.3649,0,0.000885,0,0
0:1:34.546,53.1385,2.3649,0,0.000885,0,0
0:1:34.745,53.5477,2.37869,0,0.000885,0,0
0:1:34.947,53.6055,2.38559,0,0.000885,0,0
0:1:35.145,53.7256,2.38559,0,0.000885,0,0
0:1:35.348,53.7834,2.39248,0,0.000885,0,0
0:1:35.554,53.7834,2.39248,0,0.000885,0,0
0:1:35.751,53.4899,2.37869,0,0.000885,0,0
0:1:35.952,53.432,2.3718,0,0.000885,0,0
0:1:36.152,53.1385,2.3649,0,0.000885,0,0
0:1:36.350,53.3119,2.3718,0,0.000885,0,0
0:1:36.549,52.6669,2.34422,0,0.000885,0,0
0:1:36.747,52.1999,2.31664,0,0.000885,0,0
0:1:36.945,47.4492,2.1098,0,0.000885,0,0
0:1:37.141,46.5106,2.06843,0,0.000885,0,0
0:1:37.349,45.9234,2.04085,0,0.000885,0,0
0:1:37.551,45.8078,2.03395,0,0.000885,0,0
0:1:37.750,46.1592,2.05464,0,0.000885,0,0
0:1:37.952,45.9813,2.04085,0,0.000885,0,0
0:1:38.149,45.6877,2.03395,0,0.000885,0,0
0:1:38.346,45.3941,2.02016,0,0.000885,0,0
0:1:38.547,44.927,1.99948,0,0.000885,0,0
0:1:38.747,44.9849,1.99948,0,0.000885,0,0
0:1:38.951,44.8692,1.99258,0,0.000885,0,0
0:1:39.146,44.9849,1.99948,0,0.000885,0,0
0:1:39.352,44.8692,1.99258,0,0.000885,0,0
0:1:39.554,44.9849,1.99948,0,0.000885,0,0
0:1:39.753,44.6335,1.98569,0,0.000885,0,0
0:1:39.948,44.5756,1.9788,0,0.000885,0,0
0:1:40.152,44.8692,1.99258,0,0.000885,0,0
0:1:40.351,44.5756,1.9788,0,0.000885,0,0
0:1:40.550,44.6335,1.98569,0,0.000885,0,0
0:1:40.751,44.5756,1.9788,0,0.000885,0,0
0:1:40.950,44.4555,1.9788,0,0.000885,0,0
0:1:41.146,44.5178,1.9788,0,0.000885,0,0
0:1:41.346,44.3399,1.9719,0,0.000885,0,0
0:1:41.541,44.8692,1.99258,0,0.000885,0,0
0:1:41.750,44.8692,1.99258,0,0.000885,0,0
0:1:41.947,45.0427,1.99948,0,0.000885,0,0
0:1:42.150,45.0427,1.99948,0,0.000885,0,0
0:1:42.348,44.7491,1.98569,0,0.000885,0,0
0:1:42.551,45.0427,1.99948,0,0.000885,0,0
0:1:42.748,45.3941,2.02016,0,0.000885,0,0
0:1:42.954,45.6299,2.02706,0,0.000885,0,0
0:1:43.148,45.2784,2.01327,0,0.000885,0,0
0:1:43.349,45.3363,2.01327,0,0.000885,0,0
0:1:43.551,45.4519,2.02016,0,0.000885,0,0
0:1:43.746,45.7455,2.03395,0,0.000885,0,0
0:1:43.941,45.6877,2.03395,0,0.000885,0,0
0:1:44.147,45.6299,2.02706,0,0.000885,0,0
0:1:44.343,45.572,2.02706,0,0.000885,0,0
0:1:44.558,45.6299,2.02706,0,0.000885,0,0
0:1:44.752,45.8078,2.03395,0,0.000885,0,0
0:1:44.951,45.5142,2.02016,0,0.000885,0,0
0:1:45.152,45.2206,2.00637,0,0.000885,0,0
0:1:45.350,45.1005,2.00637,0,0.000885,0,0
0:1:45.549,45.3363,2.01327,0,0.000885,0,0
0:1:45.750,45.2784,2.01327,0,0.000885,0,0
0:1:45.949,45.0427,1.99948,0,0.000885,0,0
0:1:46.147,45.2206,2.00637,0,0.000885,0,0
0:1:46.355,45.3941,2.02016,0,0.000885,0,0
0:1:46.554,45.572,2.02706,0,0.000885,0,0
0:1:46.751,45.3363,2.01327,0,0.000885,0,0
0:1:46.950,45.4519,2.02016,0,0.000885,0,0
0:1:47.154,45.2784,2.01327,0,0.000885,0,0
0:1:47.348,45.5142,2.02016,0,0.000885,0,0
0:1:47.547,45.3941,2.02016,0,0.000885,0,0
0:1:47.750,45.4519,2.02016,0,0.000885,0,0
0:1:47.948,45.572,2.02706,0,0.000885,0,0
0:1:48.152,45.3363,2.01327,0,0.000885,0,0
0:1:48.346,45.4519,2.02016,0,0.000885,0,0
0:1:48.554,45.6299,2.02706,0,0.000885,0,0
0:1:48.757,45.5142,2.02016,0,0.000885,0,0
0:1:48.954,45.3363,2.01327,0,0.000885,0,0
0:1:49.150,45.3941,2.02016,0,0.000885,0,0
0:1:49.351,45.3941,2.02016,0,0.000885,0,0
0:1:49.550,45.2784,2.01327,0,0.000885,0,0
0:1:49.754,45.4519,2.02016,0,0.000885,0,0
0:1:49.950,45.4519,2.02016,0,0.000885,0,0
0:1:50.147,45.4519,2.02016,0,0.000885,0,0
0:1:50.348,45.1628,2.00637,0,0.000885,0,0
0:1:50.547,45.4519,2.02016,0,0.000885,0,0
0:1:50.741,45.5142,2.02016,0,0.000885,0,0
0:1:50.942,45.3363,2.01327,0,0.000885,0,0
0:1:51.142,45.4519,2.02016,0,0.000885,0,0
0:1:51.352,45.1628,2.00637,0,0.000885,0,0
0:1:51.551,45.572,2.02706,0,0.000885,0,0
0:1:51.749,45.5142,2.02016,0,0.000885,0,0
0:1:51.947,45.6299,2.02706,0,0.000885,0,0
0:1:52.143,45.6299,2.02706,0,0.000885,0,0
0:1:52.349,45.5142,2.02016,0,0.000885,0,0
0:1:52.554,45.5142,2.02016,0,0.000885,0,0
0:1:52.752,45.5142,2.02016,0,0.000885,0,0
0:1:52.953,45.2784,2.01327,0,0.000885,0,0
0:1:53.152,45.1005,2.00637,0,0.000885,0,0
0:1:53.355,45.3941,2.02016,0,0.000885,0,0
0:1:53.550,45.572,2.02706,0,0.000885,0,0
0:1:53.749,45.2784,2.01327,0,0.000885,0,0
0:1:53.951,45.6299,2.02706,0,0.000885,0,0
0:1:54.149,45.4519,2.02016,0,0.000885,0,0
0:1:54.353,45.1005,2.00637,0,0.000885,0,0
0:1:54.548,45.2784,2.01327,0,0.000885,0,0
0:1:54.743,45.2784,2.01327,0,0.000885,0,0
0:1:54.949,44.927,1.99948,0,0.000885,0,0
0:1:55.148,44.8692,1.99258,0,0.000885,0,0
0:1:55.353,44.8692,1.99258,0,0.000885,0,0
0:1:55.554,44.7491,1.98569,0,0.000885,0,0
0:1:55.754,44.927,1.99948,0,0.000885,0,0
0:1:55.953,44.7491,1.98569,0,0.000885,0,0
0:1:56.152,44.5178,1.9788,0,0.000885,0,0
0:1:56.351,44.6913,1.98569,0,0.000885,0,0
0:1:56.549,44.282,1.96501,0,0.000885,0,0
0:1:56.748,44.2242,1.96501,0,0.000885,0,0
0:1:56.947,44.3977,1.9719,0,0.000885,0,0
0:1:57.154,44.1619,1.96501,0,0.000885,0,0
0:1:57.352,44.282,1.96501,0,0.000885,0,0
0:1:57.553,44.4555,1.9788,0,0.000885,0,0
0:1:57.750,44.1041,1.95811,0,0.000885,0,0
0:1:57.954,43.9306,1.95122,0,0.000885,0,0
0:1:58.150,43.8684,1.95122,0,0.000885,0,0
0:1:58.348,44.0463,1.95811,0,0.000885,0,0
0:1:58.550,43.8105,1.94432,0,0.000885,0,0
0:1:58.748,44.282,1.96501,0,0.000885,0,0
0:1:58.953,43.9885,1.95811,0,0.000885,0,0
0:1:59.156,44.1041,1.95811,0,0.000885,0,0
0:1:59.354,43.9885,1.95811,0,0.000885,0,0
0:1:59.548,44.0463,1.95811,0,0.000885,0,0
0:1:59.753,43.9885,1.95811,0,0.000885,0,0
0:1:59.950,43.8105,1.94432,0,0.000885,0,0
0:2:0.153,43.6371,1.93743,0,0.000885,0,0
0:2:0.351,43.8684,1.95122,0,0.000885,0,0
0:2:0.550,43.9306,1.95122,0,0.000885,0,0
0:2:0.751,43.8684,1.95122,0,0.000885,0,0
0:2:0.949,43.8684,1.95122,0,0.000885,0,0
0:2:1.148,43.9306,1.95122,0,0.000885,0,0
0:2:1.343,43.8105,1.94432,0,0.000885,0,0
0:2:1.553,43.9885,1.95811,0,0.000885,0,0
0:2:1.750,43.9885,1.95811,0,0.000885,0,0
0:2:1.949,43.6949,1.94432,0,0.000885,0,0
0:2:2.151,43.6949,1.94432,0,0.000885,0,0
0:2:2.344,43.8684,1.95122,0,0.000885,0,0
0:2:2.543,44.0463,1.95811,0,0.000885,0,0
0:2:2.748,44.1041,1.95811,0,0.000885,0,0
0:2:2.944,44.282,1.96501,0,0.000885,0,0
0:2:3.149,43.9885,1.95811,0,0.000885,0,0
0:2:3.355,44.1619,1.96501,0,0.000885,0,0
0:2:3.551,43.9306,1.95122,0,0.000885,0,0
0:2:3.754,44.1041,1.95811,0,0.000885,0,0
0:2:3.953,44.3399,1.9719,0,0.000885,0,0
0:2:4.155,44.0463,1.95811,0,0.000885,0,0
0:2:4.351,43.8105,1.94432,0,0.000885,0,0
0:2:4.550,43.9885,1.95811,0,0.000885,0,0
0:2:4.751,43.9306,1.95122,0,0.000885,0,0
0:2:4.948,44.0463,1.95811,0,0.000885,0,0
0:2:5.153,44.2242,1.96501,0,0.000885,0,0
0:2:5.355,43.9306,1.95122,0,0.000885,0,0
0:2:5.554,43.8684,1.95122,0,0.000885,0,0
0:2:5.752,43.517,1.93743,0,0.000885,0,0
0:2:5.952,43.517,1.93743,0,0.000885,0,0
0:2:6.151,43.7527,1.94432,0,0.000885,0,0
0:2:6.349,43.8105,1.94432,0,0.000885,0,0
0:2:6.548,44.0463,1.95811,0,0.000885,0,0
0:2:6.744,44.1041,1.95811,0,0.000885,0,0
0:2:6.954,44.0463,1.95811,0,0.000885,0,0
0:2:7.151,43.8684,1.95122,0,0.000885,0,0
0:2:7.352,43.8684,1.95122,0,0.000885,0,0
0:2:7.551,43.6949,1.94432,0,0.000885,0,0
0:2:7.755,43.7527,1.94432,0,0.000885,0,0
0:2:7.951,43.3435,1.92364,0,0.000885,0,0
0:2:8.158,43.5792,1.93743,0,0.000885,0,0
0:2:8.358,43.8105,1.94432,0,0.000885,0,0
0:2:8.556,43.6371,1.93743,0,0.000885,0,0
0:2:8.752,43.1077,1.91674,0,0.000885,0,0
0:2:8.955,43.1655,1.91674,0,0.000885,0,0
0:2:9.154,43.4591,1.93053,0,0.000885,0,0
0:2:9.355,43.4013,1.93053,0,0.000885,0,0
0:2:9.552,43.2856,1.92364,0,0.000885,0,0
0:2:9.749,43.4591,1.93053,0,0.000885,0,0
0:2:9.951,43.4591,1.93053,0,0.000885,0,0
0:2:10.150,43.7527,1.94432,0,0.000885,0,0
0:2:10.353,43.1655,1.91674,0,0.000885,0,0
0:2:10.548,43.4013,1.93053,0,0.000885,0,0
0:2:10.745,43.2856,1.92364,0,0.000885,0,0
0:2:10.943,43.517,1.93743,0,0.000885,0,0
0:2:11.144,43.1655,1.91674,0,0.000885,0,0
0:2:11.343,43.1077,1.91674,0,0.000885,0,0
0:2:11.541,43.3435,1.92364,0,0.000885,0,0
0:2:11.751,43.3435,1.92364,0,0.000885,0,0
0:2:11.950,43.0499,1.91674,0,0.000885,0,0
0:2:12.157,42.7563,1.90295,0,0.000885,0,0
0:2:12.361,42.7563,1.90295,0,0.000885,0,0
0:2:12.565,42.9921,1.90985,0,0.000885,0,0
0:2:12.765,42.5784,1.88916,0,0.000885,0,0
0:2:12.957,42.6985,1.89606,0,0.000885,0,0
0:2:13.154,42.5784,1.88916,0,0.000885,0,0
0:2:13.350,42.4627,1.88916,0,0.000885,0,0
0:2:13.551,42.1691,1.87537,0,0.000885,0,0
0:2:13.751,42.227,1.87537,0,0.000885,0,0
0:2:13.955,41.7599,1.85469,0,0.000885,0,0
0:2:14.150,42.3471,1.88227,0,0.000885,0,0
0:2:14.346,42.5206,1.88916,0,0.000885,0,0
0:2:14.550,42.3471,1.88227,0,0.000885,0,0
0:2:14.745,42.4049,1.88227,0,0.000885,0,0
0:2:14.952,42.2848,1.88227,0,0.000885,0,0
0:2:15.146,42.227,1.87537,0,0.000885,0,0
0:2:15.355,42.1113,1.86848,0,0.000885,0,0
0:2:15.556,42.1113,1.86848,0,0.000885,0,0
0:2:15.756,42.2848,1.88227,0,0.000885,0,0
0:2:15.954,42.4049,1.88227,0,0.000885,0,0
0:2:16.153,42.227,1.87537,0,0.000885,0,0
0:2:16.352,42.227,1.87537,0,0.000885,0,0
0:2:16.550,42.227,1.87537,0,0.000885,0,0
0:2:16.745,41.9334,1.86158,0,0.000885,0,0
0:2:16.952,41.9957,1.86848,0,0.000885,0,0
0:2:17.155,42.227,1.87537,0,0.000885,0,0
0:2:17.354,41.9334,1.86158,0,0.000885,0,0
0:2:17.556,42.1691,1.87537,0,0.000885,0,0
0:2:17.754,41.7599,1.85469,0,0.000885,0,0
0:2:17.950,41.7599,1.85469,0,0.000885,0,0
0:2:18.151,41.8177,1.86158,0,0.000885,0,0
0:2:18.350,41.8177,1.86158,0,0.000885,0,0
0:2:18.555,41.8177,1.86158,0,0.000885,0,0
0:2:18.746,42.1113,1.86848,0,0.000885,0,0
0:2:18.944,42.0535,1.86848,0,0.000885,0,0
0:2:19.157,42.0535,1.86848,0,0.000885,0,0
0:2:19.356,42.1691,1.87537,0,0.000885,0,0
0:2:19.551,41.7599,1.85469,0,0.000885,0,0
0:2:19.755,41.7021,1.85469,0,0.000885,0,0
0:2:19.954,41.9334,1.86158,0,0.000885,0,0
0:2:20.154,41.4663,1.8409,0,0.000885,0,0
0:2:20.350,41.7021,1.85469,0,0.000885,0,0
0:2:20.545,41.5241,1.84779,0,0.000885,0,0
0:2:20.746,41.9334,1.86158,0,0.000885,0,0
0:2:20.946,41.7599,1.85469,0,0.000885,0,0
0:2:21.144,42.0535,1.86848,0,0.000885,0,0
0:2:21.344,41.9957,1.86848,0,0.000885,0,0
0:2:21.540,42.1691,1.87537,0,0.000885,0,0
0:2:21.739,42.1113,1.86848,0,0.000885,0,0
0:2:21.937,41.9334,1.86158,0,0.000885,0,0
0:2:22.141,41.9334,1.86158,0,0.000885,0,0
0:2:22.345,41.8756,1.86158,0,0.000885,0,0
0:2:22.544,41.7021,1.85469,0,0.000885,0,0
0:2:22.757,41.9334,1.86158,0,0.000885,0,0
0:2:22.955,41.582,1.84779,0,0.000885,0,0
0:2:23.151,41.582,1.84779,0,0.000885,0,0
0:2:23.353,41.4663,1.8409,0,0.000885,0,0
0:2:23.553,41.582,1.84779,0,0.000885,0,0
0:2:23.755,41.7021,1.85469,0,0.000885,0,0
0:2:23.951,41.7599,1.85469,0,0.000885,0,0
0:2:24.157,41.7599,1.85469,0,0.000885,0,0
0:2:24.359,41.7599,1.85469,0,0.000885,0,0
0:2:24.557,41.8756,1.86158,0,0.000885,0,0
0:2:24.761,41.7021,1.85469,0,0.000885,0,0
0:2:24.958,41.4085,1.8409,0,0.000885,0,0
0:2:25.155,41.582,1.84779,0,0.000885,0,0
0:2:25.356,41.7021,1.85469,0,0.000885,0,0
0:2:25.555,41.5241,1.84779,0,0.000885,0,0
0:2:25.753,41.7021,1.85469,0,0.000885,0,0
0:2:25.954,41.8177,1.86158,0,0.000885,0,0
0:2:26.154,41.7599,1.85469,0,0.000885,0,0
0:2:26.350,41.9334,1.86158,0,0.000885,0,0
0:2:26.558,41.7021,1.85469,0,0.000885,0,0
0:2:26.757,41.8756,1.86158,0,0.000885,0,0
0:2:26.955,41.8177,1.86158,0,0.000885,0,0
0:2:27.154,41.6398,1.84779,0,0.000885,0,0
0:2:27.356,41.7599,1.85469,0,0.000885,0,0
0:2:27.552,41.582,1.84779,0,0.000885,0,0
0:2:27.758,41.8177,1.86158,0,0.000885,0,0
0:2:27.952,41.7021,1.85469,0,0.000885,0,0
0:2:28.160,41.582,1.84779,0,0.000885,0,0
0:2:28.353,41.7021,1.85469,0,0.000885,0,0
0:2:28.559,41.7021,1.85469,0,0.000885,0,0
0:2:28.756,41.8177,1.86158,0,0.000885,0,0
0:2:28.958,42.0535,1.86848,0,0.000885,0,0
0:2:29.158,41.9334,1.86158,0,0.000885,0,0
0:2:29.352,41.582,1.84779,0,0.000885,0,0
0:2:29.556,41.6398,1.84779,0,0.000885,0,0
0:2:29.755,41.5241,1.84779,0,0.000885,0,0
0:2:29.956,41.5241,1.84779,0,0.000885,0,0
0:2:30.154,41.4663,1.8409,0,0.000885,0,0
0:2:30.358,41.4663,1.8409,0,0.000885,0,0
0:2:30.552,41.2884,1.83401,0,0.000885,0,0
0:2:30.748,41.7599,1.85469,0,0.000885,0,0
0:2:30.947,41.5241,1.84779,0,0.000885,0,0
0:2:31.147,41.6398,1.84779,0,0.000885,0,0
0:2:31.346,41.4085,1.8409,0,0.000885,0,0
0:2:31.544,41.582,1.84779,0,0.000885,0,0
0:2:31.755,41.4085,1.8409,0,0.000885,0,0
0:2:31.951,41.4085,1.8409,0,0.000885,0,0
0:2:32.148,41.4663,1.8409,0,0.000885,0,0
0:2:32.358,41.2306,1.83401,0,0.000885,0,0
0:2:32.558,41.2884,1.83401,0,0.000885,0,0
0:2:32.757,40.9948,1.82022,0,0.000885,0,0
0:2:32.952,41.2306,1.83401,0,0.000885,0,0
0:2:33.157,40.9948,1.82022,0,0.000885,0,0
0:2:33.355,41.2306,1.83401,0,0.000885,0,0
0:2:33.556,41.4085,1.8409,0,0.000885,0,0
0:2:33.755,41.2306,1.83401,0,0.000885,0,0
0:2:33.958,41.1727,1.82711,0,0.000885,0,0
0:2:34.154,41.1727,1.82711,0,0.000885,0,0
0:2:34.353,41.2306,1.83401,0,0.000885,0,0
0:2:34.554,41.0571,1.82711,0,0.000885,0,0
0:2:34.751,40.8213,1.81332,0,0.000885,0,0
0:2:34.956,41.2306,1.83401,0,0.000885,0,0
0:2:35.158,40.9948,1.82022,0,0.000885,0,0
0:2:35.358,40.5277,1.79953,0,0.000885,0,0
0:2:35.556,40.7057,1.80643,0,0.000885,0,0
0:2:35.757,40.4699,1.79953,0,0.000885,0,0
0:2:35.957,40.4121,1.79264,0,0.000885,0,0
0:2:36.155,40.5277,1.79953,0,0.000885,0,0
0:2:36.353,40.6434,1.80643,0,0.000885,0,0
0:2:36.548,40.5856,1.80643,0,0.000885,0,0
0:2:36.758,40.3498,1.79264,0,0.000885,0,0
0:2:36.956,40.4699,1.79953,0,0.000885,0,0
0:2:37.157,40.2342,1.78574,0,0.000885,0,0
0:2:37.354,40.2342,1.78574,0,0.000885,0,0
0:2:37.552,40.5277,1.79953,0,0.000885,0,0
0:2:37.756,40.4121,1.79264,0,0.000885,0,0
0:2:37.954,40.5277,1.79953,0,0.000885,0,0
0:2:38.155,40.7057,1.80643,0,0.000885,0,0
0:2:38.353,40.5856,1.80643,0,0.000885,0,0
0:2:38.558,40.3498,1.79264,0,0.000885,0,0
0:2:38.751,40.4121,1.79264,0,0.000885,0,0
0:2:38.947,40.4121,1.79264,0,0.000885,0,0
0:2:39.152,40.4699,1.79953,0,0.000885,0,0
0:2:39.357,40.5277,1.79953,0,0.000885,0,0
0:2:39.556,40.5856,1.80643,0,0.000885,0,0
0:2:39.757,40.5277,1.79953,0,0.000885,0,0
0:2:39.955,40.6434,1.80643,0,0.000885,0,0
0:2:40.159,40.4121,1.79264,0,0.000885,0,0
0:2:40.354,40.7635,1.81332,0,0.000885,0,0
0:2:40.552,40.5856,1.80643,0,0.000885,0,0
0:2:40.749,40.7057,1.80643,0,0.000885,0,0
0:2:40.948,40.8213,1.81332,0,0.000885,0,0
0:2:41.147,40.5856,1.80643,0,0.000885,0,0
0:2:41.345,40.292,1.79264,0,0.000885,0,0
0:2:41.555,40.3498,1.79264,0,0.000885,0,0
0:2:41.754,40.6434,1.80643,0,0.000885,0,0
0:2:41.952,40.3498,1.79264,0,0.000885,0,0
0:2:42.157,40.3498,1.79264,0,0.000885,0,0
0:2:42.359,40.5277,1.79953,0,0.000885,0,0
0:2:42.558,40.1763,1.78574,0,0.000885,0,0
0:2:42.753,40.292,1.79264,0,0.000885,0,0
0:2:42.958,40.2342,1.78574,0,0.000885,0,0
0:2:43.157,40.3498,1.79264,0,0.000885,0,0
0:2:43.356,40.4699,1.79953,0,0.000885,0,0
0:2:43.555,40.4699,1.79953,0,0.000885,0,0
0:2:43.759,40.3498,1.79264,0,0.000885,0,0
0:2:43.954,40.3498,1.79264,0,0.000885,0,0
0:2:44.153,40.8213,1.81332,0,0.000885,0,0
0:2:44.354,40.5277,1.79953,0,0.000885,0,0
0:2:44.561,40.5856,1.80643,0,0.000885,0,0
0:2:44.758,40.7057,1.80643,0,0.000885,0,0
0:2:44.961,40.5277,1.79953,0,0.000885,0,0
0:2:45.160,40.1185,1.78574,0,0.000885,0,0
0:2:45.352,40.0562,1.77885,0,0.000885,0,0
0:2:45.558,40.5277,1.79953,0,0.000885,0,0
0:2:45.756,40.4121,1.79264,0,0.000885,0,0
0:2:45.956,40.3498,1.79264,0,0.000885,0,0
0:2:46.156,40.2342,1.78574,0,0.000885,0,0
0:2:46.355,40.3498,1.79264,0,0.000885,0,0
0:2:46.554,40.5277,1.79953,0,0.000885,0,0
0:2:46.749,40.3498,1.79264,0,0.000885,0,0
0:2:46.959,40.4699,1.79953,0,0.000885,0,0
0:2:47.158,40.292,1.79264,0,0.000885,0,0
0:2:47.361,40.2342,1.78574,0,0.000885,0,0
0:2:47.566,40.4699,1.79953,0,0.000885,0,0
0:2:47.765,40.6434,1.80643,0,0.000885,0,0
0:2:47.957,40.2342,1.78574,0,0.000885,0,0
0:2:48.155,40.1763,1.78574,0,0.000885,0,0
0:2:48.359,40.1185,1.78574,0,0.000885,0,0
0:2:48.553,40.3498,1.79264,0,0.000885,0,0
0:2:48.749,40.292,1.79264,0,0.000885,0,0
0:2:48.954,40.292,1.79264,0,0.000885,0,0
0:2:49.161,40.5856,1.80643,0,0.000885,0,0
0:2:49.357,40.4121,1.79264,0,0.000885,0,0
0:2:49.559,40.1763,1.78574,0,0.000885,0,0
0:2:49.757,40.1185,1.78574,0,0.000885,0,0
0:2:49.960,40.1763,1.78574,0,0.000885,0,0
0:2:50.157,40.1763,1.78574,0,0.000885,0,0
0:2:50.356,40.2342,1.78574,0,0.000885,0,0
0:2:50.555,40.3498,1.79264,0,0.000885,0,0
0:2:50.755,40.4121,1.79264,0,0.000885,0,0
0:2:50.954,40.292,1.79264,0,0.000885,0,0
0:2:51.150,40.3498,1.79264,0,0.000885,0,0
0:2:51.359,40.1185,1.78574,0,0.000885,0,0
0:2:51.558,40.2342,1.78574,0,0.000885,0,0
0:2:51.756,40.1763,1.78574,0,0.000885,0,0
0:2:51.961,40.2342,1.78574,0,0.000885,0,0
0:2:52.155,40.1763,1.78574,0,0.000885,0,0
0:2:52.350,39.9984,1.77885,0,0.000885,0,0
0:2:52.556,40.0562,1.77885,0,0.000885,0,0
0:2:52.762,39.8249,1.77195,0,0.000885,0,0
0:2:52.958,39.9406,1.77195,0,0.000885,0,0
0:2:53.160,39.9406,1.77195,0,0.000885,0,0
0:2:53.358,39.8249,1.77195,0,0.000885,0,0
0:2:53.554,40.1185,1.78574,0,0.000885,0,0
0:2:53.758,39.8828,1.77195,0,0.000885,0,0
0:2:53.956,39.8249,1.77195,0,0.000885,0,0
0:2:54.157,39.5892,1.75816,0,0.000885,0,0
0:2:54.355,39.8828,1.77195,0,0.000885,0,0
0:2:54.561,39.5892,1.75816,0,0.000885,0,0
0:2:54.764,39.647,1.76506,0,0.000885,0,0
0:2:54.962,39.7671,1.76506,0,0.000885,0,0
0:2:55.154,39.5313,1.75816,0,0.000885,0,0
0:2:55.361,39.7671,1.76506,0,0.000885,0,0
0:2:55.559,39.9984,1.77885,0,0.000885,0,0
0:2:55.759,39.5892,1.75816,0,0.000885,0,0
0:2:55.958,39.8249,1.77195,0,0.000885,0,0
0:2:56.157,39.8249,1.77195,0,0.000885,0,0
0:2:56.355,39.7048,1.76506,0,0.000885,0,0
0:2:56.554,39.7671,1.76506,0,0.000885,0,0
0:2:56.749,39.8249,1.77195,0,0.000885,0,0
0:2:56.948,39.9406,1.77195,0,0.000885,0,0
0:2:57.155,39.647,1.76506,0,0.000885,0,0
0:2:57.359,39.7048,1.76506,0,0.000885,0,0
0:2:57.557,39.8828,1.77195,0,0.000885,0,0
0:2:57.759,39.7048,1.76506,0,0.000885,0,0
0:2:57.958,39.4112,1.75127,0,0.000885,0,0
0:2:58.161,39.647,1.76506,0,0.000885,0,0
0:2:58.356,39.4112,1.75127,0,0.000885,0,0
0:2:58.555,39.4735,1.75127,0,0.000885,0,0
0:2:58.758,39.4112,1.75127,0,0.000885,0,0
0:2:58.956,39.4735,1.75127,0,0.000885,0,0
0:2:59.161,39.4112,1.75127,0,0.000885,0,0
0:2:59.364,39.4735,1.75127,0,0.000885,0,0
0:2:59.561,39.5892,1.75816,0,0.000885,0,0
0:2:59.756,39.7048,1.76506,0,0.000885,0,0
0:2:59.961,39.4112,1.75127,0,0.000885,0,0
0:3:0.158,39.7048,1.76506,0,0.000885,0,0
0:3:0.359,39.5313,1.75816,0,0.000885,0,0
0:3:0.557,39.7048,1.76506,0,0.000885,0,0
0:3:0.756,39.7048,1.76506,0,0.000885,0,0
0:3:0.955,39.647,1.76506,0,0.000885,0,0
0:3:1.155,39.4735,1.75127,0,0.000885,0,0
0:3:1.354,39.5892,1.75816,0,0.000885,0,0
0:3:1.561,39.5313,1.75816,0,0.000885,0,0
0:3:1.760,39.9984,1.77885,0,0.000885,0,0
0:3:1.959,39.647,1.76506,0,0.000885,0,0
0:3:2.157,39.9406,1.77195,0,0.000885,0,0
0:3:2.359,39.9984,1.77885,0,0.000885,0,0
0:3:2.556,39.7048,1.76506,0,0.000885,0,0
0:3:2.761,39.5313,1.75816,0,0.000885,0,0
0:3:2.955,39.4735,1.75127,0,0.000885,0,0
0:3:3.151,39.2956,1.74437,0,0.000885,0,0
0:3:3.356,39.2956,1.74437,0,0.000885,0,0
0:3:3.562,39.4112,1.75127,0,0.000885,0,0
0:3:3.759,39.4112,1.75127,0,0.000885,0,0
0:3:3.962,39.3534,1.75127,0,0.000885,0,0
0:3:4.160,39.5313,1.75816,0,0.000885,0,0
0:3:4.355,39.9406,1.77195,0,0.000885,0,0
0:3:4.559,39.4735,1.75127,0,0.000885,0,0
0:3:4.756,39.7048,1.76506,0,0.000885,0,0
0:3:4.958,39.7048,1.76506,0,0.000885,0,0
0:3:5.157,39.7048,1.76506,0,0.000885,0,0
0:3:5.361,39.647,1.76506,0,0.000885,0,0
0:3:5.555,40.0562,1.77885,0,0.000885,0,0
0:3:5.751,39.8828,1.77195,0,0.000885,0,0
0:3:5.950,39.5892,1.75816,0,0.000885,0,0
0:3:6.150,39.7048,1.76506,0,0.000885,0,0
0:3:6.362,39.2378,1.74437,0,0.000885,0,0
0:3:6.559,39.4112,1.75127,0,0.000885,0,0
0:3:6.759,39.4735,1.75127,0,0.000885,0,0
0:3:6.957,39.4735,1.75127,0,0.000885,0,0
0:3:7.164,39.7671,1.76506,0,0.000885,0,0
0:3:7.362,39.7048,1.76506,0,0.000885,0,0
0:3:7.555,39.8828,1.77195,0,0.000885,0,0
0:3:7.751,39.8249,1.77195,0,0.000885,0,0
0:3:7.956,39.8249,1.77195,0,0.000885,0,0
0:3:8.162,39.647,1.76506,0,0.000885,0,0
0:3:8.359,39.5892,1.75816,0,0.000885,0,0
0:3:8.561,39.8828,1.77195,0,0.000885,0,0
0:3:8.759,39.7048,1.76506,0,0.000885,0,0
0:3:8.962,39.647,1.76506,0,0.000885,0,0
0:3:9.157,39.7671,1.76506,0,0.000885,0,0
0:3:9.356,39.4112,1.75127,0,0.000885,0,0
0:3:9.559,39.647,1.76506,0,0.000885,0,0
0:3:9.756,39.4112,1.75127,0,0.000885,0,0
0:3:9.961,39.2956,1.74437,0,0.000885,0,0
0:3:10.164,39.4112,1.75127,0,0.000885,0,0
0:3:10.364,39.5313,1.75816,0,0.000885,0,0
0:3:10.560,39.5892,1.75816,0,0.000885,0,0
0:3:10.761,39.7048,1.76506,0,0.000885,0,0
0:3:10.961,39.8249,1.77195,0,0.000885,0,0
0:3:11.158,39.647,1.76506,0,0.000885,0,0
0:3:11.358,39.647,1.76506,0,0.000885,0,0
0:3:11.565,39.7048,1.76506,0,0.000885,0,0
0:3:11.762,39.4735,1.75127,0,0.000885,0,0
0:3:11.960,39.4112,1.75127,0,0.000885,0,0
0:3:12.161,39.4112,1.75127,0,0.000885,0,0
0:3:12.359,39.5313,1.75816,0,0.000885,0,0
0:3:12.556,39.3534,1.75127,0,0.000885,0,0
0:3:12.761,39.4112,1.75127,0,0.000885,0,0
0:3:12.958,39.2956,1.74437,0,0.000885,0,0
0:3:13.169,39.4735,1.75127,0,0.000885,0,0
0:3:13.367,39.4112,1.75127,0,0.000885,0,0
0:3:13.564,39.2956,1.74437,0,0.000885,0,0
0:3:13.757,39.2956,1.74437,0,0.000885,0,0
0:3:13.956,39.2378,1.74437,0,0.000885,0,0
0:3:14.158,39.3534,1.75127,0,0.000885,0,0
0:3:14.365,39.3534,1.75127,0,0.000885,0,0
0:3:14.560,39.5892,1.75816,0,0.000885,0,0
0:3:14.756,39.7048,1.76506,0,0.000885,0,0
0:3:14.962,39.5892,1.75816,0,0.000885,0,0
0:3:15.165,39.4112,1.75127,0,0.000885,0,0
0:3:15.361,39.2956,1.74437,0,0.000885,0,0
0:3:15.558,39.2956,1.74437,0,0.000885,0,0
0:3:15.759,39.4735,1.75127,0,0.000885,0,0
0:3:15.959,39.4112,1.75127,0,0.000885,0,0
0:3:16.157,39.4112,1.75127,0,0.000885,0,0
0:3:16.352,39.4735,1.75127,0,0.000885,0,0
0:3:16.551,39.2956,1.74437,0,0.000885,0,0
0:3:16.760,39.5892,1.75816,0,0.000885,0,0
0:3:16.959,39.4112,1.75127,0,0.000885,0,0
0:3:17.164,39.3534,1.75127,0,0.000885,0,0
0:3:17.360,39.7671,1.76506,0,0.000885,0,0
0:3:17.556,39.4735,1.75127,0,0.000885,0,0
0:3:17.758,39.5313,1.75816,0,0.000885,0,0
0:3:17.957,39.4112,1.75127,0,0.000885,0,0
0:3:18.160,39.002,1.73058,0,0.000885,0,0
0:3:18.356,39.1799,1.74437,0,0.000885,0,0
0:3:18.552,38.9442,1.73058,0,0.000885,0,0
0:3:18.766,39.1799,1.74437,0,0.000885,0,0
0:3:18.965,39.2378,1.74437,0,0.000885,0,0
0:3:19.158,39.0598,1.73748,0,0.000885,0,0
0:3:19.364,39.0598,1.73748,0,0.000885,0,0
0:3:19.560,39.2378,1.74437,0,0.000885,0,0
0:3:19.761,39.5892,1.75816,0,0.000885,0,0
0:3:19.960,39.4735,1.75127,0,0.000885,0,0
0:3:20.156,38.9442,1.73058,0,0.000885,0,0
0:3:20.359,39.1177,1.73748,0,0.000885,0,0
0:3:20.558,39.2956,1.74437,0,0.000885,0,0
0:3:20.757,39.2956,1.74437,0,0.000885,0,0
0:3:20.957,39.4112,1.75127,0,0.000885,0,0
0:3:21.156,39.3534,1.75127,0,0.000885,0,0
0:3:21.352,39.3534,1.75127,0,0.000885,0,0
0:3:21.550,39.2378,1.74437,0,0.000885,0,0
0:3:21.749,39.4735,1.75127,0,0.000885,0,0
0:3:21.946,39.9406,1.77195,0,0.000885,0,0
0:3:22.156,39.5313,1.75816,0,0.000885,0,0
0:3:22.359,39.647,1.76506,0,0.000885,0,0
0:3:22.557,39.647,1.76506,0,0.000885,0,0
0:3:22.768,39.5892,1.75816,0,0.000885,0,0
0:3:22.965,39.647,1.76506,0,0.000885,0,0
0:3:23.162,39.647,1.76506,0,0.000885,0,0
0:3:23.366,39.5313,1.75816,0,0.000885,0,0
0:3:23.565,39.5313,1.75816,0,0.000885,0,0
0:3:23.757,39.7671,1.76506,0,0.000885,0,0
0:3:23.960,39.7048,1.76506,0,0.000885,0,0
0:3:24.158,39.4735,1.75127,0,0.000885,0,0
0:3:24.361,39.4112,1.75127,0,0.000885,0,0
0:3:24.559,39.2956,1.74437,0,0.000885,0,0
0:3:24.762,39.1177,1.73748,0,0.000885,0,0
0:3:24.958,39.3534,1.75127,0,0.000885,0,0
0:3:25.166,39.4112,1.75127,0,0.000885,0,0
0:3:25.359,39.5313,1.75816,0,0.000885,0,0
0:3:25.558,39.4735,1.75127,0,0.000885,0,0
0:3:25.767,39.3534,1.75127,0,0.000885,0,0
0:3:25.966,39.4112,1.75127,0,0.000885,0,0
0:3:26.166,39.8249,1.77195,0,0.000885,0,0
0:3:26.362,39.5313,1.75816,0,0.000885,0,0
0:3:26.561,39.5313,1.75816,0,0.000885,0,0
0:3:26.759,39.4735,1.75127,0,0.000885,0,0
0:3:26.966,39.4735,1.75127,0,0.000885,0,0
0:3:27.165,39.3534,1.75127,0,0.000885,0,0
0:3:27.357,39.4735,1.75127,0,0.000885,0,0
0:3:27.552,39.2378,1.74437,0,0.000885,0,0
0:3:27.769,39.002,1.73058,0,0.000885,0,0
0:3:27.962,39.0598,1.73748,0,0.000885,0,0
0:3:28.159,39.1177,1.73748,0,0.000885,0,0
0:3:28.361,39.002,1.73058,0,0.000885,0,0
0:3:28.560,38.8285,1.72369,0,0.000885,0,0
0:3:28.766,38.9442,1.73058,0,0.000885,0,0
0:3:28.959,38.8864,1.73058,0,0.000885,0,0
0:3:29.158,38.9442,1.73058,0,0.000885,0,0
0:3:29.368,38.8864,1.73058,0,0.000885,0,0
0:3:29.566,39.1799,1.74437,0,0.000885,0,0
0:3:29.762,38.9442,1.73058,0,0.000885,0,0
0:3:29.964,38.9442,1.73058,0,0.000885,0,0
0:3:30.162,38.8864,1.73058,0,0.000885,0,0
0:3:30.365,38.7663,1.72369,0,0.000885,0,0
0:3:30.540,38.8864,1.73058,0,0.000885,0,0