File: DataFile2021-06-29_053151.csv
Test ID:,Date Tested:,Time:,Test Type:,Diameter Avg. (mm):,Cyl. Corr. Factor:,Height (mm):,Age (days):,Weight (kN):,Break Type:,Ramp Rate (MPa/s):,Load at Break (kN):,Stress at Break (MPa):
12,6/29/2021,05:31,Cylinder,100,1,200,0,3.6,3,0.24,318.76,40.59
Sample Time,Load (kN),Stress (MPa),Long. Strain,Trans. Strain,Chan1 Deflection (mm),Chan2 Deflection (mm)
0:0:19.534,5.33787,0.682581,0,0.000885,0,0
0:0:19.736,8.79858,1.11695,0,0.000885,0,0
0:0:19.935,11.8456,1.50995,0,0.000885,0,0
0:0:20.134,13.2557,1.68922,0,0.000885,0,0
0:0:20.334,13.0778,1.66853,0,0.000885,0,0
0:0:20.537,12.5529,1.59958,0,0.000885,0,0
0:0:20.738,12.1392,1.54443,0,0.000885,0,0
0:0:20.938,11.9079,1.51685,0,0.000885,0,0
0:0:21.134,11.6143,1.47548,0,0.000885,0,0
0:0:21.336,11.4364,1.45479,0,0.000885,0,0
0:0:21.528,11.4364,1.45479,0,0.000885,0,0
0:0:21.727,11.4364,1.45479,0,0.000885,0,0
0:0:21.927,11.3786,1.4479,0,0.000885,0,0
0:0:22.122,11.3207,1.441,0,0.000885,0,0
0:0:22.323,11.4942,1.46169,0,0.000885,0,0
0:0:22.520,11.3786,1.4479,0,0.000885,0,0
0:0:22.726,11.2006,1.42721,0,0.000885,0,0
0:0:22.928,11.3207,1.441,0,0.000885,0,0
0:0:23.135,11.2629,1.43411,0,0.000885,0,0
0:0:23.337,11.8456,1.50995,0,0.000885,0,0
0:0:23.534,12.7842,1.62716,0,0.000885,0,0
0:0:23.728,12.3171,1.56511,0,0.000885,0,0
0:0:23.929,13.3714,1.70301,0,0.000885,0,0
0:0:24.137,13.6071,1.73058,0,0.000885,0,0
0:0:24.340,14.0742,1.79264,0,0.000885,0,0
0:0:24.537,14.3099,1.82022,0,0.000885,0,0
0:0:24.734,14.9549,1.90295,0,0.000885,0,0
0:0:24.936,15.1907,1.93743,0,0.000885,0,0
0:0:25.136,15.3063,1.95122,0,0.000885,0,0
0:0:25.341,15.9513,2.03395,0,0.000885,0,0
0:0:25.543,16.2449,2.06843,0,0.000885,0,0
0:0:25.744,16.7742,2.13737,0,0.000885,0,0
0:0:25.946,17.3614,2.21322,0,0.000885,0,0
0:0:26.148,18.5357,2.35801,0,0.000885,0,0
0:0:26.350,18.6514,2.3718,0,0.000885,0,0
0:0:26.553,19.3542,2.46143,0,0.000885,0,0
0:0:26.749,19.7634,2.51659,0,0.000885,0,0
0:0:26.951,20.5864,2.62001,0,0.000885,0,0
0:0:27.149,20.8221,2.64759,0,0.000885,0,0
0:0:27.348,21.347,2.71653,0,0.000885,0,0
0:0:27.550,21.8185,2.77859,0,0.000885,0,0
0:0:27.744,21.8764,2.78548,0,0.000885,0,0
0:0:27.944,21.9342,2.79238,0,0.000885,0,0
0:0:28.144,22.3479,2.84753,0,0.000885,0,0
0:0:28.342,22.5792,2.87511,0,0.000885,0,0
0:0:28.544,23.1085,2.94406,0,0.000885,0,0
0:0:28.739,23.4599,2.98543,0,0.000885,0,0
0:0:28.940,24.0471,3.06127,0,0.000885,0,0
0:0:29.140,24.1627,3.07506,0,0.000885,0,0
0:0:29.337,24.9857,3.17848,0,0.000885,0,0
0:0:29.539,25.2214,3.21296,0,0.000885,0,0
0:0:29.737,25.3949,3.23364,0,0.000885,0,0
0:0:29.933,25.3949,3.23364,0,0.000885,0,0
0:0:30.136,25.4527,3.24054,0,0.000885,0,0
0:0:30.339,26.16,3.33017,0,0.000885,0,0
0:0:30.541,26.805,3.4129,0,0.000885,0,0
0:0:30.744,27.2142,3.46806,0,0.000885,0,0
0:0:30.945,27.3877,3.48875,0,0.000885,0,0
0:0:31.148,28.2106,3.59217,0,0.000885,0,0
0:0:31.349,28.1528,3.58527,0,0.000885,0,0
0:0:31.550,28.6199,3.64733,0,0.000885,0,0
0:0:31.750,29.0914,3.70248,0,0.000885,0,0
0:0:31.947,29.7364,3.78522,0,0.000885,0,0
0:0:32.149,30.1456,3.84038,0,0.000885,0,0
0:0:32.346,30.497,3.88175,0,0.000885,0,0
0:0:32.547,30.6749,3.90243,0,0.000885,0,0
0:0:32.748,31.0842,3.95759,0,0.000885,0,0
0:0:32.944,31.6713,4.03343,0,0.000885,0,0
0:0:33.146,32.2585,4.10928,0,0.000885,0,0
0:0:33.343,32.2585,4.10928,0,0.000885,0,0
0:0:33.542,32.7878,4.17133,0,0.000885,0,0
0:0:33.744,33.077,4.2127,0,0.000885,0,0
0:0:33.939,33.9577,4.32301,0,0.000885,0,0
0:0:34.141,34.1357,4.3437,0,0.000885,0,0
0:0:34.339,34.4871,4.39196,0,0.000885,0,0
0:0:34.535,34.8385,4.43333,0,0.000885,0,0
0:0:34.737,34.7806,4.42643,0,0.000885,0,0
0:0:34.940,35.3055,4.49538,0,0.000885,0,0
0:0:35.142,35.955,4.57812,0,0.000885,0,0
0:0:35.345,36.1285,4.5988,0,0.000885,0,0
0:0:35.548,36.6,4.66086,0,0.000885,0,0
0:0:35.750,37.067,4.72291,0,0.000885,0,0
0:0:35.950,37.0092,4.70912,0,0.000885,0,0
0:0:36.152,37.6542,4.79186,0,0.000885,0,0
0:0:36.354,38.357,4.88149,0,0.000885,0,0
0:0:36.550,38.7084,4.92975,0,0.000885,0,0
0:0:36.751,39.1221,4.97801,0,0.000885,0,0
0:0:36.950,39.0598,4.97112,0,0.000885,0,0
0:0:37.148,39.7048,5.05386,0,0.000885,0,0
0:0:37.349,40.3498,5.13659,0,0.000885,0,0
0:0:37.545,40.7012,5.18486,0,0.000885,0,0
0:0:37.746,41.2884,5.25381,0,0.000885,0,0
0:0:37.946,41.3507,5.26759,0,0.000885,0,0
0:0:38.142,41.8756,5.32965,0,0.000885,0,0
0:0:38.345,42.3471,5.3917,0,0.000885,0,0
0:0:38.540,42.9921,5.47444,0,0.000885,0,0
0:0:38.742,42.5206,5.41238,0,0.000885,0,0
0:0:38.941,43.4013,5.5227,0,0.000885,0,0
0:0:39.137,43.9306,5.59165,0,0.000885,0,0
0:0:39.340,43.6949,5.56407,0,0.000885,0,0
0:0:39.535,44.3399,5.64681,0,0.000885,0,0
0:0:39.735,45.0427,5.73644,0,0.000885,0,0
0:0:39.937,45.4519,5.7847,0,0.000885,0,0
0:0:40.139,45.7455,5.82607,0,0.000885,0,0
0:0:40.343,46.3327,5.90191,0,0.000885,0,0
0:0:40.545,46.3905,5.90881,0,0.000885,0,0
0:0:40.748,46.9777,5.98465,0,0.000885,0,0
0:0:40.949,46.9198,5.97086,0,0.000885,0,0
0:0:41.150,47.7428,6.08118,0,0.000885,0,0
0:0:41.352,48.3299,6.15012,0,0.000885,0,0
0:0:41.551,48.7392,6.20528,0,0.000885,0,0
0:0:41.748,48.8548,6.21907,0,0.000885,0,0
0:0:41.950,49.6777,6.32249,0,0.000885,0,0
0:0:42.146,49.3842,6.28802,0,0.000885,0,0
0:0:42.347,49.4998,6.30181,0,0.000885,0,0
0:0:42.545,49.7934,6.34318,0,0.000885,0,0
0:0:42.743,50.5585,6.4397,0,0.000885,0,0
0:0:42.945,50.9677,6.48797,0,0.000885,0,0
0:0:43.142,51.7862,6.59139,0,0.000885,0,0
0:0:43.343,51.9641,6.61897,0,0.000885,0,0
0:0:43.544,52.6091,6.7017,0,0.000885,0,0
0:0:43.739,52.7248,6.71549,0,0.000885,0,0
0:0:43.941,53.6633,6.8327,0,0.000885,0,0
0:0:44.139,53.6633,6.8327,0,0.000885,0,0
0:0:44.337,53.9569,6.86718,0,0.000885,0,0
0:0:44.538,54.3083,6.91544,0,0.000885,0,0
0:0:44.743,54.5441,6.94302,0,0.000885,0,0
0:0:44.943,54.8377,6.98439,0,0.000885,0,0
0:0:45.145,55.1313,7.01886,0,0.000885,0,0
0:0:45.349,56.1855,7.15676,0,0.000885,0,0
0:0:45.550,56.1855,7.15676,0,0.000885,0,0
0:0:45.753,57.0662,7.26707,0,0.000885,0,0
0:0:45.954,57.302,7.29465,0,0.000885,0,0
0:0:46.156,57.7691,7.35671,0,0.000885,0,0
0:0:46.357,58.0048,7.38429,0,0.000885,0,0
0:0:46.559,58.3562,7.43255,0,0.000885,0,0
0:0:46.757,59.0012,7.51529,0,0.000885,0,0
0:0:46.956,59.0012,7.51529,0,0.000885,0,0
0:0:47.155,59.4727,7.57044,0,0.000885,0,0
0:0:47.352,60.2912,7.67386,0,0.000885,0,0
0:0:47.554,59.9398,7.6325,0,0.000885,0,0
0:0:47.751,60.7049,7.72902,0,0.000885,0,0
0:0:47.948,60.9362,7.7566,0,0.000885,0,0
0:0:48.150,61.3499,7.81176,0,0.000885,0,0
0:0:48.347,61.5234,7.83244,0,0.000885,0,0
0:0:48.549,62.3463,7.93587,0,0.000885,0,0
0:0:48.747,62.2884,7.92897,0,0.000885,0,0
0:0:48.944,62.8712,8.00481,0,0.000885,0,0
0:0:49.146,63.1069,8.03239,0,0.000885,0,0
0:0:49.343,63.7519,8.11513,0,0.000885,0,0
0:0:49.543,64.4547,8.20476,0,0.000885,0,0
0:0:49.743,64.2813,8.18408,0,0.000885,0,0
0:0:49.938,65.1042,8.2875,0,0.000885,0,0
0:0:50.139,64.9841,8.27371,0,0.000885,0,0
0:0:50.342,66.0383,8.4116,0,0.000885,0,0
0:0:50.544,65.9805,8.39781,0,0.000885,0,0
0:0:50.747,66.5098,8.46676,0,0.000885,0,0
0:0:50.949,66.8612,8.51503,0,0.000885,0,0
0:0:51.151,67.4484,8.59087,0,0.000885,0,0
0:0:51.353,68.1512,8.6805,0,0.000885,0,0
0:0:51.554,68.5026,8.72187,0,0.000885,0,0
0:0:51.756,68.209,8.68739,0,0.000885,0,0
0:0:51.952,69.0898,8.79771,0,0.000885,0,0
0:0:52.154,69.2054,8.8115,0,0.000885,0,0
0:0:52.352,69.6769,8.87355,0,0.000885,0,0
0:0:52.550,70.2063,8.93561,0,0.000885,0,0
0:0:52.752,70.4999,8.97697,0,0.000885,0,0
0:0:52.948,71.0826,9.05282,0,0.000885,0,0
0:0:53.150,71.4963,9.10108,0,0.000885,0,0
0:0:53.349,71.3762,9.08729,0,0.000885,0,0
0:0:53.545,71.6119,9.11487,0,0.000885,0,0
0:0:53.747,72.4348,9.22519,0,0.000885,0,0
0:0:53.943,72.5505,9.23897,0,0.000885,0,0
0:0:54.144,73.022,9.29413,0,0.000885,0,0
0:0:54.344,73.7827,9.39755,0,0.000885,0,0
0:0:54.539,73.7248,9.38376,0,0.000885,0,0
0:0:54.741,73.8405,9.40445,0,0.000885,0,0
0:0:54.943,75.1305,9.56303,0,0.000885,0,0
0:0:55.145,75.0726,9.55613,0,0.000885,0,0
0:0:55.348,75.9534,9.67334,0,0.000885,0,0
0:0:55.550,76.1269,9.69403,0,0.000885,0,0
0:0:55.753,76.1269,9.69403,0,0.000885,0,0
0:0:55.953,76.8341,9.78366,0,0.000885,0,0
0:0:56.154,76.8341,9.78366,0,0.000885,0,0
0:0:56.356,77.537,9.87329,0,0.000885,0,0
0:0:56.552,78.1241,9.94913,0,0.000885,0,0
0:0:56.754,78.7691,10.0319,0,0.000885,0,0
0:0:56.953,79.0627,10.0663,0,0.000885,0,0
0:0:57.151,78.9426,10.0526,0,0.000885,0,0
0:0:57.352,79.3563,10.1008,0,0.000885,0,0
0:0:57.547,79.7077,10.1491,0,0.000885,0,0
0:0:57.749,80.0013,10.1836,0,0.000885,0,0
0:0:57.947,80.4105,10.2387,0,0.000885,0,0
0:0:58.146,81.1133,10.3283,0,0.000885,0,0
0:0:58.347,81.5226,10.3766,0,0.000885,0,0
0:0:58.542,81.874,10.4249,0,0.000885,0,0
0:0:58.744,82.5812,10.5145,0,0.000885,0,0
0:0:58.942,82.7547,10.5352,0,0.000885,0,0
0:0:59.141,83.2841,10.6041,0,0.000885,0,0
0:0:59.342,83.3419,10.611,0,0.000885,0,0
0:0:59.537,83.3997,10.6179,0,0.000885,0,0
0:0:59.738,83.929,10.6869,0,0.000885,0,0
0:0:59.940,85.0411,10.8248,0,0.000885,0,0
0:1:0.142,84.8676,10.8041,0,0.000885,0,0
0:1:0.344,84.5162,10.7627,0,0.000885,0,0
0:1:0.547,85.5126,10.8868,0,0.000885,0,0
0:1:0.747,86.3934,10.9971,0,0.000885,0,0
0:1:0.949,86.8604,11.0592,0,0.000885,0,0
0:1:1.151,87.3319,11.1212,0,0.000885,0,0
0:1:1.352,87.4476,11.135,0,0.000885,0,0
0:1:1.550,88.2082,11.2316,0,0.000885,0,0
0:1:1.750,88.5018,11.266,0,0.000885,0,0
0:1:1.950,88.7376,11.3005,0,0.000885,0,0
0:1:2.148,88.9733,11.3281,0,0.000885,0,0
0:1:2.350,89.3247,11.3763,0,0.000885,0,0
0:1:2.546,89.5027,11.397,0,0.000885,0,0
0:1:2.746,89.6761,11.4177,0,0.000885,0,0
0:1:2.945,90.9083,11.5763,0,0.000885,0,0
0:1:3.142,90.7304,11.5556,0,0.000885,0,0
0:1:3.344,91.669,11.6728,0,0.000885,0,0
0:1:3.540,91.3754,11.6315,0,0.000885,0,0
0:1:3.740,91.9047,11.7004,0,0.000885,0,0
0:1:3.941,92.6075,11.79,0,0.000885,0,0
0:1:4.137,93.1947,11.8659,0,0.000885,0,0
0:1:4.338,92.7855,11.8107,0,0.000885,0,0
0:1:4.537,92.8433,11.8245,0,0.000885,0,0
0:1:4.744,93.9598,11.9624,0,0.000885,0,0
0:1:4.946,94.1333,11.9831,0,0.000885,0,0
0:1:5.149,94.6048,12.0451,0,0.000885,0,0
0:1:5.352,95.6012,12.1692,0,0.000885,0,0
0:1:5.554,95.4232,12.1486,0,0.000885,0,0
0:1:5.756,96.4197,12.2796,0,0.000885,0,0
0:1:5.956,96.4197,12.2796,0,0.000885,0,0
0:1:6.159,97.0646,12.3623,0,0.000885,0,0
0:1:6.359,96.6554,12.3071,0,0.000885,0,0
0:1:6.559,97.7719,12.4519,0,0.000885,0,0
0:1:6.757,98.5904,12.5554,0,0.000885,0,0
0:1:6.957,97.1847,12.3761,0,0.000885,0,0
0:1:7.153,98.0032,12.4795,0,0.000885,0,0
0:1:7.352,99.2354,12.6381,0,0.000885,0,0
0:1:7.553,99.4133,12.6588,0,0.000885,0,0
0:1:7.751,99.529,12.6726,0,0.000885,0,0
0:1:7.952,100.232,12.7622,0,0.000885,0,0
0:1:8.147,100.116,12.7484,0,0.000885,0,0
0:1:8.348,101.348,12.907,0,0.000885,0,0
0:1:8.548,101.935,12.9759,0,0.000885,0,0
0:1:8.744,102.229,13.0173,0,0.000885,0,0
0:1:8.945,102.345,13.0311,0,0.000885,0,0
0:1:9.143,103.048,13.1207,0,0.000885,0,0
0:1:9.342,103.577,13.1897,0,0.000885,0,0
0:1:9.543,103.283,13.1483,0,0.000885,0,0
0:1:9.739,103.87,13.2241,0,0.000885,0,0
0:1:9.942,104.4,13.2931,0,0.000885,0,0
0:1:10.143,104.458,13.3,0,0.000885,0,0
0:1:10.347,104.631,13.3207,0,0.000885,0,0
0:1:10.550,104.925,13.362,0,0.000885,0,0
0:1:10.752,106.215,13.5206,0,0.000885,0,0
0:1:10.953,105.863,13.4793,0,0.000885,0,0
0:1:11.154,106.45,13.5551,0,0.000885,0,0
0:1:11.356,107.331,13.6654,0,0.000885,0,0
0:1:11.557,107.625,13.6999,0,0.000885,0,0
0:1:11.753,107.625,13.6999,0,0.000885,0,0
0:1:11.955,108.212,13.7757,0,0.000885,0,0
0:1:12.152,108.737,13.8447,0,0.000885,0,0
0:1:12.350,109.266,13.9136,0,0.000885,0,0
0:1:12.552,109.795,13.9826,0,0.000885,0,0
0:1:12.748,110.498,14.0722,0,0.000885,0,0
0:1:12.950,109.324,13.9205,0,0.000885,0,0
0:1:13.148,110.089,14.017,0,0.000885,0,0
0:1:13.345,110.85,14.1136,0,0.000885,0,0
0:1:13.547,110.672,14.0929,0,0.000885,0,0
0:1:13.744,111.495,14.1963,0,0.000885,0,0
0:1:13.944,112.14,14.279,0,0.000885,0,0
0:1:14.144,112.611,14.3411,0,0.000885,0,0
0:1:14.339,113.487,14.4514,0,0.000885,0,0
0:1:14.541,113.487,14.4514,0,0.000885,0,0
0:1:14.738,113.43,14.4445,0,0.000885,0,0
0:1:14.938,114.075,14.5273,0,0.000885,0,0
0:1:15.140,114.31,14.5548,0,0.000885,0,0
0:1:15.344,115.013,14.6445,0,0.000885,0,0
0:1:15.545,114.955,14.6376,0,0.000885,0,0
0:1:15.747,115.952,14.7617,0,0.000885,0,0
0:1:15.948,115.422,14.6996,0,0.000885,0,0
0:1:16.150,116.539,14.8375,0,0.000885,0,0
0:1:16.353,116.597,14.8444,0,0.000885,0,0
0:1:16.554,117.478,14.9547,0,0.000885,0,0
0:1:16.751,117.593,14.9754,0,0.000885,0,0
0:1:16.951,117.184,14.9203,0,0.000885,0,0
0:1:17.152,118.123,15.0375,0,0.000885,0,0
0:1:17.347,118.007,15.0237,0,0.000885,0,0
0:1:17.550,119.355,15.196,0,0.000885,0,0
0:1:17.747,119.822,15.2581,0,0.000885,0,0
0:1:17.946,120.467,15.3408,0,0.000885,0,0
0:1:18.147,120.938,15.396,0,0.000885,0,0
0:1:18.343,120.76,15.3753,0,0.000885,0,0
0:1:18.544,121.525,15.4718,0,0.000885,0,0
0:1:18.741,120.938,15.396,0,0.000885,0,0
0:1:18.940,122.17,15.5546,0,0.000885,0,0
0:1:19.142,123.167,15.6787,0,0.000885,0,0
0:1:19.347,121.699,15.4925,0,0.000885,0,0
0:1:19.548,122.931,15.6511,0,0.000885,0,0
0:1:19.747,123.225,15.6925,0,0.000885,0,0
0:1:19.943,123.927,15.7821,0,0.000885,0,0
0:1:20.145,123.812,15.7614,0,0.000885,0,0
0:1:20.348,124.63,15.8717,0,0.000885,0,0
0:1:20.550,124.866,15.8993,0,0.000885,0,0
0:1:20.753,125.925,16.0303,0,0.000885,0,0
0:1:20.955,125.747,16.0096,0,0.000885,0,0
0:1:21.157,125.983,16.0372,0,0.000885,0,0
0:1:21.357,126.04,16.051,0,0.000885,0,0
0:1:21.560,126.859,16.1544,0,0.000885,0,0
0:1:21.761,127.508,16.2372,0,0.000885,0,0
0:1:21.956,128.442,16.3544,0,0.000885,0,0
0:1:22.158,127.975,16.2923,0,0.000885,0,0
0:1:22.356,128.385,16.3475,0,0.000885,0,0
0:1:22.554,129.092,16.4371,0,0.000885,0,0
0:1:22.756,129.381,16.4716,0,0.000885,0,0
0:1:22.950,129.501,16.4854,0,0.000885,0,0
0:1:23.152,130.088,16.5612,0,0.000885,0,0
0:1:23.352,130.907,16.6646,0,0.000885,0,0
0:1:23.550,130.849,16.6577,0,0.000885,0,0
0:1:23.752,131.903,16.7956,0,0.000885,0,0
0:1:23.947,131.552,16.7474,0,0.000885,0,0
0:1:24.147,131.61,16.7543,0,0.000885,0,0
0:1:24.347,132.197,16.8301,0,0.000885,0,0
0:1:24.543,133.135,16.9542,0,0.000885,0,0
0:1:24.745,133.313,16.9749,0,0.000885,0,0
0:1:24.948,134.425,17.1128,0,0.000885,0,0
0:1:25.151,133.9,17.0507,0,0.000885,0,0
0:1:25.355,134.777,17.1611,0,0.000885,0,0
0:1:25.554,133.665,17.0163,0,0.000885,0,0
0:1:25.757,135.306,17.23,0,0.000885,0,0
0:1:25.957,135.306,17.23,0,0.000885,0,0
0:1:26.157,135.426,17.2438,0,0.000885,0,0
0:1:26.359,136.423,17.3679,0,0.000885,0,0
0:1:26.556,136.774,17.4162,0,0.000885,0,0
0:1:26.756,137.361,17.492,0,0.000885,0,0
0:1:26.955,137.535,17.5127,0,0.000885,0,0
0:1:27.152,137.944,17.5609,0,0.000885,0,0
0:1:27.354,138.415,17.623,0,0.000885,0,0
0:1:27.550,138.357,17.6161,0,0.000885,0,0
0:1:27.751,139.47,17.7609,0,0.000885,0,0
0:1:27.950,139.941,17.8161,0,0.000885,0,0
0:1:28.148,139.647,17.7816,0,0.000885,0,0
0:1:28.350,140.586,17.8988,0,0.000885,0,0
0:1:28.545,140.702,17.9126,0,0.000885,0,0
0:1:28.747,141.525,18.016,0,0.000885,0,0
0:1:28.947,141.76,18.0505,0,0.000885,0,0
0:1:29.142,141.76,18.0505,0,0.000885,0,0
0:1:29.344,142.815,18.1815,0,0.000885,0,0
0:1:29.541,143.753,18.3056,0,0.000885,0,0
0:1:29.739,143.575,18.278,0,0.000885,0,0
0:1:29.941,144.105,18.3469,0,0.000885,0,0
0:1:30.143,143.989,18.3332,0,0.000885,0,0
0:1:30.346,143.927,18.3263,0,0.000885,0,0
0:1:30.549,144.456,18.3952,0,0.000885,0,0
0:1:30.751,144.75,18.4297,0,0.000885,0,0
0:1:30.952,145.101,18.4779,0,0.000885,0,0
0:1:31.153,145.63,18.54,0,0.000885,0,0
0:1:31.356,146.097,18.6021,0,0.000885,0,0
0:1:31.554,146.217,18.6158,0,0.000885,0,0
0:1:31.753,147.036,18.7193,0,0.000885,0,0
0:1:31.954,147.272,18.7537,0,0.000885,0,0
0:1:32.150,147.975,18.8434,0,0.000885,0,0
0:1:32.350,148.384,18.8916,0,0.000885,0,0
0:1:32.550,148.677,18.933,0,0.000885,0,0
0:1:32.746,149.5,19.0364,0,0.000885,0,0
0:1:32.948,150.145,19.1192,0,0.000885,0,0
0:1:33.146,149.558,19.0433,0,0.000885,0,0
0:1:33.345,150.323,19.1398,0,0.000885,0,0
0:1:33.546,150.087,19.1123,0,0.000885,0,0
0:1:33.740,150.612,19.1743,0,0.000885,0,0
0:1:33.942,150.906,19.2157,0,0.000885,0,0
0:1:34.141,152.022,19.3536,0,0.000885,0,0
0:1:34.346,151.613,19.3053,0,0.000885,0,0
0:1:34.548,152.725,19.4432,0,0.000885,0,0
0:1:34.744,152.316,19.395,0,0.000885,0,0
0:1:34.943,153.134,19.4984,0,0.000885,0,0
0:1:35.144,153.842,19.588,0,0.000885,0,0
0:1:35.349,154.66,19.6914,0,0.000885,0,0
0:1:35.551,154.838,19.7121,0,0.000885,0,0
0:1:35.752,154.545,19.6776,0,0.000885,0,0
0:1:35.954,155.012,19.7397,0,0.000885,0,0
0:1:36.156,155.777,19.8362,0,0.000885,0,0
0:1:36.358,156.364,19.9121,0,0.000885,0,0
0:1:36.559,156.07,19.8707,0,0.000885,0,0
0:1:36.757,156.48,19.9258,0,0.000885,0,0
0:1:36.955,156.48,19.9258,0,0.000885,0,0
0:1:37.157,157.418,20.0431,0,0.000885,0,0
0:1:37.354,158.005,20.1189,0,0.000885,0,0
0:1:37.554,158.53,20.1878,0,0.000885,0,0
0:1:37.752,158.472,20.1741,0,0.000885,0,0
0:1:37.948,159.295,20.2844,0,0.000885,0,0
0:1:38.150,159.589,20.3188,0,0.000885,0,0
0:1:38.346,159.411,20.2982,0,0.000885,0,0
0:1:38.547,160.292,20.4085,0,0.000885,0,0
0:1:38.747,161.052,20.505,0,0.000885,0,0
0:1:38.942,160.763,20.4705,0,0.000885,0,0
0:1:39.144,161.817,20.6015,0,0.000885,0,0
0:1:39.343,162.347,20.6705,0,0.000885,0,0
0:1:39.541,162.814,20.7325,0,0.000885,0,0
0:1:39.743,163.223,20.7808,0,0.000885,0,0
0:1:39.945,162.814,20.7325,0,0.000885,0,0
0:1:40.147,163.05,20.7601,0,0.000885,0,0
0:1:40.351,164.046,20.8842,0,0.000885,0,0
0:1:40.552,164.691,20.967,0,0.000885,0,0
0:1:40.752,165.278,21.0428,0,0.000885,0,0
0:1:40.953,164.927,21.0014,0,0.000885,0,0
0:1:41.154,164.927,21.0014,0,0.000885,0,0
0:1:41.352,165.63,21.0911,0,0.000885,0,0
0:1:41.551,165.865,21.1186,0,0.000885,0,0
0:1:41.753,166.92,21.2496,0,0.000885,0,0
0:1:41.948,167.742,21.36,0,0.000885,0,0
0:1:42.149,167.742,21.36,0,0.000885,0,0
0:1:42.349,168.152,21.4082,0,0.000885,0,0
0:1:42.546,168.97,21.5116,0,0.000885,0,0
0:1:42.748,168.152,21.4082,0,0.000885,0,0
0:1:42.944,168.094,21.4013,0,0.000885,0,0
0:1:43.142,168.445,21.4496,0,0.000885,0,0
0:1:43.344,169.442,21.5737,0,0.000885,0,0
0:1:43.540,169.557,21.5875,0,0.000885,0,0
0:1:43.743,170.38,21.6909,0,0.000885,0,0
0:1:43.949,170.616,21.7254,0,0.000885,0,0
0:1:44.147,171.261,21.8081,0,0.000885,0,0
0:1:44.349,172.079,21.9115,0,0.000885,0,0
0:1:44.544,172.667,21.9874,0,0.000885,0,0
0:1:44.746,172.493,21.9598,0,0.000885,0,0
0:1:44.947,173.018,22.0287,0,0.000885,0,0
0:1:45.151,172.845,22.0081,0,0.000885,0,0
0:1:45.353,173.783,22.1253,0,0.000885,0,0
0:1:45.556,174.308,22.1942,0,0.000885,0,0
0:1:45.757,174.308,22.1942,0,0.000885,0,0
0:1:45.958,174.837,22.2632,0,0.000885,0,0
0:1:46.159,175.247,22.3114,0,0.000885,0,0
0:1:46.362,176.363,22.4562,0,0.000885,0,0
0:1:46.558,176.599,22.4838,0,0.000885,0,0
0:1:46.759,177.359,22.5803,0,0.000885,0,0
0:1:46.960,177.244,22.5665,0,0.000885,0,0
0:1:47.155,176.95,22.5321,0,0.000885,0,0
0:1:47.357,178.004,22.6631,0,0.000885,0,0
0:1:47.554,178.062,22.67,0,0.000885,0,0
0:1:47.751,178.356,22.7113,0,0.000885,0,0
0:1:47.954,178.943,22.7803,0,0.000885,0,0
0:1:48.149,179.237,22.8216,0,0.000885,0,0
0:1:48.351,179.766,22.8906,0,0.000885,0,0
0:1:48.549,179.352,22.8354,0,0.000885,0,0
0:1:48.747,180.175,22.9389,0,0.000885,0,0
0:1:48.947,180.584,22.994,0,0.000885,0,0
0:1:49.144,181.465,23.1043,0,0.000885,0,0
0:1:49.345,181.581,23.1181,0,0.000885,0,0
0:1:49.543,181.35,23.0905,0,0.000885,0,0
0:1:49.748,182.168,23.194,0,0.000885,0,0
0:1:49.950,183.107,23.3112,0,0.000885,0,0
0:1:50.152,183.809,23.4008,0,0.000885,0,0
0:1:50.355,183.458,23.3594,0,0.000885,0,0
0:1:50.558,183.93,23.4215,0,0.000885,0,0
0:1:50.760,184.103,23.4422,0,0.000885,0,0
0:1:50.962,184.517,23.4904,0,0.000885,0,0
0:1:51.161,185.277,23.587,0,0.000885,0,0
0:1:51.363,185.277,23.587,0,0.000885,0,0
0:1:51.565,185.98,23.6766,0,0.000885,0,0
0:1:51.760,186.803,23.7869,0,0.000885,0,0
0:1:51.962,186.389,23.7318,0,0.000885,0,0
0:1:52.160,186.509,23.7455,0,0.000885,0,0
0:1:52.358,186.625,23.7593,0,0.000885,0,0
0:1:52.560,187.506,23.8765,0,0.000885,0,0
0:1:52.755,188.209,23.9662,0,0.000885,0,0
0:1:52.955,188.854,24.0489,0,0.000885,0,0
0:1:53.155,188.854,24.0489,0,0.000885,0,0
0:1:53.351,189.267,24.0972,0,0.000885,0,0
0:1:53.553,189.792,24.1661,0,0.000885,0,0
0:1:53.749,190.557,24.2627,0,0.000885,0,0
0:1:53.947,190.437,24.2489,0,0.000885,0,0
0:1:54.149,191.14,24.3385,0,0.000885,0,0
0:1:54.345,192.021,24.4488,0,0.000885,0,0
0:1:54.547,191.612,24.3937,0,0.000885,0,0
0:1:54.745,192.844,24.5522,0,0.000885,0,0
0:1:54.937,193.137,24.5936,0,0.000885,0,0
0:1:55.138,193.431,24.6281,0,0.000885,0,0
0:1:55.338,193.253,24.6074,0,0.000885,0,0
0:1:55.542,193.724,24.6625,0,0.000885,0,0
0:1:55.743,194.601,24.7798,0,0.000885,0,0
0:1:55.944,194.779,24.8004,0,0.000885,0,0
0:1:56.144,194.485,24.766,0,0.000885,0,0
0:1:56.344,195.482,24.8901,0,0.000885,0,0
0:1:56.545,195.659,24.9108,0,0.000885,0,0
0:1:56.744,196.127,24.9728,0,0.000885,0,0
0:1:56.937,196.536,25.0211,0,0.000885,0,0
0:1:57.137,196.247,24.9866,0,0.000885,0,0
0:1:57.333,197.007,25.0831,0,0.000885,0,0
0:1:57.543,197.594,25.159,0,0.000885,0,0
0:1:57.743,197.652,25.1659,0,0.000885,0,0
0:1:57.946,198.239,25.2417,0,0.000885,0,0
0:1:58.146,199.058,25.3451,0,0.000885,0,0
0:1:58.343,199.645,25.421,0,0.000885,0,0
0:1:58.537,199.529,25.4072,0,0.000885,0,0
0:1:58.738,200.232,25.4968,0,0.000885,0,0
0:1:58.944,201.522,25.6554,0,0.000885,0,0
0:1:59.142,201.171,25.614,0,0.000885,0,0
0:1:59.339,201.758,25.6899,0,0.000885,0,0
0:1:59.533,201.407,25.6416,0,0.000885,0,0
0:1:59.734,202.167,25.7381,0,0.000885,0,0
0:1:59.935,202.403,25.7726,0,0.000885,0,0
0:2:0.138,202.225,25.745,0,0.000885,0,0
0:2:0.338,203.399,25.8967,0,0.000885,0,0
0:2:0.541,203.693,25.9381,0,0.000885,0,0
0:2:0.739,203.515,25.9105,0,0.000885,0,0
0:2:0.938,204.516,26.0415,0,0.000885,0,0
0:2:1.139,204.574,26.0484,0,0.000885,0,0
0:2:1.341,205.454,26.1587,0,0.000885,0,0
0:2:1.544,204.925,26.0898,0,0.000885,0,0
0:2:1.745,205.334,26.1449,0,0.000885,0,0
0:2:1.942,205.979,26.2277,0,0.000885,0,0
0:2:2.147,206.744,26.3242,0,0.000885,0,0
0:2:2.348,207.212,26.3862,0,0.000885,0,0
0:2:2.543,207.856,26.4621,0,0.000885,0,0
0:2:2.742,208.034,26.4897,0,0.000885,0,0
0:2:2.939,208.737,26.5793,0,0.000885,0,0
0:2:3.133,209.146,26.6276,0,0.000885,0,0
0:2:3.333,208.737,26.5793,0,0.000885,0,0
0:2:3.528,209.791,26.7103,0,0.000885,0,0
0:2:3.735,209.791,26.7103,0,0.000885,0,0
0:2:3.935,210.027,26.7448,0,0.000885,0,0
0:2:4.138,210.672,26.8206,0,0.000885,0,0
0:2:4.339,210.908,26.8551,0,0.000885,0,0
0:2:4.535,211.202,26.8896,0,0.000885,0,0
0:2:4.732,212.371,27.0412,0,0.000885,0,0
0:2:4.932,211.904,26.9792,0,0.000885,0,0
0:2:5.134,212.607,27.0688,0,0.000885,0,0
0:2:5.336,212.665,27.0757,0,0.000885,0,0
0:2:5.538,213.252,27.1516,0,0.000885,0,0
0:2:5.739,213.839,27.2274,0,0.000885,0,0
0:2:5.939,215.014,27.3791,0,0.000885,0,0
0:2:6.138,214.484,27.3101,0,0.000885,0,0
0:2:6.339,214.484,27.3101,0,0.000885,0,0
0:2:6.537,214.778,27.3446,0,0.000885,0,0
0:2:6.742,215.423,27.4273,0,0.000885,0,0
0:2:6.942,215.894,27.4894,0,0.000885,0,0
0:2:7.138,216.477,27.5652,0,0.000885,0,0
0:2:7.334,216.184,27.5239,0,0.000885,0,0
0:2:7.533,216.891,27.6135,0,0.000885,0,0
0:2:7.728,217.709,27.7169,0,0.000885,0,0
0:2:7.926,217.651,27.71,0,0.000885,0,0
0:2:8.125,218.417,27.8066,0,0.000885,0,0
0:2:8.330,218.532,27.8272,0,0.000885,0,0
0:2:8.531,219.586,27.9582,0,0.000885,0,0
0:2:8.746,219.764,27.9789,0,0.000885,0,0
0:2:8.946,220.703,28.103,0,0.000885,0,0
0:2:9.144,220.583,28.0823,0,0.000885,0,0
0:2:9.337,220.934,28.1306,0,0.000885,0,0
0:2:9.537,221.348,28.1858,0,0.000885,0,0
0:2:9.731,221.699,28.2271,0,0.000885,0,0
0:2:9.930,222.287,28.303,0,0.000885,0,0
0:2:10.130,222.989,28.3926,0,0.000885,0,0
0:2:10.333,222.051,28.2754,0,0.000885,0,0
0:2:10.534,222.932,28.3857,0,0.000885,0,0
0:2:10.734,223.225,28.4202,0,0.000885,0,0
0:2:10.934,223.87,28.5029,0,0.000885,0,0
0:2:11.135,224.101,28.5305,0,0.000885,0,0
0:2:11.336,224.866,28.6339,0,0.000885,0,0
0:2:11.537,225.334,28.6891,0,0.000885,0,0
0:2:11.733,225.747,28.7442,0,0.000885,0,0
0:2:11.929,225.979,28.7718,0,0.000885,0,0
0:2:12.129,226.392,28.827,0,0.000885,0,0
0:2:12.345,226.686,28.8615,0,0.000885,0,0
0:2:12.546,227.446,28.958,0,0.000885,0,0
0:2:12.743,228.149,29.0476,0,0.000885,0,0
0:2:12.947,228.149,29.0476,0,0.000885,0,0
0:2:13.148,228.269,29.0614,0,0.000885,0,0
0:2:13.344,228.621,29.1097,0,0.000885,0,0
0:2:13.542,228.914,29.1441,0,0.000885,0,0
0:2:13.739,229.853,29.2682,0,0.000885,0,0
0:2:13.932,230.147,29.3027,0,0.000885,0,0
0:2:14.133,230.614,29.3648,0,0.000885,0,0
0:2:14.330,230.907,29.3992,0,0.000885,0,0
0:2:14.527,230.907,29.3992,0,0.000885,0,0
0:2:14.728,231.085,29.4199,0,0.000885,0,0
0:2:14.929,230.671,29.3717,0,0.000885,0,0
0:2:15.131,232.082,29.5509,0,0.000885,0,0
0:2:15.332,232.549,29.6061,0,0.000885,0,0
0:2:15.533,232.9,29.6544,0,0.000885,0,0
0:2:15.732,233.429,29.7233,0,0.000885,0,0
0:2:15.933,233.896,29.7785,0,0.000885,0,0
0:2:16.134,233.839,29.7716,0,0.000885,0,0
0:2:16.330,234.31,29.8336,0,0.000885,0,0
0:2:16.534,234.541,29.8612,0,0.000885,0,0
0:2:16.735,234.604,29.8681,0,0.000885,0,0
0:2:16.940,235.249,29.9508,0,0.000885,0,0
0:2:17.137,235.658,30.006,0,0.000885,0,0
0:2:17.337,236.539,30.1163,0,0.000885,0,0
0:2:17.532,236.77,30.1439,0,0.000885,0,0
0:2:17.733,237.241,30.2059,0,0.000885,0,0
0:2:17.939,237.419,30.2266,0,0.000885,0,0
0:2:18.147,237.829,30.2818,0,0.000885,0,0
0:2:18.348,238.354,30.3507,0,0.000885,0,0
0:2:18.540,238.941,30.4197,0,0.000885,0,0
0:2:18.739,239.061,30.4404,0,0.000885,0,0
0:2:18.938,239.528,30.4955,0,0.000885,0,0
0:2:19.133,239.879,30.5438,0,0.000885,0,0
0:2:19.335,240.818,30.661,0,0.000885,0,0
0:2:19.529,241.405,30.7368,0,0.000885,0,0
0:2:19.727,241.347,30.7299,0,0.000885,0,0
0:2:19.928,242.286,30.8471,0,0.000885,0,0
0:2:20.130,242.459,30.8678,0,0.000885,0,0
0:2:20.331,242.579,30.8885,0,0.000885,0,0
0:2:20.532,243.046,30.9437,0,0.000885,0,0
0:2:20.733,242.637,30.8954,0,0.000885,0,0
0:2:20.933,243.224,30.9712,0,0.000885,0,0
0:2:21.133,244.279,31.1023,0,0.000885,0,0
0:2:21.333,243.927,31.0609,0,0.000885,0,0
0:2:21.530,244.456,31.1229,0,0.000885,0,0
0:2:21.727,245.453,31.2539,0,0.000885,0,0
0:2:21.927,245.511,31.2608,0,0.000885,0,0
0:2:22.122,245.746,31.2884,0,0.000885,0,0
0:2:22.323,246.685,31.4056,0,0.000885,0,0
0:2:22.529,246.979,31.447,0,0.000885,0,0
0:2:22.734,247.272,31.4815,0,0.000885,0,0
0:2:22.934,247.566,31.5228,0,0.000885,0,0
0:2:23.128,247.624,31.5297,0,0.000885,0,0
0:2:23.328,247.566,31.5228,0,0.000885,0,0
0:2:23.525,248.504,31.64,0,0.000885,0,0
0:2:23.730,248.856,31.6883,0,0.000885,0,0
0:2:23.931,249.501,31.7641,0,0.000885,0,0
0:2:24.136,249.968,31.8262,0,0.000885,0,0
0:2:24.334,250.497,31.8951,0,0.000885,0,0
0:2:24.533,250.733,31.9227,0,0.000885,0,0
0:2:24.737,250.733,31.9227,0,0.000885,0,0
0:2:24.936,251.729,32.0537,0,0.000885,0,0
0:2:25.137,252.023,32.0882,0,0.000885,0,0
0:2:25.340,252.254,32.1158,0,0.000885,0,0
0:2:25.541,252.668,32.1709,0,0.000885,0,0
0:2:25.741,253.193,32.2399,0,0.000885,0,0
0:2:25.941,253.958,32.3364,0,0.000885,0,0
0:2:26.141,253.838,32.3226,0,0.000885,0,0
0:2:26.341,254.367,32.3847,0,0.000885,0,0
0:2:26.541,254.367,32.3847,0,0.000885,0,0
0:2:26.747,254.839,32.4467,0,0.000885,0,0
0:2:26.947,255.306,32.5088,0,0.000885,0,0
0:2:27.141,255.128,32.4812,0,0.000885,0,0
0:2:27.337,255.893,32.5846,0,0.000885,0,0
0:2:27.539,256.302,32.6329,0,0.000885,0,0
0:2:27.734,257.005,32.7225,0,0.000885,0,0
0:2:27.930,257.005,32.7225,0,0.000885,0,0
0:2:28.130,257.712,32.8121,0,0.000885,0,0
0:2:28.333,258.237,32.8811,0,0.000885,0,0
0:2:28.534,258.766,32.95,0,0.000885,0,0
0:2:28.730,258.882,32.9638,0,0.000885,0,0
0:2:28.935,259.176,32.9983,0,0.000885,0,0
0:2:29.135,259.647,33.0604,0,0.000885,0,0
0:2:29.331,260.35,33.15,0,0.000885,0,0
0:2:29.530,260.586,33.1776,0,0.000885,0,0
0:2:29.728,261.053,33.2396,0,0.000885,0,0
0:2:29.924,261.756,33.3293,0,0.000885,0,0
0:2:30.124,261.934,33.3499,0,0.000885,0,0
0:2:30.324,261.876,33.343,0,0.000885,0,0
0:2:30.526,262.463,33.4189,0,0.000885,0,0
0:2:30.727,262.814,33.4603,0,0.000885,0,0
0:2:30.928,262.988,33.4878,0,0.000885,0,0
0:2:31.129,263.691,33.5775,0,0.000885,0,0
0:2:31.328,264.278,33.6464,0,0.000885,0,0
0:2:31.528,264.629,33.6947,0,0.000885,0,0
0:2:31.729,264.807,33.7154,0,0.000885,0,0
0:2:31.931,265.274,33.7774,0,0.000885,0,0
0:2:32.132,265.63,33.8188,0,0.000885,0,0
0:2:32.338,265.394,33.7912,0,0.000885,0,0
0:2:32.535,265.803,33.8464,0,0.000885,0,0
0:2:32.737,266.684,33.9567,0,0.000885,0,0
0:2:32.939,266.684,33.9567,0,0.000885,0,0
0:2:33.139,267.445,34.0532,0,0.000885,0,0
0:2:33.336,268.032,34.129,0,0.000885,0,0
0:2:33.541,268.383,34.1704,0,0.000885,0,0
0:2:33.744,269.086,34.26,0,0.000885,0,0
0:2:33.938,269.442,34.3083,0,0.000885,0,0
0:2:34.136,269.909,34.3635,0,0.000885,0,0
0:2:34.334,270.145,34.3979,0,0.000885,0,0
0:2:34.530,269.851,34.3566,0,0.000885,0,0
0:2:34.729,270.439,34.4324,0,0.000885,0,0
0:2:34.930,270.963,34.5014,0,0.000885,0,0
0:2:35.133,270.79,34.4807,0,0.000885,0,0
0:2:35.334,271.729,34.5979,0,0.000885,0,0
0:2:35.535,272.08,34.6393,0,0.000885,0,0
0:2:35.734,272.609,34.7082,0,0.000885,0,0
0:2:35.933,272.489,34.6944,0,0.000885,0,0
0:2:36.134,273.134,34.7772,0,0.000885,0,0
0:2:36.334,273.663,34.8461,0,0.000885,0,0
0:2:36.536,274.718,34.9771,0,0.000885,0,0
0:2:36.736,274.073,34.8944,0,0.000885,0,0
0:2:36.934,274.602,34.9633,0,0.000885,0,0
0:2:37.130,275.714,35.1081,0,0.000885,0,0
0:2:37.331,276.128,35.1564,0,0.000885,0,0
0:2:37.545,275.95,35.1357,0,0.000885,0,0
0:2:37.742,276.595,35.2184,0,0.000885,0,0
0:2:37.941,277.004,35.2667,0,0.000885,0,0
0:2:38.135,277.476,35.3287,0,0.000885,0,0
0:2:38.336,277.827,35.377,0,0.000885,0,0
0:2:38.541,278.53,35.4666,0,0.000885,0,0
0:2:38.738,278.588,35.4735,0,0.000885,0,0
0:2:38.939,279.237,35.5563,0,0.000885,0,0
0:2:39.141,279.237,35.5563,0,0.000885,0,0
0:2:39.342,279.589,35.5976,0,0.000885,0,0
0:2:39.538,280.056,35.6597,0,0.000885,0,0
0:2:39.745,280.291,35.6873,0,0.000885,0,0
0:2:39.946,280.465,35.7079,0,0.000885,0,0
0:2:40.148,281.288,35.8114,0,0.000885,0,0
0:2:40.350,281.052,35.7838,0,0.000885,0,0
0:2:40.550,281.755,35.8734,0,0.000885,0,0
0:2:40.751,282.462,35.9631,0,0.000885,0,0
0:2:40.952,282.987,36.032,0,0.000885,0,0
0:2:41.150,283.574,36.1078,0,0.000885,0,0
0:2:41.351,283.401,36.0803,0,0.000885,0,0
0:2:41.550,283.694,36.1216,0,0.000885,0,0
0:2:41.743,284.397,36.2113,0,0.000885,0,0
0:2:41.946,284.922,36.2802,0,0.000885,0,0
0:2:42.151,285.216,36.3147,0,0.000885,0,0
0:2:42.350,285.923,36.4043,0,0.000885,0,0
0:2:42.548,285.745,36.3836,0,0.000885,0,0
0:2:42.740,286.39,36.4664,0,0.000885,0,0
0:2:42.941,286.683,36.5008,0,0.000885,0,0
0:2:43.138,286.977,36.5422,0,0.000885,0,0
0:2:43.347,287.858,36.6525,0,0.000885,0,0
0:2:43.546,288.267,36.7008,0,0.000885,0,0
0:2:43.749,288.325,36.7077,0,0.000885,0,0
0:2:43.950,288.854,36.7766,0,0.000885,0,0
0:2:44.147,288.796,36.7697,0,0.000885,0,0
0:2:44.341,289.384,36.8456,0,0.000885,0,0
0:2:44.542,290.202,36.949,0,0.000885,0,0
0:2:44.747,290.144,36.9421,0,0.000885,0,0
0:2:44.946,290.847,37.0317,0,0.000885,0,0
0:2:45.146,291.492,37.1145,0,0.000885,0,0
0:2:45.349,291.141,37.0662,0,0.000885,0,0
0:2:45.548,291.492,37.1145,0,0.000885,0,0
0:2:45.750,292.257,37.211,0,0.000885,0,0
0:2:45.951,292.84,37.2868,0,0.000885,0,0
0:2:46.150,292.84,37.2868,0,0.000885,0,0
0:2:46.350,292.96,37.3006,0,0.000885,0,0
0:2:46.551,293.956,37.4247,0,0.000885,0,0
0:2:46.747,293.898,37.4178,0,0.000885,0,0
0:2:46.943,295.011,37.5626,0,0.000885,0,0
0:2:47.141,294.837,37.542,0,0.000885,0,0
0:2:47.336,296.007,37.6867,0,0.000885,0,0
0:2:47.537,295.891,37.673,0,0.000885,0,0
0:2:47.742,296.185,37.7143,0,0.000885,0,0
0:2:47.949,296.714,37.7764,0,0.000885,0,0
0:2:48.150,297.239,37.8453,0,0.000885,0,0
0:2:48.354,297.066,37.8246,0,0.000885,0,0
0:2:48.555,297.711,37.9074,0,0.000885,0,0
0:2:48.752,297.711,37.9074,0,0.000885,0,0
0:2:48.947,298.707,38.0315,0,0.000885,0,0
0:2:49.147,298.765,38.0384,0,0.000885,0,0
0:2:49.340,298.823,38.0453,0,0.000885,0,0
0:2:49.538,299.53,38.1349,0,0.000885,0,0
0:2:49.737,299.174,38.0935,0,0.000885,0,0
0:2:49.939,300.406,38.2521,0,0.000885,0,0
0:2:50.141,300.348,38.2383,0,0.000885,0,0
0:2:50.342,301.638,38.4038,0,0.000885,0,0
0:2:50.543,301.581,38.3969,0,0.000885,0,0
0:2:50.741,302.283,38.4865,0,0.000885,0,0
0:2:50.942,301.932,38.4452,0,0.000885,0,0
0:2:51.143,303.164,38.5969,0,0.000885,0,0
0:2:51.351,302.519,38.521,0,0.000885,0,0
0:2:51.547,303.867,38.6865,0,0.000885,0,0
0:2:51.747,303.573,38.652,0,0.000885,0,0
0:2:51.952,304.574,38.7761,0,0.000885,0,0
0:2:52.150,304.926,38.8244,0,0.000885,0,0
0:2:52.348,305.041,38.8382,0,0.000885,0,0
0:2:52.540,305.393,38.8864,0,0.000885,0,0
0:2:52.741,306.158,38.983,0,0.000885,0,0
0:2:52.939,306.216,38.9899,0,0.000885,0,0
0:2:53.136,307.154,39.1071,0,0.000885,0,0
0:2:53.335,307.154,39.1071,0,0.000885,0,0
0:2:53.538,307.448,39.1484,0,0.000885,0,0
0:2:53.739,307.857,39.1967,0,0.000885,0,0
0:2:53.935,308.03,39.2174,0,0.000885,0,0
0:2:54.132,308.738,39.307,0,0.000885,0,0
0:2:54.333,308.911,39.3346,0,0.000885,0,0
0:2:54.536,309.147,39.3622,0,0.000885,0,0
0:2:54.736,309.383,39.3897,0,0.000885,0,0
0:2:54.937,309.734,39.438,0,0.000885,0,0
0:2:55.139,310.379,39.5207,0,0.000885,0,0
0:2:55.340,310.966,39.5966,0,0.000885,0,0
0:2:55.541,311.082,39.6104,0,0.000885,0,0
0:2:55.742,311.785,39.7,0,0.000885,0,0
0:2:55.942,311.843,39.7069,0,0.000885,0,0
0:2:56.142,312.314,39.7621,0,0.000885,0,0
0:2:56.343,312.43,39.7827,0,0.000885,0,0
0:2:56.539,313.253,39.8862,0,0.000885,0,0
0:2:56.748,313.546,39.9206,0,0.000885,0,0
0:2:56.948,313.898,39.9689,0,0.000885,0,0
0:2:57.152,313.898,39.9689,0,0.000885,0,0
0:2:57.353,314.191,40.0034,0,0.000885,0,0
0:2:57.548,314.721,40.0723,0,0.000885,0,0
0:2:57.743,315.13,40.1206,0,0.000885,0,0
0:2:57.942,315.481,40.1689,0,0.000885,0,0
0:2:58.138,316.126,40.2516,0,0.000885,0,0
0:2:58.337,316.184,40.2585,0,0.000885,0,0
0:2:58.535,316.478,40.293,0,0.000885,0,0
0:2:58.730,317.007,40.3619,0,0.000885,0,0
0:2:58.930,317.474,40.424,0,0.000885,0,0
0:2:59.127,317.768,40.4584,0,0.000885,0,0
0:2:59.325,317.71,40.4515,0,0.000885,0,0
0:2:59.524,318.239,40.5205,0,0.000885,0,0
0:2:59.718,318.239,40.5205,0,0.000885,0,0
0:2:59.916,318.413,40.5412,0,0.000885,0,0
0:3:0.118,318.533,40.555,0,0.000885,0,0
0:3:0.320,319.115,40.6308,0,0.000885,0,0
0:3:0.522,319.115,40.6308,0,0.000885,0,0
0:3:0.722,319,40.617,0,0.000885,0,0
0:3:0.923,319.058,40.6239,0,0.000885,0,0
0:3:1.122,318.177,40.5136,0,0.000885,0,0
0:3:1.321,318.355,40.5343,0,0.000885,0,0
0:3:1.522,317.532,40.4309,0,0.000885,0,0
0:3:1.717,316.656,40.3205,0,0.000885,0,0
0:3:1.914,316.126,40.2516,0,0.000885,0,0
0:3:2.112,313.72,39.9413,0,0.000885,0,0
0:3:2.308,311.843,39.7069,0,0.000885,0,0
0:3:2.507,306.273,38.9967,0,0.000885,0,0
0:3:2.703,301.171,38.3486,0,0.000885,0,0
0:3:2.899,287.093,36.556,0,0.000885,0,0
0:3:3.099,276.773,35.2391,0,0.000885,0,0
0:3:3.293,236.77,30.1439,0,0.000885,0,0
0:3:3.404,236.77,30.1439,0,0.000885,0,0