File: DataFile2021-07-03_081534.csv
Test ID:,Date Tested:,Time:,Test Type:,Diameter Avg. (mm):,Cyl. Corr. Factor:,Height (mm):,Age (days):,Weight (kN):,Break Type:,Ramp Rate (MPa/s):,Load at Break (kN):,Stress at Break (MPa):
12,7/3/2021,08:15,Cylinder,100,1,200,0,3.6,3,0.23,520.58,66.28
Sample Time,Load (kN),Stress (MPa),Long. Strain,Trans. Strain,Chan1 Deflection (mm),Chan2 Deflection (mm)
0:0:18.203,5.63145,0.717055,0,0.000885,0,0
0:0:18.498,6.04068,0.772213,0,0.000885,0,0
0:0:18.799,6.86361,0.875634,0,0.000885,0,0
0:0:19.099,9.32347,1.1859,0,0.000885,0,0
0:0:19.394,9.55923,1.22037,0,0.000885,0,0
0:0:19.695,9.55923,1.22037,0,0.000885,0,0
0:0:19.991,9.61706,1.22727,0,0.000885,0,0
0:0:20.289,9.91064,1.26174,0,0.000885,0,0
0:0:20.589,10.8492,1.37895,0,0.000885,0,0
0:0:20.885,10.3821,1.32379,0,0.000885,0,0
0:0:21.185,11.085,1.41343,0,0.000885,0,0
0:0:21.479,11.2629,1.43411,0,0.000885,0,0
0:0:21.782,11.9657,1.52374,0,0.000885,0,0
0:0:22.078,12.9621,1.64785,0,0.000885,0,0
0:0:22.374,13.4915,1.71679,0,0.000885,0,0
0:0:22.675,13.785,1.75816,0,0.000885,0,0
0:0:22.970,13.6649,1.73748,0,0.000885,0,0
0:0:23.272,14.6035,1.86158,0,0.000885,0,0
0:0:23.566,15.5999,1.98569,0,0.000885,0,0
0:0:23.868,15.8935,2.02706,0,0.000885,0,0
0:0:24.173,16.4228,2.08911,0,0.000885,0,0
0:0:24.477,16.7742,2.13737,0,0.000885,0,0
0:0:24.781,17.8863,2.27527,0,0.000885,0,0
0:0:25.084,18.4735,2.35111,0,0.000885,0,0
0:0:25.385,18.8249,2.39938,0,0.000885,0,0
0:0:25.685,20.057,2.55106,0,0.000885,0,0
0:0:25.982,20.4707,2.60622,0,0.000885,0,0
0:0:26.284,21.0534,2.68206,0,0.000885,0,0
0:0:26.577,21.8764,2.78548,0,0.000885,0,0
0:0:26.877,22.2278,2.82685,0,0.000885,0,0
0:0:27.177,22.9306,2.91648,0,0.000885,0,0
0:0:27.472,24.0471,3.06127,0,0.000885,0,0
0:0:27.774,24.3985,3.10954,0,0.000885,0,0
0:0:28.071,24.9278,3.17159,0,0.000885,0,0
0:0:28.372,25.5728,3.25433,0,0.000885,0,0
0:0:28.669,25.6307,3.26122,0,0.000885,0,0
0:0:28.973,26.6849,3.39912,0,0.000885,0,0
0:0:29.277,27.0363,3.44048,0,0.000885,0,0
0:0:29.581,27.272,3.47496,0,0.000885,0,0
0:0:29.884,28.1528,3.58527,0,0.000885,0,0
0:0:30.186,28.7978,3.66801,0,0.000885,0,0
0:0:30.486,29.207,3.71627,0,0.000885,0,0
0:0:30.786,29.7364,3.78522,0,0.000885,0,0
0:0:31.082,30.0878,3.83349,0,0.000885,0,0
0:0:31.384,30.9107,3.93691,0,0.000885,0,0
0:0:31.679,31.9071,4.06101,0,0.000885,0,0
0:0:31.979,32.6099,4.15064,0,0.000885,0,0
0:0:32.277,33.077,4.2127,0,0.000885,0,0
0:0:32.575,33.3127,4.24028,0,0.000885,0,0
0:0:32.877,33.9577,4.32301,0,0.000885,0,0
0:0:33.171,34.8385,4.43333,0,0.000885,0,0
0:0:33.475,35.777,4.55743,0,0.000885,0,0
0:0:33.778,35.8927,4.57122,0,0.000885,0,0
0:0:34.084,36.2441,4.61259,0,0.000885,0,0
0:0:34.386,36.9514,4.70222,0,0.000885,0,0
0:0:34.689,37.8277,4.81944,0,0.000885,0,0
0:0:34.992,38.2414,4.8677,0,0.000885,0,0
0:0:35.291,38.5928,4.91596,0,0.000885,0,0
0:0:35.589,39.3534,5.01249,0,0.000885,0,0
0:0:35.891,39.8249,5.06765,0,0.000885,0,0
0:0:36.186,40.4699,5.15038,0,0.000885,0,0
0:0:36.488,41.1149,5.23312,0,0.000885,0,0
0:0:36.786,41.7599,5.31586,0,0.000885,0,0
0:0:37.084,42.4627,5.40549,0,0.000885,0,0
0:0:37.385,43.0499,5.48133,0,0.000885,0,0
0:0:37.682,43.4013,5.5227,0,0.000885,0,0
0:0:37.983,44.2242,5.63302,0,0.000885,0,0
0:0:38.279,44.5756,5.67439,0,0.000885,0,0
0:0:38.583,45.1005,5.74333,0,0.000885,0,0
0:0:38.887,45.6877,5.81918,0,0.000885,0,0
0:0:39.191,46.4528,5.9157,0,0.000885,0,0
0:0:39.494,46.9198,5.97086,0,0.000885,0,0
0:0:39.797,47.7428,6.08118,0,0.000885,0,0
0:0:40.097,48.3299,6.15012,0,0.000885,0,0
0:0:40.396,48.5612,6.1846,0,0.000885,0,0
0:0:40.693,49.3263,6.28112,0,0.000885,0,0
0:0:40.995,49.5576,6.3087,0,0.000885,0,0
0:0:41.290,50.4962,6.43281,0,0.000885,0,0
0:0:41.589,51.0834,6.50176,0,0.000885,0,0
0:0:41.889,51.4348,6.55002,0,0.000885,0,0
0:0:42.186,52.3734,6.66723,0,0.000885,0,0
0:0:42.486,52.8449,6.72928,0,0.000885,0,0
0:0:42.783,53.1963,6.77065,0,0.000885,0,0
0:0:43.084,54.077,6.88786,0,0.000885,0,0
0:0:43.379,54.6642,6.95681,0,0.000885,0,0
0:0:43.684,54.9533,6.99818,0,0.000885,0,0
0:0:43.988,55.7184,7.09471,0,0.000885,0,0
0:0:44.293,56.7148,7.21881,0,0.000885,0,0
0:0:44.595,57.1241,7.27397,0,0.000885,0,0
0:0:44.897,57.6534,7.34292,0,0.000885,0,0
0:0:45.198,58.2984,7.42565,0,0.000885,0,0
0:0:45.497,59.0012,7.51529,0,0.000885,0,0
0:0:45.792,59.3526,7.55665,0,0.000885,0,0
0:0:46.093,59.9976,7.63939,0,0.000885,0,0
0:0:46.389,60.1755,7.66008,0,0.000885,0,0
0:0:46.690,61.2298,7.79797,0,0.000885,0,0
0:0:46.987,61.8169,7.87381,0,0.000885,0,0
0:0:47.286,62.2262,7.92208,0,0.000885,0,0
0:0:47.586,62.9913,8.0186,0,0.000885,0,0
0:0:47.879,63.1069,8.03239,0,0.000885,0,0
0:0:48.184,64.1033,8.16339,0,0.000885,0,0
0:0:48.479,65.0419,8.2806,0,0.000885,0,0
0:0:48.783,65.3355,8.32197,0,0.000885,0,0
0:0:49.088,65.807,8.37713,0,0.000885,0,0
0:0:49.392,66.452,8.45987,0,0.000885,0,0
0:0:49.695,66.8034,8.50813,0,0.000885,0,0
0:0:49.998,67.4484,8.59087,0,0.000885,0,0
0:0:50.299,67.9154,8.64603,0,0.000885,0,0
0:0:50.596,68.854,8.77013,0,0.000885,0,0
0:0:50.894,69.2054,8.8115,0,0.000885,0,0
0:0:51.195,69.9127,8.90113,0,0.000885,0,0
0:0:51.491,70.4376,8.97008,0,0.000885,0,0
0:0:51.795,71.0248,9.04592,0,0.000885,0,0
0:0:52.090,71.9633,9.16313,0,0.000885,0,0
0:0:52.392,72.0834,9.17692,0,0.000885,0,0
0:0:52.689,72.8441,9.27345,0,0.000885,0,0
0:0:52.986,73.4312,9.34929,0,0.000885,0,0
0:0:53.287,74.0762,9.43203,0,0.000885,0,0
0:0:53.583,74.957,9.54234,0,0.000885,0,0
0:0:53.887,75.1883,9.57682,0,0.000885,0,0
0:0:54.191,75.7755,9.64577,0,0.000885,0,0
0:0:54.496,76.5405,9.74229,0,0.000885,0,0
0:0:54.798,77.0076,9.80434,0,0.000885,0,0
0:0:55.101,77.4791,9.8664,0,0.000885,0,0
0:0:55.402,77.9462,9.92156,0,0.000885,0,0
0:0:55.699,78.4755,9.9905,0,0.000885,0,0
0:0:55.999,79.0627,10.0663,0,0.000885,0,0
0:0:56.298,79.5876,10.1353,0,0.000885,0,0
0:0:56.594,80.6463,10.2663,0,0.000885,0,0
0:0:56.896,80.8776,10.3008,0,0.000885,0,0
0:0:57.191,81.4069,10.3628,0,0.000885,0,0
0:0:57.493,82.5812,10.5145,0,0.000885,0,0
0:0:57.790,83.2262,10.5972,0,0.000885,0,0
0:0:58.089,83.2841,10.6041,0,0.000885,0,0
0:0:58.388,84.2805,10.7282,0,0.000885,0,0
0:0:58.691,84.6897,10.7834,0,0.000885,0,0
0:0:58.996,85.5126,10.8868,0,0.000885,0,0
0:0:59.299,85.9797,10.9489,0,0.000885,0,0
0:0:59.601,86.4512,11.004,0,0.000885,0,0
0:0:59.905,87.2741,11.1143,0,0.000885,0,0
0:1:0.202,88.0348,11.2109,0,0.000885,0,0
0:1:0.504,88.3862,11.2522,0,0.000885,0,0
0:1:0.800,88.9155,11.3212,0,0.000885,0,0
0:1:1.101,89.5027,11.397,0,0.000885,0,0
0:1:1.399,90.2633,11.4936,0,0.000885,0,0
0:1:1.696,90.379,11.5073,0,0.000885,0,0
0:1:1.996,91.2019,11.6108,0,0.000885,0,0
0:1:2.293,91.4376,11.6452,0,0.000885,0,0
0:1:2.595,91.9047,11.7004,0,0.000885,0,0
0:1:2.890,92.6075,11.79,0,0.000885,0,0
0:1:3.192,93.6662,11.9279,0,0.000885,0,0
0:1:3.488,94.1333,11.9831,0,0.000885,0,0
0:1:3.792,94.7783,12.0658,0,0.000885,0,0
0:1:4.096,95.659,12.183,0,0.000885,0,0
0:1:4.401,96.1261,12.2382,0,0.000885,0,0
0:1:4.702,96.7132,12.314,0,0.000885,0,0
0:1:5.006,97.2426,12.383,0,0.000885,0,0
0:1:5.304,97.4783,12.4106,0,0.000885,0,0
0:1:5.604,97.8297,12.4588,0,0.000885,0,0
0:1:5.900,99.0041,12.6036,0,0.000885,0,0
0:1:6.202,99.4133,12.6588,0,0.000885,0,0
0:1:6.498,100.41,12.7829,0,0.000885,0,0
0:1:6.798,100.761,12.8311,0,0.000885,0,0
0:1:7.096,101.17,12.8794,0,0.000885,0,0
0:1:7.394,101.522,12.9277,0,0.000885,0,0
0:1:7.696,102.051,12.9966,0,0.000885,0,0
0:1:7.989,102.58,13.0587,0,0.000885,0,0
0:1:8.292,103.225,13.1414,0,0.000885,0,0
0:1:8.589,104.044,13.2448,0,0.000885,0,0
0:1:8.892,104.515,13.3069,0,0.000885,0,0
0:1:9.196,104.925,13.362,0,0.000885,0,0
0:1:9.498,105.921,13.4861,0,0.000885,0,0
0:1:9.799,106.215,13.5206,0,0.000885,0,0
0:1:10.104,106.98,13.624,0,0.000885,0,0
0:1:10.403,107.505,13.6861,0,0.000885,0,0
0:1:10.703,108.328,13.7895,0,0.000885,0,0
0:1:11.000,108.679,13.8378,0,0.000885,0,0
0:1:11.301,109.502,13.9412,0,0.000885,0,0
0:1:11.597,110.378,14.0515,0,0.000885,0,0
0:1:11.898,111.023,14.1343,0,0.000885,0,0
0:1:12.194,111.143,14.148,0,0.000885,0,0
0:1:12.492,111.143,14.148,0,0.000885,0,0
0:1:12.794,112.549,14.3273,0,0.000885,0,0
0:1:13.089,112.842,14.3687,0,0.000885,0,0
0:1:13.392,113.608,14.4652,0,0.000885,0,0
0:1:13.695,114.426,14.5686,0,0.000885,0,0
0:1:13.999,114.604,14.5893,0,0.000885,0,0
0:1:14.303,115.543,14.7134,0,0.000885,0,0
0:1:14.603,115.716,14.7341,0,0.000885,0,0
0:1:14.907,116.303,14.8099,0,0.000885,0,0
0:1:15.203,116.948,14.8927,0,0.000885,0,0
0:1:15.505,117.945,15.0168,0,0.000885,0,0
0:1:15.802,118.652,15.1064,0,0.000885,0,0
0:1:16.101,119.061,15.1616,0,0.000885,0,0
0:1:16.399,119.003,15.1547,0,0.000885,0,0
0:1:16.694,119.88,15.265,0,0.000885,0,0
0:1:16.996,120.293,15.3133,0,0.000885,0,0
0:1:17.293,121.232,15.4374,0,0.000885,0,0
0:1:17.592,121.463,15.4649,0,0.000885,0,0
0:1:17.891,122.344,15.5753,0,0.000885,0,0
0:1:18.190,122.931,15.6511,0,0.000885,0,0
0:1:18.489,122.989,15.658,0,0.000885,0,0
0:1:18.795,123.812,15.7614,0,0.000885,0,0
0:1:19.098,124.572,15.8579,0,0.000885,0,0
0:1:19.402,125.102,15.9269,0,0.000885,0,0
0:1:19.704,126.156,16.0648,0,0.000885,0,0
0:1:20.008,126.214,16.0717,0,0.000885,0,0
0:1:20.304,127.273,16.2027,0,0.000885,0,0
0:1:20.605,127.624,16.2509,0,0.000885,0,0
0:1:20.902,128.678,16.3819,0,0.000885,0,0
0:1:21.202,128.798,16.3957,0,0.000885,0,0
0:1:21.499,129.501,16.4854,0,0.000885,0,0
0:1:21.795,129.968,16.5474,0,0.000885,0,0
0:1:22.097,130.382,16.6026,0,0.000885,0,0
0:1:22.392,131.085,16.6922,0,0.000885,0,0
0:1:22.694,131.672,16.768,0,0.000885,0,0
0:1:22.992,132.259,16.837,0,0.000885,0,0
0:1:23.291,132.962,16.9266,0,0.000885,0,0
0:1:23.590,133.255,16.968,0,0.000885,0,0
0:1:23.894,134.367,17.1059,0,0.000885,0,0
0:1:24.199,134.839,17.1679,0,0.000885,0,0
0:1:24.503,135.542,17.2576,0,0.000885,0,0
0:1:24.805,135.715,17.2783,0,0.000885,0,0
0:1:25.108,136.302,17.3541,0,0.000885,0,0
0:1:25.405,136.947,17.4368,0,0.000885,0,0
0:1:25.707,137.655,17.5265,0,0.000885,0,0
0:1:26.000,137.712,17.5334,0,0.000885,0,0
0:1:26.303,138.767,17.6713,0,0.000885,0,0
0:1:26.602,139.412,17.7471,0,0.000885,0,0
0:1:26.900,139.941,17.8161,0,0.000885,0,0
0:1:27.199,141.053,17.9608,0,0.000885,0,0
0:1:27.495,141.405,18.0022,0,0.000885,0,0
0:1:27.797,142.05,18.0849,0,0.000885,0,0
0:1:28.092,142.285,18.1194,0,0.000885,0,0
0:1:28.393,143.05,18.2159,0,0.000885,0,0
0:1:28.692,143.869,18.3194,0,0.000885,0,0
0:1:28.994,144.278,18.3676,0,0.000885,0,0
0:1:29.300,145.337,18.5055,0,0.000885,0,0
0:1:29.602,145.51,18.5262,0,0.000885,0,0
0:1:29.905,145.982,18.5883,0,0.000885,0,0
0:1:30.208,146.627,18.671,0,0.000885,0,0
0:1:30.507,146.685,18.6779,0,0.000885,0,0
0:1:30.806,147.739,18.8089,0,0.000885,0,0
0:1:31.103,148.268,18.8778,0,0.000885,0,0
0:1:31.405,148.562,18.9123,0,0.000885,0,0
0:1:31.701,148.971,18.9675,0,0.000885,0,0
0:1:32.002,149.91,19.0847,0,0.000885,0,0
0:1:32.299,150.848,19.2088,0,0.000885,0,0
0:1:32.596,150.848,19.2088,0,0.000885,0,0
0:1:32.898,151.907,19.3398,0,0.000885,0,0
0:1:33.193,152.61,19.4294,0,0.000885,0,0
0:1:33.495,153.49,19.5397,0,0.000885,0,0
0:1:33.801,153.9,19.5949,0,0.000885,0,0
0:1:34.105,154.251,19.6432,0,0.000885,0,0
0:1:34.407,154.309,19.6501,0,0.000885,0,0
0:1:34.709,155.132,19.7535,0,0.000885,0,0
0:1:35.013,155.305,19.7742,0,0.000885,0,0
0:1:35.308,156.422,19.919,0,0.000885,0,0
0:1:35.607,156.715,19.9534,0,0.000885,0,0
0:1:35.906,157.596,20.0637,0,0.000885,0,0
0:1:36.204,158.415,20.1672,0,0.000885,0,0
0:1:36.505,159.06,20.2499,0,0.000885,0,0
0:1:36.800,159.531,20.312,0,0.000885,0,0
0:1:37.102,159.998,20.374,0,0.000885,0,0
0:1:37.397,160.701,20.4636,0,0.000885,0,0
0:1:37.696,161.288,20.5326,0,0.000885,0,0
0:1:37.994,161.817,20.6015,0,0.000885,0,0
0:1:38.292,162.698,20.7119,0,0.000885,0,0
0:1:38.594,163.165,20.7739,0,0.000885,0,0
0:1:38.898,164.046,20.8842,0,0.000885,0,0
0:1:39.203,164.455,20.9394,0,0.000885,0,0
0:1:39.506,165.22,21.0359,0,0.000885,0,0
0:1:39.808,165.394,21.0566,0,0.000885,0,0
0:1:40.110,166.217,21.16,0,0.000885,0,0
0:1:40.407,166.275,21.1738,0,0.000885,0,0
0:1:40.708,167.155,21.2841,0,0.000885,0,0
0:1:41.004,167.449,21.3186,0,0.000885,0,0
0:1:41.305,167.68,21.3531,0,0.000885,0,0
0:1:41.604,169.032,21.5185,0,0.000885,0,0
0:1:41.901,169.499,21.5806,0,0.000885,0,0
0:1:42.202,169.971,21.6426,0,0.000885,0,0
0:1:42.498,170.38,21.6909,0,0.000885,0,0
0:1:42.798,171.261,21.8081,0,0.000885,0,0
0:1:43.097,171.786,21.8702,0,0.000885,0,0
0:1:43.395,172.137,21.9184,0,0.000885,0,0
0:1:43.696,172.96,22.0219,0,0.000885,0,0
0:1:44.000,173.312,22.0701,0,0.000885,0,0
0:1:44.304,174.366,22.2011,0,0.000885,0,0
0:1:44.606,174.78,22.2563,0,0.000885,0,0
0:1:44.909,176.012,22.408,0,0.000885,0,0
0:1:45.212,176.07,22.4149,0,0.000885,0,0
0:1:45.509,176.185,22.4355,0,0.000885,0,0
0:1:45.810,176.714,22.4976,0,0.000885,0,0
0:1:46.105,177.475,22.5941,0,0.000885,0,0
0:1:46.404,177.889,22.6493,0,0.000885,0,0
0:1:46.704,179.53,22.8561,0,0.000885,0,0
0:1:47.001,179.824,22.8975,0,0.000885,0,0
0:1:47.303,180.349,22.9595,0,0.000885,0,0
0:1:47.598,180.82,23.0216,0,0.000885,0,0
0:1:47.901,181.172,23.0699,0,0.000885,0,0
0:1:48.196,181.932,23.1664,0,0.000885,0,0
0:1:48.499,182.64,23.256,0,0.000885,0,0
0:1:48.805,183.285,23.3388,0,0.000885,0,0
0:1:49.108,183.342,23.3456,0,0.000885,0,0
0:1:49.412,183.867,23.4077,0,0.000885,0,0
0:1:49.714,185.162,23.5732,0,0.000885,0,0
0:1:50.015,185.629,23.6352,0,0.000885,0,0
0:1:50.313,186.038,23.6904,0,0.000885,0,0
0:1:50.610,186.274,23.718,0,0.000885,0,0
0:1:50.913,187.27,23.8421,0,0.000885,0,0
0:1:51.207,187.448,23.8696,0,0.000885,0,0
0:1:51.508,187.915,23.9248,0,0.000885,0,0
0:1:51.805,189.089,24.0765,0,0.000885,0,0
0:1:52.105,189.325,24.1041,0,0.000885,0,0
0:1:52.404,189.912,24.1799,0,0.000885,0,0
0:1:52.701,190.967,24.3178,0,0.000885,0,0
0:1:53.003,191.082,24.3316,0,0.000885,0,0
0:1:53.299,192.021,24.4488,0,0.000885,0,0
0:1:53.601,192.55,24.5178,0,0.000885,0,0
0:1:53.905,193.253,24.6074,0,0.000885,0,0
0:1:54.207,193.898,24.6901,0,0.000885,0,0
0:1:54.508,194.427,24.7522,0,0.000885,0,0
0:1:54.809,194.894,24.8142,0,0.000885,0,0
0:1:55.108,195.246,24.8625,0,0.000885,0,0
0:1:55.404,195.891,24.9452,0,0.000885,0,0
0:1:55.700,196.536,25.0211,0,0.000885,0,0
0:1:55.998,197.181,25.1038,0,0.000885,0,0
0:1:56.293,197.71,25.1728,0,0.000885,0,0
0:1:56.591,198.119,25.2279,0,0.000885,0,0
0:1:56.885,199,25.3382,0,0.000885,0,0
0:1:57.184,199.414,25.3865,0,0.000885,0,0
0:1:57.479,199.939,25.4554,0,0.000885,0,0
0:1:57.773,200.584,25.5382,0,0.000885,0,0
0:1:58.074,201.407,25.6416,0,0.000885,0,0
0:1:58.367,201.758,25.6899,0,0.000885,0,0
0:1:58.669,202.167,25.7381,0,0.000885,0,0
0:1:58.972,202.697,25.8071,0,0.000885,0,0
0:1:59.274,203.399,25.8967,0,0.000885,0,0
0:1:59.575,204.044,25.9794,0,0.000885,0,0
0:1:59.876,205.099,26.1173,0,0.000885,0,0
0:2:0.174,205.864,26.2139,0,0.000885,0,0
0:2:0.471,206.567,26.3035,0,0.000885,0,0
0:2:0.766,206.393,26.2759,0,0.000885,0,0
0:2:1.065,206.918,26.3449,0,0.000885,0,0
0:2:1.360,207.799,26.4552,0,0.000885,0,0
0:2:1.660,208.386,26.531,0,0.000885,0,0
0:2:1.954,209.031,26.6138,0,0.000885,0,0
0:2:2.251,209.382,26.662,0,0.000885,0,0
0:2:2.549,210.143,26.7586,0,0.000885,0,0
0:2:2.852,210.672,26.8206,0,0.000885,0,0
0:2:3.152,211.259,26.8964,0,0.000885,0,0
0:2:3.443,211.789,26.9654,0,0.000885,0,0
0:2:3.744,212.314,27.0343,0,0.000885,0,0
0:2:4.050,212.959,27.1171,0,0.000885,0,0
0:2:4.349,213.604,27.1998,0,0.000885,0,0
0:2:4.651,213.955,27.2412,0,0.000885,0,0
0:2:4.952,214.484,27.3101,0,0.000885,0,0
0:2:5.250,215.014,27.3791,0,0.000885,0,0
0:2:5.547,215.894,27.4894,0,0.000885,0,0
0:2:5.841,216.304,27.5377,0,0.000885,0,0
0:2:6.139,217.3,27.6687,0,0.000885,0,0
0:2:6.431,217.767,27.7238,0,0.000885,0,0
0:2:6.732,218.239,27.7859,0,0.000885,0,0
0:2:7.037,218.999,27.8824,0,0.000885,0,0
0:2:7.341,219.413,27.9376,0,0.000885,0,0
0:2:7.639,220.116,28.0272,0,0.000885,0,0
0:2:7.934,220.761,28.1099,0,0.000885,0,0
0:2:8.234,220.761,28.1099,0,0.000885,0,0
0:2:8.527,221.464,28.1996,0,0.000885,0,0
0:2:8.827,222.229,28.2961,0,0.000885,0,0
0:2:9.130,222.811,28.3719,0,0.000885,0,0
0:2:9.431,223.341,28.434,0,0.000885,0,0
0:2:9.733,224.222,28.5512,0,0.000885,0,0
0:2:10.032,224.866,28.6339,0,0.000885,0,0
0:2:10.333,225.396,28.696,0,0.000885,0,0
0:2:10.629,226.099,28.7856,0,0.000885,0,0
0:2:10.924,226.508,28.8408,0,0.000885,0,0
0:2:11.225,227.095,28.9166,0,0.000885,0,0
0:2:11.517,227.798,29.0062,0,0.000885,0,0
0:2:11.816,228.736,29.1235,0,0.000885,0,0
0:2:12.112,228.794,29.1303,0,0.000885,0,0
0:2:12.407,229.733,29.2476,0,0.000885,0,0
0:2:12.706,230.147,29.3027,0,0.000885,0,0
0:2:13.001,230.671,29.3717,0,0.000885,0,0
0:2:13.300,230.907,29.3992,0,0.000885,0,0
0:2:13.603,231.668,29.4958,0,0.000885,0,0
0:2:13.905,231.788,29.5096,0,0.000885,0,0
0:2:14.207,232.958,29.6612,0,0.000885,0,0
0:2:14.507,233.545,29.7371,0,0.000885,0,0
0:2:14.806,234.31,29.8336,0,0.000885,0,0
0:2:15.099,234.661,29.875,0,0.000885,0,0
0:2:15.398,235.542,29.9922,0,0.000885,0,0
0:2:15.695,236.187,30.0749,0,0.000885,0,0
0:2:15.989,236.361,30.0956,0,0.000885,0,0
0:2:16.288,237.126,30.1921,0,0.000885,0,0
0:2:16.579,237.357,30.2197,0,0.000885,0,0
0:2:16.879,238.122,30.3162,0,0.000885,0,0
0:2:17.175,238.883,30.4128,0,0.000885,0,0
0:2:17.471,239.292,30.4679,0,0.000885,0,0
0:2:17.770,240.057,30.5645,0,0.000885,0,0
0:2:18.062,240.409,30.6127,0,0.000885,0,0
0:2:18.362,240.466,30.6196,0,0.000885,0,0
0:2:18.666,241.405,30.7368,0,0.000885,0,0
0:2:18.967,242.344,30.854,0,0.000885,0,0
0:2:19.268,242.459,30.8678,0,0.000885,0,0
0:2:19.568,243.046,30.9437,0,0.000885,0,0
0:2:19.870,243.811,31.0402,0,0.000885,0,0
0:2:20.163,244.63,31.1505,0,0.000885,0,0
0:2:20.463,245.569,31.2677,0,0.000885,0,0
0:2:20.758,245.804,31.2953,0,0.000885,0,0
0:2:21.052,246.627,31.3987,0,0.000885,0,0
0:2:21.349,246.627,31.3987,0,0.000885,0,0
0:2:21.643,247.503,31.5159,0,0.000885,0,0
0:2:21.942,248.326,31.6194,0,0.000885,0,0
0:2:22.256,248.856,31.6883,0,0.000885,0,0
0:2:22.553,249.149,31.7228,0,0.000885,0,0
0:2:22.850,249.674,31.7917,0,0.000885,0,0
0:2:23.143,250.555,31.902,0,0.000885,0,0
0:2:23.442,251.316,31.9986,0,0.000885,0,0
0:2:23.745,252.081,32.0951,0,0.000885,0,0
0:2:24.046,252.726,32.1778,0,0.000885,0,0
0:2:24.349,253.077,32.2261,0,0.000885,0,0
0:2:24.650,253.486,32.2744,0,0.000885,0,0
0:2:24.950,253.606,32.2881,0,0.000885,0,0
0:2:25.253,254.309,32.3778,0,0.000885,0,0
0:2:25.553,255.07,32.4743,0,0.000885,0,0
0:2:25.857,256.066,32.6053,0,0.000885,0,0
0:2:26.154,256.596,32.6674,0,0.000885,0,0
0:2:26.451,256.947,32.7156,0,0.000885,0,0
0:2:26.754,257.476,32.7846,0,0.000885,0,0
0:2:27.055,258.064,32.8604,0,0.000885,0,0
0:2:27.356,258.415,32.9018,0,0.000885,0,0
0:2:27.655,259.233,33.0052,0,0.000885,0,0
0:2:27.950,259.589,33.0535,0,0.000885,0,0
0:2:28.256,260.292,33.1431,0,0.000885,0,0
0:2:28.554,260.937,33.2258,0,0.000885,0,0
0:2:28.857,261.462,33.2879,0,0.000885,0,0
0:2:29.159,262.107,33.3706,0,0.000885,0,0
0:2:29.459,262.694,33.4465,0,0.000885,0,0
0:2:29.760,263.753,33.5844,0,0.000885,0,0
0:2:30.062,264.162,33.6326,0,0.000885,0,0
0:2:30.356,264.691,33.7016,0,0.000885,0,0
0:2:30.656,265.568,33.8119,0,0.000885,0,0
0:2:30.958,265.981,33.867,0,0.000885,0,0
0:2:31.257,266.858,33.9774,0,0.000885,0,0
0:2:31.553,267.271,34.0325,0,0.000885,0,0
0:2:31.845,267.445,34.0532,0,0.000885,0,0
0:2:32.144,268.032,34.129,0,0.000885,0,0
0:2:32.457,268.21,34.1497,0,0.000885,0,0
0:2:32.757,269.264,34.2807,0,0.000885,0,0
0:2:33.048,269.736,34.3428,0,0.000885,0,0
0:2:33.352,270.612,34.4531,0,0.000885,0,0
0:2:33.654,271.199,34.5289,0,0.000885,0,0
0:2:33.957,271.964,34.6255,0,0.000885,0,0
0:2:34.257,272.667,34.7151,0,0.000885,0,0
0:2:34.558,273.018,34.7634,0,0.000885,0,0
0:2:34.857,273.37,34.8047,0,0.000885,0,0
0:2:35.152,273.899,34.8737,0,0.000885,0,0
0:2:35.458,274.896,34.9978,0,0.000885,0,0
0:2:35.756,275.189,35.0392,0,0.000885,0,0
0:2:36.058,275.656,35.1012,0,0.000885,0,0
0:2:36.359,276.359,35.1839,0,0.000885,0,0
0:2:36.652,277.004,35.2667,0,0.000885,0,0
0:2:36.951,277.711,35.3563,0,0.000885,0,0
0:2:37.257,277.943,35.3908,0,0.000885,0,0
0:2:37.552,278.588,35.4735,0,0.000885,0,0
0:2:37.851,279.411,35.5769,0,0.000885,0,0
0:2:38.153,280.407,35.7011,0,0.000885,0,0
0:2:38.455,280.465,35.7079,0,0.000885,0,0
0:2:38.756,280.821,35.7562,0,0.000885,0,0
0:2:39.058,281.466,35.8389,0,0.000885,0,0
0:2:39.358,282.342,35.9493,0,0.000885,0,0
0:2:39.657,282.987,36.032,0,0.000885,0,0
0:2:39.959,283.223,36.0596,0,0.000885,0,0
0:2:40.252,284.277,36.1975,0,0.000885,0,0
0:2:40.558,284.864,36.2733,0,0.000885,0,0
0:2:40.857,285.923,36.4043,0,0.000885,0,0
0:2:41.159,285.451,36.3423,0,0.000885,0,0
0:2:41.458,285.981,36.4112,0,0.000885,0,0
0:2:41.752,286.626,36.494,0,0.000885,0,0
0:2:42.052,287.328,36.5836,0,0.000885,0,0
0:2:42.356,288.267,36.7008,0,0.000885,0,0
0:2:42.649,288.912,36.7835,0,0.000885,0,0
0:2:42.948,289.321,36.8387,0,0.000885,0,0
0:2:43.240,289.735,36.887,0,0.000885,0,0
0:2:43.540,290.028,36.9283,0,0.000885,0,0
0:2:43.844,291.376,37.1007,0,0.000885,0,0
0:2:44.145,292.257,37.211,0,0.000885,0,0
0:2:44.447,292.724,37.2731,0,0.000885,0,0
0:2:44.747,293.018,37.3075,0,0.000885,0,0
0:2:45.047,293.311,37.3489,0,0.000885,0,0
0:2:45.342,294.072,37.4454,0,0.000885,0,0
0:2:45.640,294.779,37.5351,0,0.000885,0,0
0:2:45.943,295.482,37.6247,0,0.000885,0,0
0:2:46.242,295.54,37.6316,0,0.000885,0,0
0:2:46.539,296.363,37.735,0,0.000885,0,0
0:2:46.832,297.066,37.8246,0,0.000885,0,0
0:2:47.131,297.475,37.8729,0,0.000885,0,0
0:2:47.425,298.178,37.9625,0,0.000885,0,0
0:2:47.724,299.236,38.1004,0,0.000885,0,0
0:2:48.019,299.761,38.1694,0,0.000885,0,0
0:2:48.319,300.175,38.2176,0,0.000885,0,0
0:2:48.621,300.055,38.2039,0,0.000885,0,0
0:2:48.923,300.878,38.3073,0,0.000885,0,0
0:2:49.222,301.407,38.3762,0,0.000885,0,0
0:2:49.523,302.697,38.5417,0,0.000885,0,0
0:2:49.822,302.928,38.5693,0,0.000885,0,0
0:2:50.119,303.4,38.6313,0,0.000885,0,0
0:2:50.414,303.693,38.6658,0,0.000885,0,0
0:2:50.713,304.69,38.7968,0,0.000885,0,0
0:2:51.007,305.45,38.8933,0,0.000885,0,0
0:2:51.305,305.393,38.8864,0,0.000885,0,0
0:2:51.600,306.038,38.9692,0,0.000885,0,0
0:2:51.896,306.625,39.0381,0,0.000885,0,0
0:2:52.195,307.328,39.1277,0,0.000885,0,0
0:2:52.489,308.324,39.2587,0,0.000885,0,0
0:2:52.789,308.911,39.3346,0,0.000885,0,0
0:2:53.079,308.911,39.3346,0,0.000885,0,0
0:2:53.380,309.205,39.3691,0,0.000885,0,0
0:2:53.685,309.792,39.4449,0,0.000885,0,0
0:2:53.988,311.082,39.6104,0,0.000885,0,0
0:2:54.286,311.433,39.6517,0,0.000885,0,0
0:2:54.587,311.963,39.7207,0,0.000885,0,0
0:2:54.887,312.843,39.831,0,0.000885,0,0
0:2:55.180,313.31,39.8931,0,0.000885,0,0
0:2:55.479,314.658,40.0654,0,0.000885,0,0
0:2:55.775,315.366,40.1551,0,0.000885,0,0
0:2:56.068,315.717,40.1964,0,0.000885,0,0
0:2:56.368,315.89,40.2171,0,0.000885,0,0
0:2:56.662,316.068,40.2447,0,0.000885,0,0
0:2:56.961,317.243,40.3895,0,0.000885,0,0
0:2:57.257,317.825,40.4653,0,0.000885,0,0
0:2:57.553,318.003,40.486,0,0.000885,0,0
0:2:57.849,318.177,40.5136,0,0.000885,0,0
0:2:58.142,318.648,40.5688,0,0.000885,0,0
0:2:58.443,320.116,40.7549,0,0.000885,0,0
0:2:58.747,320.526,40.8101,0,0.000885,0,0
0:2:59.047,321.113,40.8859,0,0.000885,0,0
0:2:59.348,321.113,40.8859,0,0.000885,0,0
0:2:59.648,322.283,41.0376,0,0.000885,0,0
0:2:59.949,322.87,41.1065,0,0.000885,0,0
0:3:0.242,323.808,41.2306,0,0.000885,0,0
0:3:0.538,323.693,41.2169,0,0.000885,0,0
0:3:0.843,323.986,41.2513,0,0.000885,0,0
0:3:1.149,324.747,41.3479,0,0.000885,0,0
0:3:1.448,325.628,41.4582,0,0.000885,0,0
0:3:1.742,325.979,41.5064,0,0.000885,0,0
0:3:2.041,327.211,41.665,0,0.000885,0,0
0:3:2.337,327.678,41.7202,0,0.000885,0,0
0:3:2.640,328.092,41.7753,0,0.000885,0,0
0:3:2.939,328.501,41.8236,0,0.000885,0,0
0:3:3.234,328.973,41.8857,0,0.000885,0,0
0:3:3.534,330.085,42.0304,0,0.000885,0,0
0:3:3.837,330.494,42.0787,0,0.000885,0,0
0:3:4.139,330.73,42.1132,0,0.000885,0,0
0:3:4.438,331.962,42.2649,0,0.000885,0,0
0:3:4.737,331.726,42.2373,0,0.000885,0,0
0:3:5.038,332.255,42.3062,0,0.000885,0,0
0:3:5.334,333.545,42.4717,0,0.000885,0,0
0:3:5.630,334.306,42.5682,0,0.000885,0,0
0:3:5.928,334.6,42.6027,0,0.000885,0,0
0:3:6.222,334.893,42.6372,0,0.000885,0,0
0:3:6.522,335.658,42.7337,0,0.000885,0,0
0:3:6.815,335.832,42.7613,0,0.000885,0,0
0:3:7.113,336.891,42.8923,0,0.000885,0,0
0:3:7.410,337.767,43.0026,0,0.000885,0,0
0:3:7.704,338.238,43.0647,0,0.000885,0,0
0:3:8.003,338.118,43.0509,0,0.000885,0,0
0:3:8.298,338.763,43.1336,0,0.000885,0,0
0:3:8.598,339.764,43.2577,0,0.000885,0,0
0:3:8.902,340.409,43.3404,0,0.000885,0,0
0:3:9.204,340.876,43.4025,0,0.000885,0,0
0:3:9.505,341.757,43.5128,0,0.000885,0,0
0:3:9.805,341.93,43.5335,0,0.000885,0,0
0:3:10.103,342.695,43.63,0,0.000885,0,0
0:3:10.399,343.225,43.699,0,0.000885,0,0
0:3:10.695,343.928,43.7886,0,0.000885,0,0
0:3:10.993,344.808,43.8989,0,0.000885,0,0
0:3:11.286,344.982,43.9265,0,0.000885,0,0
0:3:11.587,345.511,43.9886,0,0.000885,0,0
0:3:11.878,345.511,43.9886,0,0.000885,0,0
0:3:12.177,346.392,44.1058,0,0.000885,0,0
0:3:12.473,346.975,44.1816,0,0.000885,0,0
0:3:12.769,347.62,44.2574,0,0.000885,0,0
0:3:13.069,348.207,44.3333,0,0.000885,0,0
0:3:13.371,349.088,44.4505,0,0.000885,0,0
0:3:13.673,349.497,44.4988,0,0.000885,0,0
0:3:13.975,350.493,44.6298,0,0.000885,0,0
0:3:14.275,351.023,44.6918,0,0.000885,0,0
0:3:14.576,351.845,44.7952,0,0.000885,0,0
0:3:14.869,351.788,44.7883,0,0.000885,0,0
0:3:15.168,352.49,44.878,0,0.000885,0,0
0:3:15.462,353.078,44.9538,0,0.000885,0,0
0:3:15.760,353.66,45.0297,0,0.000885,0,0
0:3:16.057,354.425,45.1262,0,0.000885,0,0
0:3:16.349,354.892,45.1882,0,0.000885,0,0
0:3:16.649,355.537,45.271,0,0.000885,0,0
0:3:16.942,355.6,45.2779,0,0.000885,0,0
0:3:17.250,356.654,45.4089,0,0.000885,0,0
0:3:17.559,357.241,45.4847,0,0.000885,0,0
0:3:17.862,357.828,45.5606,0,0.000885,0,0
0:3:18.163,358.295,45.6226,0,0.000885,0,0
0:3:18.466,359.292,45.7467,0,0.000885,0,0
0:3:18.767,359.821,45.8157,0,0.000885,0,0
0:3:19.069,360.057,45.8432,0,0.000885,0,0
0:3:19.368,360.466,45.8984,0,0.000885,0,0
0:3:19.670,361.578,46.0363,0,0.000885,0,0
0:3:19.964,362.107,46.1052,0,0.000885,0,0
0:3:20.263,362.873,46.2018,0,0.000885,0,0
0:3:20.559,362.988,46.2156,0,0.000885,0,0
0:3:20.853,363.104,46.2293,0,0.000885,0,0
0:3:21.151,364.22,46.3741,0,0.000885,0,0
0:3:21.445,365.159,46.4913,0,0.000885,0,0
0:3:21.745,365.746,46.5672,0,0.000885,0,0
0:3:22.047,366.449,46.6568,0,0.000885,0,0
0:3:22.346,366.565,46.6706,0,0.000885,0,0
0:3:22.643,367.445,46.7878,0,0.000885,0,0
0:3:22.938,368.033,46.8568,0,0.000885,0,0
0:3:23.236,368.326,46.8981,0,0.000885,0,0
0:3:23.539,368.851,46.9671,0,0.000885,0,0
0:3:23.840,369.38,47.0291,0,0.000885,0,0
0:3:24.143,370.261,47.1464,0,0.000885,0,0
0:3:24.442,370.964,47.236,0,0.000885,0,0
0:3:24.744,371.609,47.3118,0,0.000885,0,0
0:3:25.037,372.018,47.367,0,0.000885,0,0
0:3:25.337,372.254,47.3946,0,0.000885,0,0
0:3:25.642,373.135,47.5118,0,0.000885,0,0
0:3:25.938,374.015,47.6221,0,0.000885,0,0
0:3:26.236,374.247,47.6497,0,0.000885,0,0
0:3:26.529,374.367,47.6635,0,0.000885,0,0
0:3:26.829,374.834,47.7255,0,0.000885,0,0
0:3:27.122,375.95,47.8703,0,0.000885,0,0
0:3:27.423,376.48,47.9324,0,0.000885,0,0
0:3:27.719,377.298,48.0358,0,0.000885,0,0
0:3:28.013,377.592,48.0771,0,0.000885,0,0
0:3:28.312,378.295,48.1668,0,0.000885,0,0
0:3:28.613,378.882,48.2426,0,0.000885,0,0
0:3:28.916,379.175,48.2771,0,0.000885,0,0
0:3:29.217,379.82,48.3598,0,0.000885,0,0
0:3:29.518,380.35,48.4288,0,0.000885,0,0
0:3:29.819,381.64,48.5942,0,0.000885,0,0
0:3:30.114,382.285,48.677,0,0.000885,0,0
0:3:30.411,382.342,48.6839,0,0.000885,0,0
0:3:30.706,382.814,48.739,0,0.000885,0,0
0:3:31.005,383.397,48.8149,0,0.000885,0,0
0:3:31.299,383.223,48.7942,0,0.000885,0,0
0:3:31.595,384.398,48.9459,0,0.000885,0,0
0:3:31.894,385.452,49.0769,0,0.000885,0,0
0:3:32.187,386.212,49.1734,0,0.000885,0,0
0:3:32.485,386.506,49.2148,0,0.000885,0,0
0:3:32.778,387.151,49.2906,0,0.000885,0,0
0:3:33.080,387.854,49.3803,0,0.000885,0,0
0:3:33.385,388.21,49.4285,0,0.000885,0,0
0:3:33.686,388.735,49.4975,0,0.000885,0,0
0:3:33.987,389.264,49.5595,0,0.000885,0,0
0:3:34.286,389.909,49.6423,0,0.000885,0,0
0:3:34.586,390.79,49.7595,0,0.000885,0,0
0:3:34.880,391.377,49.8284,0,0.000885,0,0
0:3:35.178,391.786,49.8836,0,0.000885,0,0
0:3:35.473,392.547,49.9801,0,0.000885,0,0
0:3:35.767,393.134,50.0559,0,0.000885,0,0
0:3:36.066,393.605,50.118,0,0.000885,0,0
0:3:36.360,394.25,50.2007,0,0.000885,0,0
0:3:36.658,394.895,50.2766,0,0.000885,0,0
0:3:36.961,395.247,50.3248,0,0.000885,0,0
0:3:37.259,396.127,50.4351,0,0.000885,0,0
0:3:37.565,396.595,50.4972,0,0.000885,0,0
0:3:37.858,397.24,50.5799,0,0.000885,0,0
0:3:38.157,397.355,50.5937,0,0.000885,0,0
0:3:38.460,397.885,50.6627,0,0.000885,0,0
0:3:38.761,399.001,50.8006,0,0.000885,0,0
0:3:39.063,399.646,50.8833,0,0.000885,0,0
0:3:39.360,399.704,50.8902,0,0.000885,0,0
0:3:39.662,400.349,50.9729,0,0.000885,0,0
0:3:39.954,400.585,51.0005,0,0.000885,0,0
0:3:40.254,401.639,51.1384,0,0.000885,0,0
0:3:40.560,402.106,51.2005,0,0.000885,0,0
0:3:40.865,402.751,51.2832,0,0.000885,0,0
0:3:41.163,403.458,51.3728,0,0.000885,0,0
0:3:41.466,404.219,51.4694,0,0.000885,0,0
0:3:41.766,404.979,51.5659,0,0.000885,0,0
0:3:42.058,405.629,51.6486,0,0.000885,0,0
0:3:42.355,405.802,51.6693,0,0.000885,0,0
0:3:42.651,406.274,51.7314,0,0.000885,0,0
0:3:42.946,407.092,51.8348,0,0.000885,0,0
0:3:43.244,407.795,51.9244,0,0.000885,0,0
0:3:43.545,408.44,52.0072,0,0.000885,0,0
0:3:43.849,408.44,52.0072,0,0.000885,0,0
0:3:44.148,409.379,52.1244,0,0.000885,0,0
0:3:44.448,410.024,52.2071,0,0.000885,0,0
0:3:44.747,410.437,52.2554,0,0.000885,0,0
0:3:45.063,411.198,52.3588,0,0.000885,0,0
0:3:45.362,411.198,52.3588,0,0.000885,0,0
0:3:45.654,412.079,52.4691,0,0.000885,0,0
0:3:45.954,412.96,52.5794,0,0.000885,0,0
0:3:46.247,413.547,52.6553,0,0.000885,0,0
0:3:46.544,414.307,52.7518,0,0.000885,0,0
0:3:46.842,414.365,52.7587,0,0.000885,0,0
0:3:47.136,415.246,52.869,0,0.000885,0,0
0:3:47.436,415.713,52.9311,0,0.000885,0,0
0:3:47.730,416.42,53.0207,0,0.000885,0,0
0:3:48.032,417.359,53.1379,0,0.000885,0,0
0:3:48.335,417.71,53.1862,0,0.000885,0,0
0:3:48.635,418.471,53.2827,0,0.000885,0,0
0:3:48.936,418.88,53.3309,0,0.000885,0,0
0:3:49.235,419.703,53.4413,0,0.000885,0,0
0:3:49.534,419.525,53.4137,0,0.000885,0,0
0:3:49.828,420.526,53.5447,0,0.000885,0,0
0:3:50.127,420.877,53.5861,0,0.000885,0,0
0:3:50.423,422.11,53.7446,0,0.000885,0,0
0:3:50.716,422.519,53.7998,0,0.000885,0,0
0:3:51.015,422.399,53.7791,0,0.000885,0,0
0:3:51.309,423.337,53.9032,0,0.000885,0,0
0:3:51.608,424.102,53.9997,0,0.000885,0,0
0:3:51.903,424.69,54.0756,0,0.000885,0,0
0:3:52.199,425.335,54.1583,0,0.000885,0,0
0:3:52.497,425.45,54.1721,0,0.000885,0,0
0:3:52.789,426.389,54.2893,0,0.000885,0,0
0:3:53.090,427.443,54.4272,0,0.000885,0,0
0:3:53.392,427.857,54.4755,0,0.000885,0,0
0:3:53.694,428.088,54.5031,0,0.000885,0,0
0:3:53.995,428.382,54.5444,0,0.000885,0,0
0:3:54.294,429.089,54.6341,0,0.000885,0,0
0:3:54.596,429.792,54.7237,0,0.000885,0,0
0:3:54.890,430.259,54.7857,0,0.000885,0,0
0:3:55.189,430.788,54.8478,0,0.000885,0,0
0:3:55.483,431.433,54.9305,0,0.000885,0,0
0:3:55.778,432.314,55.0408,0,0.000885,0,0
0:3:56.076,432.607,55.0822,0,0.000885,0,0
0:3:56.370,433.252,55.165,0,0.000885,0,0
0:3:56.669,433.719,55.2201,0,0.000885,0,0
0:3:56.960,434.249,55.2891,0,0.000885,0,0
0:3:57.260,435.009,55.3856,0,0.000885,0,0
0:3:57.564,435.539,55.4545,0,0.000885,0,0
0:3:57.860,436.419,55.5648,0,0.000885,0,0
0:3:58.156,437.122,55.6545,0,0.000885,0,0
0:3:58.456,437.416,55.6958,0,0.000885,0,0
0:3:58.761,437.767,55.7372,0,0.000885,0,0
0:3:59.063,438.706,55.8544,0,0.000885,0,0
0:3:59.362,438.999,55.8958,0,0.000885,0,0
0:3:59.664,439.996,56.0199,0,0.000885,0,0
0:3:59.957,440.347,56.0682,0,0.000885,0,0
0:4:0.254,441.464,56.2061,0,0.000885,0,0
0:4:0.549,441.931,56.2681,0,0.000885,0,0
0:4:0.847,442.696,56.3646,0,0.000885,0,0
0:4:1.150,442.754,56.3715,0,0.000885,0,0
0:4:1.456,443.808,56.5094,0,0.000885,0,0
0:4:1.753,443.986,56.5301,0,0.000885,0,0
0:4:2.048,444.689,56.6197,0,0.000885,0,0
0:4:2.347,445.276,56.6956,0,0.000885,0,0
0:4:2.640,445.334,56.7025,0,0.000885,0,0
0:4:2.940,446.037,56.7921,0,0.000885,0,0
0:4:3.244,447.504,56.9783,0,0.000885,0,0
0:4:3.545,447.856,57.0196,0,0.000885,0,0
0:4:3.845,448.559,57.1093,0,0.000885,0,0
0:4:4.145,449.319,57.2127,0,0.000885,0,0
0:4:4.444,449.261,57.1989,0,0.000885,0,0
0:4:4.748,449.733,57.261,0,0.000885,0,0
0:4:5.046,450.084,57.3092,0,0.000885,0,0
0:4:5.342,450.729,57.392,0,0.000885,0,0
0:4:5.635,451.317,57.4609,0,0.000885,0,0
0:4:5.934,452.549,57.6195,0,0.000885,0,0
0:4:6.227,453.016,57.6815,0,0.000885,0,0
0:4:6.527,453.194,57.7022,0,0.000885,0,0
0:4:6.820,453.839,57.785,0,0.000885,0,0
0:4:7.117,454.012,57.8056,0,0.000885,0,0
0:4:7.414,454.426,57.8608,0,0.000885,0,0
0:4:7.706,455.302,57.9711,0,0.000885,0,0
0:4:8.006,455.889,58.047,0,0.000885,0,0
0:4:8.308,456.828,58.1642,0,0.000885,0,0
0:4:8.610,457.357,58.2331,0,0.000885,0,0
0:4:8.911,458.118,58.3296,0,0.000885,0,0
0:4:9.210,458.821,58.4193,0,0.000885,0,0
0:4:9.511,459.47,58.502,0,0.000885,0,0
0:4:9.804,459.822,58.5434,0,0.000885,0,0
0:4:10.104,459.995,58.571,0,0.000885,0,0
0:4:10.398,461.049,58.702,0,0.000885,0,0
0:4:10.696,461.343,58.7433,0,0.000885,0,0
0:4:10.990,462.344,58.8674,0,0.000885,0,0
0:4:11.287,462.926,58.9433,0,0.000885,0,0
0:4:11.585,463.865,59.0605,0,0.000885,0,0
0:4:11.877,464.221,59.1088,0,0.000885,0,0
0:4:12.177,464.804,59.1777,0,0.000885,0,0
0:4:12.471,465.684,59.2949,0,0.000885,0,0
0:4:12.767,465.92,59.3225,0,0.000885,0,0
0:4:13.064,466.271,59.3708,0,0.000885,0,0
0:4:13.364,466.449,59.3914,0,0.000885,0,0
0:4:13.668,467.677,59.55,0,0.000885,0,0
0:4:13.969,468.033,59.5914,0,0.000885,0,0
0:4:14.269,468.616,59.6672,0,0.000885,0,0
0:4:14.569,468.967,59.7086,0,0.000885,0,0
0:4:14.865,470.084,59.8534,0,0.000885,0,0
0:4:15.163,470.262,59.8741,0,0.000885,0,0
0:4:15.465,470.844,59.9499,0,0.000885,0,0
0:4:15.764,471.258,60.0051,0,0.000885,0,0
0:4:16.055,471.609,60.0464,0,0.000885,0,0
0:4:16.363,472.784,60.1981,0,0.000885,0,0
0:4:16.670,473.251,60.2533,0,0.000885,0,0
0:4:16.964,474.131,60.3705,0,0.000885,0,0
0:4:17.264,474.425,60.405,0,0.000885,0,0
0:4:17.565,475.128,60.4946,0,0.000885,0,0
0:4:17.867,475.537,60.5498,0,0.000885,0,0
0:4:18.169,476.36,60.6532,0,0.000885,0,0
0:4:18.471,477.005,60.7359,0,0.000885,0,0
0:4:18.769,477.356,60.7773,0,0.000885,0,0
0:4:19.070,478.295,60.9014,0,0.000885,0,0
0:4:19.369,478.882,60.9703,0,0.000885,0,0
0:4:19.663,479.469,61.0462,0,0.000885,0,0
0:4:19.971,479.527,61.0531,0,0.000885,0,0
0:4:20.267,480.466,61.1772,0,0.000885,0,0
0:4:20.569,480.466,61.1772,0,0.000885,0,0
0:4:20.869,481.169,61.2668,0,0.000885,0,0
0:4:21.162,482.107,61.384,0,0.000885,0,0
0:4:21.461,482.401,61.4185,0,0.000885,0,0
0:4:21.764,483.046,61.5012,0,0.000885,0,0
0:4:22.063,483.749,61.5909,0,0.000885,0,0
0:4:22.370,484.451,61.6805,0,0.000885,0,0
0:4:22.662,484.865,61.7357,0,0.000885,0,0
0:4:22.958,485.861,61.8598,0,0.000885,0,0
0:4:23.263,486.329,61.9218,0,0.000885,0,0
0:4:23.564,487.036,62.0114,0,0.000885,0,0
0:4:23.866,487.325,62.0459,0,0.000885,0,0
0:4:24.164,488.384,62.1838,0,0.000885,0,0
0:4:24.466,488.851,62.2459,0,0.000885,0,0
0:4:24.767,488.851,62.2459,0,0.000885,0,0
0:4:25.068,489.202,62.2872,0,0.000885,0,0
0:4:25.362,489.731,62.3562,0,0.000885,0,0
0:4:25.669,490.492,62.4527,0,0.000885,0,0
0:4:25.966,491.609,62.5906,0,0.000885,0,0
0:4:26.269,491.666,62.6044,0,0.000885,0,0
0:4:26.568,492.076,62.6527,0,0.000885,0,0
0:4:26.859,492.783,62.7423,0,0.000885,0,0
0:4:27.158,493.721,62.8595,0,0.000885,0,0
0:4:27.466,494.482,62.956,0,0.000885,0,0
0:4:27.769,495.185,63.0457,0,0.000885,0,0
0:4:28.069,495.305,63.0663,0,0.000885,0,0
0:4:28.370,495.421,63.0801,0,0.000885,0,0
0:4:28.671,496.537,63.218,0,0.000885,0,0
0:4:28.973,497.298,63.3146,0,0.000885,0,0
0:4:29.275,497.943,63.3973,0,0.000885,0,0
0:4:29.575,498.41,63.4593,0,0.000885,0,0
0:4:29.869,499.411,63.5835,0,0.000885,0,0
0:4:30.170,499.762,63.6317,0,0.000885,0,0
0:4:30.464,500.229,63.6938,0,0.000885,0,0
0:4:30.763,500.701,63.7489,0,0.000885,0,0
0:4:31.066,501.168,63.811,0,0.000885,0,0
0:4:31.371,501.697,63.8799,0,0.000885,0,0
0:4:31.671,501.991,63.9144,0,0.000885,0,0
0:4:31.963,501.755,63.8868,0,0.000885,0,0
0:4:32.259,502.809,64.0178,0,0.000885,0,0
0:4:32.555,503.516,64.1075,0,0.000885,0,0
0:4:32.855,504.571,64.2453,0,0.000885,0,0
0:4:33.160,504.864,64.2798,0,0.000885,0,0
0:4:33.463,505.803,64.4039,0,0.000885,0,0
0:4:33.759,505.976,64.4246,0,0.000885,0,0
0:4:34.060,506.506,64.4936,0,0.000885,0,0
0:4:34.368,507.329,64.597,0,0.000885,0,0
0:4:34.664,507.68,64.6383,0,0.000885,0,0
0:4:34.958,508.556,64.7487,0,0.000885,0,0
0:4:35.258,509.086,64.8176,0,0.000885,0,0
0:4:35.563,509.673,64.8935,0,0.000885,0,0
0:4:35.870,510.024,64.9417,0,0.000885,0,0
0:4:36.166,510.611,65.0107,0,0.000885,0,0
0:4:36.468,511.256,65.0934,0,0.000885,0,0
0:4:36.769,512.079,65.1968,0,0.000885,0,0
0:4:37.061,511.786,65.1624,0,0.000885,0,0
0:4:37.370,512.546,65.2589,0,0.000885,0,0
0:4:37.665,512.604,65.2658,0,0.000885,0,0
0:4:37.967,513.307,65.3554,0,0.000885,0,0
0:4:38.270,513.894,65.4312,0,0.000885,0,0
0:4:38.571,514.423,65.5002,0,0.000885,0,0
0:4:38.869,515.011,65.576,0,0.000885,0,0
0:4:39.170,515.184,65.5967,0,0.000885,0,0
0:4:39.467,515.829,65.6795,0,0.000885,0,0
0:4:39.765,516.123,65.7139,0,0.000885,0,0
0:4:40.069,516.768,65.7967,0,0.000885,0,0
0:4:40.369,516.83,65.8036,0,0.000885,0,0
0:4:40.671,516.946,65.8174,0,0.000885,0,0
0:4:40.969,517.413,65.8794,0,0.000885,0,0
0:4:41.267,517.475,65.8863,0,0.000885,0,0
0:4:41.570,518.293,65.9897,0,0.000885,0,0
0:4:41.869,518.587,66.0311,0,0.000885,0,0
0:4:42.164,518.765,66.0518,0,0.000885,0,0
0:4:42.471,519.704,66.169,0,0.000885,0,0
0:4:42.768,519.641,66.1621,0,0.000885,0,0
0:4:43.067,519.641,66.1621,0,0.000885,0,0
0:4:43.371,519.997,66.2104,0,0.000885,0,0
0:4:43.672,520.228,66.2379,0,0.000885,0,0
0:4:43.973,520.291,66.2448,0,0.000885,0,0
0:4:44.271,520.406,66.2586,0,0.000885,0,0
0:4:44.568,520.58,66.2793,0,0.000885,0,0
0:4:44.867,520.171,66.231,0,0.000885,0,0
0:4:45.169,519.116,66.0931,0,0.000885,0,0
0:4:45.467,518.765,66.0518,0,0.000885,0,0
0:4:45.771,518.587,66.0311,0,0.000885,0,0
0:4:46.064,518.12,65.969,0,0.000885,0,0
0:4:46.372,516.358,65.7415,0,0.000885,0,0
0:4:46.664,516.243,65.7277,0,0.000885,0,0
0:4:46.960,516.301,65.7346,0,0.000885,0,0
0:4:47.267,516.416,65.7553,0,0.000885,0,0
0:4:47.571,517.003,65.8242,0,0.000885,0,0
0:4:47.870,517.355,65.8725,0,0.000885,0,0
0:4:48.171,517.533,65.8932,0,0.000885,0,0
0:4:48.473,518.12,65.969,0,0.000885,0,0
0:4:48.771,518.587,66.0311,0,0.000885,0,0
0:4:49.072,519.059,66.0862,0,0.000885,0,0
0:4:49.371,519.526,66.1483,0,0.000885,0,0
0:4:49.666,520.171,66.231,0,0.000885,0,0
0:4:49.965,519.935,66.2035,0,0.000885,0,0
0:4:50.268,519.352,66.1276,0,0.000885,0,0
0:4:50.573,517.884,65.9415,0,0.000885,0,0
0:4:50.870,518.058,65.9621,0,0.000885,0,0
0:4:51.172,517.884,65.9415,0,0.000885,0,0
0:4:51.472,517.942,65.9484,0,0.000885,0,0
0:4:51.765,516.416,65.7553,0,0.000885,0,0
0:4:52.072,515.656,65.6519,0,0.000885,0,0
0:4:52.369,515.54,65.6381,0,0.000885,0,0
0:4:52.671,515.068,65.5829,0,0.000885,0,0
0:4:52.970,514.423,65.5002,0,0.000885,0,0
0:4:53.272,514.539,65.514,0,0.000885,0,0
0:4:53.571,514.833,65.5485,0,0.000885,0,0
0:4:53.871,515.54,65.6381,0,0.000885,0,0
0:4:54.170,515.713,65.6657,0,0.000885,0,0
0:4:54.471,515.891,65.6864,0,0.000885,0,0
0:4:54.772,516.474,65.7622,0,0.000885,0,0
0:4:55.073,516.768,65.7967,0,0.000885,0,0
0:4:55.365,517.533,65.8932,0,0.000885,0,0
0:4:55.670,517.706,65.9139,0,0.000885,0,0
0:4:55.966,518.12,65.969,0,0.000885,0,0
0:4:56.269,518.996,66.0794,0,0.000885,0,0
0:4:56.568,518.938,66.0725,0,0.000885,0,0
0:4:56.871,519.29,66.1207,0,0.000885,0,0
0:4:57.167,519.468,66.1414,0,0.000885,0,0
0:4:57.474,519.352,66.1276,0,0.000885,0,0
0:4:57.766,519.232,66.1138,0,0.000885,0,0
0:4:58.074,519.174,66.1,0,0.000885,0,0
0:4:58.376,518.058,65.9621,0,0.000885,0,0
0:4:58.677,515.891,65.6864,0,0.000885,0,0
0:4:58.976,511.492,65.1279,0,0.000885,0,0
0:4:59.276,507.738,64.6452,0,0.000885,0,0
0:4:59.575,505.158,64.3212,0,0.000885,0,0
0:4:59.869,504.277,64.204,0,0.000885,0,0
0:5:0.168,504.455,64.2316,0,0.000885,0,0
0:5:0.472,504.628,64.2522,0,0.000885,0,0
0:5:0.767,504.98,64.2936,0,0.000885,0,0
0:5:1.073,504.922,64.2867,0,0.000885,0,0
0:5:1.367,503.984,64.1695,0,0.000885,0,0
0:5:1.667,502.809,64.0178,0,0.000885,0,0
0:5:1.968,502.222,63.942,0,0.000885,0,0
0:5:2.267,499.584,63.611,0,0.000885,0,0
0:5:2.570,496.889,63.2663,0,0.000885,0,0
0:5:2.870,496.123,63.1698,0,0.000885,0,0
0:5:3.173,495.83,63.1284,0,0.000885,0,0
0:5:3.473,495.536,63.0939,0,0.000885,0,0
0:5:3.773,495.305,63.0663,0,0.000885,0,0
0:5:4.074,495.011,63.025,0,0.000885,0,0
0:5:4.369,493.779,62.8664,0,0.000885,0,0
0:5:4.664,486.622,61.9563,0,0.000885,0,0
0:5:4.969,481.929,61.3633,0,0.000885,0,0
0:5:5.267,478.237,60.8876,0,0.000885,0,0
0:5:5.570,472.548,60.1637,0,0.000885,0,0
0:5:5.867,469.145,59.7362,0,0.000885,0,0
0:5:6.173,468.442,59.6465,0,0.000885,0,0
0:5:6.467,466.974,59.4604,0,0.000885,0,0
0:5:6.764,461.988,58.8192,0,0.000885,0,0
0:5:7.067,438.003,55.7648,0,0.000885,0,0
0:5:7.363,426.215,54.2686,0,0.000885,0,0
0:5:7.669,416.358,53.0138,0,0.000885,0,0
0:5:7.968,412.897,52.5725,0,0.000885,0,0
0:5:8.271,410.144,52.2209,0,0.000885,0,0
0:5:8.572,403.632,51.3935,0,0.000885,0,0
0:5:8.873,392.373,49.9594,0,0.000885,0,0
0:5:9.170,383.397,48.8149,0,0.000885,0,0
0:5:9.468,378.352,48.1737,0,0.000885,0,0
0:5:9.770,371.902,47.3532,0,0.000885,0,0
0:5:10.067,368.206,46.8843,0,0.000885,0,0
0:5:10.174,368.206,46.8843,0,0.000885,0,0