File: DataFile2021-06-24_061154.csv
Test ID:,Date Tested:,Time:,Test Type:,Diameter Avg. (mm):,Cyl. Corr. Factor:,Height (mm):,Age (days):,Weight (kN):,Break Type:,Ramp Rate (MPa/s):,Load at Break (kN):,Stress at Break (MPa):
12,6/24/2021,06:11,Cylinder,150,1,300,0,3.6,3,0.24,618.44,35
Sample Time,Load (kN),Stress (MPa),Long. Strain,Trans. Strain,Chan1 Deflection (mm),Chan2 Deflection (mm)
0:0:19.984,6.27644,0.358527,0,0.000885,0,0
0:0:20.180,16.9522,0.958371,0,0.000885,0,0
0:0:20.380,18.1221,1.02732,0,0.000885,0,0
0:0:20.579,17.5972,0.992845,0,0.000885,0,0
0:0:20.775,17.4192,0.98595,0,0.000885,0,0
0:0:20.976,17.5349,0.992845,0,0.000885,0,0
0:0:21.173,17.0678,0.965266,0,0.000885,0,0
0:0:21.373,17.1257,0.972161,0,0.000885,0,0
0:0:21.571,16.7742,0.951477,0,0.000885,0,0
0:0:21.767,16.7742,0.951477,0,0.000885,0,0
0:0:21.969,16.5963,0.937687,0,0.000885,0,0
0:0:22.165,16.2449,0.917003,0,0.000885,0,0
0:0:22.365,16.4228,0.930792,0,0.000885,0,0
0:0:22.563,17.1257,0.972161,0,0.000885,0,0
0:0:22.759,17.1835,0.972161,0,0.000885,0,0
0:0:22.960,17.3036,0.979056,0,0.000885,0,0
0:0:23.158,18.0064,1.02042,0,0.000885,0,0
0:0:23.358,18.5357,1.048,0,0.000885,0,0
0:0:23.558,19.0028,1.07558,0,0.000885,0,0
0:0:23.762,20.1771,1.14453,0,0.000885,0,0
0:0:23.964,20.88,1.179,0,0.000885,0,0
0:0:24.163,21.8185,1.23416,0,0.000885,0,0
0:0:24.361,22.637,1.28242,0,0.000885,0,0
0:0:24.563,24.2206,1.37206,0,0.000885,0,0
0:0:24.758,24.87,1.40653,0,0.000885,0,0
0:0:24.961,27.0986,1.53064,0,0.000885,0,0
0:0:25.158,28.095,1.59269,0,0.000885,0,0
0:0:25.358,29.6785,1.68232,0,0.000885,0,0
0:0:25.560,30.3235,1.71679,0,0.000885,0,0
0:0:25.762,32.2007,1.82022,0,0.000885,0,0
0:0:25.965,32.7256,1.85469,0,0.000885,0,0
0:0:26.169,34.4292,1.95122,0,0.000885,0,0
0:0:26.370,34.7806,1.96501,0,0.000885,0,0
0:0:26.573,35.3055,1.99948,0,0.000885,0,0
0:0:26.774,35.8927,2.03395,0,0.000885,0,0
0:0:26.977,36.6,2.06843,0,0.000885,0,0
0:0:27.177,37.1249,2.1029,0,0.000885,0,0
0:0:27.374,38.2414,2.16495,0,0.000885,0,0
0:0:27.576,38.4727,2.17874,0,0.000885,0,0
0:0:27.774,39.4735,2.2339,0,0.000885,0,0
0:0:27.972,39.9406,2.26148,0,0.000885,0,0
0:0:28.174,41.0571,2.32353,0,0.000885,0,0
0:0:28.369,41.8756,2.3718,0,0.000885,0,0
0:0:28.571,42.6407,2.41317,0,0.000885,0,0
0:0:28.770,43.517,2.46143,0,0.000885,0,0
0:0:28.967,44.2242,2.5028,0,0.000885,0,0
0:0:29.170,45.8078,2.59243,0,0.000885,0,0
0:0:29.365,46.6841,2.64069,0,0.000885,0,0
0:0:29.565,47.7428,2.70274,0,0.000885,0,0
0:0:29.766,48.4456,2.74411,0,0.000885,0,0
0:0:29.961,49.5576,2.80617,0,0.000885,0,0
0:0:30.164,50.3227,2.84753,0,0.000885,0,0
0:0:30.366,51.7284,2.93027,0,0.000885,0,0
0:0:30.571,52.4935,2.97164,0,0.000885,0,0
0:0:30.772,53.3119,3.0199,0,0.000885,0,0
0:0:30.974,53.7834,3.04059,0,0.000885,0,0
0:0:31.177,54.4284,3.08196,0,0.000885,0,0
0:0:31.378,55.1313,3.11643,0,0.000885,0,0
0:0:31.580,56.3056,3.18538,0,0.000885,0,0
0:0:31.782,57.0662,3.22675,0,0.000885,0,0
0:0:31.977,58.592,3.31638,0,0.000885,0,0
0:0:32.179,59.059,3.34396,0,0.000885,0,0
0:0:32.378,60.2912,3.4129,0,0.000885,0,0
0:0:32.574,60.6426,3.43359,0,0.000885,0,0
0:0:32.777,61.8748,3.50254,0,0.000885,0,0
0:0:32.973,62.4041,3.53012,0,0.000885,0,0
0:0:33.174,63.9877,3.61975,0,0.000885,0,0
0:0:33.373,64.4547,3.64733,0,0.000885,0,0
0:0:33.569,65.2198,3.6887,0,0.000885,0,0
0:0:33.771,66.2741,3.75075,0,0.000885,0,0
0:0:33.968,66.8612,3.78522,0,0.000885,0,0
0:0:34.169,67.9154,3.84038,0,0.000885,0,0
0:0:34.369,68.5026,3.87485,0,0.000885,0,0
0:0:34.565,69.8549,3.9507,0,0.000885,0,0
0:0:34.767,70.4376,3.98517,0,0.000885,0,0
0:0:34.965,71.4384,4.04033,0,0.000885,0,0
0:0:35.164,72.1413,4.0817,0,0.000885,0,0
0:0:35.367,73.1955,4.14375,0,0.000885,0,0
0:0:35.570,73.6047,4.16443,0,0.000885,0,0
0:0:35.773,75.0148,4.24717,0,0.000885,0,0
0:0:35.976,75.7176,4.28164,0,0.000885,0,0
0:0:36.178,77.3012,4.37128,0,0.000885,0,0
0:0:36.379,78.004,4.41264,0,0.000885,0,0
0:0:36.581,78.7691,4.45401,0,0.000885,0,0
0:0:36.785,79.5298,4.50228,0,0.000885,0,0
0:0:36.982,80.6463,4.56433,0,0.000885,0,0
0:0:37.181,80.9977,4.58501,0,0.000885,0,0
0:0:37.384,82.5812,4.67465,0,0.000885,0,0
0:0:37.578,83.4575,4.72291,0,0.000885,0,0
0:0:37.779,84.2805,4.77117,0,0.000885,0,0
0:0:37.978,84.574,4.78496,0,0.000885,0,0
0:0:38.176,85.7484,4.85391,0,0.000885,0,0
0:0:38.379,86.2154,4.88149,0,0.000885,0,0
0:0:38.575,86.6247,4.90217,0,0.000885,0,0
0:0:38.774,88.1504,4.9918,0,0.000885,0,0
0:0:38.975,88.3862,4.9987,0,0.000885,0,0
0:0:39.172,89.6761,5.07454,0,0.000885,0,0
0:0:39.374,90.4991,5.1228,0,0.000885,0,0
0:0:39.573,91.9047,5.19865,0,0.000885,0,0
0:0:39.768,92.6075,5.24002,0,0.000885,0,0
0:0:39.971,93.6662,5.30207,0,0.000885,0,0
0:0:40.166,94.2534,5.33654,0,0.000885,0,0
0:0:40.368,95.6012,5.41238,0,0.000885,0,0
0:0:40.570,96.0682,5.43307,0,0.000885,0,0
0:0:40.774,97.3582,5.50891,0,0.000885,0,0
0:0:40.977,97.8297,5.53649,0,0.000885,0,0
0:0:41.180,99.0619,5.60544,0,0.000885,0,0
0:0:41.382,99.7647,5.64681,0,0.000885,0,0
0:0:41.585,100.997,5.71575,0,0.000885,0,0
0:0:41.786,101.7,5.75712,0,0.000885,0,0
0:0:41.988,102.109,5.77781,0,0.000885,0,0
0:0:42.185,102.523,5.79849,0,0.000885,0,0
0:0:42.384,104.28,5.90191,0,0.000885,0,0
0:0:42.586,105.218,5.95707,0,0.000885,0,0
0:0:42.781,106.099,6.00533,0,0.000885,0,0
0:0:42.984,106.744,6.03981,0,0.000885,0,0
0:0:43.181,107.976,6.10875,0,0.000885,0,0
0:0:43.378,108.679,6.15012,0,0.000885,0,0
0:0:43.580,109.208,6.1777,0,0.000885,0,0
0:0:43.778,110.378,6.24665,0,0.000885,0,0
0:0:43.979,111.143,6.28802,0,0.000885,0,0
0:0:44.178,112.433,6.36386,0,0.000885,0,0
0:0:44.374,112.842,6.38455,0,0.000885,0,0
0:0:44.576,113.781,6.4397,0,0.000885,0,0
0:0:44.773,114.546,6.48107,0,0.000885,0,0
0:0:44.973,116.13,6.5707,0,0.000885,0,0
0:0:45.175,116.597,6.59828,0,0.000885,0,0
0:0:45.379,117.535,6.65344,0,0.000885,0,0
0:0:45.584,117.887,6.67413,0,0.000885,0,0
0:0:45.786,119.177,6.74307,0,0.000885,0,0
0:0:45.988,120.115,6.79823,0,0.000885,0,0
0:0:46.190,121.29,6.86028,0,0.000885,0,0
0:0:46.392,121.819,6.89476,0,0.000885,0,0
0:0:46.594,123.225,6.9706,0,0.000885,0,0
0:0:46.793,123.403,6.98439,0,0.000885,0,0
0:0:46.991,124.693,7.05334,0,0.000885,0,0
0:0:47.193,125.395,7.09471,0,0.000885,0,0
0:0:47.389,127.095,7.19123,0,0.000885,0,0
0:0:47.588,127.388,7.21192,0,0.000885,0,0
0:0:47.790,128.736,7.28776,0,0.000885,0,0
0:0:47.985,128.736,7.28776,0,0.000885,0,0
0:0:48.187,129.092,7.30155,0,0.000885,0,0
0:0:48.384,130.613,7.39118,0,0.000885,0,0
0:0:48.583,131.142,7.41876,0,0.000885,0,0
0:0:48.785,132.784,7.51529,0,0.000885,0,0
0:0:48.979,132.842,7.51529,0,0.000885,0,0
0:0:49.182,134.016,7.58423,0,0.000885,0,0
0:0:49.380,134.777,7.6256,0,0.000885,0,0
0:0:49.578,136.48,7.72213,0,0.000885,0,0
0:0:49.779,136.774,7.74281,0,0.000885,0,0
0:0:49.977,138.18,7.81865,0,0.000885,0,0
0:0:50.179,138.3,7.82555,0,0.000885,0,0
0:0:50.381,139.941,7.92208,0,0.000885,0,0
0:0:50.586,140.35,7.94276,0,0.000885,0,0
0:0:50.788,141.76,8.0186,0,0.000885,0,0
0:0:50.990,141.992,8.03239,0,0.000885,0,0
0:0:51.192,143.344,8.10823,0,0.000885,0,0
0:0:51.393,143.753,8.13581,0,0.000885,0,0
0:0:51.596,145.51,8.23234,0,0.000885,0,0
0:0:51.798,146.097,8.26681,0,0.000885,0,0
0:0:51.994,146.742,8.30129,0,0.000885,0,0
0:0:52.195,147.094,8.32197,0,0.000885,0,0
0:0:52.395,148.855,8.42539,0,0.000885,0,0
0:0:52.589,149.265,8.44608,0,0.000885,0,0
0:0:52.792,150.03,8.48745,0,0.000885,0,0
0:0:52.989,150.555,8.52192,0,0.000885,0,0
0:0:53.190,151.435,8.57018,0,0.000885,0,0
0:0:53.391,152.552,8.63224,0,0.000885,0,0
0:0:53.586,153.312,8.6736,0,0.000885,0,0
0:0:53.788,154.602,8.74945,0,0.000885,0,0
0:0:53.986,155.425,8.79771,0,0.000885,0,0
0:0:54.185,156.657,8.86666,0,0.000885,0,0
0:0:54.387,157.125,8.89424,0,0.000885,0,0
0:0:54.582,158.299,8.95629,0,0.000885,0,0
0:0:54.782,158.886,8.99076,0,0.000885,0,0
0:0:54.981,159.998,9.05282,0,0.000885,0,0
0:0:55.179,160.763,9.09418,0,0.000885,0,0
0:0:55.382,161.697,9.14934,0,0.000885,0,0
0:0:55.585,161.933,9.16313,0,0.000885,0,0
0:0:55.788,163.165,9.23208,0,0.000885,0,0
0:0:55.991,164.104,9.28724,0,0.000885,0,0
0:0:56.194,165.042,9.3424,0,0.000885,0,0
0:0:56.395,165.865,9.38376,0,0.000885,0,0
0:0:56.597,166.977,9.44582,0,0.000885,0,0
0:0:56.799,167.622,9.48719,0,0.000885,0,0
0:0:57.001,169.09,9.56992,0,0.000885,0,0
0:0:57.196,169.793,9.61129,0,0.000885,0,0
0:0:57.399,170.967,9.67334,0,0.000885,0,0
0:0:57.598,171.612,9.70782,0,0.000885,0,0
0:0:57.797,173.018,9.79056,0,0.000885,0,0
0:0:57.998,173.721,9.83192,0,0.000885,0,0
0:0:58.193,174.25,9.8595,0,0.000885,0,0
0:0:58.395,175.073,9.90777,0,0.000885,0,0
0:0:58.595,175.598,9.93535,0,0.000885,0,0
0:0:58.791,176.95,10.0112,0,0.000885,0,0
0:0:58.993,177.182,10.025,0,0.000885,0,0
0:0:59.189,178.414,10.0939,0,0.000885,0,0
0:0:59.389,178.943,10.1284,0,0.000885,0,0
0:0:59.590,179.997,10.1836,0,0.000885,0,0
0:0:59.786,180.642,10.2249,0,0.000885,0,0
0:0:59.988,181.701,10.2801,0,0.000885,0,0
0:1:0.185,182.284,10.3146,0,0.000885,0,0
0:1:0.384,183.694,10.3973,0,0.000885,0,0
0:1:0.586,184.223,10.4249,0,0.000885,0,0
0:1:0.788,185.744,10.5145,0,0.000885,0,0
0:1:0.991,186.452,10.549,0,0.000885,0,0
0:1:1.194,187.448,10.6041,0,0.000885,0,0
0:1:1.397,188.444,10.6662,0,0.000885,0,0
0:1:1.599,189.441,10.7213,0,0.000885,0,0
0:1:1.801,190.264,10.7696,0,0.000885,0,0
0:1:2.004,191.434,10.8317,0,0.000885,0,0
0:1:2.202,192.079,10.8661,0,0.000885,0,0
0:1:2.400,193.137,10.9282,0,0.000885,0,0
0:1:2.601,193.898,10.9696,0,0.000885,0,0
0:1:2.795,194.601,11.0109,0,0.000885,0,0
0:1:2.995,195.188,11.0454,0,0.000885,0,0
0:1:3.192,195.833,11.0799,0,0.000885,0,0
0:1:3.388,197.123,11.1557,0,0.000885,0,0
0:1:3.589,197.768,11.1902,0,0.000885,0,0
0:1:3.786,198.942,11.2591,0,0.000885,0,0
0:1:3.982,199.414,11.2867,0,0.000885,0,0
0:1:4.184,200.41,11.3419,0,0.000885,0,0
0:1:4.376,200.997,11.3763,0,0.000885,0,0
0:1:4.577,202.345,11.4522,0,0.000885,0,0
0:1:4.775,202.812,11.4798,0,0.000885,0,0
0:1:4.970,204.164,11.5556,0,0.000885,0,0
0:1:5.171,204.632,11.5832,0,0.000885,0,0
0:1:5.372,205.219,11.6108,0,0.000885,0,0
0:1:5.575,206.331,11.6728,0,0.000885,0,0
0:1:5.777,207.154,11.7211,0,0.000885,0,0
0:1:5.977,208.034,11.7694,0,0.000885,0,0
0:1:6.177,208.622,11.8038,0,0.000885,0,0
0:1:6.377,209.849,11.8728,0,0.000885,0,0
0:1:6.577,210.379,11.9072,0,0.000885,0,0
0:1:6.776,211.904,11.99,0,0.000885,0,0
0:1:6.972,212.607,12.0314,0,0.000885,0,0
0:1:7.173,214.191,12.121,0,0.000885,0,0
0:1:7.369,214.369,12.1279,0,0.000885,0,0
0:1:7.565,215.187,12.1761,0,0.000885,0,0
0:1:7.766,215.832,12.2106,0,0.000885,0,0
0:1:7.960,217.416,12.3002,0,0.000885,0,0
0:1:8.160,218.354,12.3554,0,0.000885,0,0
0:1:8.356,219.586,12.4244,0,0.000885,0,0
0:1:8.562,219.88,12.445,0,0.000885,0,0
0:1:8.764,221.29,12.5209,0,0.000885,0,0
0:1:8.957,221.757,12.5485,0,0.000885,0,0
0:1:9.155,222.287,12.576,0,0.000885,0,0
0:1:9.355,223.577,12.6519,0,0.000885,0,0
0:1:9.561,224.222,12.6864,0,0.000885,0,0
0:1:9.761,225.218,12.7415,0,0.000885,0,0
0:1:9.955,225.747,12.776,0,0.000885,0,0
0:1:10.153,226.917,12.838,0,0.000885,0,0
0:1:10.354,227.331,12.8656,0,0.000885,0,0
0:1:10.556,228.621,12.9346,0,0.000885,0,0
0:1:10.757,229.617,12.9966,0,0.000885,0,0
0:1:10.961,230.849,13.0656,0,0.000885,0,0
0:1:11.160,231.552,13.1,0,0.000885,0,0
0:1:11.360,232.549,13.1621,0,0.000885,0,0
0:1:11.561,233.078,13.1897,0,0.000885,0,0
0:1:11.760,234.368,13.2655,0,0.000885,0,0
0:1:11.956,234.777,13.2862,0,0.000885,0,0
0:1:12.152,235.951,13.3551,0,0.000885,0,0
0:1:12.352,236.419,13.3758,0,0.000885,0,0
0:1:12.549,237.651,13.4517,0,0.000885,0,0
0:1:12.746,238.647,13.5068,0,0.000885,0,0
0:1:12.945,238.941,13.5206,0,0.000885,0,0
0:1:13.149,240.115,13.5896,0,0.000885,0,0
0:1:13.349,240.644,13.6171,0,0.000885,0,0
0:1:13.547,241.756,13.6792,0,0.000885,0,0
0:1:13.742,242.228,13.7068,0,0.000885,0,0
0:1:13.944,243.691,13.7895,0,0.000885,0,0
0:1:14.138,244.399,13.8309,0,0.000885,0,0
0:1:14.338,245.217,13.8791,0,0.000885,0,0
0:1:14.537,245.92,13.9136,0,0.000885,0,0
0:1:14.732,247.036,13.9826,0,0.000885,0,0
0:1:14.932,247.566,14.0101,0,0.000885,0,0
0:1:15.129,248.793,14.0791,0,0.000885,0,0
0:1:15.326,249.438,14.1136,0,0.000885,0,0
0:1:15.527,250.733,14.1894,0,0.000885,0,0
0:1:15.729,251.316,14.2239,0,0.000885,0,0
0:1:15.930,252.548,14.2928,0,0.000885,0,0
0:1:16.132,252.899,14.3135,0,0.000885,0,0
0:1:16.333,254.661,14.41,0,0.000885,0,0
0:1:16.533,254.954,14.4307,0,0.000885,0,0
0:1:16.734,255.773,14.4721,0,0.000885,0,0
0:1:16.934,257.005,14.541,0,0.000885,0,0
0:1:17.132,257.419,14.5686,0,0.000885,0,0
0:1:17.328,258.709,14.6376,0,0.000885,0,0
0:1:17.528,259.233,14.672,0,0.000885,0,0
0:1:17.724,260.234,14.7272,0,0.000885,0,0
0:1:17.922,260.995,14.7686,0,0.000885,0,0
0:1:18.121,262.463,14.8513,0,0.000885,0,0
0:1:18.317,262.694,14.8651,0,0.000885,0,0
0:1:18.517,263.869,14.934,0,0.000885,0,0
0:1:18.714,264.398,14.9616,0,0.000885,0,0
0:1:18.912,265.51,15.0237,0,0.000885,0,0
0:1:19.111,266.155,15.0581,0,0.000885,0,0
0:1:19.306,267.329,15.1271,0,0.000885,0,0
0:1:19.506,268.032,15.1685,0,0.000885,0,0
0:1:19.703,268.735,15.2098,0,0.000885,0,0
0:1:19.899,269.909,15.2719,0,0.000885,0,0
0:1:20.100,270.439,15.3064,0,0.000885,0,0
0:1:20.301,272.08,15.396,0,0.000885,0,0
0:1:20.504,272.609,15.4236,0,0.000885,0,0
0:1:20.705,273.899,15.4994,0,0.000885,0,0
0:1:20.905,274.486,15.5339,0,0.000885,0,0
0:1:21.105,275.541,15.589,0,0.000885,0,0
0:1:21.306,275.95,15.6166,0,0.000885,0,0
0:1:21.506,277.124,15.6787,0,0.000885,0,0
0:1:21.706,277.885,15.7269,0,0.000885,0,0
0:1:21.900,279.001,15.789,0,0.000885,0,0
0:1:22.101,279.882,15.8373,0,0.000885,0,0
0:1:22.297,280.994,15.8993,0,0.000885,0,0
0:1:22.493,281.697,15.9407,0,0.000885,0,0
0:1:22.694,282.52,15.9889,0,0.000885,0,0
0:1:22.888,283.165,16.0234,0,0.000885,0,0
0:1:23.088,283.81,16.0579,0,0.000885,0,0
0:1:23.286,284.691,16.113,0,0.000885,0,0
0:1:23.479,285.278,16.1406,0,0.000885,0,0
0:1:23.680,286.506,16.2096,0,0.000885,0,0
0:1:23.877,287.328,16.2578,0,0.000885,0,0
0:1:24.075,288.383,16.3199,0,0.000885,0,0
0:1:24.275,288.739,16.3406,0,0.000885,0,0
0:1:24.469,290.202,16.4233,0,0.000885,0,0
0:1:24.669,291.141,16.4785,0,0.000885,0,0
0:1:24.866,292.257,16.5405,0,0.000885,0,0
0:1:25.062,292.666,16.5612,0,0.000885,0,0
0:1:25.263,293.663,16.6164,0,0.000885,0,0
0:1:25.465,294.25,16.6508,0,0.000885,0,0
0:1:25.667,295.598,16.7267,0,0.000885,0,0
0:1:25.869,296.363,16.768,0,0.000885,0,0
0:1:26.070,297.533,16.837,0,0.000885,0,0
0:1:26.271,297.826,16.8508,0,0.000885,0,0
0:1:26.470,298.823,16.9128,0,0.000885,0,0
0:1:26.671,299.41,16.9404,0,0.000885,0,0
0:1:26.869,300.055,16.9818,0,0.000885,0,0
0:1:27.066,301.465,17.0576,0,0.000885,0,0
0:1:27.266,302.226,17.1059,0,0.000885,0,0
0:1:27.462,303.4,17.1679,0,0.000885,0,0
0:1:27.657,303.987,17.2024,0,0.000885,0,0
0:1:27.857,305.219,17.2714,0,0.000885,0,0
0:1:28.062,306.095,17.3196,0,0.000885,0,0
0:1:28.264,307.328,17.3886,0,0.000885,0,0
0:1:28.459,307.621,17.4093,0,0.000885,0,0
0:1:28.654,308.738,17.4713,0,0.000885,0,0
0:1:28.855,309.498,17.5127,0,0.000885,0,0
0:1:29.050,310.615,17.5747,0,0.000885,0,0
0:1:29.250,311.26,17.6161,0,0.000885,0,0
0:1:29.449,312.488,17.6851,0,0.000885,0,0
0:1:29.643,312.901,17.7057,0,0.000885,0,0
0:1:29.843,313.662,17.7471,0,0.000885,0,0
0:1:30.040,314.485,17.7954,0,0.000885,0,0
0:1:30.236,315.01,17.8229,0,0.000885,0,0
0:1:30.438,316.242,17.8988,0,0.000885,0,0
0:1:30.639,317.243,17.9539,0,0.000885,0,0
0:1:30.842,318.177,18.0022,0,0.000885,0,0
0:1:31.042,318.884,18.0436,0,0.000885,0,0
0:1:31.243,319.881,18.0987,0,0.000885,0,0
0:1:31.443,320.468,18.1332,0,0.000885,0,0
0:1:31.644,321.873,18.2159,0,0.000885,0,0
0:1:31.845,322.46,18.2504,0,0.000885,0,0
0:1:32.042,323.515,18.3056,0,0.000885,0,0
0:1:32.247,323.986,18.3332,0,0.000885,0,0
0:1:32.449,325.392,18.4159,0,0.000885,0,0
0:1:32.645,326.037,18.4504,0,0.000885,0,0
0:1:32.844,327.327,18.5262,0,0.000885,0,0
0:1:33.051,327.856,18.5538,0,0.000885,0,0
0:1:33.254,329.204,18.6296,0,0.000885,0,0
0:1:33.455,329.907,18.671,0,0.000885,0,0
0:1:33.664,331.081,18.7331,0,0.000885,0,0
0:1:33.871,331.904,18.7813,0,0.000885,0,0
0:1:34.070,332.843,18.8365,0,0.000885,0,0
0:1:34.265,333.31,18.8641,0,0.000885,0,0
0:1:34.466,334.368,18.9192,0,0.000885,0,0
0:1:34.662,334.951,18.9537,0,0.000885,0,0
0:1:34.857,336.125,19.0226,0,0.000885,0,0
0:1:35.057,336.948,19.064,0,0.000885,0,0
0:1:35.259,337.887,19.1192,0,0.000885,0,0
0:1:35.463,338.59,19.1605,0,0.000885,0,0
0:1:35.664,338.883,19.1743,0,0.000885,0,0
0:1:35.864,340.231,19.2502,0,0.000885,0,0
0:1:36.064,340.934,19.2915,0,0.000885,0,0
0:1:36.265,341.641,19.3329,0,0.000885,0,0
0:1:36.465,342.344,19.3743,0,0.000885,0,0
0:1:36.665,343.75,19.4501,0,0.000885,0,0
0:1:36.857,344.337,19.4846,0,0.000885,0,0
0:1:37.058,345.863,19.5742,0,0.000885,0,0
0:1:37.254,346.33,19.5949,0,0.000885,0,0
0:1:37.450,347.74,19.6776,0,0.000885,0,0
0:1:37.651,348.207,19.7052,0,0.000885,0,0
0:1:37.846,349.617,19.7811,0,0.000885,0,0
0:1:38.046,350.026,19.8086,0,0.000885,0,0
0:1:38.244,350.849,19.8569,0,0.000885,0,0
0:1:38.448,351.61,19.8983,0,0.000885,0,0
0:1:38.649,352.548,19.9534,0,0.000885,0,0
0:1:38.845,353.251,19.9879,0,0.000885,0,0
0:1:39.043,354.599,20.0637,0,0.000885,0,0
0:1:39.250,355.306,20.1051,0,0.000885,0,0
0:1:39.446,355.893,20.1396,0,0.000885,0,0
0:1:39.646,357.121,20.2085,0,0.000885,0,0
0:1:39.842,357.828,20.2499,0,0.000885,0,0
0:1:40.041,359.06,20.3188,0,0.000885,0,0
0:1:40.240,359.705,20.3533,0,0.000885,0,0
0:1:40.442,361.053,20.4292,0,0.000885,0,0
0:1:40.644,361.227,20.443,0,0.000885,0,0
0:1:40.844,362.637,20.5188,0,0.000885,0,0
0:1:41.044,362.93,20.5395,0,0.000885,0,0
0:1:41.244,364.336,20.6153,0,0.000885,0,0
0:1:41.445,364.923,20.6498,0,0.000885,0,0
0:1:41.645,366.391,20.7325,0,0.000885,0,0
0:1:41.851,366.916,20.7601,0,0.000885,0,0
0:1:42.049,368.326,20.8429,0,0.000885,0,0
0:1:42.249,368.793,20.8704,0,0.000885,0,0
0:1:42.464,369.852,20.9325,0,0.000885,0,0
0:1:42.664,370.612,20.9739,0,0.000885,0,0
0:1:42.860,371.493,21.0221,0,0.000885,0,0
0:1:43.056,371.96,21.0497,0,0.000885,0,0
0:1:43.258,373.486,21.1324,0,0.000885,0,0
0:1:43.452,374.189,21.1738,0,0.000885,0,0
0:1:43.650,375.185,21.229,0,0.000885,0,0
0:1:43.849,375.95,21.2772,0,0.000885,0,0
0:1:44.045,376.538,21.3048,0,0.000885,0,0
0:1:44.245,377.356,21.3531,0,0.000885,0,0
0:1:44.450,378.001,21.3875,0,0.000885,0,0
0:1:44.657,379.06,21.4496,0,0.000885,0,0
0:1:44.856,379.585,21.4772,0,0.000885,0,0
0:1:45.063,380.817,21.553,0,0.000885,0,0
0:1:45.264,381.346,21.5806,0,0.000885,0,0
0:1:45.466,382.227,21.6289,0,0.000885,0,0
0:1:45.669,382.814,21.6633,0,0.000885,0,0
0:1:45.871,384.398,21.753,0,0.000885,0,0
0:1:46.071,385.216,21.8012,0,0.000885,0,0
0:1:46.271,386.039,21.8426,0,0.000885,0,0
0:1:46.471,386.857,21.8909,0,0.000885,0,0
0:1:46.670,388.499,21.9874,0,0.000885,0,0
0:1:46.870,389.086,22.015,0,0.000885,0,0
0:1:47.066,390.082,22.077,0,0.000885,0,0
0:1:47.264,390.732,22.1115,0,0.000885,0,0
0:1:47.465,391.608,22.1597,0,0.000885,0,0
0:1:47.668,392.253,22.1942,0,0.000885,0,0
0:1:47.869,393.249,22.2563,0,0.000885,0,0
0:1:48.065,393.957,22.2908,0,0.000885,0,0
0:1:48.272,395.127,22.3597,0,0.000885,0,0
0:1:48.472,395.892,22.4011,0,0.000885,0,0
0:1:48.666,397.24,22.4769,0,0.000885,0,0
0:1:48.866,397.827,22.5114,0,0.000885,0,0
0:1:49.072,399.295,22.5941,0,0.000885,0,0
0:1:49.268,399.762,22.6217,0,0.000885,0,0
0:1:49.469,401.523,22.7182,0,0.000885,0,0
0:1:49.664,401.697,22.732,0,0.000885,0,0
0:1:49.861,402.399,22.7734,0,0.000885,0,0
0:1:50.059,403.752,22.8492,0,0.000885,0,0
0:1:50.254,403.867,22.8561,0,0.000885,0,0
0:1:50.454,404.922,22.9113,0,0.000885,0,0
0:1:50.654,405.802,22.9664,0,0.000885,0,0
0:1:50.857,406.683,23.0147,0,0.000885,0,0
0:1:51.059,407.035,23.0354,0,0.000885,0,0
0:1:51.259,408.325,23.1043,0,0.000885,0,0
0:1:51.460,409.085,23.1526,0,0.000885,0,0
0:1:51.660,410.38,23.2215,0,0.000885,0,0
0:1:51.859,410.731,23.2422,0,0.000885,0,0
0:1:52.060,411.963,23.3112,0,0.000885,0,0
0:1:52.266,412.43,23.3388,0,0.000885,0,0
0:1:52.467,413.778,23.4146,0,0.000885,0,0
0:1:52.664,414.423,23.4491,0,0.000885,0,0
0:1:52.870,415.304,23.5042,0,0.000885,0,0
0:1:53.071,415.891,23.5318,0,0.000885,0,0
0:1:53.264,417.181,23.6076,0,0.000885,0,0
0:1:53.464,417.826,23.6421,0,0.000885,0,0
0:1:53.664,419,23.7111,0,0.000885,0,0
0:1:53.856,419.819,23.7593,0,0.000885,0,0
0:1:54.057,420.584,23.8007,0,0.000885,0,0
0:1:54.253,422.047,23.8834,0,0.000885,0,0
0:1:54.450,422.634,23.9179,0,0.000885,0,0
0:1:54.650,423.809,23.98,0,0.000885,0,0
0:1:54.846,424.16,24.0007,0,0.000885,0,0
0:1:55.046,425.802,24.0972,0,0.000885,0,0
0:1:55.246,426.273,24.1248,0,0.000885,0,0
0:1:55.449,427.563,24.1937,0,0.000885,0,0
0:1:55.651,427.972,24.2213,0,0.000885,0,0
0:1:55.852,428.675,24.2558,0,0.000885,0,0
0:1:56.052,428.969,24.2764,0,0.000885,0,0
0:1:56.252,429.965,24.3316,0,0.000885,0,0
0:1:56.453,430.672,24.373,0,0.000885,0,0
0:1:56.653,431.962,24.4419,0,0.000885,0,0
0:1:56.849,433.017,24.504,0,0.000885,0,0
0:1:57.049,434.307,24.5798,0,0.000885,0,0
0:1:57.246,434.894,24.6074,0,0.000885,0,0
0:1:57.450,436.184,24.6832,0,0.000885,0,0
0:1:57.650,436.651,24.7108,0,0.000885,0,0
0:1:57.846,437.3,24.7453,0,0.000885,0,0
0:1:58.045,438.119,24.7935,0,0.000885,0,0
0:1:58.245,438.884,24.8349,0,0.000885,0,0
0:1:58.448,440.347,24.9177,0,0.000885,0,0
0:1:58.649,441.228,24.9659,0,0.000885,0,0
0:1:58.845,442.34,25.0349,0,0.000885,0,0
0:1:59.043,442.812,25.0555,0,0.000885,0,0
0:1:59.244,444.395,25.1452,0,0.000885,0,0
0:1:59.447,444.689,25.1659,0,0.000885,0,0
0:1:59.646,445.449,25.2072,0,0.000885,0,0
0:1:59.843,446.037,25.2417,0,0.000885,0,0
0:2:0.040,447.269,25.3107,0,0.000885,0,0
0:2:0.241,447.972,25.352,0,0.000885,0,0
0:2:0.442,449.204,25.421,0,0.000885,0,0
0:2:0.644,449.906,25.4623,0,0.000885,0,0
0:2:0.845,450.672,25.5037,0,0.000885,0,0
0:2:1.046,451.196,25.5313,0,0.000885,0,0
0:2:1.245,452.549,25.6071,0,0.000885,0,0
0:2:1.446,453.194,25.6485,0,0.000885,0,0
0:2:1.646,454.19,25.7037,0,0.000885,0,0
0:2:1.844,454.893,25.745,0,0.000885,0,0
0:2:2.038,455.716,25.7864,0,0.000885,0,0
0:2:2.239,457.299,25.876,0,0.000885,0,0
0:2:2.437,458.06,25.9243,0,0.000885,0,0
0:2:2.634,458.821,25.9657,0,0.000885,0,0
0:2:2.834,459.528,26.007,0,0.000885,0,0
0:2:3.030,460.934,26.0829,0,0.000885,0,0
0:2:3.230,461.343,26.1036,0,0.000885,0,0
0:2:3.428,462.224,26.1587,0,0.000885,0,0
0:2:3.623,462.695,26.1863,0,0.000885,0,0
0:2:3.823,463.749,26.2414,0,0.000885,0,0
0:2:4.020,464.159,26.269,0,0.000885,0,0
0:2:4.218,465.626,26.3518,0,0.000885,0,0
0:2:4.418,466.156,26.3793,0,0.000885,0,0
0:2:4.612,466.916,26.4207,0,0.000885,0,0
0:2:4.811,468.206,26.4966,0,0.000885,0,0
0:2:5.008,468.794,26.531,0,0.000885,0,0
0:2:5.204,469.674,26.5793,0,0.000885,0,0
0:2:5.405,470.435,26.6207,0,0.000885,0,0
0:2:5.606,471.552,26.6827,0,0.000885,0,0
0:2:5.807,472.548,26.7379,0,0.000885,0,0
0:2:6.009,474.074,26.8275,0,0.000885,0,0
0:2:6.210,474.189,26.8344,0,0.000885,0,0
0:2:6.411,475.421,26.9033,0,0.000885,0,0
0:2:6.611,475.889,26.9309,0,0.000885,0,0
0:2:6.811,477.299,27.0068,0,0.000885,0,0
0:2:7.011,478.237,27.0619,0,0.000885,0,0
0:2:7.207,478.94,27.1033,0,0.000885,0,0
0:2:7.408,479.527,27.1378,0,0.000885,0,0
0:2:7.602,480.702,27.1998,0,0.000885,0,0
0:2:7.802,481.636,27.255,0,0.000885,0,0
0:2:8.000,482.165,27.2826,0,0.000885,0,0
0:2:8.195,483.455,27.3584,0,0.000885,0,0
0:2:8.396,483.984,27.386,0,0.000885,0,0
0:2:8.592,485.452,27.4687,0,0.000885,0,0
0:2:8.789,486.271,27.517,0,0.000885,0,0
0:2:8.989,487.209,27.5721,0,0.000885,0,0
0:2:9.181,487.387,27.579,0,0.000885,0,0
0:2:9.382,488.499,27.6411,0,0.000885,0,0
0:2:9.579,489.322,27.6893,0,0.000885,0,0
0:2:9.777,490.434,27.7514,0,0.000885,0,0
0:2:9.978,491.137,27.7928,0,0.000885,0,0
0:2:10.181,492.138,27.8479,0,0.000885,0,0
0:2:10.382,492.547,27.8755,0,0.000885,0,0
0:2:10.585,493.953,27.9513,0,0.000885,0,0
0:2:10.785,494.598,27.9858,0,0.000885,0,0
0:2:10.985,495.888,28.0617,0,0.000885,0,0
0:2:11.185,496.123,28.0755,0,0.000885,0,0
0:2:11.386,496.711,28.1099,0,0.000885,0,0
0:2:11.583,498.294,28.1996,0,0.000885,0,0
0:2:11.779,498.824,28.2271,0,0.000885,0,0
0:2:11.981,499.993,28.2961,0,0.000885,0,0
0:2:12.175,500.581,28.3306,0,0.000885,0,0
0:2:12.374,501.639,28.3857,0,0.000885,0,0
0:2:12.573,502.4,28.4271,0,0.000885,0,0
0:2:12.769,503.454,28.4891,0,0.000885,0,0
0:2:12.970,504.041,28.5236,0,0.000885,0,0
0:2:13.174,505.038,28.5788,0,0.000885,0,0
0:2:13.373,505.683,28.6132,0,0.000885,0,0
0:2:13.571,506.915,28.6822,0,0.000885,0,0
0:2:13.766,507.502,28.7167,0,0.000885,0,0
0:2:13.968,509.086,28.8063,0,0.000885,0,0
0:2:14.172,509.495,28.8339,0,0.000885,0,0
0:2:14.370,511.141,28.9235,0,0.000885,0,0
0:2:14.569,511.666,28.9511,0,0.000885,0,0
0:2:14.773,512.724,29.0131,0,0.000885,0,0
0:2:14.974,513.543,29.0614,0,0.000885,0,0
0:2:15.176,514.308,29.1028,0,0.000885,0,0
0:2:15.378,514.833,29.1303,0,0.000885,0,0
0:2:15.580,515.478,29.1717,0,0.000885,0,0
0:2:15.781,516.768,29.2407,0,0.000885,0,0
0:2:15.981,517.181,29.2682,0,0.000885,0,0
0:2:16.181,518.351,29.3303,0,0.000885,0,0
0:2:16.382,518.938,29.3648,0,0.000885,0,0
0:2:16.582,519.761,29.413,0,0.000885,0,0
0:2:16.776,520.642,29.4613,0,0.000885,0,0
0:2:16.977,521.99,29.5371,0,0.000885,0,0
0:2:17.175,522.808,29.5854,0,0.000885,0,0
0:2:17.371,523.338,29.613,0,0.000885,0,0
0:2:17.571,524.512,29.6819,0,0.000885,0,0
0:2:17.775,525.508,29.7371,0,0.000885,0,0
0:2:17.974,526.096,29.7716,0,0.000885,0,0
0:2:18.174,527.328,29.8405,0,0.000885,0,0
0:2:18.368,527.795,29.8681,0,0.000885,0,0
0:2:18.569,528.791,29.9232,0,0.000885,0,0
0:2:18.772,529.85,29.9853,0,0.000885,0,0
0:2:18.971,531.198,30.0611,0,0.000885,0,0
0:2:19.169,531.901,30.1025,0,0.000885,0,0
0:2:19.375,532.955,30.1577,0,0.000885,0,0
0:2:19.576,533.248,30.1784,0,0.000885,0,0
0:2:19.770,534.187,30.2266,0,0.000885,0,0
0:2:19.969,535.539,30.3025,0,0.000885,0,0
0:2:20.170,535.833,30.3231,0,0.000885,0,0
0:2:20.372,536.945,30.3852,0,0.000885,0,0
0:2:20.572,537.999,30.4472,0,0.000885,0,0
0:2:20.774,539.173,30.5093,0,0.000885,0,0
0:2:20.975,539.938,30.5576,0,0.000885,0,0
0:2:21.175,540.877,30.6058,0,0.000885,0,0
0:2:21.374,541.166,30.6265,0,0.000885,0,0
0:2:21.576,542.167,30.6817,0,0.000885,0,0
0:2:21.773,543.043,30.7299,0,0.000885,0,0
0:2:21.970,544.218,30.7989,0,0.000885,0,0
0:2:22.170,544.747,30.8265,0,0.000885,0,0
0:2:22.374,545.917,30.8954,0,0.000885,0,0
0:2:22.575,546.331,30.9161,0,0.000885,0,0
0:2:22.771,547.621,30.9919,0,0.000885,0,0
0:2:22.967,548.439,31.0333,0,0.000885,0,0
0:2:23.169,549.556,31.0954,0,0.000885,0,0
0:2:23.373,549.729,31.1091,0,0.000885,0,0
0:2:23.573,551.313,31.1988,0,0.000885,0,0
0:2:23.769,551.842,31.2264,0,0.000885,0,0
0:2:23.975,553.19,31.3022,0,0.000885,0,0
0:2:24.175,553.546,31.3229,0,0.000885,0,0
0:2:24.369,554.128,31.3574,0,0.000885,0,0
0:2:24.570,555.303,31.4263,0,0.000885,0,0
0:2:24.767,555.774,31.447,0,0.000885,0,0
0:2:24.972,557.002,31.5228,0,0.000885,0,0
0:2:25.173,557.709,31.5573,0,0.000885,0,0
0:2:25.374,559.115,31.64,0,0.000885,0,0
0:2:25.576,559.644,31.6676,0,0.000885,0,0
0:2:25.778,560.934,31.7435,0,0.000885,0,0
0:2:25.978,561.521,31.7779,0,0.000885,0,0
0:2:26.180,562.691,31.84,0,0.000885,0,0
0:2:26.379,563.278,31.8745,0,0.000885,0,0
0:2:26.580,564.568,31.9503,0,0.000885,0,0
0:2:26.780,564.92,31.971,0,0.000885,0,0
0:2:26.974,566.388,32.0537,0,0.000885,0,0
0:2:27.175,566.681,32.0675,0,0.000885,0,0
0:2:27.370,568.149,32.1503,0,0.000885,0,0
0:2:27.569,568.501,32.1709,0,0.000885,0,0
0:2:27.768,569.848,32.2468,0,0.000885,0,0
0:2:27.971,570.493,32.2813,0,0.000885,0,0
0:2:28.172,571.548,32.3433,0,0.000885,0,0
0:2:28.376,571.899,32.364,0,0.000885,0,0
0:2:28.575,573.193,32.4329,0,0.000885,0,0
0:2:28.775,573.718,32.4674,0,0.000885,0,0
0:2:28.968,574.305,32.5019,0,0.000885,0,0
0:2:29.171,575.422,32.5639,0,0.000885,0,0
0:2:29.375,575.947,32.5915,0,0.000885,0,0
0:2:29.572,577.237,32.6674,0,0.000885,0,0
0:2:29.772,577.944,32.7018,0,0.000885,0,0
0:2:29.976,579.408,32.7846,0,0.000885,0,0
0:2:30.177,580.053,32.8259,0,0.000885,0,0
0:2:30.378,581.111,32.8811,0,0.000885,0,0
0:2:30.581,581.227,32.888,0,0.000885,0,0
0:2:30.783,582.984,32.9914,0,0.000885,0,0
0:2:30.982,583.691,33.0328,0,0.000885,0,0
0:2:31.182,584.394,33.0673,0,0.000885,0,0
0:2:31.383,584.923,33.1017,0,0.000885,0,0
0:2:31.583,585.978,33.1569,0,0.000885,0,0
0:2:31.785,586.796,33.2052,0,0.000885,0,0
0:2:31.980,587.97,33.2741,0,0.000885,0,0
0:2:32.181,588.206,33.2879,0,0.000885,0,0
0:2:32.378,589.554,33.3637,0,0.000885,0,0
0:2:32.574,590.377,33.4051,0,0.000885,0,0
0:2:32.776,591.725,33.4878,0,0.000885,0,0
0:2:32.972,592.432,33.5223,0,0.000885,0,0
0:2:33.173,593.606,33.5913,0,0.000885,0,0
0:2:33.371,594.193,33.6257,0,0.000885,0,0
0:2:33.576,595.132,33.6809,0,0.000885,0,0
0:2:33.778,595.599,33.7016,0,0.000885,0,0
0:2:33.974,596.186,33.736,0,0.000885,0,0
0:2:34.175,597.303,33.7981,0,0.000885,0,0
0:2:34.375,597.948,33.8395,0,0.000885,0,0
0:2:34.570,598.949,33.8946,0,0.000885,0,0
0:2:34.771,599.651,33.936,0,0.000885,0,0
0:2:34.969,601.355,34.0325,0,0.000885,0,0
0:2:35.166,601.706,34.0463,0,0.000885,0,0
0:2:35.370,602.703,34.1084,0,0.000885,0,0
0:2:35.573,603.174,34.1359,0,0.000885,0,0
0:2:35.775,603.468,34.1497,0,0.000885,0,0
0:2:35.976,604.113,34.1842,0,0.000885,0,0
0:2:36.178,605.523,34.2669,0,0.000885,0,0
0:2:36.378,606.106,34.3014,0,0.000885,0,0
0:2:36.580,607.458,34.3773,0,0.000885,0,0
0:2:36.781,607.987,34.4048,0,0.000885,0,0
0:2:36.978,609.104,34.4669,0,0.000885,0,0
0:2:37.177,609.335,34.4807,0,0.000885,0,0
0:2:37.378,610.394,34.5427,0,0.000885,0,0
0:2:37.573,611.155,34.5841,0,0.000885,0,0
0:2:37.774,612.035,34.6324,0,0.000885,0,0
0:2:37.971,612.387,34.6531,0,0.000885,0,0
0:2:38.166,612.916,34.6806,0,0.000885,0,0
0:2:38.369,614.033,34.7496,0,0.000885,0,0
0:2:38.575,614.562,34.7772,0,0.000885,0,0
0:2:38.775,615.265,34.8185,0,0.000885,0,0
0:2:38.973,615.558,34.8323,0,0.000885,0,0
0:2:39.171,616.261,34.8737,0,0.000885,0,0
0:2:39.372,616.79,34.9013,0,0.000885,0,0
0:2:39.566,617.498,34.9426,0,0.000885,0,0
0:2:39.766,617.729,34.9564,0,0.000885,0,0
0:2:39.966,618.374,34.9909,0,0.000885,0,0
0:2:40.173,618.436,34.9978,0,0.000885,0,0
0:2:40.375,618.143,34.9771,0,0.000885,0,0
0:2:40.575,618.2,34.984,0,0.000885,0,0
0:2:40.778,617.556,34.9495,0,0.000885,0,0
0:2:40.980,616.968,34.9151,0,0.000885,0,0
0:2:41.182,614.798,34.7909,0,0.000885,0,0
0:2:41.383,612.974,34.6875,0,0.000885,0,0
0:2:41.582,607.164,34.3566,0,0.000885,0,0
0:2:41.783,602.996,34.1222,0,0.000885,0,0
0:2:41.985,593.077,33.5637,0,0.000885,0,0
0:2:42.178,586.035,33.1638,0,0.000885,0,0
0:2:42.379,566.623,32.0675,0,0.000885,0,0
0:2:42.573,555.303,31.4263,0,0.000885,0,0
0:2:42.771,534.832,30.268,0,0.000885,0,0
0:2:42.970,527.15,29.8336,0,0.000885,0,0
0:2:43.173,520.113,29.4337,0,0.000885,0,0
0:2:43.373,507.266,28.7029,0,0.000885,0,0
0:2:43.570,500.994,28.3512,0,0.000885,0,0
0:2:43.775,488.735,27.6549,0,0.000885,0,0
0:2:43.975,482.752,27.317,0,0.000885,0,0
0:2:44.178,470.435,26.6207,0,0.000885,0,0
0:2:44.378,463.807,26.2483,0,0.000885,0,0
0:2:44.573,451.374,25.5451,0,0.000885,0,0
0:2:44.771,444.924,25.1797,0,0.000885,0,0
0:2:44.932,438.003,24.7867,0,0.000885,0,0