File: DataFile2021-07-25_064639.csv
Test ID:,Date Tested:,Time:,Test Type:,Diameter Avg. (mm):,Cyl. Corr. Factor:,Height (mm):,Age (days):,Weight (kN):,Break Type:,Ramp Rate (MPa/s):,Load at Break (kN):,Stress at Break (MPa):
12,7/25/2021,06:46,Cylinder,100,1,200,0,3.5,2,0.33,263.63,33.56
Sample Time,Load (kN),Stress (MPa),Long. Strain,Trans. Strain,Chan1 Deflection (mm),Chan2 Deflection (mm)
0:0:12.152,5.28004,0.668791,0,0.000885,0,0
0:0:12.252,7.56642,0.965266,0,0.000885,0,0
0:0:12.353,10.4978,1.33758,0,0.000885,0,0
0:0:12.452,10.4978,1.33758,0,0.000885,0,0
0:0:12.551,11.9079,1.51685,0,0.000885,0,0
0:0:12.648,11.7878,1.50306,0,0.000885,0,0
0:0:12.749,11.7878,1.50306,0,0.000885,0,0
0:0:12.851,12.0814,1.53753,0,0.000885,0,0
0:0:12.950,11.9079,1.51685,0,0.000885,0,0
0:0:13.048,11.6721,1.48927,0,0.000885,0,0
0:0:13.146,11.6721,1.48927,0,0.000885,0,0
0:0:13.245,11.552,1.46858,0,0.000885,0,0
0:0:13.347,11.2006,1.42721,0,0.000885,0,0
0:0:13.446,11.6721,1.48927,0,0.000885,0,0
0:0:13.543,11.6721,1.48927,0,0.000885,0,0
0:0:13.640,11.3786,1.4479,0,0.000885,0,0
0:0:13.740,11.2629,1.43411,0,0.000885,0,0
0:0:13.841,11.2629,1.43411,0,0.000885,0,0
0:0:13.940,11.2629,1.43411,0,0.000885,0,0
0:0:14.040,11.2006,1.42721,0,0.000885,0,0
0:0:14.137,11.7878,1.50306,0,0.000885,0,0
0:0:14.236,11.7878,1.50306,0,0.000885,0,0
0:0:14.337,11.3786,1.4479,0,0.000885,0,0
0:0:14.437,10.8492,1.37895,0,0.000885,0,0
0:0:14.535,10.907,1.38585,0,0.000885,0,0
0:0:14.633,10.907,1.38585,0,0.000885,0,0
0:0:14.732,10.907,1.38585,0,0.000885,0,0
0:0:14.831,11.6143,1.47548,0,0.000885,0,0
0:0:14.933,11.9657,1.52374,0,0.000885,0,0
0:0:15.034,11.9657,1.52374,0,0.000885,0,0
0:0:15.130,11.6721,1.48927,0,0.000885,0,0
0:0:15.228,12.0235,1.53064,0,0.000885,0,0
0:0:15.329,11.9657,1.52374,0,0.000885,0,0
0:0:15.430,11.9657,1.52374,0,0.000885,0,0
0:0:15.530,12.8465,1.63406,0,0.000885,0,0
0:0:15.628,12.9043,1.64095,0,0.000885,0,0
0:0:15.724,12.9043,1.64095,0,0.000885,0,0
0:0:15.825,14.2521,1.81332,0,0.000885,0,0
0:0:15.927,14.7192,1.87537,0,0.000885,0,0
0:0:16.027,15.3686,1.95811,0,0.000885,0,0
0:0:16.125,15.3686,1.95811,0,0.000885,0,0
0:0:16.222,16.0714,2.04774,0,0.000885,0,0
0:0:16.322,15.72,1.99948,0,0.000885,0,0
0:0:16.424,16.4228,2.08911,0,0.000885,0,0
0:0:16.524,16.4228,2.08911,0,0.000885,0,0
0:0:16.622,16.9522,2.15806,0,0.000885,0,0
0:0:16.719,17.1835,2.18564,0,0.000885,0,0
0:0:16.820,17.655,2.24769,0,0.000885,0,0
0:0:16.920,17.655,2.24769,0,0.000885,0,0
0:0:17.021,18.2422,2.32353,0,0.000885,0,0
0:0:17.120,18.7092,2.38559,0,0.000885,0,0
0:0:17.218,18.7092,2.38559,0,0.000885,0,0
0:0:17.318,18.945,2.41317,0,0.000885,0,0
0:0:17.418,19.5321,2.48901,0,0.000885,0,0
0:0:17.519,19.7056,2.50969,0,0.000885,0,0
0:0:17.620,19.7056,2.50969,0,0.000885,0,0
0:0:17.721,20.1193,2.55795,0,0.000885,0,0
0:0:17.823,20.235,2.57864,0,0.000885,0,0
0:0:17.926,20.702,2.6338,0,0.000885,0,0
0:0:18.027,20.702,2.6338,0,0.000885,0,0
0:0:18.128,21.347,2.71653,0,0.000885,0,0
0:0:18.230,21.347,2.71653,0,0.000885,0,0
0:0:18.330,21.8185,2.77859,0,0.000885,0,0
0:0:18.431,21.8185,2.77859,0,0.000885,0,0
0:0:18.531,21.9342,2.79238,0,0.000885,0,0
0:0:18.632,22.4635,2.86132,0,0.000885,0,0
0:0:18.733,23.1663,2.95096,0,0.000885,0,0
0:0:18.833,23.1663,2.95096,0,0.000885,0,0
0:0:18.935,23.8692,3.04059,0,0.000885,0,0
0:0:19.037,23.9893,3.05438,0,0.000885,0,0
0:0:19.137,24.3407,3.09575,0,0.000885,0,0
0:0:19.235,24.3407,3.09575,0,0.000885,0,0
0:0:19.334,25.0435,3.18538,0,0.000885,0,0
0:0:19.434,25.4527,3.24054,0,0.000885,0,0
0:0:19.536,25.8664,3.29569,0,0.000885,0,0
0:0:19.634,25.8664,3.29569,0,0.000885,0,0
0:0:19.732,26.2178,3.33706,0,0.000885,0,0
0:0:19.831,26.9206,3.42669,0,0.000885,0,0
0:0:19.933,27.0986,3.44738,0,0.000885,0,0
0:0:20.033,27.0986,3.44738,0,0.000885,0,0
0:0:20.133,27.45,3.49564,0,0.000885,0,0
0:0:20.231,27.8014,3.53701,0,0.000885,0,0
0:0:20.331,27.8014,3.53701,0,0.000885,0,0
0:0:20.431,28.3263,3.60596,0,0.000885,0,0
0:0:20.533,28.74,3.66112,0,0.000885,0,0
0:0:20.630,29.1492,3.70938,0,0.000885,0,0
0:0:20.728,29.1492,3.70938,0,0.000885,0,0
0:0:20.827,29.7942,3.79212,0,0.000885,0,0
0:0:20.929,30.1456,3.84038,0,0.000885,0,0
0:0:21.029,30.6749,3.90243,0,0.000885,0,0
0:0:21.129,30.6749,3.90243,0,0.000885,0,0
0:0:21.227,31.0263,3.9507,0,0.000885,0,0
0:0:21.326,31.5557,4.01964,0,0.000885,0,0
0:0:21.428,31.9071,4.06101,0,0.000885,0,0
0:0:21.528,31.9071,4.06101,0,0.000885,0,0
0:0:21.628,32.3742,4.12306,0,0.000885,0,0
0:0:21.724,32.2007,4.10238,0,0.000885,0,0
0:0:21.822,32.432,4.12996,0,0.000885,0,0
0:0:21.923,32.432,4.12996,0,0.000885,0,0
0:0:22.024,33.1393,4.21959,0,0.000885,0,0
0:0:22.124,33.6641,4.28854,0,0.000885,0,0
0:0:22.223,33.6641,4.28854,0,0.000885,0,0
0:0:22.321,33.722,4.29543,0,0.000885,0,0
0:0:22.423,33.9577,4.32301,0,0.000885,0,0
0:0:22.523,34.2513,4.36438,0,0.000885,0,0
0:0:22.623,34.2513,4.36438,0,0.000885,0,0
0:0:22.725,35.0742,4.4678,0,0.000885,0,0
0:0:22.826,35.2477,4.48849,0,0.000885,0,0
0:0:22.929,35.5991,4.52986,0,0.000885,0,0
0:0:23.029,35.5991,4.52986,0,0.000885,0,0
0:0:23.131,36.0128,4.58501,0,0.000885,0,0
0:0:23.233,36.2441,4.61259,0,0.000885,0,0
0:0:23.333,36.8891,4.69533,0,0.000885,0,0
0:0:23.434,36.8891,4.69533,0,0.000885,0,0
0:0:23.536,37.1827,4.7367,0,0.000885,0,0
0:0:23.636,37.5341,4.77807,0,0.000885,0,0
0:0:23.736,37.3028,4.75049,0,0.000885,0,0
0:0:23.837,37.3028,4.75049,0,0.000885,0,0
0:0:23.939,37.8277,4.81944,0,0.000885,0,0
0:0:24.039,38.2992,4.87459,0,0.000885,0,0
0:0:24.140,38.357,4.88149,0,0.000885,0,0
0:0:24.237,38.357,4.88149,0,0.000885,0,0
0:0:24.336,38.5349,4.90907,0,0.000885,0,0
0:0:24.437,38.5928,4.91596,0,0.000885,0,0
0:0:24.538,39.0598,4.97112,0,0.000885,0,0
0:0:24.639,39.0598,4.97112,0,0.000885,0,0
0:0:24.737,39.1799,4.9918,0,0.000885,0,0
0:0:24.834,39.2378,4.9987,0,0.000885,0,0
0:0:24.936,40.0562,5.10212,0,0.000885,0,0
0:0:25.036,40.0562,5.10212,0,0.000885,0,0
0:0:25.137,40.4121,5.14349,0,0.000885,0,0
0:0:25.235,41.1149,5.23312,0,0.000885,0,0
0:0:25.333,41.1149,5.23312,0,0.000885,0,0
0:0:25.434,42.1113,5.36412,0,0.000885,0,0
0:0:25.534,41.9334,5.33654,0,0.000885,0,0
0:0:25.635,42.1691,5.37102,0,0.000885,0,0
0:0:25.733,42.1691,5.37102,0,0.000885,0,0
0:0:25.831,43.0499,5.48133,0,0.000885,0,0
0:0:25.931,43.6371,5.55717,0,0.000885,0,0
0:0:26.032,43.7527,5.57096,0,0.000885,0,0
0:0:26.132,43.7527,5.57096,0,0.000885,0,0
0:0:26.229,43.9306,5.59165,0,0.000885,0,0
0:0:26.327,44.3399,5.64681,0,0.000885,0,0
0:0:26.428,44.8069,5.70196,0,0.000885,0,0
0:0:26.528,44.8069,5.70196,0,0.000885,0,0
0:0:26.629,45.2206,5.75712,0,0.000885,0,0
0:0:26.729,45.8656,5.83986,0,0.000885,0,0
0:0:26.827,46.4528,5.9157,0,0.000885,0,0
0:0:26.926,46.4528,5.9157,0,0.000885,0,0
0:0:27.027,46.7464,5.95018,0,0.000885,0,0
0:0:27.128,46.6841,5.94328,0,0.000885,0,0
0:0:27.226,46.6841,5.94328,0,0.000885,0,0
0:0:27.324,46.9777,5.98465,0,0.000885,0,0
0:0:27.421,47.3914,6.03291,0,0.000885,0,0
0:0:27.523,47.507,6.0467,0,0.000885,0,0
0:0:27.623,47.507,6.0467,0,0.000885,0,0
0:0:27.724,48.0363,6.11565,0,0.000885,0,0
0:0:27.825,48.0942,6.12254,0,0.000885,0,0
0:0:27.928,48.5034,6.1777,0,0.000885,0,0
0:0:28.028,48.5034,6.1777,0,0.000885,0,0
0:0:28.130,49.0327,6.23976,0,0.000885,0,0
0:0:28.231,49.6199,6.3156,0,0.000885,0,0
0:0:28.332,50.2026,6.39144,0,0.000885,0,0
0:0:28.432,50.2026,6.39144,0,0.000885,0,0
0:0:28.533,50.5585,6.4397,0,0.000885,0,0
0:0:28.635,50.7898,6.46728,0,0.000885,0,0
0:0:28.736,51.3191,6.53623,0,0.000885,0,0
0:0:28.836,51.3191,6.53623,0,0.000885,0,0
0:0:28.937,51.7862,6.59139,0,0.000885,0,0
0:0:29.038,52.2577,6.65344,0,0.000885,0,0
0:0:29.140,52.6669,6.7086,0,0.000885,0,0
0:0:29.239,52.6669,6.7086,0,0.000885,0,0
0:0:29.338,52.8449,6.72928,0,0.000885,0,0
0:0:29.436,53.0806,6.75686,0,0.000885,0,0
0:0:29.538,53.6055,6.82581,0,0.000885,0,0
0:0:29.638,53.6055,6.82581,0,0.000885,0,0
0:0:29.739,53.8991,6.86028,0,0.000885,0,0
0:0:29.837,54.1349,6.89476,0,0.000885,0,0
0:0:29.935,54.4284,6.92923,0,0.000885,0,0
0:0:30.037,54.4284,6.92923,0,0.000885,0,0
0:0:30.137,55.0156,7.00507,0,0.000885,0,0
0:0:30.237,55.1313,7.01886,0,0.000885,0,0
0:0:30.334,55.1313,7.01886,0,0.000885,0,0
0:0:30.432,55.8341,7.10849,0,0.000885,0,0
0:0:30.533,56.4212,7.18434,0,0.000885,0,0
0:0:30.634,56.5992,7.20502,0,0.000885,0,0
0:0:30.734,56.5992,7.20502,0,0.000885,0,0
0:0:30.832,56.8928,7.24639,0,0.000885,0,0
0:0:30.931,57.2442,7.28776,0,0.000885,0,0
0:0:31.032,57.7112,7.34981,0,0.000885,0,0
0:0:31.133,57.7112,7.34981,0,0.000885,0,0
0:0:31.233,58.0048,7.38429,0,0.000885,0,0
0:0:31.331,58.1205,7.39807,0,0.000885,0,0
0:0:31.428,58.3562,7.43255,0,0.000885,0,0
0:0:31.529,58.3562,7.43255,0,0.000885,0,0
0:0:31.630,59.1213,7.52907,0,0.000885,0,0
0:0:31.731,59.237,7.54286,0,0.000885,0,0
0:0:31.831,59.9398,7.6325,0,0.000885,0,0
0:0:31.927,59.9398,7.6325,0,0.000885,0,0
0:0:32.028,60.2912,7.67386,0,0.000885,0,0
0:0:32.129,60.4691,7.70144,0,0.000885,0,0
0:0:32.229,60.4691,7.70144,0,0.000885,0,0
0:0:32.327,60.7627,7.73592,0,0.000885,0,0
0:0:32.424,60.7627,7.73592,0,0.000885,0,0
0:0:32.523,61.1719,7.79108,0,0.000885,0,0
0:0:32.624,61.1719,7.79108,0,0.000885,0,0
0:0:32.725,61.6435,7.84623,0,0.000885,0,0
0:0:32.827,61.8169,7.87381,0,0.000885,0,0
0:0:32.927,62.5198,7.96344,0,0.000885,0,0
0:0:33.029,62.5198,7.96344,0,0.000885,0,0
0:0:33.130,62.8712,8.00481,0,0.000885,0,0
0:0:33.233,63.1647,8.03929,0,0.000885,0,0
0:0:33.334,63.6941,8.10823,0,0.000885,0,0
0:0:33.435,63.6941,8.10823,0,0.000885,0,0
0:0:33.536,63.9298,8.14271,0,0.000885,0,0
0:0:33.637,64.4547,8.20476,0,0.000885,0,0
0:0:33.737,65.2198,8.30129,0,0.000885,0,0
0:0:33.838,65.2198,8.30129,0,0.000885,0,0
0:0:33.939,65.5712,8.34955,0,0.000885,0,0
0:0:34.040,65.5712,8.34955,0,0.000885,0,0
0:0:34.140,66.0383,8.4116,0,0.000885,0,0
0:0:34.241,66.0383,8.4116,0,0.000885,0,0
0:0:34.340,66.3319,8.44608,0,0.000885,0,0
0:0:34.438,67.097,8.5426,0,0.000885,0,0
0:0:34.538,67.5062,8.59776,0,0.000885,0,0
0:0:34.638,67.5062,8.59776,0,0.000885,0,0
0:0:34.740,67.6841,8.61845,0,0.000885,0,0
0:0:34.837,67.8576,8.63913,0,0.000885,0,0
0:0:34.935,68.209,8.68739,0,0.000885,0,0
0:0:35.035,68.209,8.68739,0,0.000885,0,0
0:0:35.135,68.854,8.77013,0,0.000885,0,0
0:0:35.237,69.2054,8.8115,0,0.000885,0,0
0:0:35.336,69.2054,8.8115,0,0.000885,0,0
0:0:35.434,69.3834,8.83218,0,0.000885,0,0
0:0:35.532,70.0284,8.91492,0,0.000885,0,0
0:0:35.633,70.144,8.92871,0,0.000885,0,0
0:0:35.734,70.144,8.92871,0,0.000885,0,0
0:0:35.833,70.6733,8.99766,0,0.000885,0,0
0:0:35.930,70.6155,8.99076,0,0.000885,0,0
0:0:36.029,71.3762,9.08729,0,0.000885,0,0
0:0:36.129,71.3762,9.08729,0,0.000885,0,0
0:0:36.231,71.6119,9.11487,0,0.000885,0,0
0:0:36.331,71.9055,9.15624,0,0.000885,0,0
0:0:36.429,72.2569,9.19761,0,0.000885,0,0
0:0:36.527,72.2569,9.19761,0,0.000885,0,0
0:0:36.628,72.6661,9.25276,0,0.000885,0,0
0:0:36.729,72.6083,9.24587,0,0.000885,0,0
0:0:36.828,72.6083,9.24587,0,0.000885,0,0
0:0:36.926,73.3111,9.3355,0,0.000885,0,0
0:0:37.024,73.5469,9.36308,0,0.000885,0,0
0:0:37.125,73.8405,9.40445,0,0.000885,0,0
0:0:37.226,73.8405,9.40445,0,0.000885,0,0
0:0:37.326,74.1919,9.44582,0,0.000885,0,0
0:0:37.427,74.6056,9.50098,0,0.000885,0,0
0:0:37.529,75.1305,9.56303,0,0.000885,0,0
0:0:37.631,75.1305,9.56303,0,0.000885,0,0
0:0:37.732,75.2506,9.58371,0,0.000885,0,0
0:0:37.834,76.0112,9.68024,0,0.000885,0,0
0:0:37.934,76.4204,9.7285,0,0.000885,0,0
0:0:38.035,76.4204,9.7285,0,0.000885,0,0
0:0:38.136,76.5405,9.74229,0,0.000885,0,0
0:0:38.237,76.5405,9.74229,0,0.000885,0,0
0:0:38.338,77.1233,9.81813,0,0.000885,0,0
0:0:38.438,77.1233,9.81813,0,0.000885,0,0
0:0:38.540,77.4168,9.8595,0,0.000885,0,0
0:0:38.639,78.1819,9.95603,0,0.000885,0,0
0:0:38.741,78.3554,9.97671,0,0.000885,0,0
0:0:38.840,78.3554,9.97671,0,0.000885,0,0
0:0:38.940,79.0004,10.0595,0,0.000885,0,0
0:0:39.038,79.1783,10.0801,0,0.000885,0,0
0:0:39.137,79.4719,10.1215,0,0.000885,0,0
0:0:39.239,79.4719,10.1215,0,0.000885,0,0
0:0:39.339,79.939,10.1767,0,0.000885,0,0
0:0:39.440,80.2326,10.218,0,0.000885,0,0
0:0:39.538,80.4105,10.2387,0,0.000885,0,0
0:0:39.635,80.4105,10.2387,0,0.000885,0,0
0:0:39.735,81.0555,10.3215,0,0.000885,0,0
0:0:39.836,81.5226,10.3766,0,0.000885,0,0
0:0:39.936,81.5226,10.3766,0,0.000885,0,0
0:0:40.034,81.9941,10.4387,0,0.000885,0,0
0:0:40.132,82.4611,10.5007,0,0.000885,0,0
0:0:40.232,82.8748,10.549,0,0.000885,0,0
0:0:40.333,82.8748,10.549,0,0.000885,0,0
0:0:40.434,83.2841,10.6041,0,0.000885,0,0
0:0:40.533,83.6933,10.6593,0,0.000885,0,0
0:0:40.631,83.9869,10.6938,0,0.000885,0,0
0:0:40.730,83.9869,10.6938,0,0.000885,0,0
0:0:40.831,84.3383,10.7351,0,0.000885,0,0
0:0:40.932,84.5162,10.7627,0,0.000885,0,0
0:0:41.030,84.6897,10.7834,0,0.000885,0,0
0:0:41.127,84.6897,10.7834,0,0.000885,0,0
0:0:41.227,85.397,10.873,0,0.000885,0,0
0:0:41.328,85.9797,10.9489,0,0.000885,0,0
0:0:41.429,86.3934,10.9971,0,0.000885,0,0
0:0:41.528,86.3934,10.9971,0,0.000885,0,0
0:0:41.626,86.509,11.0178,0,0.000885,0,0
0:0:41.726,86.5668,11.0247,0,0.000885,0,0
0:0:41.827,86.5668,11.0247,0,0.000885,0,0
0:0:41.928,87.0384,11.0799,0,0.000885,0,0
0:0:42.026,87.5054,11.1419,0,0.000885,0,0
0:0:42.124,87.9769,11.204,0,0.000885,0,0
0:0:42.222,87.9769,11.204,0,0.000885,0,0
0:0:42.323,87.9191,11.1971,0,0.000885,0,0
0:0:42.424,88.2082,11.2316,0,0.000885,0,0
0:0:42.526,88.9155,11.3212,0,0.000885,0,0
0:0:42.625,88.9155,11.3212,0,0.000885,0,0
0:0:42.728,88.9155,11.3212,0,0.000885,0,0
0:0:42.828,89.3826,11.3832,0,0.000885,0,0
0:0:42.931,89.9119,11.4453,0,0.000885,0,0
0:0:43.031,89.9119,11.4453,0,0.000885,0,0
0:0:43.133,90.3211,11.5005,0,0.000885,0,0
0:0:43.234,91.024,11.5901,0,0.000885,0,0
0:0:43.336,91.6111,11.6659,0,0.000885,0,0
0:0:43.435,91.6111,11.6659,0,0.000885,0,0
0:0:43.536,92.2561,11.7487,0,0.000885,0,0
0:0:43.637,92.5497,11.7831,0,0.000885,0,0
0:0:43.737,92.7276,11.8038,0,0.000885,0,0
0:0:43.838,92.7276,11.8038,0,0.000885,0,0
0:0:43.941,93.3726,11.8866,0,0.000885,0,0
0:0:44.041,93.4883,11.9004,0,0.000885,0,0
0:0:44.140,93.8975,11.9555,0,0.000885,0,0
0:0:44.236,93.8975,11.9555,0,0.000885,0,0
0:0:44.337,93.8397,11.9486,0,0.000885,0,0
0:0:44.438,94.5425,12.0382,0,0.000885,0,0
0:0:44.538,94.9562,12.0934,0,0.000885,0,0
0:0:44.636,94.9562,12.0934,0,0.000885,0,0
0:0:44.735,95.014,12.1003,0,0.000885,0,0
0:0:44.835,95.4232,12.1486,0,0.000885,0,0
0:0:44.936,95.4232,12.1486,0,0.000885,0,0
0:0:45.036,95.7747,12.1968,0,0.000885,0,0
0:0:45.134,96.0682,12.2313,0,0.000885,0,0
0:0:45.232,96.2462,12.252,0,0.000885,0,0
0:0:45.332,96.2462,12.252,0,0.000885,0,0
0:0:45.431,96.7755,12.3209,0,0.000885,0,0
0:0:45.533,97.0068,12.3485,0,0.000885,0,0
0:0:45.632,97.2426,12.383,0,0.000885,0,0
0:0:45.730,97.2426,12.383,0,0.000885,0,0
0:0:45.829,97.8876,12.4657,0,0.000885,0,0
0:0:45.931,98.0655,12.4864,0,0.000885,0,0
0:0:46.031,98.1811,12.5002,0,0.000885,0,0
0:0:46.130,98.1811,12.5002,0,0.000885,0,0
0:0:46.228,98.4169,12.5278,0,0.000885,0,0
0:0:46.327,99.1197,12.6174,0,0.000885,0,0
0:0:46.427,99.1197,12.6174,0,0.000885,0,0
0:0:46.528,99.5868,12.6795,0,0.000885,0,0
0:0:46.628,100.232,12.7622,0,0.000885,0,0
0:0:46.726,100.41,12.7829,0,0.000885,0,0
0:0:46.825,100.41,12.7829,0,0.000885,0,0
0:0:46.926,100.939,12.8518,0,0.000885,0,0
0:0:47.029,101.233,12.8863,0,0.000885,0,0
0:0:47.128,101.584,12.9346,0,0.000885,0,0
0:0:47.225,101.584,12.9346,0,0.000885,0,0
0:0:47.322,101.758,12.9552,0,0.000885,0,0
0:0:47.423,102.345,13.0311,0,0.000885,0,0
0:0:47.524,102.46,13.0449,0,0.000885,0,0
0:0:47.625,102.46,13.0449,0,0.000885,0,0
0:0:47.726,102.816,13.0931,0,0.000885,0,0
0:0:47.829,103.225,13.1414,0,0.000885,0,0
0:0:47.930,103.692,13.2035,0,0.000885,0,0
0:0:48.031,103.692,13.2035,0,0.000885,0,0
0:0:48.133,104.164,13.2655,0,0.000885,0,0
0:0:48.235,104.631,13.3207,0,0.000885,0,0
0:0:48.336,104.751,13.3345,0,0.000885,0,0
0:0:48.436,104.751,13.3345,0,0.000885,0,0
0:0:48.537,105.512,13.431,0,0.000885,0,0
0:0:48.637,105.748,13.4655,0,0.000885,0,0
0:0:48.738,105.805,13.4724,0,0.000885,0,0
0:0:48.839,105.805,13.4724,0,0.000885,0,0
0:0:48.940,106.45,13.5551,0,0.000885,0,0
0:0:49.041,107.038,13.6309,0,0.000885,0,0
0:0:49.143,107.798,13.7275,0,0.000885,0,0
0:0:49.241,107.798,13.7275,0,0.000885,0,0
0:0:49.339,107.798,13.7275,0,0.000885,0,0
0:0:49.439,108.15,13.7688,0,0.000885,0,0
0:0:49.539,108.15,13.7688,0,0.000885,0,0
0:0:49.640,108.443,13.8102,0,0.000885,0,0
0:0:49.740,108.679,13.8378,0,0.000885,0,0
0:0:49.836,108.915,13.8654,0,0.000885,0,0
0:0:49.935,108.915,13.8654,0,0.000885,0,0
0:0:50.037,109.266,13.9136,0,0.000885,0,0
0:0:50.137,109.853,13.9895,0,0.000885,0,0
0:0:50.239,110.027,14.0101,0,0.000885,0,0
0:0:50.335,110.027,14.0101,0,0.000885,0,0
0:0:50.433,110.378,14.0515,0,0.000885,0,0
0:0:50.534,111.023,14.1343,0,0.000885,0,0
0:0:50.636,110.792,14.1067,0,0.000885,0,0
0:0:50.735,110.792,14.1067,0,0.000885,0,0
0:0:50.833,111.673,14.217,0,0.000885,0,0
0:0:50.930,112.197,14.2859,0,0.000885,0,0
0:0:51.031,112.197,14.2859,0,0.000885,0,0
0:0:51.132,112.607,14.3411,0,0.000885,0,0
0:0:51.233,112.727,14.3549,0,0.000885,0,0
0:0:51.331,113.545,14.4583,0,0.000885,0,0
0:0:51.428,113.545,14.4583,0,0.000885,0,0
0:0:51.527,113.314,14.4307,0,0.000885,0,0
0:0:51.629,113.314,14.4307,0,0.000885,0,0
0:0:51.730,114.426,14.5686,0,0.000885,0,0
0:0:51.827,114.426,14.5686,0,0.000885,0,0
0:0:51.925,114.604,14.5893,0,0.000885,0,0
0:0:52.024,114.898,14.6307,0,0.000885,0,0
0:0:52.125,115.191,14.6651,0,0.000885,0,0
0:0:52.226,115.191,14.6651,0,0.000885,0,0
0:0:52.326,115.774,14.741,0,0.000885,0,0
0:0:52.424,115.952,14.7617,0,0.000885,0,0
0:0:52.521,116.539,14.8375,0,0.000885,0,0
0:0:52.622,116.539,14.8375,0,0.000885,0,0
0:0:52.723,117.126,14.9134,0,0.000885,0,0
0:0:52.824,117.357,14.9409,0,0.000885,0,0
0:0:52.926,117.357,14.9409,0,0.000885,0,0
0:0:53.029,117.478,14.9547,0,0.000885,0,0
0:0:53.129,117.829,15.003,0,0.000885,0,0
0:0:53.231,118.238,15.0581,0,0.000885,0,0
0:0:53.332,118.652,15.1064,0,0.000885,0,0
0:0:53.433,118.652,15.1064,0,0.000885,0,0
0:0:53.534,119.119,15.1685,0,0.000885,0,0
0:0:53.634,119.942,15.2719,0,0.000885,0,0
0:0:53.734,119.942,15.2719,0,0.000885,0,0
0:0:53.835,120.173,15.2995,0,0.000885,0,0
0:0:53.936,120.351,15.3202,0,0.000885,0,0
0:0:54.038,120.76,15.3753,0,0.000885,0,0
0:0:54.137,120.76,15.3753,0,0.000885,0,0
0:0:54.240,121.232,15.4374,0,0.000885,0,0
0:0:54.340,121.525,15.4718,0,0.000885,0,0
0:0:54.438,121.992,15.5339,0,0.000885,0,0
0:0:54.536,121.992,15.5339,0,0.000885,0,0
0:0:54.636,121.992,15.5339,0,0.000885,0,0
0:0:54.736,122.58,15.6097,0,0.000885,0,0
0:0:54.837,123.047,15.6649,0,0.000885,0,0
0:0:54.935,123.047,15.6649,0,0.000885,0,0
0:0:55.033,123.225,15.6925,0,0.000885,0,0
0:0:55.133,123.518,15.7269,0,0.000885,0,0
0:0:55.234,123.87,15.7683,0,0.000885,0,0
0:0:55.335,123.87,15.7683,0,0.000885,0,0
0:0:55.433,124.279,15.8235,0,0.000885,0,0
0:0:55.531,124.693,15.8786,0,0.000885,0,0
0:0:55.630,124.75,15.8855,0,0.000885,0,0
0:0:55.731,124.75,15.8855,0,0.000885,0,0
0:0:55.832,125.511,15.982,0,0.000885,0,0
0:0:55.930,125.862,16.0234,0,0.000885,0,0
0:0:56.028,125.862,16.0234,0,0.000885,0,0
0:0:56.127,125.925,16.0303,0,0.000885,0,0
0:0:56.229,126.743,16.1406,0,0.000885,0,0
0:0:56.329,127.152,16.1889,0,0.000885,0,0
0:0:56.430,127.152,16.1889,0,0.000885,0,0
0:0:56.527,127.797,16.2716,0,0.000885,0,0
0:0:56.625,128.091,16.3061,0,0.000885,0,0
0:0:56.726,128.269,16.3337,0,0.000885,0,0
0:0:56.827,128.269,16.3337,0,0.000885,0,0
0:0:56.927,128.505,16.3613,0,0.000885,0,0
0:0:57.025,128.678,16.3819,0,0.000885,0,0
0:0:57.121,128.798,16.3957,0,0.000885,0,0
0:0:57.222,128.798,16.3957,0,0.000885,0,0
0:0:57.323,128.856,16.4095,0,0.000885,0,0
0:0:57.424,128.972,16.4233,0,0.000885,0,0
0:0:57.526,129.852,16.5336,0,0.000885,0,0
0:0:57.627,129.852,16.5336,0,0.000885,0,0
0:0:57.730,130.204,16.575,0,0.000885,0,0
0:0:57.831,130.497,16.6164,0,0.000885,0,0
0:0:57.933,130.791,16.6508,0,0.000885,0,0
0:0:58.033,130.791,16.6508,0,0.000885,0,0
0:0:58.133,131.73,16.7749,0,0.000885,0,0
0:0:58.234,132.197,16.8301,0,0.000885,0,0
0:0:58.336,132.668,16.8922,0,0.000885,0,0
0:0:58.435,132.668,16.8922,0,0.000885,0,0
0:0:58.537,133.077,16.9473,0,0.000885,0,0
0:0:58.638,133.429,16.9887,0,0.000885,0,0
0:0:58.738,133.429,16.9887,0,0.000885,0,0
0:0:58.839,133.549,17.0025,0,0.000885,0,0
0:0:58.941,133.843,17.0438,0,0.000885,0,0
0:0:59.040,134.31,17.099,0,0.000885,0,0
0:0:59.137,134.31,17.099,0,0.000885,0,0
0:0:59.237,134.132,17.0783,0,0.000885,0,0
0:0:59.338,134.777,17.1611,0,0.000885,0,0
0:0:59.439,135.364,17.2369,0,0.000885,0,0
0:0:59.537,135.364,17.2369,0,0.000885,0,0
0:0:59.636,135.951,17.3127,0,0.000885,0,0
0:0:59.735,135.951,17.3127,0,0.000885,0,0
0:0:59.837,136.36,17.361,0,0.000885,0,0
0:0:59.938,136.36,17.361,0,0.000885,0,0
0:1:0.036,136.423,17.3679,0,0.000885,0,0
0:1:0.133,137.068,17.4506,0,0.000885,0,0
0:1:0.232,137.77,17.5403,0,0.000885,0,0
0:1:0.333,137.77,17.5403,0,0.000885,0,0
0:1:0.434,138.006,17.5678,0,0.000885,0,0
0:1:0.534,138.357,17.6161,0,0.000885,0,0
0:1:0.631,138.357,17.6161,0,0.000885,0,0
0:1:0.729,139.118,17.7126,0,0.000885,0,0
0:1:0.831,139.527,17.7678,0,0.000885,0,0
0:1:0.932,139.883,17.8092,0,0.000885,0,0
0:1:1.032,139.883,17.8092,0,0.000885,0,0
0:1:1.130,140.292,17.8643,0,0.000885,0,0
0:1:1.228,140.466,17.885,0,0.000885,0,0
0:1:1.328,140.528,17.8919,0,0.000885,0,0
0:1:1.428,140.528,17.8919,0,0.000885,0,0
0:1:1.529,141.289,17.9884,0,0.000885,0,0
0:1:1.627,141.231,17.9815,0,0.000885,0,0
0:1:1.726,141.934,18.0712,0,0.000885,0,0
0:1:1.825,141.934,18.0712,0,0.000885,0,0
0:1:1.927,142.695,18.1677,0,0.000885,0,0
0:1:2.027,142.521,18.147,0,0.000885,0,0
0:1:2.125,142.637,18.1608,0,0.000885,0,0
0:1:2.223,142.637,18.1608,0,0.000885,0,0
0:1:2.322,143.402,18.2573,0,0.000885,0,0
0:1:2.424,143.753,18.3056,0,0.000885,0,0
0:1:2.523,143.753,18.3056,0,0.000885,0,0
0:1:2.624,144.22,18.3607,0,0.000885,0,0
0:1:2.726,144.865,18.4435,0,0.000885,0,0
0:1:2.828,144.865,18.4435,0,0.000885,0,0
0:1:2.929,144.865,18.4435,0,0.000885,0,0
0:1:3.031,144.985,18.4573,0,0.000885,0,0
0:1:3.132,145.924,18.5814,0,0.000885,0,0
0:1:3.234,146.04,18.5952,0,0.000885,0,0
0:1:3.334,146.04,18.5952,0,0.000885,0,0
0:1:3.436,146.391,18.6365,0,0.000885,0,0
0:1:3.537,146.627,18.671,0,0.000885,0,0
0:1:3.636,146.978,18.7124,0,0.000885,0,0
0:1:3.738,146.978,18.7124,0,0.000885,0,0
0:1:3.838,147.272,18.7537,0,0.000885,0,0
0:1:3.940,147.739,18.8089,0,0.000885,0,0
0:1:4.041,148.152,18.8641,0,0.000885,0,0
0:1:4.141,148.152,18.8641,0,0.000885,0,0
0:1:4.238,148.562,18.9123,0,0.000885,0,0
0:1:4.336,148.74,18.9399,0,0.000885,0,0
0:1:4.437,149.207,18.9951,0,0.000885,0,0
0:1:4.539,149.207,18.9951,0,0.000885,0,0
0:1:4.639,149.442,19.0295,0,0.000885,0,0
0:1:4.736,149.967,19.0916,0,0.000885,0,0
0:1:4.835,150.087,19.1123,0,0.000885,0,0
0:1:4.936,150.087,19.1123,0,0.000885,0,0
0:1:5.036,150.555,19.1674,0,0.000885,0,0
0:1:5.138,151.026,19.2295,0,0.000885,0,0
0:1:5.235,151.435,19.2846,0,0.000885,0,0
0:1:5.331,151.435,19.2846,0,0.000885,0,0
0:1:5.431,151.377,19.2708,0,0.000885,0,0
0:1:5.531,151.787,19.326,0,0.000885,0,0
0:1:5.633,151.787,19.326,0,0.000885,0,0
0:1:5.731,152.258,19.3881,0,0.000885,0,0
0:1:5.829,152.61,19.4294,0,0.000885,0,0
0:1:5.930,153.134,19.4984,0,0.000885,0,0
0:1:6.030,153.134,19.4984,0,0.000885,0,0
0:1:6.131,153.957,19.6018,0,0.000885,0,0
0:1:6.230,153.722,19.5742,0,0.000885,0,0
0:1:6.328,154.429,19.6638,0,0.000885,0,0
0:1:6.425,154.429,19.6638,0,0.000885,0,0
0:1:6.526,154.718,19.6983,0,0.000885,0,0
0:1:6.627,155.074,19.7466,0,0.000885,0,0
0:1:6.727,155.599,19.8086,0,0.000885,0,0
0:1:6.825,155.599,19.8086,0,0.000885,0,0
0:1:6.924,156.302,19.8983,0,0.000885,0,0
0:1:7.025,156.422,19.919,0,0.000885,0,0
0:1:7.126,156.302,19.8983,0,0.000885,0,0
0:1:7.225,156.302,19.8983,0,0.000885,0,0
0:1:7.324,157.009,19.9879,0,0.000885,0,0
0:1:7.420,157.418,20.0431,0,0.000885,0,0
0:1:7.521,157.418,20.0431,0,0.000885,0,0
0:1:7.623,157.712,20.0775,0,0.000885,0,0
0:1:7.723,157.885,20.1051,0,0.000885,0,0
0:1:7.824,158.53,20.1878,0,0.000885,0,0
0:1:7.926,158.53,20.1878,0,0.000885,0,0
0:1:8.028,158.766,20.2154,0,0.000885,0,0
0:1:8.128,159.002,20.243,0,0.000885,0,0
0:1:8.231,159.531,20.312,0,0.000885,0,0
0:1:8.331,159.531,20.312,0,0.000885,0,0
0:1:8.432,160.292,20.4085,0,0.000885,0,0
0:1:8.533,160.292,20.4085,0,0.000885,0,0
0:1:8.634,160.701,20.4636,0,0.000885,0,0
0:1:8.733,160.701,20.4636,0,0.000885,0,0
0:1:8.834,161.115,20.5119,0,0.000885,0,0
0:1:8.936,161.639,20.5809,0,0.000885,0,0
0:1:9.038,161.933,20.6153,0,0.000885,0,0
0:1:9.138,161.933,20.6153,0,0.000885,0,0
0:1:9.240,162.053,20.636,0,0.000885,0,0
0:1:9.338,162.698,20.7119,0,0.000885,0,0
0:1:9.435,162.872,20.7394,0,0.000885,0,0
0:1:9.534,162.872,20.7394,0,0.000885,0,0
0:1:9.636,163.05,20.7601,0,0.000885,0,0
0:1:9.737,163.165,20.7739,0,0.000885,0,0
0:1:9.835,163.81,20.8566,0,0.000885,0,0
0:1:9.933,163.81,20.8566,0,0.000885,0,0
0:1:10.032,163.93,20.8704,0,0.000885,0,0
0:1:10.133,164.691,20.967,0,0.000885,0,0
0:1:10.233,164.691,20.967,0,0.000885,0,0
0:1:10.333,165.1,21.0221,0,0.000885,0,0
0:1:10.431,165.745,21.1049,0,0.000885,0,0
0:1:10.530,165.923,21.1255,0,0.000885,0,0
0:1:10.631,165.923,21.1255,0,0.000885,0,0
0:1:10.731,166.039,21.1393,0,0.000885,0,0
0:1:10.831,166.684,21.2221,0,0.000885,0,0
0:1:10.929,167.097,21.2772,0,0.000885,0,0
0:1:11.026,167.097,21.2772,0,0.000885,0,0
0:1:11.126,167.858,21.3737,0,0.000885,0,0
0:1:11.228,168.094,21.4013,0,0.000885,0,0
0:1:11.329,168.032,21.3944,0,0.000885,0,0
0:1:11.427,168.032,21.3944,0,0.000885,0,0
0:1:11.524,168.797,21.491,0,0.000885,0,0
0:1:11.625,169.09,21.5323,0,0.000885,0,0
0:1:11.726,169.499,21.5806,0,0.000885,0,0
0:1:11.827,169.499,21.5806,0,0.000885,0,0
0:1:11.925,169.677,21.6013,0,0.000885,0,0
0:1:12.021,170.265,21.6771,0,0.000885,0,0
0:1:12.121,170.265,21.6771,0,0.000885,0,0
0:1:12.222,170.91,21.7599,0,0.000885,0,0
0:1:12.323,170.91,21.7599,0,0.000885,0,0
0:1:12.424,170.91,21.7599,0,0.000885,0,0
0:1:12.524,170.91,21.7599,0,0.000885,0,0
0:1:12.627,171.377,21.8219,0,0.000885,0,0
0:1:12.727,171.848,21.8771,0,0.000885,0,0
0:1:12.830,172.137,21.9184,0,0.000885,0,0
0:1:12.930,172.137,21.9184,0,0.000885,0,0
0:1:13.032,172.257,21.9322,0,0.000885,0,0
0:1:13.131,172.782,22.0012,0,0.000885,0,0
0:1:13.233,173.721,22.1184,0,0.000885,0,0
0:1:13.333,173.721,22.1184,0,0.000885,0,0
0:1:13.434,174.014,22.1597,0,0.000885,0,0
0:1:13.535,174.486,22.2149,0,0.000885,0,0
0:1:13.635,174.486,22.2149,0,0.000885,0,0
0:1:13.735,174.486,22.2149,0,0.000885,0,0
0:1:13.837,174.953,22.277,0,0.000885,0,0
0:1:13.937,175.367,22.3252,0,0.000885,0,0
0:1:14.035,175.776,22.3804,0,0.000885,0,0
0:1:14.134,175.776,22.3804,0,0.000885,0,0
0:1:14.234,176.305,22.4493,0,0.000885,0,0
0:1:14.335,176.537,22.4769,0,0.000885,0,0
0:1:14.435,176.537,22.4769,0,0.000885,0,0
0:1:14.532,176.537,22.4769,0,0.000885,0,0
0:1:14.630,176.888,22.5252,0,0.000885,0,0
0:1:14.731,177.302,22.5734,0,0.000885,0,0
0:1:14.831,177.302,22.5734,0,0.000885,0,0
0:1:14.931,177.653,22.6217,0,0.000885,0,0
0:1:15.029,177.889,22.6493,0,0.000885,0,0
0:1:15.128,178.12,22.6769,0,0.000885,0,0
0:1:15.228,178.12,22.6769,0,0.000885,0,0
0:1:15.329,178.356,22.7113,0,0.000885,0,0
0:1:15.431,179.117,22.8079,0,0.000885,0,0
0:1:15.528,179.294,22.8285,0,0.000885,0,0
0:1:15.626,179.294,22.8285,0,0.000885,0,0
0:1:15.726,179.53,22.8561,0,0.000885,0,0
0:1:15.828,180.175,22.9389,0,0.000885,0,0
0:1:15.929,180.584,22.994,0,0.000885,0,0
0:1:16.026,180.584,22.994,0,0.000885,0,0
0:1:16.124,180.642,23.0009,0,0.000885,0,0
0:1:16.223,181.465,23.1043,0,0.000885,0,0
0:1:16.324,181.465,23.1043,0,0.000885,0,0
0:1:16.425,181.995,23.1733,0,0.000885,0,0
0:1:16.524,182.226,23.2009,0,0.000885,0,0
0:1:16.622,182.697,23.2629,0,0.000885,0,0
0:1:16.720,182.697,23.2629,0,0.000885,0,0
0:1:16.821,183.049,23.3043,0,0.000885,0,0
0:1:16.923,183.4,23.3525,0,0.000885,0,0
0:1:17.023,183.342,23.3456,0,0.000885,0,0
0:1:17.120,183.342,23.3456,0,0.000885,0,0
0:1:17.218,183.752,23.3939,0,0.000885,0,0
0:1:17.320,184.632,23.5111,0,0.000885,0,0
0:1:17.420,184.806,23.5318,0,0.000885,0,0
0:1:17.521,184.806,23.5318,0,0.000885,0,0
0:1:17.622,185.277,23.587,0,0.000885,0,0
0:1:17.724,185.744,23.649,0,0.000885,0,0
0:1:17.825,186.158,23.7042,0,0.000885,0,0
0:1:17.927,186.158,23.7042,0,0.000885,0,0
0:1:18.028,186.509,23.7455,0,0.000885,0,0
0:1:18.130,186.861,23.7938,0,0.000885,0,0
0:1:18.230,186.803,23.7869,0,0.000885,0,0
0:1:18.331,186.803,23.7869,0,0.000885,0,0
0:1:18.430,187.39,23.8559,0,0.000885,0,0
0:1:18.531,188.209,23.9662,0,0.000885,0,0
0:1:18.632,188.267,23.9731,0,0.000885,0,0
0:1:18.733,188.267,23.9731,0,0.000885,0,0
0:1:18.834,189.032,24.0696,0,0.000885,0,0
0:1:18.936,189.089,24.0765,0,0.000885,0,0
0:1:19.037,189.619,24.1454,0,0.000885,0,0
0:1:19.134,189.619,24.1454,0,0.000885,0,0
0:1:19.232,189.792,24.1661,0,0.000885,0,0
0:1:19.332,190.379,24.242,0,0.000885,0,0
0:1:19.433,190.379,24.242,0,0.000885,0,0
0:1:19.534,190.846,24.2971,0,0.000885,0,0
0:1:19.632,191.318,24.3592,0,0.000885,0,0
0:1:19.730,191.318,24.3592,0,0.000885,0,0
0:1:19.830,191.318,24.3592,0,0.000885,0,0
0:1:19.931,191.554,24.3868,0,0.000885,0,0
0:1:20.031,192.021,24.4488,0,0.000885,0,0
0:1:20.130,192.257,24.4764,0,0.000885,0,0
0:1:20.227,192.257,24.4764,0,0.000885,0,0
0:1:20.325,192.55,24.5178,0,0.000885,0,0
0:1:20.426,192.55,24.5178,0,0.000885,0,0
0:1:20.527,193.137,24.5936,0,0.000885,0,0
0:1:20.626,193.137,24.5936,0,0.000885,0,0
0:1:20.724,193.662,24.6557,0,0.000885,0,0
0:1:20.821,194.014,24.7039,0,0.000885,0,0
0:1:20.921,194.014,24.7039,0,0.000885,0,0
0:1:21.021,194.427,24.7522,0,0.000885,0,0
0:1:21.121,194.721,24.7935,0,0.000885,0,0
0:1:21.218,195.366,24.8763,0,0.000885,0,0
0:1:21.314,195.366,24.8763,0,0.000885,0,0
0:1:21.415,195.775,24.9245,0,0.000885,0,0
0:1:21.516,195.953,24.9521,0,0.000885,0,0
0:1:21.615,196.536,25.0211,0,0.000885,0,0
0:1:21.711,196.536,25.0211,0,0.000885,0,0
0:1:21.809,196.304,24.9935,0,0.000885,0,0
0:1:21.908,196.892,25.0693,0,0.000885,0,0
0:1:22.009,196.892,25.0693,0,0.000885,0,0
0:1:22.109,197.652,25.1659,0,0.000885,0,0
0:1:22.207,197.83,25.1865,0,0.000885,0,0
0:1:22.312,198.062,25.221,0,0.000885,0,0
0:1:22.411,198.062,25.221,0,0.000885,0,0
0:1:22.511,198.707,25.2969,0,0.000885,0,0
0:1:22.612,199,25.3382,0,0.000885,0,0
0:1:22.712,199.178,25.3589,0,0.000885,0,0
0:1:22.813,199.178,25.3589,0,0.000885,0,0
0:1:22.915,200.117,25.4761,0,0.000885,0,0
0:1:23.016,200.348,25.5106,0,0.000885,0,0
0:1:23.115,200.232,25.4968,0,0.000885,0,0
0:1:23.216,200.232,25.4968,0,0.000885,0,0
0:1:23.316,200.877,25.5795,0,0.000885,0,0
0:1:23.417,201.464,25.6485,0,0.000885,0,0
0:1:23.516,201.407,25.6416,0,0.000885,0,0
0:1:23.617,201.407,25.6416,0,0.000885,0,0
0:1:23.716,202.052,25.7243,0,0.000885,0,0
0:1:23.817,202.403,25.7726,0,0.000885,0,0
0:1:23.916,202.812,25.8209,0,0.000885,0,0
0:1:24.017,202.812,25.8209,0,0.000885,0,0
0:1:24.117,203.164,25.8691,0,0.000885,0,0
0:1:24.217,203.693,25.9381,0,0.000885,0,0
0:1:24.314,203.751,25.945,0,0.000885,0,0
0:1:24.410,203.751,25.945,0,0.000885,0,0
0:1:24.511,204.338,26.0139,0,0.000885,0,0
0:1:24.610,204.689,26.0622,0,0.000885,0,0
0:1:24.710,204.689,26.0622,0,0.000885,0,0
0:1:24.806,205.099,26.1173,0,0.000885,0,0
0:1:24.913,205.099,26.1173,0,0.000885,0,0
0:1:25.014,205.806,26.207,0,0.000885,0,0
0:1:25.114,205.806,26.207,0,0.000885,0,0
0:1:25.214,206.451,26.2828,0,0.000885,0,0
0:1:25.311,206.802,26.3311,0,0.000885,0,0
0:1:25.408,206.918,26.3449,0,0.000885,0,0
0:1:25.506,206.918,26.3449,0,0.000885,0,0
0:1:25.608,207.447,26.4138,0,0.000885,0,0
0:1:25.707,207.977,26.4828,0,0.000885,0,0
0:1:25.805,208.15,26.5034,0,0.000885,0,0
0:1:25.911,208.15,26.5034,0,0.000885,0,0
0:1:26.009,208.15,26.5034,0,0.000885,0,0
0:1:26.110,208.737,26.5793,0,0.000885,0,0
0:1:26.211,209.44,26.6689,0,0.000885,0,0
0:1:26.309,209.44,26.6689,0,0.000885,0,0
0:1:26.406,209.267,26.6413,0,0.000885,0,0
0:1:26.515,209.56,26.6827,0,0.000885,0,0
0:1:26.614,210.085,26.7517,0,0.000885,0,0
0:1:26.714,210.085,26.7517,0,0.000885,0,0
0:1:26.811,210.557,26.8068,0,0.000885,0,0
0:1:26.908,210.85,26.8482,0,0.000885,0,0
0:1:27.008,210.85,26.8482,0,0.000885,0,0
0:1:27.107,210.908,26.8551,0,0.000885,0,0
0:1:27.209,211.611,26.9447,0,0.000885,0,0
0:1:27.309,211.962,26.9861,0,0.000885,0,0
0:1:27.409,211.962,26.9861,0,0.000885,0,0
0:1:27.510,212.256,27.0274,0,0.000885,0,0
0:1:27.611,212.256,27.0274,0,0.000885,0,0
0:1:27.712,212.665,27.0757,0,0.000885,0,0
0:1:27.813,212.665,27.0757,0,0.000885,0,0
0:1:27.913,213.252,27.1516,0,0.000885,0,0
0:1:28.014,213.666,27.2067,0,0.000885,0,0
0:1:28.114,213.782,27.2205,0,0.000885,0,0
0:1:28.214,213.782,27.2205,0,0.000885,0,0
0:1:28.313,214.311,27.2894,0,0.000885,0,0
0:1:28.414,214.662,27.3308,0,0.000885,0,0
0:1:28.515,214.956,27.3722,0,0.000885,0,0
0:1:28.613,214.956,27.3722,0,0.000885,0,0
0:1:28.714,215.423,27.4273,0,0.000885,0,0
0:1:28.814,215.659,27.4618,0,0.000885,0,0
0:1:28.912,216.126,27.517,0,0.000885,0,0
0:1:29.009,216.126,27.517,0,0.000885,0,0
0:1:29.108,216.361,27.5515,0,0.000885,0,0
0:1:29.209,216.949,27.6204,0,0.000885,0,0
0:1:29.308,216.949,27.6204,0,0.000885,0,0
0:1:29.407,217.242,27.6618,0,0.000885,0,0
0:1:29.514,217.887,27.7445,0,0.000885,0,0
0:1:29.612,217.945,27.7514,0,0.000885,0,0
0:1:29.711,217.945,27.7514,0,0.000885,0,0
0:1:29.812,218.181,27.779,0,0.000885,0,0
0:1:29.910,218.768,27.8548,0,0.000885,0,0
0:1:30.007,218.999,27.8824,0,0.000885,0,0
0:1:30.105,218.999,27.8824,0,0.000885,0,0
0:1:30.205,219.529,27.9513,0,0.000885,0,0
0:1:30.305,220.058,28.0203,0,0.000885,0,0
0:1:30.405,220.583,28.0823,0,0.000885,0,0
0:1:30.511,220.583,28.0823,0,0.000885,0,0
0:1:30.609,220.819,28.1168,0,0.000885,0,0
0:1:30.711,221.17,28.1582,0,0.000885,0,0
0:1:30.810,221.642,28.2202,0,0.000885,0,0
0:1:30.908,221.642,28.2202,0,0.000885,0,0
0:1:31.006,221.873,28.2478,0,0.000885,0,0
0:1:31.113,222.402,28.3168,0,0.000885,0,0
0:1:31.213,222.46,28.3237,0,0.000885,0,0
0:1:31.314,222.46,28.3237,0,0.000885,0,0
0:1:31.414,223.283,28.4271,0,0.000885,0,0
0:1:31.509,223.519,28.4616,0,0.000885,0,0
0:1:31.606,223.519,28.4616,0,0.000885,0,0
0:1:31.707,224.164,28.5443,0,0.000885,0,0
0:1:31.807,224.164,28.5443,0,0.000885,0,0
0:1:31.907,225.04,28.6546,0,0.000885,0,0
0:1:32.012,225.04,28.6546,0,0.000885,0,0
0:1:32.109,225.16,28.6684,0,0.000885,0,0
0:1:32.210,225.685,28.7373,0,0.000885,0,0
0:1:32.310,225.627,28.7305,0,0.000885,0,0
0:1:32.410,225.627,28.7305,0,0.000885,0,0
0:1:32.509,226.041,28.7787,0,0.000885,0,0
0:1:32.611,226.214,28.7994,0,0.000885,0,0
0:1:32.712,226.744,28.8683,0,0.000885,0,0
0:1:32.813,226.744,28.8683,0,0.000885,0,0
0:1:32.914,226.979,28.9028,0,0.000885,0,0
0:1:33.015,227.682,28.9925,0,0.000885,0,0
0:1:33.114,227.918,29.02,0,0.000885,0,0
0:1:33.214,227.918,29.02,0,0.000885,0,0
0:1:33.315,228.563,29.1028,0,0.000885,0,0
0:1:33.415,228.679,29.1166,0,0.000885,0,0
0:1:33.515,229.266,29.1924,0,0.000885,0,0
0:1:33.614,229.266,29.1924,0,0.000885,0,0
0:1:33.715,229.617,29.2338,0,0.000885,0,0
0:1:33.815,229.969,29.282,0,0.000885,0,0
0:1:33.915,229.969,29.282,0,0.000885,0,0
0:1:34.014,230.556,29.3579,0,0.000885,0,0
0:1:34.110,230.965,29.4061,0,0.000885,0,0
0:1:34.208,231.085,29.4199,0,0.000885,0,0
0:1:34.307,231.085,29.4199,0,0.000885,0,0
0:1:34.408,231.085,29.4199,0,0.000885,0,0
0:1:34.508,232.019,29.544,0,0.000885,0,0
0:1:34.615,232.082,29.5509,0,0.000885,0,0
0:1:34.711,232.082,29.5509,0,0.000885,0,0
0:1:34.812,232.375,29.5854,0,0.000885,0,0
0:1:34.913,233.02,29.6681,0,0.000885,0,0
0:1:35.012,233.02,29.6681,0,0.000885,0,0
0:1:35.108,233.02,29.6681,0,0.000885,0,0
0:1:35.214,233.251,29.6957,0,0.000885,0,0
0:1:35.314,233.896,29.7785,0,0.000885,0,0
0:1:35.414,234.016,29.7991,0,0.000885,0,0
0:1:35.514,234.016,29.7991,0,0.000885,0,0
0:1:35.613,234.484,29.8543,0,0.000885,0,0
0:1:35.709,234.541,29.8612,0,0.000885,0,0
0:1:35.808,234.541,29.8612,0,0.000885,0,0
0:1:35.910,235.071,29.9301,0,0.000885,0,0
0:1:36.010,235.422,29.9784,0,0.000885,0,0
0:1:36.108,236.125,30.068,0,0.000885,0,0
0:1:36.213,236.125,30.068,0,0.000885,0,0
0:1:36.312,236.654,30.1301,0,0.000885,0,0
0:1:36.411,236.89,30.1646,0,0.000885,0,0
0:1:36.512,237.241,30.2059,0,0.000885,0,0
0:1:36.610,237.241,30.2059,0,0.000885,0,0
0:1:36.708,237.771,30.2749,0,0.000885,0,0
0:1:36.807,237.829,30.2818,0,0.000885,0,0
0:1:36.908,238.354,30.3507,0,0.000885,0,0
0:1:37.006,238.354,30.3507,0,0.000885,0,0
0:1:37.103,238.767,30.399,0,0.000885,0,0
0:1:37.212,239.061,30.4404,0,0.000885,0,0
0:1:37.309,239.47,30.4886,0,0.000885,0,0
0:1:37.410,239.47,30.4886,0,0.000885,0,0
0:1:37.510,239.821,30.5369,0,0.000885,0,0
0:1:37.610,240.173,30.5782,0,0.000885,0,0
0:1:37.710,240.524,30.6265,0,0.000885,0,0
0:1:37.812,240.524,30.6265,0,0.000885,0,0
0:1:37.913,240.996,30.6817,0,0.000885,0,0
0:1:38.015,241.232,30.7161,0,0.000885,0,0
0:1:38.114,241.232,30.7161,0,0.000885,0,0
0:1:38.215,241.814,30.792,0,0.000885,0,0
0:1:38.315,241.876,30.7989,0,0.000885,0,0
0:1:38.415,242.05,30.8196,0,0.000885,0,0
0:1:38.515,242.05,30.8196,0,0.000885,0,0
0:1:38.615,242.579,30.8885,0,0.000885,0,0
0:1:38.716,242.989,30.9368,0,0.000885,0,0
0:1:38.816,243.398,30.9919,0,0.000885,0,0
0:1:38.916,243.398,30.9919,0,0.000885,0,0
0:1:39.016,243.576,31.0126,0,0.000885,0,0
0:1:39.116,244.043,31.0747,0,0.000885,0,0
0:1:39.214,244.163,31.0885,0,0.000885,0,0
0:1:39.311,244.163,31.0885,0,0.000885,0,0
0:1:39.410,244.866,31.1781,0,0.000885,0,0
0:1:39.510,245.395,31.247,0,0.000885,0,0
0:1:39.609,245.395,31.247,0,0.000885,0,0
0:1:39.707,245.395,31.247,0,0.000885,0,0
0:1:39.803,245.746,31.2884,0,0.000885,0,0
0:1:39.901,246.449,31.378,0,0.000885,0,0
0:1:40.000,246.449,31.378,0,0.000885,0,0
0:1:40.101,246.507,31.3849,0,0.000885,0,0
0:1:40.211,246.743,31.4194,0,0.000885,0,0
0:1:40.308,247.446,31.509,0,0.000885,0,0
0:1:40.406,247.446,31.509,0,0.000885,0,0
0:1:40.507,248.091,31.5849,0,0.000885,0,0
0:1:40.606,248.033,31.578,0,0.000885,0,0
0:1:40.714,248.678,31.6607,0,0.000885,0,0
0:1:40.813,248.678,31.6607,0,0.000885,0,0
0:1:40.911,249.149,31.7228,0,0.000885,0,0
0:1:41.012,249.323,31.7435,0,0.000885,0,0
0:1:41.112,249.732,31.7986,0,0.000885,0,0
0:1:41.210,249.732,31.7986,0,0.000885,0,0
0:1:41.307,250.088,31.84,0,0.000885,0,0
0:1:41.414,250.439,31.8883,0,0.000885,0,0
0:1:41.515,250.964,31.9572,0,0.000885,0,0
0:1:41.615,250.964,31.9572,0,0.000885,0,0
0:1:41.714,251.494,32.0193,0,0.000885,0,0
0:1:41.809,251.787,32.0606,0,0.000885,0,0
0:1:41.908,252.196,32.1089,0,0.000885,0,0
0:1:42.008,252.196,32.1089,0,0.000885,0,0
0:1:42.109,252.432,32.1434,0,0.000885,0,0
0:1:42.209,252.841,32.1916,0,0.000885,0,0
0:1:42.315,252.961,32.2054,0,0.000885,0,0
0:1:42.411,252.961,32.2054,0,0.000885,0,0
0:1:42.511,252.899,32.1985,0,0.000885,0,0
0:1:42.611,253.371,32.2606,0,0.000885,0,0
0:1:42.712,253.371,32.2606,0,0.000885,0,0
0:1:42.811,253.958,32.3364,0,0.000885,0,0
0:1:42.914,254.131,32.3571,0,0.000885,0,0
0:1:43.015,254.719,32.4329,0,0.000885,0,0
0:1:43.115,254.719,32.4329,0,0.000885,0,0
0:1:43.215,255.364,32.5157,0,0.000885,0,0
0:1:43.316,255.773,32.5639,0,0.000885,0,0
0:1:43.416,256.066,32.6053,0,0.000885,0,0
0:1:43.516,256.066,32.6053,0,0.000885,0,0
0:1:43.616,256.48,32.6536,0,0.000885,0,0
0:1:43.716,256.711,32.688,0,0.000885,0,0
0:1:43.816,257.067,32.7294,0,0.000885,0,0
0:1:43.916,257.067,32.7294,0,0.000885,0,0
0:1:44.016,257.067,32.7294,0,0.000885,0,0
0:1:44.116,257.476,32.7846,0,0.000885,0,0
0:1:44.217,258.001,32.8466,0,0.000885,0,0
0:1:44.315,258.001,32.8466,0,0.000885,0,0
0:1:44.413,258.473,32.9087,0,0.000885,0,0
0:1:44.511,258.766,32.95,0,0.000885,0,0
0:1:44.611,258.766,32.95,0,0.000885,0,0
0:1:44.710,259.296,33.0121,0,0.000885,0,0
0:1:44.809,259.527,33.0466,0,0.000885,0,0
0:1:44.907,259.999,33.1017,0,0.000885,0,0
0:1:45.001,259.999,33.1017,0,0.000885,0,0
0:1:45.101,260.114,33.1155,0,0.000885,0,0
0:1:45.201,260.35,33.15,0,0.000885,0,0
0:1:45.301,260.644,33.1845,0,0.000885,0,0
0:1:45.410,260.644,33.1845,0,0.000885,0,0
0:1:45.507,261.053,33.2396,0,0.000885,0,0
0:1:45.608,261.111,33.2465,0,0.000885,0,0
0:1:45.707,261.404,33.281,0,0.000885,0,0
0:1:45.807,261.404,33.281,0,0.000885,0,0
0:1:45.913,261.991,33.3568,0,0.000885,0,0
0:1:46.011,261.876,33.343,0,0.000885,0,0
0:1:46.111,262.285,33.3982,0,0.000885,0,0
0:1:46.212,262.285,33.3982,0,0.000885,0,0
0:1:46.310,262.401,33.412,0,0.000885,0,0
0:1:46.409,262.872,33.4672,0,0.000885,0,0
0:1:46.515,263.575,33.5568,0,0.000885,0,0
0:1:46.614,263.575,33.5568,0,0.000885,0,0
0:1:46.714,263.811,33.5913,0,0.000885,0,0
0:1:46.813,263.633,33.5637,0,0.000885,0,0
0:1:46.910,263.633,33.5637,0,0.000885,0,0
0:1:47.007,264.22,33.6395,0,0.000885,0,0
0:1:47.104,264.104,33.6257,0,0.000885,0,0
0:1:47.204,264.104,33.6257,0,0.000885,0,0
0:1:47.307,264.104,33.6257,0,0.000885,0,0
0:1:47.403,263.984,33.6119,0,0.000885,0,0
0:1:47.504,263.811,33.5913,0,0.000885,0,0
0:1:47.607,264.104,33.6257,0,0.000885,0,0
0:1:47.708,264.104,33.6257,0,0.000885,0,0
0:1:47.808,263.811,33.5913,0,0.000885,0,0
0:1:47.909,263.753,33.5844,0,0.000885,0,0
0:1:48.009,263.459,33.543,0,0.000885,0,0
0:1:48.109,263.459,33.543,0,0.000885,0,0
0:1:48.209,263.046,33.4947,0,0.000885,0,0
0:1:48.309,262.463,33.4189,0,0.000885,0,0
0:1:48.408,261.346,33.2741,0,0.000885,0,0
0:1:48.508,261.346,33.2741,0,0.000885,0,0
0:1:48.607,259.941,33.0948,0,0.000885,0,0
0:1:48.708,258.295,32.888,0,0.000885,0,0
0:1:48.808,256.653,32.6811,0,0.000885,0,0
0:1:48.907,256.653,32.6811,0,0.000885,0,0
0:1:49.013,255.484,32.5295,0,0.000885,0,0
0:1:49.110,253.077,32.2261,0,0.000885,0,0
0:1:49.209,251.436,32.0124,0,0.000885,0,0
0:1:49.309,251.436,32.0124,0,0.000885,0,0
0:1:49.409,250.497,31.8951,0,0.000885,0,0
0:1:49.507,249.852,31.8124,0,0.000885,0,0
0:1:49.613,249.852,31.8124,0,0.000885,0,0
0:1:49.713,249.616,31.7848,0,0.000885,0,0
0:1:49.812,248.856,31.6883,0,0.000885,0,0
0:1:49.911,247.975,31.5711,0,0.000885,0,0
0:1:50.009,247.975,31.5711,0,0.000885,0,0
0:1:50.104,247.975,31.5711,0,0.000885,0,0
0:1:50.201,247.681,31.5366,0,0.000885,0,0
0:1:50.301,247.566,31.5228,0,0.000885,0,0
0:1:50.414,247.566,31.5228,0,0.000885,0,0
0:1:50.511,247.503,31.5159,0,0.000885,0,0
0:1:50.608,246.979,31.447,0,0.000885,0,0
0:1:50.707,246.743,31.4194,0,0.000885,0,0
0:1:50.808,246.743,31.4194,0,0.000885,0,0
0:1:50.904,246.565,31.3918,0,0.000885,0,0
0:1:51.013,246.507,31.3849,0,0.000885,0,0
0:1:51.110,246.334,31.3643,0,0.000885,0,0
0:1:51.209,246.334,31.3643,0,0.000885,0,0
0:1:51.309,246.098,31.3367,0,0.000885,0,0
0:1:51.410,246.098,31.3367,0,0.000885,0,0
0:1:51.508,245.569,31.2677,0,0.000885,0,0
0:1:51.614,245.569,31.2677,0,0.000885,0,0
0:1:51.712,245.395,31.247,0,0.000885,0,0
0:1:51.813,244.75,31.1643,0,0.000885,0,0
0:1:51.912,244.75,31.1643,0,0.000885,0,0
0:1:52.010,243.927,31.0609,0,0.000885,0,0
0:1:52.105,243.282,30.9781,0,0.000885,0,0
0:1:52.215,242.286,30.8471,0,0.000885,0,0
0:1:52.314,242.286,30.8471,0,0.000885,0,0
0:1:52.414,241.169,30.7092,0,0.000885,0,0
0:1:52.514,239.528,30.4955,0,0.000885,0,0
0:1:52.614,236.77,30.1439,0,0.000885,0,0
0:1:52.716,236.77,30.1439,0,0.000885,0,0
0:1:52.816,233.136,29.6819,0,0.000885,0,0
0:1:52.916,228.621,29.1097,0,0.000885,0,0
0:1:53.017,222.287,28.303,0,0.000885,0,0
0:1:53.116,222.287,28.303,0,0.000885,0,0
0:1:53.217,215.894,27.4894,0,0.000885,0,0
0:1:53.316,209.267,26.6413,0,0.000885,0,0
0:1:53.417,203.164,25.8691,0,0.000885,0,0
0:1:53.517,203.164,25.8691,0,0.000885,0,0
0:1:53.616,198.182,25.2348,0,0.000885,0,0
0:1:53.715,193.369,24.6212,0,0.000885,0,0
0:1:53.816,188.502,24.0007,0,0.000885,0,0
0:1:53.917,188.502,24.0007,0,0.000885,0,0
0:1:53.937,188.502,24.0007,0,0.000885,0,0