File: DataFile2021-06-24_055029.csv
Test ID:,Date Tested:,Time:,Test Type:,Diameter Avg. (mm):,Cyl. Corr. Factor:,Height (mm):,Age (days):,Weight (kN):,Break Type:,Ramp Rate (MPa/s):,Load at Break (kN):,Stress at Break (MPa):
12,6/24/2021,05:50,Cylinder,150,1,300,0,3.6,3,0.22,582.28,32.95
Sample Time,Load (kN),Stress (MPa),Long. Strain,Trans. Strain,Chan1 Deflection (mm),Chan2 Deflection (mm)
0:0:18.093,6.97926,0.393001,0,0.000885,0,0
0:0:18.288,10.9693,0.620528,0,0.000885,0,0
0:0:18.487,11.73,0.661897,0,0.000885,0,0
0:0:18.686,11.3786,0.641212,0,0.000885,0,0
0:0:18.883,11.2629,0.634318,0,0.000885,0,0
0:0:19.083,11.3786,0.641212,0,0.000885,0,0
0:0:19.280,11.3207,0.641212,0,0.000885,0,0
0:0:19.481,11.4942,0.648107,0,0.000885,0,0
0:0:19.687,11.4364,0.648107,0,0.000885,0,0
0:0:19.896,11.552,0.655002,0,0.000885,0,0
0:0:20.098,12.6685,0.717055,0,0.000885,0,0
0:0:20.295,13.9585,0.792897,0,0.000885,0,0
0:0:20.494,14.3678,0.813581,0,0.000885,0,0
0:0:20.693,14.6613,0.827371,0,0.000885,0,0
0:0:20.887,16.8899,0.958371,0,0.000885,0,0
0:0:21.089,17.5349,0.992845,0,0.000885,0,0
0:0:21.287,18.2422,1.03421,0,0.000885,0,0
0:0:21.485,19.0028,1.07558,0,0.000885,0,0
0:0:21.687,20.2928,1.15142,0,0.000885,0,0
0:0:21.883,21.0534,1.19279,0,0.000885,0,0
0:0:22.084,22.2856,1.26174,0,0.000885,0,0
0:0:22.282,22.9929,1.30311,0,0.000885,0,0
0:0:22.481,23.4599,1.33069,0,0.000885,0,0
0:0:22.682,24.7499,1.39964,0,0.000885,0,0
0:0:22.899,25.9821,1.46858,0,0.000885,0,0
0:0:23.101,26.6849,1.50995,0,0.000885,0,0
0:0:23.300,27.917,1.5789,0,0.000885,0,0
0:0:23.499,28.9134,1.63406,0,0.000885,0,0
0:0:23.700,29.5584,1.67543,0,0.000885,0,0
0:0:23.903,30.9107,1.75127,0,0.000885,0,0
0:0:24.106,31.6135,1.78574,0,0.000885,0,0
0:0:24.309,32.9035,1.86158,0,0.000885,0,0
0:0:24.510,33.6641,1.90295,0,0.000885,0,0
0:0:24.713,35.0742,1.98569,0,0.000885,0,0
0:0:24.914,35.777,2.02706,0,0.000885,0,0
0:0:25.117,37.1827,2.1029,0,0.000885,0,0
0:0:25.317,37.8277,2.13737,0,0.000885,0,0
0:0:25.514,38.9442,2.20632,0,0.000885,0,0
0:0:25.717,39.5313,2.2339,0,0.000885,0,0
0:0:25.913,40.8792,2.31664,0,0.000885,0,0
0:0:26.114,41.7021,2.35801,0,0.000885,0,0
0:0:26.313,42.227,2.39248,0,0.000885,0,0
0:0:26.508,43.1077,2.44074,0,0.000885,0,0
0:0:26.710,43.517,2.46143,0,0.000885,0,0
0:0:26.908,44.3977,2.50969,0,0.000885,0,0
0:0:27.107,45.3363,2.56485,0,0.000885,0,0
0:0:27.309,45.7455,2.58553,0,0.000885,0,0
0:0:27.505,47.0978,2.66827,0,0.000885,0,0
0:0:27.705,47.4492,2.68206,0,0.000885,0,0
0:0:27.905,48.5612,2.75101,0,0.000885,0,0
0:0:28.104,48.9749,2.77169,0,0.000885,0,0
0:0:28.305,50.2649,2.84753,0,0.000885,0,0
0:0:28.508,50.3806,2.84753,0,0.000885,0,0
0:0:28.712,51.7862,2.93027,0,0.000885,0,0
0:0:28.913,52.9027,2.99232,0,0.000885,0,0
0:0:29.116,53.8413,3.04748,0,0.000885,0,0
0:0:29.317,54.5441,3.08885,0,0.000885,0,0
0:0:29.520,55.8919,3.16469,0,0.000885,0,0
0:0:29.721,56.4212,3.19227,0,0.000885,0,0
0:0:29.920,57.4176,3.24743,0,0.000885,0,0
0:0:30.119,58.414,3.30259,0,0.000885,0,0
0:0:30.320,58.9434,3.33706,0,0.000885,0,0
0:0:30.515,60.5848,3.42669,0,0.000885,0,0
0:0:30.717,60.9362,3.44738,0,0.000885,0,0
0:0:30.917,62.6977,3.5508,0,0.000885,0,0
0:0:31.115,63.3427,3.58527,0,0.000885,0,0
0:0:31.317,64.6327,3.65422,0,0.000885,0,0
0:0:31.512,65.0419,3.6818,0,0.000885,0,0
0:0:31.714,65.807,3.72317,0,0.000885,0,0
0:0:31.914,66.2741,3.75075,0,0.000885,0,0
0:0:32.110,67.3327,3.8128,0,0.000885,0,0
0:0:32.313,68.0355,3.84727,0,0.000885,0,0
0:0:32.508,69.6191,3.93691,0,0.000885,0,0
0:0:32.709,69.8549,3.9507,0,0.000885,0,0
0:0:32.909,71.0826,4.01964,0,0.000885,0,0
0:0:33.106,71.7276,4.06101,0,0.000885,0,0
0:0:33.308,72.1413,4.0817,0,0.000885,0,0
0:0:33.511,72.7863,4.11617,0,0.000885,0,0
0:0:33.713,74.1341,4.19201,0,0.000885,0,0
0:0:33.916,74.4276,4.2127,0,0.000885,0,0
0:0:34.119,76.5405,4.32991,0,0.000885,0,0
0:0:34.321,77.4168,4.37817,0,0.000885,0,0
0:0:34.522,78.1819,4.42643,0,0.000885,0,0
0:0:34.723,78.5912,4.44712,0,0.000885,0,0
0:0:34.925,79.1783,4.48159,0,0.000885,0,0
0:0:35.123,80.3527,4.54365,0,0.000885,0,0
0:0:35.325,81.0555,4.58501,0,0.000885,0,0
0:0:35.521,82.5812,4.67465,0,0.000885,0,0
0:0:35.721,83.3419,4.71601,0,0.000885,0,0
0:0:35.921,83.9869,4.75049,0,0.000885,0,0
0:0:36.117,84.6897,4.79186,0,0.000885,0,0
0:0:36.319,85.7484,4.85391,0,0.000885,0,0
0:0:36.518,85.5704,4.84012,0,0.000885,0,0
0:0:36.716,86.9805,4.92286,0,0.000885,0,0
0:0:36.918,87.799,4.97112,0,0.000885,0,0
0:0:37.114,89.8541,5.08144,0,0.000885,0,0
0:0:37.314,90.379,5.11591,0,0.000885,0,0
0:0:37.514,91.3754,5.17107,0,0.000885,0,0
0:0:37.711,92.4919,5.23312,0,0.000885,0,0
0:0:37.913,93.3726,5.28138,0,0.000885,0,0
0:0:38.108,94.0176,5.32275,0,0.000885,0,0
0:0:38.309,94.8984,5.37102,0,0.000885,0,0
0:0:38.511,95.4232,5.39859,0,0.000885,0,0
0:0:38.714,95.4811,5.40549,0,0.000885,0,0
0:0:38.917,97.3582,5.50891,0,0.000885,0,0
0:0:39.120,97.594,5.5227,0,0.000885,0,0
0:0:39.323,99.1775,5.61233,0,0.000885,0,0
0:0:39.522,99.7069,5.63991,0,0.000885,0,0
0:0:39.725,101.055,5.71575,0,0.000885,0,0
0:0:39.927,101.758,5.75712,0,0.000885,0,0
0:0:40.125,102.58,5.80539,0,0.000885,0,0
0:0:40.323,103.048,5.83296,0,0.000885,0,0
0:0:40.525,104.4,5.90881,0,0.000885,0,0
0:0:40.722,105.454,5.97086,0,0.000885,0,0
0:0:40.924,106.628,6.03291,0,0.000885,0,0
0:0:41.120,107.389,6.07428,0,0.000885,0,0
0:0:41.320,108.621,6.14323,0,0.000885,0,0
0:0:41.520,108.328,6.12944,0,0.000885,0,0
0:0:41.716,110.089,6.23286,0,0.000885,0,0
0:0:41.919,110.147,6.23286,0,0.000885,0,0
0:0:42.116,111.023,6.28112,0,0.000885,0,0
0:0:42.314,111.904,6.32939,0,0.000885,0,0
0:0:42.516,113.545,6.42591,0,0.000885,0,0
0:0:42.712,113.839,6.4397,0,0.000885,0,0
0:0:42.914,114.426,6.47418,0,0.000885,0,0
0:0:43.112,115.249,6.52244,0,0.000885,0,0
0:0:43.310,115.836,6.55691,0,0.000885,0,0
0:0:43.512,117.651,6.66034,0,0.000885,0,0
0:0:43.713,117.887,6.67413,0,0.000885,0,0
0:0:43.917,119.061,6.73618,0,0.000885,0,0
0:0:44.120,119.764,6.77755,0,0.000885,0,0
0:0:44.323,121.232,6.86028,0,0.000885,0,0
0:0:44.523,121.877,6.89476,0,0.000885,0,0
0:0:44.726,123.167,6.9706,0,0.000885,0,0
0:0:44.927,124.399,7.03955,0,0.000885,0,0
0:0:45.129,125.16,7.08092,0,0.000885,0,0
0:0:45.324,125.511,7.1016,0,0.000885,0,0
0:0:45.527,126.45,7.15676,0,0.000885,0,0
0:0:45.723,127.095,7.19123,0,0.000885,0,0
0:0:45.923,128.327,7.26018,0,0.000885,0,0
0:0:46.125,128.736,7.28776,0,0.000885,0,0
0:0:46.320,130.262,7.3705,0,0.000885,0,0
0:0:46.521,130.382,7.37739,0,0.000885,0,0
0:0:46.720,132.139,7.48081,0,0.000885,0,0
0:0:46.918,132.317,7.48771,0,0.000885,0,0
0:0:47.121,133.665,7.56355,0,0.000885,0,0
0:0:47.318,134.016,7.58423,0,0.000885,0,0
0:0:47.519,135.248,7.65318,0,0.000885,0,0
0:0:47.717,135.542,7.66697,0,0.000885,0,0
0:0:47.914,136.538,7.72902,0,0.000885,0,0
0:0:48.117,137.712,7.79108,0,0.000885,0,0
0:0:48.313,138.767,7.85313,0,0.000885,0,0
0:0:48.513,139.412,7.8876,0,0.000885,0,0
0:0:48.715,140.177,7.92897,0,0.000885,0,0
0:0:48.919,141.467,8.00481,0,0.000885,0,0
0:0:49.122,141.992,8.03239,0,0.000885,0,0
0:0:49.325,142.872,8.08755,0,0.000885,0,0
0:0:49.526,143.753,8.13581,0,0.000885,0,0
0:0:49.728,144.865,8.19787,0,0.000885,0,0
0:0:49.930,145.63,8.23923,0,0.000885,0,0
0:0:50.133,147.036,8.32197,0,0.000885,0,0
0:0:50.331,147.33,8.33576,0,0.000885,0,0
0:0:50.529,148.62,8.4116,0,0.000885,0,0
0:0:50.731,149.149,8.43918,0,0.000885,0,0
0:0:50.926,150.612,8.52192,0,0.000885,0,0
0:0:51.126,151.2,8.55639,0,0.000885,0,0
0:0:51.328,152.489,8.63224,0,0.000885,0,0
0:0:51.524,152.903,8.65292,0,0.000885,0,0
0:0:51.726,153.606,8.69429,0,0.000885,0,0
0:0:51.921,154.896,8.76324,0,0.000885,0,0
0:0:52.121,155.719,8.8115,0,0.000885,0,0
0:0:52.323,156.715,8.86666,0,0.000885,0,0
0:0:52.518,157.418,8.90803,0,0.000885,0,0
0:0:52.720,158.063,8.9425,0,0.000885,0,0
0:0:52.917,158.944,8.99766,0,0.000885,0,0
0:0:53.116,160.114,9.05971,0,0.000885,0,0
0:0:53.317,160.994,9.10797,0,0.000885,0,0
0:0:53.521,162.169,9.17692,0,0.000885,0,0
0:0:53.723,162.347,9.18382,0,0.000885,0,0
0:0:53.926,163.868,9.27345,0,0.000885,0,0
0:0:54.129,164.104,9.28724,0,0.000885,0,0
0:0:54.331,165.158,9.34929,0,0.000885,0,0
0:0:54.532,165.63,9.36998,0,0.000885,0,0
0:0:54.734,166.862,9.44582,0,0.000885,0,0
0:0:54.933,167.329,9.4665,0,0.000885,0,0
0:0:55.131,168.912,9.55613,0,0.000885,0,0
0:0:55.333,169.442,9.59061,0,0.000885,0,0
0:0:55.530,170.554,9.65266,0,0.000885,0,0
0:0:55.729,171.261,9.69403,0,0.000885,0,0
0:0:55.930,172.257,9.74919,0,0.000885,0,0
0:0:56.125,172.724,9.77677,0,0.000885,0,0
0:0:56.327,174.486,9.87329,0,0.000885,0,0
0:0:56.527,174.722,9.88708,0,0.000885,0,0
0:0:56.724,176.185,9.96982,0,0.000885,0,0
0:0:56.925,176.772,10.0043,0,0.000885,0,0
0:0:57.120,177.889,10.0663,0,0.000885,0,0
0:0:57.322,178.707,10.1146,0,0.000885,0,0
0:0:57.522,179.997,10.1836,0,0.000885,0,0
0:0:57.717,180.175,10.1973,0,0.000885,0,0
0:0:57.920,180.527,10.218,0,0.000885,0,0
0:0:58.115,181.639,10.2801,0,0.000885,0,0
0:0:58.316,182.697,10.3352,0,0.000885,0,0
0:0:58.518,183.867,10.4042,0,0.000885,0,0
0:0:58.720,184.223,10.4249,0,0.000885,0,0
0:0:58.923,185.687,10.5076,0,0.000885,0,0
0:0:59.125,186.274,10.5421,0,0.000885,0,0
0:0:59.328,187.742,10.6248,0,0.000885,0,0
0:0:59.529,187.973,10.6386,0,0.000885,0,0
0:0:59.732,189.441,10.7213,0,0.000885,0,0
0:0:59.934,189.792,10.742,0,0.000885,0,0
0:1:0.132,191.082,10.811,0,0.000885,0,0
0:1:0.331,191.669,10.8455,0,0.000885,0,0
0:1:0.532,192.844,10.9144,0,0.000885,0,0
0:1:0.727,193.547,10.9558,0,0.000885,0,0
0:1:0.928,194.601,11.0109,0,0.000885,0,0
0:1:1.125,195.188,11.0454,0,0.000885,0,0
0:1:1.320,196.42,11.1143,0,0.000885,0,0
0:1:1.521,196.656,11.1281,0,0.000885,0,0
0:1:1.716,198.475,11.2316,0,0.000885,0,0
0:1:1.915,198.942,11.2591,0,0.000885,0,0
0:1:2.113,199.472,11.2867,0,0.000885,0,0
0:1:2.308,200.641,11.3557,0,0.000885,0,0
0:1:2.508,201.171,11.3832,0,0.000885,0,0
0:1:2.705,202.639,11.466,0,0.000885,0,0
0:1:2.903,203.226,11.5005,0,0.000885,0,0
0:1:3.104,204.396,11.5694,0,0.000885,0,0
0:1:3.306,205.041,11.6039,0,0.000885,0,0
0:1:3.506,206.157,11.6659,0,0.000885,0,0
0:1:3.707,206.86,11.7073,0,0.000885,0,0
0:1:3.909,207.741,11.7556,0,0.000885,0,0
0:1:4.111,208.034,11.7694,0,0.000885,0,0
0:1:4.313,209.267,11.8452,0,0.000885,0,0
0:1:4.513,209.969,11.8797,0,0.000885,0,0
0:1:4.714,211.144,11.9486,0,0.000885,0,0
0:1:4.913,211.962,11.9969,0,0.000885,0,0
0:1:5.115,213.016,12.052,0,0.000885,0,0
0:1:5.309,213.897,12.1072,0,0.000885,0,0
0:1:5.508,214.6,12.1417,0,0.000885,0,0
0:1:5.708,215.014,12.1692,0,0.000885,0,0
0:1:5.902,216.01,12.2244,0,0.000885,0,0
0:1:6.103,216.655,12.2589,0,0.000885,0,0
0:1:6.298,217.358,12.3002,0,0.000885,0,0
0:1:6.505,218.706,12.3761,0,0.000885,0,0
0:1:6.705,219.351,12.4106,0,0.000885,0,0
0:1:6.899,220.876,12.5002,0,0.000885,0,0
0:1:7.100,221.521,12.5347,0,0.000885,0,0
0:1:7.298,222.696,12.6036,0,0.000885,0,0
0:1:7.491,223.456,12.645,0,0.000885,0,0
0:1:7.692,224.337,12.6932,0,0.000885,0,0
0:1:7.887,225.218,12.7415,0,0.000885,0,0
0:1:8.085,226.156,12.7967,0,0.000885,0,0
0:1:8.287,227.269,12.8587,0,0.000885,0,0
0:1:8.489,227.976,12.9001,0,0.000885,0,0
0:1:8.690,228.621,12.9346,0,0.000885,0,0
0:1:8.891,230.084,13.0173,0,0.000885,0,0
0:1:9.092,230.614,13.0518,0,0.000885,0,0
0:1:9.290,231.904,13.1207,0,0.000885,0,0
0:1:9.491,232.139,13.1345,0,0.000885,0,0
0:1:9.692,233.665,13.2241,0,0.000885,0,0
0:1:9.889,234.604,13.2724,0,0.000885,0,0
0:1:10.085,234.897,13.2931,0,0.000885,0,0
0:1:10.286,235.951,13.3551,0,0.000885,0,0
0:1:10.489,236.419,13.3758,0,0.000885,0,0
0:1:10.689,237.651,13.4517,0,0.000885,0,0
0:1:10.887,238.122,13.4724,0,0.000885,0,0
0:1:11.081,238.941,13.5206,0,0.000885,0,0
0:1:11.281,239.47,13.5482,0,0.000885,0,0
0:1:11.479,241.169,13.6447,0,0.000885,0,0
0:1:11.675,241.934,13.693,0,0.000885,0,0
0:1:11.875,242.873,13.7413,0,0.000885,0,0
0:1:12.070,243.398,13.7757,0,0.000885,0,0
0:1:12.270,244.456,13.8309,0,0.000885,0,0
0:1:12.468,245.275,13.8791,0,0.000885,0,0
0:1:12.662,245.804,13.9067,0,0.000885,0,0
0:1:12.863,247.152,13.9826,0,0.000885,0,0
0:1:13.057,247.503,14.0033,0,0.000885,0,0
0:1:13.255,248.442,14.0584,0,0.000885,0,0
0:1:13.455,248.971,14.086,0,0.000885,0,0
0:1:13.659,250.849,14.1963,0,0.000885,0,0
0:1:13.861,251.436,14.2308,0,0.000885,0,0
0:1:14.062,252.726,14.2997,0,0.000885,0,0
0:1:14.263,253.486,14.3411,0,0.000885,0,0
0:1:14.463,254.367,14.3963,0,0.000885,0,0
0:1:14.663,254.661,14.41,0,0.000885,0,0
0:1:14.864,255.893,14.479,0,0.000885,0,0
0:1:15.061,256.538,14.5204,0,0.000885,0,0
0:1:15.259,257.592,14.5755,0,0.000885,0,0
0:1:15.459,258.357,14.6169,0,0.000885,0,0
0:1:15.653,260.35,14.7341,0,0.000885,0,0
0:1:15.852,260.759,14.7548,0,0.000885,0,0
0:1:16.049,261.168,14.7824,0,0.000885,0,0
0:1:16.246,262.401,14.8513,0,0.000885,0,0
0:1:16.447,262.988,14.8789,0,0.000885,0,0
0:1:16.642,263.984,14.9409,0,0.000885,0,0
0:1:16.842,264.807,14.9823,0,0.000885,0,0
0:1:17.040,265.803,15.0444,0,0.000885,0,0
0:1:17.234,266.626,15.0857,0,0.000885,0,0
0:1:17.435,267.738,15.1478,0,0.000885,0,0
0:1:17.632,268.561,15.196,0,0.000885,0,0
0:1:17.829,269.616,15.2581,0,0.000885,0,0
0:1:18.030,270.318,15.2995,0,0.000885,0,0
0:1:18.223,271.026,15.3339,0,0.000885,0,0
0:1:18.423,271.319,15.3546,0,0.000885,0,0
0:1:18.624,272.374,15.4098,0,0.000885,0,0
0:1:18.826,272.961,15.4443,0,0.000885,0,0
0:1:19.028,273.663,15.4856,0,0.000885,0,0
0:1:19.228,274.953,15.5615,0,0.000885,0,0
0:1:19.428,275.656,15.5959,0,0.000885,0,0
0:1:19.629,276.888,15.6718,0,0.000885,0,0
0:1:19.829,276.888,15.6718,0,0.000885,0,0
0:1:20.030,278.414,15.7545,0,0.000885,0,0
0:1:20.226,279.589,15.8235,0,0.000885,0,0
0:1:20.423,280.527,15.8717,0,0.000885,0,0
0:1:20.622,280.821,15.8924,0,0.000885,0,0
0:1:20.818,282.578,15.9889,0,0.000885,0,0
0:1:21.019,283.338,16.0372,0,0.000885,0,0
0:1:21.215,284.339,16.0924,0,0.000885,0,0
0:1:21.411,284.864,16.1199,0,0.000885,0,0
0:1:21.612,285.803,16.1751,0,0.000885,0,0
0:1:21.806,286.919,16.2372,0,0.000885,0,0
0:1:22.007,287.68,16.2785,0,0.000885,0,0
0:1:22.206,288.503,16.3268,0,0.000885,0,0
0:1:22.400,288.796,16.3406,0,0.000885,0,0
0:1:22.602,290.322,16.4302,0,0.000885,0,0
0:1:22.796,291.198,16.4785,0,0.000885,0,0
0:1:22.994,292.257,16.5405,0,0.000885,0,0
0:1:23.196,292.608,16.5612,0,0.000885,0,0
0:1:23.400,293.841,16.6302,0,0.000885,0,0
0:1:23.601,294.779,16.6784,0,0.000885,0,0
0:1:23.803,295.949,16.7474,0,0.000885,0,0
0:1:24.004,296.714,16.7887,0,0.000885,0,0
0:1:24.203,297.417,16.8301,0,0.000885,0,0
0:1:24.403,297.768,16.8508,0,0.000885,0,0
0:1:24.604,299.001,16.9197,0,0.000885,0,0
0:1:24.802,299.588,16.9542,0,0.000885,0,0
0:1:24.995,300.348,16.9956,0,0.000885,0,0
0:1:25.197,300.993,17.0301,0,0.000885,0,0
0:1:25.403,303.048,17.1473,0,0.000885,0,0
0:1:25.602,303.636,17.1817,0,0.000885,0,0
0:1:25.801,304.338,17.2231,0,0.000885,0,0
0:1:26.004,304.926,17.2576,0,0.000885,0,0
0:1:26.205,306.447,17.3403,0,0.000885,0,0
0:1:26.402,306.683,17.3541,0,0.000885,0,0
0:1:26.608,308.151,17.4368,0,0.000885,0,0
0:1:26.808,308.738,17.4713,0,0.000885,0,0
0:1:27.001,309.441,17.5127,0,0.000885,0,0
0:1:27.203,310.379,17.5609,0,0.000885,0,0
0:1:27.401,311.14,17.6092,0,0.000885,0,0
0:1:27.596,312.078,17.6575,0,0.000885,0,0
0:1:27.797,312.723,17.6988,0,0.000885,0,0
0:1:28.002,313.955,17.7678,0,0.000885,0,0
0:1:28.202,314.6,17.8023,0,0.000885,0,0
0:1:28.402,315.948,17.8781,0,0.000885,0,0
0:1:28.603,316.478,17.9057,0,0.000885,0,0
0:1:28.805,318.239,18.0091,0,0.000885,0,0
0:1:29.006,318.706,18.0367,0,0.000885,0,0
0:1:29.205,319.938,18.1056,0,0.000885,0,0
0:1:29.405,320.583,18.1401,0,0.000885,0,0
0:1:29.606,320.877,18.1608,0,0.000885,0,0
0:1:29.807,321.464,18.1884,0,0.000885,0,0
0:1:30.003,322.87,18.2711,0,0.000885,0,0
0:1:30.201,323.693,18.3194,0,0.000885,0,0
0:1:30.401,325.04,18.3952,0,0.000885,0,0
0:1:30.594,325.45,18.4159,0,0.000885,0,0
0:1:30.794,326.918,18.4986,0,0.000885,0,0
0:1:30.990,327.096,18.5124,0,0.000885,0,0
0:1:31.186,328.034,18.5607,0,0.000885,0,0
0:1:31.387,329.555,18.6503,0,0.000885,0,0
0:1:31.591,329.849,18.6641,0,0.000885,0,0
0:1:31.791,330.672,18.7124,0,0.000885,0,0
0:1:31.989,330.845,18.7193,0,0.000885,0,0
0:1:32.184,332.255,18.802,0,0.000885,0,0
0:1:32.385,332.723,18.8296,0,0.000885,0,0
0:1:32.582,334.19,18.9123,0,0.000885,0,0
0:1:32.780,334.778,18.9468,0,0.000885,0,0
0:1:32.980,336.183,19.0226,0,0.000885,0,0
0:1:33.193,336.535,19.0433,0,0.000885,0,0
0:1:33.393,337.945,19.1261,0,0.000885,0,0
0:1:33.593,338.354,19.1467,0,0.000885,0,0
0:1:33.795,339.35,19.2019,0,0.000885,0,0
0:1:33.997,340.583,19.2708,0,0.000885,0,0
0:1:34.201,341.405,19.3191,0,0.000885,0,0
0:1:34.401,342.108,19.3605,0,0.000885,0,0
0:1:34.602,343.34,19.4294,0,0.000885,0,0
0:1:34.802,343.807,19.457,0,0.000885,0,0
0:1:35.002,345.04,19.526,0,0.000885,0,0
0:1:35.207,345.453,19.5466,0,0.000885,0,0
0:1:35.406,346.623,19.6156,0,0.000885,0,0
0:1:35.604,347.268,19.6501,0,0.000885,0,0
0:1:35.800,348.62,19.7259,0,0.000885,0,0
0:1:36.002,349.145,19.7604,0,0.000885,0,0
0:1:36.206,350.493,19.8362,0,0.000885,0,0
0:1:36.405,351.258,19.8776,0,0.000885,0,0
0:1:36.603,351.961,19.919,0,0.000885,0,0
0:1:36.796,353.193,19.9879,0,0.000885,0,0
0:1:36.997,353.545,20.0086,0,0.000885,0,0
0:1:37.193,354.247,20.0431,0,0.000885,0,0
0:1:37.390,354.892,20.0844,0,0.000885,0,0
0:1:37.591,356.245,20.1603,0,0.000885,0,0
0:1:37.786,357.005,20.2016,0,0.000885,0,0
0:1:37.986,358.295,20.2775,0,0.000885,0,0
0:1:38.184,359.06,20.3188,0,0.000885,0,0
0:1:38.388,359.937,20.3671,0,0.000885,0,0
0:1:38.589,360.524,20.4016,0,0.000885,0,0
0:1:38.790,361.52,20.4567,0,0.000885,0,0
0:1:38.992,362.459,20.5119,0,0.000885,0,0
0:1:39.195,363.455,20.5671,0,0.000885,0,0
0:1:39.395,364.456,20.6222,0,0.000885,0,0
0:1:39.595,365.92,20.705,0,0.000885,0,0
0:1:39.797,365.977,20.7119,0,0.000885,0,0
0:1:39.997,366.858,20.7601,0,0.000885,0,0
0:1:40.197,367.561,20.8015,0,0.000885,0,0
0:1:40.403,369.145,20.8911,0,0.000885,0,0
0:1:40.604,369.732,20.9256,0,0.000885,0,0
0:1:40.797,370.79,20.9807,0,0.000885,0,0
0:1:40.995,371.551,21.0221,0,0.000885,0,0
0:1:41.197,372.138,21.0566,0,0.000885,0,0
0:1:41.401,373.077,21.1117,0,0.000885,0,0
0:1:41.599,373.602,21.1393,0,0.000885,0,0
0:1:41.797,374.603,21.2014,0,0.000885,0,0
0:1:42.004,375.185,21.229,0,0.000885,0,0
0:1:42.205,376.769,21.3186,0,0.000885,0,0
0:1:42.398,377.24,21.3462,0,0.000885,0,0
0:1:42.596,378.179,21.4013,0,0.000885,0,0
0:1:42.795,379.233,21.4634,0,0.000885,0,0
0:1:42.991,380.35,21.5254,0,0.000885,0,0
0:1:43.190,380.875,21.553,0,0.000885,0,0
0:1:43.391,382.107,21.622,0,0.000885,0,0
0:1:43.593,382.458,21.6426,0,0.000885,0,0
0:1:43.794,383.748,21.7185,0,0.000885,0,0
0:1:43.994,384.455,21.753,0,0.000885,0,0
0:1:44.195,385.745,21.8288,0,0.000885,0,0
0:1:44.396,386.8,21.8909,0,0.000885,0,0
0:1:44.597,387.738,21.9391,0,0.000885,0,0
0:1:44.796,388.499,21.9874,0,0.000885,0,0
0:1:45.001,390.082,22.077,0,0.000885,0,0
0:1:45.202,390.612,22.1046,0,0.000885,0,0
0:1:45.398,391.199,22.1391,0,0.000885,0,0
0:1:45.605,391.786,22.1735,0,0.000885,0,0
0:1:45.807,393.076,22.2425,0,0.000885,0,0
0:1:46.002,393.37,22.2632,0,0.000885,0,0
0:1:46.199,393.837,22.2839,0,0.000885,0,0
0:1:46.399,394.953,22.3528,0,0.000885,0,0
0:1:46.594,395.598,22.3873,0,0.000885,0,0
0:1:46.795,397.355,22.4838,0,0.000885,0,0
0:1:47.002,397.711,22.5045,0,0.000885,0,0
0:1:47.198,398.707,22.5596,0,0.000885,0,0
0:1:47.398,399.175,22.5872,0,0.000885,0,0
0:1:47.604,400.758,22.6769,0,0.000885,0,0
0:1:47.804,401.403,22.7182,0,0.000885,0,0
0:1:47.998,402.342,22.7665,0,0.000885,0,0
0:1:48.195,402.987,22.8079,0,0.000885,0,0
0:1:48.397,404.277,22.8768,0,0.000885,0,0
0:1:48.598,405.215,22.932,0,0.000885,0,0
0:1:48.803,406.154,22.9802,0,0.000885,0,0
0:1:49.003,406.447,23.0009,0,0.000885,0,0
0:1:49.204,407.857,23.0768,0,0.000885,0,0
0:1:49.406,408.618,23.125,0,0.000885,0,0
0:1:49.604,409.499,23.1733,0,0.000885,0,0
0:1:49.806,410.317,23.2215,0,0.000885,0,0
0:1:50.004,411.549,23.2905,0,0.000885,0,0
0:1:50.196,411.843,23.3043,0,0.000885,0,0
0:1:50.397,413.253,23.387,0,0.000885,0,0
0:1:50.594,413.836,23.4215,0,0.000885,0,0
0:1:50.803,414.837,23.4766,0,0.000885,0,0
0:1:51.002,415.362,23.5042,0,0.000885,0,0
0:1:51.195,416.127,23.5456,0,0.000885,0,0
0:1:51.395,417.181,23.6076,0,0.000885,0,0
0:1:51.592,417.648,23.6352,0,0.000885,0,0
0:1:51.799,418.942,23.7042,0,0.000885,0,0
0:1:52.002,419.467,23.7386,0,0.000885,0,0
0:1:52.194,420.642,23.8007,0,0.000885,0,0
0:1:52.394,421.229,23.8352,0,0.000885,0,0
0:1:52.600,422.634,23.9179,0,0.000885,0,0
0:1:52.796,423.573,23.9662,0,0.000885,0,0
0:1:52.998,424.69,24.0351,0,0.000885,0,0
0:1:53.204,425.277,24.0627,0,0.000885,0,0
0:1:53.402,426.273,24.1248,0,0.000885,0,0
0:1:53.603,426.567,24.1385,0,0.000885,0,0
0:1:53.805,427.914,24.2144,0,0.000885,0,0
0:1:54.007,428.853,24.2695,0,0.000885,0,0
0:1:54.207,429.792,24.3178,0,0.000885,0,0
0:1:54.408,430.085,24.3385,0,0.000885,0,0
0:1:54.608,431.491,24.4143,0,0.000885,0,0
0:1:54.808,432.607,24.4833,0,0.000885,0,0
0:1:55.009,433.84,24.5522,0,0.000885,0,0
0:1:55.207,434.484,24.5867,0,0.000885,0,0
0:1:55.403,435.245,24.6281,0,0.000885,0,0
0:1:55.603,435.948,24.6694,0,0.000885,0,0
0:1:55.795,436.713,24.7108,0,0.000885,0,0
0:1:55.995,437.945,24.7798,0,0.000885,0,0
0:1:56.193,438.297,24.8004,0,0.000885,0,0
0:1:56.388,439.587,24.8763,0,0.000885,0,0
0:1:56.590,439.938,24.897,0,0.000885,0,0
0:1:56.785,441.17,24.9659,0,0.000885,0,0
0:1:56.983,441.815,25.0004,0,0.000885,0,0
0:1:57.184,443.221,25.0831,0,0.000885,0,0
0:1:57.377,443.986,25.1245,0,0.000885,0,0
0:1:57.579,444.747,25.1659,0,0.000885,0,0
0:1:57.775,445.276,25.2003,0,0.000885,0,0
0:1:57.972,446.388,25.2624,0,0.000885,0,0
0:1:58.172,447.153,25.3038,0,0.000885,0,0
0:1:58.373,448.029,25.352,0,0.000885,0,0
0:1:58.576,449.088,25.4141,0,0.000885,0,0
0:1:58.776,449.497,25.4348,0,0.000885,0,0
0:1:58.978,450.672,25.5037,0,0.000885,0,0
0:1:59.179,451.139,25.5313,0,0.000885,0,0
0:1:59.378,452.429,25.6002,0,0.000885,0,0
0:1:59.579,453.016,25.6347,0,0.000885,0,0
0:1:59.779,454.248,25.7037,0,0.000885,0,0
0:1:59.973,454.893,25.745,0,0.000885,0,0
0:2:0.174,455.889,25.8002,0,0.000885,0,0
0:2:0.371,456.77,25.8484,0,0.000885,0,0
0:2:0.568,457.824,25.9105,0,0.000885,0,0
0:2:0.768,458.411,25.9381,0,0.000885,0,0
0:2:0.963,459.408,26.0001,0,0.000885,0,0
0:2:1.162,460.346,26.0484,0,0.000885,0,0
0:2:1.360,461.521,26.1173,0,0.000885,0,0
0:2:1.556,461.872,26.138,0,0.000885,0,0
0:2:1.757,462.517,26.1725,0,0.000885,0,0
0:2:1.951,463.749,26.2414,0,0.000885,0,0
0:2:2.151,464.688,26.2966,0,0.000885,0,0
0:2:2.351,465.978,26.3656,0,0.000885,0,0
0:2:2.545,466.156,26.3793,0,0.000885,0,0
0:2:2.746,467.739,26.469,0,0.000885,0,0
0:2:2.942,468.678,26.5241,0,0.000885,0,0
0:2:3.139,469.323,26.5586,0,0.000885,0,0
0:2:3.339,470.026,26.6,0,0.000885,0,0
0:2:3.541,471.138,26.662,0,0.000885,0,0
0:2:3.743,471.552,26.6827,0,0.000885,0,0
0:2:3.945,473.135,26.7723,0,0.000885,0,0
0:2:4.145,473.486,26.793,0,0.000885,0,0
0:2:4.346,474.599,26.8551,0,0.000885,0,0
0:2:4.545,475.479,26.9033,0,0.000885,0,0
0:2:4.747,476.476,26.9654,0,0.000885,0,0
0:2:4.945,476.827,26.9861,0,0.000885,0,0
0:2:5.142,478.762,27.0895,0,0.000885,0,0
0:2:5.343,478.882,27.0964,0,0.000885,0,0
0:2:5.538,479.291,27.124,0,0.000885,0,0
0:2:5.737,480.702,27.1998,0,0.000885,0,0
0:2:5.935,481.169,27.2274,0,0.000885,0,0
0:2:6.129,482.401,27.2963,0,0.000885,0,0
0:2:6.330,482.752,27.317,0,0.000885,0,0
0:2:6.529,483.749,27.3722,0,0.000885,0,0
0:2:6.725,484.336,27.4067,0,0.000885,0,0
0:2:6.925,485.861,27.4963,0,0.000885,0,0
0:2:7.120,486.68,27.5377,0,0.000885,0,0
0:2:7.321,487.561,27.5928,0,0.000885,0,0
0:2:7.519,488.441,27.6411,0,0.000885,0,0
0:2:7.716,489.847,27.7169,0,0.000885,0,0
0:2:7.915,490.141,27.7376,0,0.000885,0,0
0:2:8.110,491.137,27.7928,0,0.000885,0,0
0:2:8.309,491.902,27.8341,0,0.000885,0,0
0:2:8.510,493.134,27.9031,0,0.000885,0,0
0:2:8.712,493.659,27.9376,0,0.000885,0,0
0:2:8.914,494.246,27.972,0,0.000885,0,0
0:2:9.114,495.421,28.0341,0,0.000885,0,0
0:2:9.314,495.83,28.0617,0,0.000885,0,0
0:2:9.515,497.356,28.1444,0,0.000885,0,0
0:2:9.714,498.121,28.1858,0,0.000885,0,0
0:2:9.914,498.881,28.234,0,0.000885,0,0
0:2:10.112,499.526,28.2685,0,0.000885,0,0
0:2:10.306,500.638,28.3306,0,0.000885,0,0
0:2:10.507,501.404,28.3719,0,0.000885,0,0
0:2:10.701,502.987,28.4616,0,0.000885,0,0
0:2:10.899,503.396,28.4891,0,0.000885,0,0
0:2:11.099,504.571,28.5512,0,0.000885,0,0
0:2:11.294,505.509,28.6063,0,0.000885,0,0
0:2:11.495,506.39,28.6546,0,0.000885,0,0
0:2:11.699,506.857,28.6822,0,0.000885,0,0
0:2:11.899,508.031,28.7511,0,0.000885,0,0
0:2:12.099,508.325,28.7649,0,0.000885,0,0
0:2:12.304,509.086,28.8063,0,0.000885,0,0
0:2:12.502,510.727,28.9028,0,0.000885,0,0
0:2:12.710,511.021,28.9166,0,0.000885,0,0
0:2:12.907,512.195,28.9856,0,0.000885,0,0
0:2:13.109,513.018,29.0338,0,0.000885,0,0
0:2:13.310,513.663,29.0683,0,0.000885,0,0
0:2:13.512,514.659,29.1235,0,0.000885,0,0
0:2:13.712,515.478,29.1717,0,0.000885,0,0
0:2:13.913,516.123,29.2062,0,0.000885,0,0
0:2:14.114,517.003,29.2545,0,0.000885,0,0
0:2:14.314,518.058,29.3165,0,0.000885,0,0
0:2:14.514,518.996,29.3717,0,0.000885,0,0
0:2:14.712,519.641,29.4061,0,0.000885,0,0
0:2:14.906,520.873,29.4751,0,0.000885,0,0
0:2:15.107,521.754,29.5234,0,0.000885,0,0
0:2:15.305,522.577,29.5716,0,0.000885,0,0
0:2:15.499,523.631,29.6337,0,0.000885,0,0
0:2:15.700,524.921,29.7026,0,0.000885,0,0
0:2:15.893,525.331,29.7302,0,0.000885,0,0
0:2:16.092,525.686,29.7509,0,0.000885,0,0
0:2:16.292,527.034,29.8267,0,0.000885,0,0
0:2:16.487,527.737,29.8612,0,0.000885,0,0
0:2:16.688,528.56,29.9095,0,0.000885,0,0
0:2:16.892,529.378,29.9577,0,0.000885,0,0
0:2:17.092,530.495,30.0198,0,0.000885,0,0
0:2:17.291,531.02,30.0474,0,0.000885,0,0
0:2:17.486,532.136,30.1094,0,0.000885,0,0
0:2:17.687,532.546,30.137,0,0.000885,0,0
0:2:17.891,533.72,30.199,0,0.000885,0,0
0:2:18.089,534.071,30.2197,0,0.000885,0,0
0:2:18.290,535.01,30.2749,0,0.000885,0,0
0:2:18.492,536.242,30.3438,0,0.000885,0,0
0:2:18.692,536.651,30.3714,0,0.000885,0,0
0:2:18.893,538.235,30.461,0,0.000885,0,0
0:2:19.094,538.706,30.4817,0,0.000885,0,0
0:2:19.295,539.818,30.5507,0,0.000885,0,0
0:2:19.494,540.521,30.5851,0,0.000885,0,0
0:2:19.695,541.166,30.6265,0,0.000885,0,0
0:2:19.893,542.576,30.7024,0,0.000885,0,0
0:2:20.089,542.928,30.723,0,0.000885,0,0
0:2:20.290,544.453,30.8127,0,0.000885,0,0
0:2:20.485,545.508,30.8678,0,0.000885,0,0
0:2:20.683,545.917,30.8954,0,0.000885,0,0
0:2:20.889,546.331,30.9161,0,0.000885,0,0
0:2:21.086,546.798,30.9437,0,0.000885,0,0
0:2:21.286,548.03,31.0126,0,0.000885,0,0
0:2:21.491,549.084,31.0747,0,0.000885,0,0
0:2:21.691,550.494,31.1505,0,0.000885,0,0
0:2:21.889,550.846,31.1712,0,0.000885,0,0
0:2:22.085,551.548,31.2126,0,0.000885,0,0
0:2:22.286,552.429,31.2608,0,0.000885,0,0
0:2:22.481,553.835,31.3436,0,0.000885,0,0
0:2:22.680,554.191,31.3574,0,0.000885,0,0
0:2:22.879,555.009,31.4056,0,0.000885,0,0
0:2:23.072,555.481,31.4332,0,0.000885,0,0
0:2:23.274,557.18,31.5297,0,0.000885,0,0
0:2:23.475,557.416,31.5435,0,0.000885,0,0
0:2:23.678,559.115,31.64,0,0.000885,0,0
0:2:23.879,559.351,31.6538,0,0.000885,0,0
0:2:24.081,560.698,31.7297,0,0.000885,0,0
0:2:24.281,561.579,31.7779,0,0.000885,0,0
0:2:24.481,562.046,31.8055,0,0.000885,0,0
0:2:24.681,563.456,31.8883,0,0.000885,0,0
0:2:24.882,563.63,31.8951,0,0.000885,0,0
0:2:25.076,564.804,31.9641,0,0.000885,0,0
0:2:25.278,565.743,32.0124,0,0.000885,0,0
0:2:25.474,566.503,32.0606,0,0.000885,0,0
0:2:25.670,567.442,32.1089,0,0.000885,0,0
0:2:25.871,567.856,32.1365,0,0.000885,0,0
0:2:26.066,568.501,32.1709,0,0.000885,0,0
0:2:26.267,569.555,32.233,0,0.000885,0,0
0:2:26.463,570.084,32.2606,0,0.000885,0,0
0:2:26.660,571.374,32.3364,0,0.000885,0,0
0:2:26.859,571.374,32.3364,0,0.000885,0,0
0:2:27.055,572.135,32.3778,0,0.000885,0,0
0:2:27.254,572.544,32.3985,0,0.000885,0,0
0:2:27.452,572.958,32.426,0,0.000885,0,0
0:2:27.647,574.421,32.5088,0,0.000885,0,0
0:2:27.848,574.835,32.5295,0,0.000885,0,0
0:2:28.044,575.36,32.557,0,0.000885,0,0
0:2:28.243,575.36,32.557,0,0.000885,0,0
0:2:28.443,576.418,32.6191,0,0.000885,0,0
0:2:28.646,576.828,32.6398,0,0.000885,0,0
0:2:28.848,577.651,32.688,0,0.000885,0,0
0:2:29.049,578.705,32.7501,0,0.000885,0,0
0:2:29.250,580.288,32.8397,0,0.000885,0,0
0:2:29.451,580.582,32.8535,0,0.000885,0,0
0:2:29.652,581.285,32.8949,0,0.000885,0,0
0:2:29.853,581.814,32.9225,0,0.000885,0,0
0:2:30.049,582.281,32.95,0,0.000885,0,0
0:2:30.247,582.517,32.9638,0,0.000885,0,0
0:2:30.446,581.988,32.9363,0,0.000885,0,0
0:2:30.639,581.52,32.9087,0,0.000885,0,0
0:2:30.839,580.64,32.8604,0,0.000885,0,0
0:2:31.035,579.35,32.7846,0,0.000885,0,0
0:2:31.232,578.411,32.7294,0,0.000885,0,0
0:2:31.432,575.711,32.5777,0,0.000885,0,0
0:2:31.625,573.425,32.4467,0,0.000885,0,0
0:2:31.824,569.439,32.2261,0,0.000885,0,0
0:2:32.021,567.562,32.1158,0,0.000885,0,0
0:2:32.218,563.22,31.8745,0,0.000885,0,0
0:2:32.419,561.815,31.7917,0,0.000885,0,0
0:2:32.611,558.528,31.6056,0,0.000885,0,0
0:2:32.809,557.709,31.5573,0,0.000885,0,0
0:2:33.009,556.299,31.4815,0,0.000885,0,0
0:2:33.211,553.368,31.316,0,0.000885,0,0
0:2:33.412,550.085,31.1298,0,0.000885,0,0
0:2:33.613,544.04,30.7851,0,0.000885,0,0
0:2:33.813,542.75,30.7161,0,0.000885,0,0
0:2:34.013,540.17,30.5645,0,0.000885,0,0
0:2:34.212,538.88,30.4955,0,0.000885,0,0
0:2:34.413,534.716,30.2611,0,0.000885,0,0
0:2:34.611,532.252,30.1163,0,0.000885,0,0
0:2:34.808,527.501,29.8474,0,0.000885,0,0
0:2:35.007,526.741,29.806,0,0.000885,0,0
0:2:35.210,524.921,29.7026,0,0.000885,0,0
0:2:35.410,524.218,29.6612,0,0.000885,0,0
0:2:35.608,523.338,29.613,0,0.000885,0,0
0:2:35.812,523.516,29.6268,0,0.000885,0,0
0:2:36.012,523.689,29.6337,0,0.000885,0,0
0:2:36.215,522.986,29.5923,0,0.000885,0,0
0:2:36.415,522.399,29.5647,0,0.000885,0,0
0:2:36.612,521.696,29.5234,0,0.000885,0,0
0:2:36.807,520.816,29.4751,0,0.000885,0,0
0:2:37.004,520.758,29.4682,0,0.000885,0,0
0:2:37.210,521.167,29.4889,0,0.000885,0,0
0:2:37.410,521.403,29.5027,0,0.000885,0,0
0:2:37.608,521.812,29.5302,0,0.000885,0,0
0:2:37.812,522.457,29.5647,0,0.000885,0,0
0:2:38.013,523.28,29.613,0,0.000885,0,0
0:2:38.214,524.276,29.6681,0,0.000885,0,0
0:2:38.415,524.454,29.675,0,0.000885,0,0
0:2:38.615,525.393,29.7302,0,0.000885,0,0
0:2:38.816,523.573,29.6268,0,0.000885,0,0
0:2:39.016,523.396,29.6199,0,0.000885,0,0
0:2:39.215,523.747,29.6406,0,0.000885,0,0
0:2:39.416,524.628,29.6888,0,0.000885,0,0
0:2:39.615,525.451,29.7371,0,0.000885,0,0
0:2:39.808,526.914,29.8198,0,0.000885,0,0
0:2:40.009,527.621,29.8543,0,0.000885,0,0
0:2:40.213,528.618,29.9164,0,0.000885,0,0
0:2:40.411,529.263,29.9508,0,0.000885,0,0
0:2:40.610,530.437,30.0198,0,0.000885,0,0
0:2:40.801,530.962,30.0474,0,0.000885,0,0
0:2:41.002,531.958,30.1025,0,0.000885,0,0
0:2:41.199,532.194,30.1163,0,0.000885,0,0
0:2:41.404,528.146,29.8888,0,0.000885,0,0
0:2:41.604,523.338,29.613,0,0.000885,0,0
0:2:41.798,521.461,29.5096,0,0.000885,0,0
0:2:41.997,519.526,29.3992,0,0.000885,0,0
0:2:42.203,519.174,29.3786,0,0.000885,0,0
0:2:42.400,519.997,29.4268,0,0.000885,0,0
0:2:42.599,520.406,29.4475,0,0.000885,0,0
0:2:42.794,521.167,29.4889,0,0.000885,0,0
0:2:42.993,521.696,29.5234,0,0.000885,0,0
0:2:43.193,522.283,29.5578,0,0.000885,0,0
0:2:43.395,523.044,29.5992,0,0.000885,0,0
0:2:43.597,523.102,29.5992,0,0.000885,0,0
0:2:43.797,523.458,29.6199,0,0.000885,0,0
0:2:43.998,524.218,29.6612,0,0.000885,0,0
0:2:44.198,524.512,29.6819,0,0.000885,0,0
0:2:44.399,525.566,29.744,0,0.000885,0,0
0:2:44.598,525.86,29.7578,0,0.000885,0,0
0:2:44.792,526.683,29.806,0,0.000885,0,0
0:2:44.990,527.208,29.8336,0,0.000885,0,0
0:2:45.198,528.324,29.8957,0,0.000885,0,0
0:2:45.403,528.733,29.9232,0,0.000885,0,0
0:2:45.603,530.081,29.9991,0,0.000885,0,0
0:2:45.809,530.495,30.0198,0,0.000885,0,0
0:2:46.005,531.256,30.0611,0,0.000885,0,0
0:2:46.204,531.607,30.0818,0,0.000885,0,0
0:2:46.398,532.488,30.1301,0,0.000885,0,0
0:2:46.598,533.311,30.1784,0,0.000885,0,0
0:2:46.803,534.658,30.2542,0,0.000885,0,0
0:2:46.999,535.303,30.2887,0,0.000885,0,0
0:2:47.200,535.655,30.3094,0,0.000885,0,0
0:2:47.403,535.303,30.2887,0,0.000885,0,0
0:2:47.602,534.013,30.2197,0,0.000885,0,0
0:2:47.810,533.604,30.199,0,0.000885,0,0
0:2:48.003,533.72,30.199,0,0.000885,0,0
0:2:48.204,534.307,30.2335,0,0.000885,0,0
0:2:48.403,534.481,30.2473,0,0.000885,0,0
0:2:48.605,535.188,30.2887,0,0.000885,0,0
0:2:48.809,535.597,30.3094,0,0.000885,0,0
0:2:49.009,537.123,30.3921,0,0.000885,0,0
0:2:49.208,537.705,30.4266,0,0.000885,0,0
0:2:49.408,538.528,30.4748,0,0.000885,0,0
0:2:49.609,538.413,30.4679,0,0.000885,0,0
0:2:49.805,539.351,30.5231,0,0.000885,0,0
0:2:49.999,539.818,30.5507,0,0.000885,0,0
0:2:50.199,540.228,30.5714,0,0.000885,0,0
0:2:50.396,540.521,30.5851,0,0.000885,0,0
0:2:50.594,541.696,30.6541,0,0.000885,0,0
0:2:50.791,542.398,30.6955,0,0.000885,0,0
0:2:50.985,542.986,30.7299,0,0.000885,0,0
0:2:51.185,544.102,30.792,0,0.000885,0,0
0:2:51.381,544.627,30.8196,0,0.000885,0,0
0:2:51.578,545.392,30.8609,0,0.000885,0,0
0:2:51.776,545.628,30.8747,0,0.000885,0,0
0:2:51.971,546.273,30.9092,0,0.000885,0,0
0:2:52.169,546.74,30.9368,0,0.000885,0,0
0:2:52.368,547.794,30.9988,0,0.000885,0,0
0:2:52.563,548.617,31.0471,0,0.000885,0,0
0:2:52.763,549.262,31.0816,0,0.000885,0,0
0:2:52.956,549.729,31.1091,0,0.000885,0,0
0:2:53.155,549.729,31.1091,0,0.000885,0,0
0:2:53.353,550.436,31.1505,0,0.000885,0,0
0:2:53.555,550.903,31.1781,0,0.000885,0,0
0:2:53.757,551.548,31.2126,0,0.000885,0,0
0:2:53.958,552.136,31.247,0,0.000885,0,0
0:2:54.159,553.016,31.2953,0,0.000885,0,0
0:2:54.358,552.896,31.2884,0,0.000885,0,0
0:2:54.558,551.197,31.1919,0,0.000885,0,0
0:2:54.759,550.961,31.1781,0,0.000885,0,0
0:2:54.955,550.494,31.1505,0,0.000885,0,0
0:2:55.150,550.846,31.1712,0,0.000885,0,0
0:2:55.350,551.842,31.2264,0,0.000885,0,0
0:2:55.545,552.136,31.247,0,0.000885,0,0
0:2:55.745,552.896,31.2884,0,0.000885,0,0
0:2:55.939,553.368,31.316,0,0.000885,0,0
0:2:56.135,554.128,31.3574,0,0.000885,0,0
0:2:56.336,554.715,31.3918,0,0.000885,0,0
0:2:56.530,555.36,31.4263,0,0.000885,0,0
0:2:56.730,556.708,31.5021,0,0.000885,0,0
0:2:56.927,557.122,31.5297,0,0.000885,0,0
0:2:57.122,558.528,31.6056,0,0.000885,0,0
0:2:57.322,558.999,31.6331,0,0.000885,0,0
0:2:57.516,560.053,31.6952,0,0.000885,0,0
0:2:57.716,560.169,31.7021,0,0.000885,0,0
0:2:57.914,561.108,31.7504,0,0.000885,0,0
0:2:58.106,561.401,31.771,0,0.000885,0,0
0:2:58.306,561.579,31.7779,0,0.000885,0,0
0:2:58.509,562.166,31.8124,0,0.000885,0,0
0:2:58.711,562.46,31.8262,0,0.000885,0,0
0:2:58.912,562.46,31.8262,0,0.000885,0,0
0:2:59.112,563.278,31.8745,0,0.000885,0,0
0:2:59.311,563.63,31.8951,0,0.000885,0,0
0:2:59.511,563.75,31.902,0,0.000885,0,0
0:2:59.711,563.514,31.8883,0,0.000885,0,0
0:2:59.912,558.412,31.5987,0,0.000885,0,0
0:3:0.114,556.299,31.4815,0,0.000885,0,0
0:3:0.315,554.48,31.378,0,0.000885,0,0
0:3:0.509,552.545,31.2677,0,0.000885,0,0
0:3:0.716,552.251,31.2539,0,0.000885,0,0
0:3:0.916,550.961,31.1781,0,0.000885,0,0
0:3:1.110,550.73,31.1643,0,0.000885,0,0
0:3:1.307,550.023,31.1229,0,0.000885,0,0
0:3:1.515,549.907,31.116,0,0.000885,0,0
0:3:1.712,549.791,31.1091,0,0.000885,0,0
0:3:1.911,549.084,31.0747,0,0.000885,0,0
0:3:2.114,544.453,30.8127,0,0.000885,0,0
0:3:2.313,542.341,30.6886,0,0.000885,0,0
0:3:2.343,542.341,30.6886,0,0.000885,0,0