File: DataFile2021-07-03_083607.csv
Test ID:,Date Tested:,Time:,Test Type:,Diameter Avg. (mm):,Cyl. Corr. Factor:,Height (mm):,Age (days):,Weight (kN):,Break Type:,Ramp Rate (MPa/s):,Load at Break (kN):,Stress at Break (MPa):
12,7/3/2021,08:36,Cylinder,100,1,200,0,3.6,3,0.25,607.75,77.38
Sample Time,Load (kN),Stress (MPa),Long. Strain,Trans. Strain,Chan1 Deflection (mm),Chan2 Deflection (mm)
0:0:19.921,5.10211,0.648107,0,0.000885,0,0
0:0:20.215,7.68208,0.979056,0,0.000885,0,0
0:0:20.516,11.2629,1.43411,0,0.000885,0,0
0:0:20.812,11.9657,1.52374,0,0.000885,0,0
0:0:21.112,11.4942,1.46169,0,0.000885,0,0
0:0:21.422,11.2006,1.42721,0,0.000885,0,0
0:0:21.714,11.1428,1.42032,0,0.000885,0,0
0:0:22.014,11.0271,1.40653,0,0.000885,0,0
0:0:22.312,10.8492,1.37895,0,0.000885,0,0
0:0:22.618,10.6757,1.35827,0,0.000885,0,0
0:0:22.928,10.6179,1.35137,0,0.000885,0,0
0:0:23.225,10.4978,1.33758,0,0.000885,0,0
0:0:23.527,11.73,1.49616,0,0.000885,0,0
0:0:23.831,12.6685,1.61337,0,0.000885,0,0
0:0:24.129,13.0199,1.65474,0,0.000885,0,0
0:0:24.428,13.1979,1.68232,0,0.000885,0,0
0:0:24.725,14.1943,1.80643,0,0.000885,0,0
0:0:25.025,14.5457,1.85469,0,0.000885,0,0
0:0:25.322,15.2485,1.94432,0,0.000885,0,0
0:0:25.626,15.7778,2.00637,0,0.000885,0,0
0:0:25.930,16.5385,2.1029,0,0.000885,0,0
0:0:26.234,17.7706,2.26148,0,0.000885,0,0
0:0:26.536,18.4735,2.35111,0,0.000885,0,0
0:0:26.839,19.2964,2.45453,0,0.000885,0,0
0:0:27.141,20.057,2.55106,0,0.000885,0,0
0:0:27.438,21.1157,2.68896,0,0.000885,0,0
0:0:27.737,20.9956,2.67517,0,0.000885,0,0
0:0:28.037,21.4093,2.72343,0,0.000885,0,0
0:0:28.331,21.8185,2.77859,0,0.000885,0,0
0:0:28.634,22.4635,2.86132,0,0.000885,0,0
0:0:28.930,22.9929,2.93027,0,0.000885,0,0
0:0:29.228,23.1663,2.95096,0,0.000885,0,0
0:0:29.528,23.7535,3.0268,0,0.000885,0,0
0:0:29.824,23.8692,3.04059,0,0.000885,0,0
0:0:30.127,24.6343,3.13711,0,0.000885,0,0
0:0:30.432,25.8664,3.29569,0,0.000885,0,0
0:0:30.735,26.6271,3.39222,0,0.000885,0,0
0:0:31.038,26.9785,3.43359,0,0.000885,0,0
0:0:31.340,27.3299,3.48185,0,0.000885,0,0
0:0:31.644,28.0371,3.57148,0,0.000885,0,0
0:0:31.940,28.9713,3.6887,0,0.000885,0,0
0:0:32.240,29.6207,3.77143,0,0.000885,0,0
0:0:32.538,29.7942,3.79212,0,0.000885,0,0
0:0:32.834,30.497,3.88175,0,0.000885,0,0
0:0:33.137,31.2621,3.97827,0,0.000885,0,0
0:0:33.432,31.5557,4.01964,0,0.000885,0,0
0:0:33.732,32.1384,4.09549,0,0.000885,0,0
0:0:34.030,33.077,4.2127,0,0.000885,0,0
0:0:34.326,33.6063,4.28164,0,0.000885,0,0
0:0:34.629,34.4871,4.39196,0,0.000885,0,0
0:0:34.924,35.0742,4.4678,0,0.000885,0,0
0:0:35.228,35.3678,4.50228,0,0.000885,0,0
0:0:35.532,35.7192,4.55054,0,0.000885,0,0
0:0:35.837,36.2441,4.61259,0,0.000885,0,0
0:0:36.139,36.8313,4.68843,0,0.000885,0,0
0:0:36.441,37.1249,4.7298,0,0.000885,0,0
0:0:36.744,37.712,4.79875,0,0.000885,0,0
0:0:37.040,39.1177,4.97801,0,0.000885,0,0
0:0:37.340,39.7671,5.06075,0,0.000885,0,0
0:0:37.640,40.3498,5.13659,0,0.000885,0,0
0:0:37.935,40.8792,5.20554,0,0.000885,0,0
0:0:38.238,41.4085,5.27449,0,0.000885,0,0
0:0:38.533,42.1113,5.36412,0,0.000885,0,0
0:0:38.833,42.5784,5.41928,0,0.000885,0,0
0:0:39.131,42.8141,5.45375,0,0.000885,0,0
0:0:39.429,43.4591,5.53649,0,0.000885,0,0
0:0:39.728,44.0463,5.60544,0,0.000885,0,0
0:0:40.024,45.0427,5.73644,0,0.000885,0,0
0:0:40.326,45.2784,5.76402,0,0.000885,0,0
0:0:40.630,45.3363,5.77091,0,0.000885,0,0
0:0:40.933,45.9234,5.84675,0,0.000885,0,0
0:0:41.238,47.2134,6.01223,0,0.000885,0,0
0:0:41.539,47.8006,6.08807,0,0.000885,0,0
0:0:41.840,48.2098,6.13633,0,0.000885,0,0
0:0:42.137,48.9126,6.22597,0,0.000885,0,0
0:0:42.437,49.2062,6.26733,0,0.000885,0,0
0:0:42.736,50.087,6.37765,0,0.000885,0,0
0:0:43.033,50.5585,6.4397,0,0.000885,0,0
0:0:43.334,51.2613,6.52934,0,0.000885,0,0
0:0:43.630,52.022,6.62586,0,0.000885,0,0
0:0:43.931,52.022,6.62586,0,0.000885,0,0
0:0:44.226,53.1963,6.77065,0,0.000885,0,0
0:0:44.527,53.4899,6.81202,0,0.000885,0,0
0:0:44.836,54.1927,6.90165,0,0.000885,0,0
0:0:45.131,54.722,6.9706,0,0.000885,0,0
0:0:45.433,55.2469,7.03265,0,0.000885,0,0
0:0:45.738,56.1277,7.14986,0,0.000885,0,0
0:0:46.042,56.1855,7.15676,0,0.000885,0,0
0:0:46.345,56.5369,7.19813,0,0.000885,0,0
0:0:46.648,57.4176,7.30844,0,0.000885,0,0
0:0:46.952,58.2406,7.41876,0,0.000885,0,0
0:0:47.246,58.8856,7.4946,0,0.000885,0,0
0:0:47.547,59.237,7.54286,0,0.000885,0,0
0:0:47.845,59.882,7.6256,0,0.000885,0,0
0:0:48.145,60.7049,7.72902,0,0.000885,0,0
0:0:48.445,61.5812,7.83934,0,0.000885,0,0
0:0:48.741,62.0527,7.90139,0,0.000885,0,0
0:0:49.044,62.6399,7.97723,0,0.000885,0,0
0:0:49.338,62.9334,8.01171,0,0.000885,0,0
0:0:49.637,63.4583,8.08066,0,0.000885,0,0
0:0:49.936,63.8097,8.12202,0,0.000885,0,0
0:0:50.233,64.517,8.21166,0,0.000885,0,0
0:0:50.534,65.2198,8.30129,0,0.000885,0,0
0:0:50.838,66.1584,8.42539,0,0.000885,0,0
0:0:51.141,67.0391,8.53571,0,0.000885,0,0
0:0:51.444,67.6841,8.61845,0,0.000885,0,0
0:0:51.746,67.742,8.62534,0,0.000885,0,0
0:0:52.049,68.4448,8.71497,0,0.000885,0,0
0:0:52.344,68.6227,8.73566,0,0.000885,0,0
0:0:52.646,68.854,8.77013,0,0.000885,0,0
0:0:52.940,69.4412,8.83908,0,0.000885,0,0
0:0:53.242,69.7926,8.88734,0,0.000885,0,0
0:0:53.540,71.6119,9.11487,0,0.000885,0,0
0:0:53.837,71.9633,9.16313,0,0.000885,0,0
0:0:54.139,72.4348,9.22519,0,0.000885,0,0
0:0:54.435,73.1377,9.31482,0,0.000885,0,0
0:0:54.736,74.0762,9.43203,0,0.000885,0,0
0:0:55.032,74.2497,9.45271,0,0.000885,0,0
0:0:55.335,74.4276,9.4734,0,0.000885,0,0
0:0:55.641,75.1305,9.56303,0,0.000885,0,0
0:0:55.944,76.4204,9.7285,0,0.000885,0,0
0:0:56.246,76.4783,9.7354,0,0.000885,0,0
0:0:56.548,76.9498,9.79745,0,0.000885,0,0
0:0:56.848,77.359,9.85261,0,0.000885,0,0
0:0:57.147,78.649,10.0112,0,0.000885,0,0
0:0:57.445,79.0004,10.0595,0,0.000885,0,0
0:0:57.746,79.4141,10.1077,0,0.000885,0,0
0:0:58.039,79.3563,10.1008,0,0.000885,0,0
0:0:58.342,80.3527,10.2318,0,0.000885,0,0
0:0:58.638,81.1711,10.3352,0,0.000885,0,0
0:0:58.936,81.7583,10.4111,0,0.000885,0,0
0:0:59.236,82.1097,10.4525,0,0.000885,0,0
0:0:59.532,82.8748,10.549,0,0.000885,0,0
0:0:59.835,84.1648,10.7145,0,0.000885,0,0
0:1:0.129,84.2805,10.7282,0,0.000885,0,0
0:1:0.432,84.8098,10.7972,0,0.000885,0,0
0:1:0.737,84.9254,10.811,0,0.000885,0,0
0:1:1.040,86.042,10.9558,0,0.000885,0,0
0:1:1.343,85.9218,10.942,0,0.000885,0,0
0:1:1.645,87.0384,11.0799,0,0.000885,0,0
0:1:1.948,87.8568,11.1833,0,0.000885,0,0
0:1:2.244,88.5018,11.266,0,0.000885,0,0
0:1:2.543,88.9155,11.3212,0,0.000885,0,0
0:1:2.843,89.5605,11.4039,0,0.000885,0,0
0:1:3.138,89.8541,11.4384,0,0.000885,0,0
0:1:3.440,90.3211,11.5005,0,0.000885,0,0
0:1:3.736,90.8505,11.5694,0,0.000885,0,0
0:1:4.036,91.3754,11.6315,0,0.000885,0,0
0:1:4.334,92.3139,11.7556,0,0.000885,0,0
0:1:4.631,92.7276,11.8038,0,0.000885,0,0
0:1:4.932,94.0176,11.9693,0,0.000885,0,0
0:1:5.227,94.8984,12.0796,0,0.000885,0,0
0:1:5.529,95.7747,12.1968,0,0.000885,0,0
0:1:5.832,95.3076,12.1348,0,0.000885,0,0
0:1:6.137,95.4232,12.1486,0,0.000885,0,0
0:1:6.439,96.8333,12.3278,0,0.000885,0,0
0:1:6.741,96.2462,12.252,0,0.000885,0,0
0:1:7.044,97.6518,12.4312,0,0.000885,0,0
0:1:7.339,98.1811,12.5002,0,0.000885,0,0
0:1:7.639,98.884,12.5898,0,0.000885,0,0
0:1:7.936,99.7069,12.6932,0,0.000885,0,0
0:1:8.235,99.8804,12.7139,0,0.000885,0,0
0:1:8.535,100.174,12.7553,0,0.000885,0,0
0:1:8.828,101.935,12.9759,0,0.000885,0,0
0:1:9.130,101.815,12.9621,0,0.000885,0,0
0:1:9.423,102.523,13.0518,0,0.000885,0,0
0:1:9.734,102.874,13.1,0,0.000885,0,0
0:1:10.034,104.044,13.2448,0,0.000885,0,0
0:1:10.336,104.631,13.3207,0,0.000885,0,0
0:1:10.641,104.809,13.3414,0,0.000885,0,0
0:1:10.944,104.751,13.3345,0,0.000885,0,0
0:1:11.246,105.805,13.4724,0,0.000885,0,0
0:1:11.549,106.566,13.5689,0,0.000885,0,0
0:1:11.849,107.331,13.6654,0,0.000885,0,0
0:1:12.148,107.798,13.7275,0,0.000885,0,0
0:1:12.443,107.918,13.7413,0,0.000885,0,0
0:1:12.745,108.973,13.8723,0,0.000885,0,0
0:1:13.041,109.324,13.9205,0,0.000885,0,0
0:1:13.341,110.147,14.0239,0,0.000885,0,0
0:1:13.640,110.792,14.1067,0,0.000885,0,0
0:1:13.935,111.379,14.1825,0,0.000885,0,0
0:1:14.238,112.024,14.2653,0,0.000885,0,0
0:1:14.533,112.669,14.348,0,0.000885,0,0
0:1:14.833,112.9,14.3756,0,0.000885,0,0
0:1:15.131,113.256,14.4169,0,0.000885,0,0
0:1:15.434,113.723,14.479,0,0.000885,0,0
0:1:15.739,114.777,14.6169,0,0.000885,0,0
0:1:16.043,115.716,14.7341,0,0.000885,0,0
0:1:16.346,116.01,14.7686,0,0.000885,0,0
0:1:16.649,116.775,14.8651,0,0.000885,0,0
0:1:16.946,117.3,14.934,0,0.000885,0,0
0:1:17.247,117.126,14.9134,0,0.000885,0,0
0:1:17.543,118.474,15.0857,0,0.000885,0,0
0:1:17.845,119.764,15.2512,0,0.000885,0,0
0:1:18.140,120.115,15.2926,0,0.000885,0,0
0:1:18.437,119.942,15.2719,0,0.000885,0,0
0:1:18.738,119.764,15.2512,0,0.000885,0,0
0:1:19.033,121.174,15.4305,0,0.000885,0,0
0:1:19.335,121.699,15.4925,0,0.000885,0,0
0:1:19.631,122.344,15.5753,0,0.000885,0,0
0:1:19.931,123.167,15.6787,0,0.000885,0,0
0:1:20.230,123.518,15.7269,0,0.000885,0,0
0:1:20.534,123.812,15.7614,0,0.000885,0,0
0:1:20.838,124.515,15.851,0,0.000885,0,0
0:1:21.142,125.453,15.9752,0,0.000885,0,0
0:1:21.445,125.925,16.0303,0,0.000885,0,0
0:1:21.748,126.45,16.0993,0,0.000885,0,0
0:1:22.047,127.446,16.2303,0,0.000885,0,0
0:1:22.349,128.385,16.3475,0,0.000885,0,0
0:1:22.642,127.975,16.2923,0,0.000885,0,0
0:1:22.945,129.265,16.4578,0,0.000885,0,0
0:1:23.242,129.852,16.5336,0,0.000885,0,0
0:1:23.538,129.737,16.5198,0,0.000885,0,0
0:1:23.839,131.027,16.6853,0,0.000885,0,0
0:1:24.135,131.142,16.6991,0,0.000885,0,0
0:1:24.437,131.965,16.8025,0,0.000885,0,0
0:1:24.731,132.962,16.9266,0,0.000885,0,0
0:1:25.033,133.135,16.9542,0,0.000885,0,0
0:1:25.330,134.016,17.0645,0,0.000885,0,0
0:1:25.634,134.488,17.1266,0,0.000885,0,0
0:1:25.938,134.425,17.1128,0,0.000885,0,0
0:1:26.240,135.19,17.2162,0,0.000885,0,0
0:1:26.544,136.071,17.3265,0,0.000885,0,0
0:1:26.848,136.245,17.3472,0,0.000885,0,0
0:1:27.145,136.774,17.4162,0,0.000885,0,0
0:1:27.446,137.77,17.5403,0,0.000885,0,0
0:1:27.740,138.122,17.5885,0,0.000885,0,0
0:1:28.043,139.59,17.7747,0,0.000885,0,0
0:1:28.338,139.176,17.7195,0,0.000885,0,0
0:1:28.638,139.999,17.8229,0,0.000885,0,0
0:1:28.937,141.111,17.9677,0,0.000885,0,0
0:1:29.233,140.995,17.9539,0,0.000885,0,0
0:1:29.536,142.405,18.1332,0,0.000885,0,0
0:1:29.829,142.988,18.2091,0,0.000885,0,0
0:1:30.128,142.757,18.1746,0,0.000885,0,0
0:1:30.425,143.282,18.2435,0,0.000885,0,0
0:1:30.729,144.928,18.4504,0,0.000885,0,0
0:1:31.034,144.398,18.3883,0,0.000885,0,0
0:1:31.337,144.928,18.4504,0,0.000885,0,0
0:1:31.640,145.63,18.54,0,0.000885,0,0
0:1:31.942,146.627,18.671,0,0.000885,0,0
0:1:32.240,147.387,18.7675,0,0.000885,0,0
0:1:32.540,148.21,18.871,0,0.000885,0,0
0:1:32.836,148.74,18.9399,0,0.000885,0,0
0:1:33.138,149.029,18.9744,0,0.000885,0,0
0:1:33.433,149.736,19.064,0,0.000885,0,0
0:1:33.732,149.794,19.0709,0,0.000885,0,0
0:1:34.030,150.968,19.2226,0,0.000885,0,0
0:1:34.336,151.2,19.2502,0,0.000885,0,0
0:1:34.637,152.196,19.3812,0,0.000885,0,0
0:1:34.932,152.196,19.3812,0,0.000885,0,0
0:1:35.235,152.903,19.4708,0,0.000885,0,0
0:1:35.540,153.606,19.5604,0,0.000885,0,0
0:1:35.844,154.602,19.6845,0,0.000885,0,0
0:1:36.146,154.718,19.6983,0,0.000885,0,0
0:1:36.449,155.657,19.8224,0,0.000885,0,0
0:1:36.750,155.892,19.85,0,0.000885,0,0
0:1:37.046,156.364,19.9121,0,0.000885,0,0
0:1:37.343,157.067,20.0017,0,0.000885,0,0
0:1:37.644,157.77,20.0913,0,0.000885,0,0
0:1:37.940,158.241,20.1465,0,0.000885,0,0
0:1:38.242,158.65,20.2016,0,0.000885,0,0
0:1:38.537,159.469,20.3051,0,0.000885,0,0
0:1:38.836,159.998,20.374,0,0.000885,0,0
0:1:39.135,160.527,20.4361,0,0.000885,0,0
0:1:39.430,160.879,20.4843,0,0.000885,0,0
0:1:39.732,161.524,20.5671,0,0.000885,0,0
0:1:40.024,162.053,20.636,0,0.000885,0,0
0:1:40.331,163.343,20.7946,0,0.000885,0,0
0:1:40.634,163.988,20.8773,0,0.000885,0,0
0:1:40.938,164.282,20.9187,0,0.000885,0,0
0:1:41.241,165.22,21.0359,0,0.000885,0,0
0:1:41.543,166.217,21.16,0,0.000885,0,0
0:1:41.844,166.159,21.1531,0,0.000885,0,0
0:1:42.140,166.626,21.2152,0,0.000885,0,0
0:1:42.438,167.742,21.36,0,0.000885,0,0
0:1:42.738,167.916,21.3806,0,0.000885,0,0
0:1:43.034,168.325,21.4289,0,0.000885,0,0
0:1:43.336,169.09,21.5323,0,0.000885,0,0
0:1:43.630,169.442,21.5737,0,0.000885,0,0
0:1:43.931,170.322,21.684,0,0.000885,0,0
0:1:44.239,170.732,21.7392,0,0.000885,0,0
0:1:44.535,171.025,21.7736,0,0.000885,0,0
0:1:44.835,172.257,21.9322,0,0.000885,0,0
0:1:45.131,172.022,21.9046,0,0.000885,0,0
0:1:45.434,172.782,22.0012,0,0.000885,0,0
0:1:45.740,173.547,22.0977,0,0.000885,0,0
0:1:46.043,174.25,22.1873,0,0.000885,0,0
0:1:46.346,174.722,22.2494,0,0.000885,0,0
0:1:46.648,175.015,22.2839,0,0.000885,0,0
0:1:46.951,175.66,22.3666,0,0.000885,0,0
0:1:47.247,177.359,22.5803,0,0.000885,0,0
0:1:47.548,177.417,22.5872,0,0.000885,0,0
0:1:47.845,178.062,22.67,0,0.000885,0,0
0:1:48.141,178.943,22.7803,0,0.000885,0,0
0:1:48.441,178.765,22.7596,0,0.000885,0,0
0:1:48.736,180.175,22.9389,0,0.000885,0,0
0:1:49.038,179.939,22.9113,0,0.000885,0,0
0:1:49.334,180.291,22.9526,0,0.000885,0,0
0:1:49.634,181.229,23.0768,0,0.000885,0,0
0:1:49.933,181.581,23.1181,0,0.000885,0,0
0:1:50.238,182.346,23.2146,0,0.000885,0,0
0:1:50.539,182.755,23.2698,0,0.000885,0,0
0:1:50.843,183.516,23.3663,0,0.000885,0,0
0:1:51.148,183.987,23.4284,0,0.000885,0,0
0:1:51.450,185.099,23.5663,0,0.000885,0,0
0:1:51.754,185.864,23.6628,0,0.000885,0,0
0:1:52.056,185.807,23.6559,0,0.000885,0,0
0:1:52.353,186.745,23.78,0,0.000885,0,0
0:1:52.655,187.448,23.8696,0,0.000885,0,0
0:1:52.950,187.857,23.9179,0,0.000885,0,0
0:1:53.249,188.329,23.98,0,0.000885,0,0
0:1:53.547,188.738,24.0282,0,0.000885,0,0
0:1:53.843,189.499,24.1248,0,0.000885,0,0
0:1:54.145,189.912,24.1799,0,0.000885,0,0
0:1:54.439,190.789,24.2902,0,0.000885,0,0
0:1:54.739,191.26,24.3523,0,0.000885,0,0
0:1:55.036,192.079,24.4557,0,0.000885,0,0
0:1:55.339,192.724,24.5384,0,0.000885,0,0
0:1:55.642,192.55,24.5178,0,0.000885,0,0
0:1:55.945,193.604,24.6488,0,0.000885,0,0
0:1:56.244,194.014,24.7039,0,0.000885,0,0
0:1:56.545,194.601,24.7798,0,0.000885,0,0
0:1:56.842,195.482,24.8901,0,0.000885,0,0
0:1:57.140,195.775,24.9245,0,0.000885,0,0
0:1:57.433,196.362,25.0004,0,0.000885,0,0
0:1:57.732,197.007,25.0831,0,0.000885,0,0
0:1:58.035,197.83,25.1865,0,0.000885,0,0
0:1:58.336,198.475,25.2693,0,0.000885,0,0
0:1:58.627,199.12,25.352,0,0.000885,0,0
0:1:58.923,199.881,25.4485,0,0.000885,0,0
0:1:59.222,200.348,25.5106,0,0.000885,0,0
0:1:59.536,200.877,25.5795,0,0.000885,0,0
0:1:59.836,201.055,25.6002,0,0.000885,0,0
0:2:0.128,202.225,25.745,0,0.000885,0,0
0:2:0.431,202.87,25.8278,0,0.000885,0,0
0:2:0.734,203.635,25.9243,0,0.000885,0,0
0:2:1.036,203.284,25.8829,0,0.000885,0,0
0:2:1.336,204.28,26.007,0,0.000885,0,0
0:2:1.635,204.983,26.0967,0,0.000885,0,0
0:2:1.933,205.686,26.1863,0,0.000885,0,0
0:2:2.237,205.806,26.207,0,0.000885,0,0
0:2:2.534,206.331,26.269,0,0.000885,0,0
0:2:2.832,207.096,26.3656,0,0.000885,0,0
0:2:3.124,207.563,26.4276,0,0.000885,0,0
0:2:3.423,208.266,26.5172,0,0.000885,0,0
0:2:3.716,208.328,26.5241,0,0.000885,0,0
0:2:4.015,209.267,26.6413,0,0.000885,0,0
0:2:4.313,210.263,26.7723,0,0.000885,0,0
0:2:4.608,210.966,26.862,0,0.000885,0,0
0:2:4.904,211.669,26.9516,0,0.000885,0,0
0:2:5.197,212.256,27.0274,0,0.000885,0,0
0:2:5.497,212.727,27.0826,0,0.000885,0,0
0:2:5.799,213.194,27.1447,0,0.000885,0,0
0:2:6.101,213.955,27.2412,0,0.000885,0,0
0:2:6.400,214.075,27.255,0,0.000885,0,0
0:2:6.701,214.72,27.3377,0,0.000885,0,0
0:2:7.002,215.072,27.386,0,0.000885,0,0
0:2:7.295,215.774,27.4756,0,0.000885,0,0
0:2:7.594,216.126,27.517,0,0.000885,0,0
0:2:7.888,216.833,27.6066,0,0.000885,0,0
0:2:8.184,217.478,27.6893,0,0.000885,0,0
0:2:8.481,218.296,27.7928,0,0.000885,0,0
0:2:8.776,218.941,27.8755,0,0.000885,0,0
0:2:9.076,220.174,28.0341,0,0.000885,0,0
0:2:9.368,220.819,28.1168,0,0.000885,0,0
0:2:9.668,221.112,28.1513,0,0.000885,0,0
0:2:9.962,221.348,28.1858,0,0.000885,0,0
0:2:10.264,222.46,28.3237,0,0.000885,0,0
0:2:10.566,223.167,28.4133,0,0.000885,0,0
0:2:10.868,223.634,28.4753,0,0.000885,0,0
0:2:11.168,223.105,28.4064,0,0.000885,0,0
0:2:11.467,223.928,28.5098,0,0.000885,0,0
0:2:11.766,224.689,28.6063,0,0.000885,0,0
0:2:12.063,225.16,28.6684,0,0.000885,0,0
0:2:12.359,225.569,28.7236,0,0.000885,0,0
0:2:12.657,226.801,28.8752,0,0.000885,0,0
0:2:12.950,227.446,28.958,0,0.000885,0,0
0:2:13.250,228.034,29.0338,0,0.000885,0,0
0:2:13.543,228.385,29.0821,0,0.000885,0,0
0:2:13.840,228.794,29.1303,0,0.000885,0,0
0:2:14.139,229.559,29.2269,0,0.000885,0,0
0:2:14.433,230.556,29.3579,0,0.000885,0,0
0:2:14.730,230.671,29.3717,0,0.000885,0,0
0:2:15.036,231.61,29.4889,0,0.000885,0,0
0:2:15.336,231.552,29.482,0,0.000885,0,0
0:2:15.639,232.255,29.5716,0,0.000885,0,0
0:2:15.939,232.842,29.6475,0,0.000885,0,0
0:2:16.240,233.314,29.7095,0,0.000885,0,0
0:2:16.539,233.839,29.7716,0,0.000885,0,0
0:2:16.839,234.426,29.8474,0,0.000885,0,0
0:2:17.142,235.836,30.0267,0,0.000885,0,0
0:2:17.440,236.419,30.1025,0,0.000885,0,0
0:2:17.736,236.89,30.1646,0,0.000885,0,0
0:2:18.038,237.357,30.2197,0,0.000885,0,0
0:2:18.338,237.771,30.2749,0,0.000885,0,0
0:2:18.633,238.122,30.3162,0,0.000885,0,0
0:2:18.939,238.589,30.3783,0,0.000885,0,0
0:2:19.234,239.764,30.53,0,0.000885,0,0
0:2:19.540,239.999,30.5576,0,0.000885,0,0
0:2:19.838,240.409,30.6127,0,0.000885,0,0
0:2:20.139,241.111,30.7024,0,0.000885,0,0
0:2:20.440,241.699,30.7713,0,0.000885,0,0
0:2:20.742,242.579,30.8885,0,0.000885,0,0
0:2:21.044,242.753,30.9092,0,0.000885,0,0
0:2:21.346,243.869,31.0471,0,0.000885,0,0
0:2:21.645,244.572,31.1367,0,0.000885,0,0
0:2:21.945,244.866,31.1781,0,0.000885,0,0
0:2:22.238,245.275,31.2264,0,0.000885,0,0
0:2:22.538,245.746,31.2884,0,0.000885,0,0
0:2:22.842,245.982,31.316,0,0.000885,0,0
0:2:23.138,247.036,31.4539,0,0.000885,0,0
0:2:23.435,247.917,31.5642,0,0.000885,0,0
0:2:23.738,248.211,31.6056,0,0.000885,0,0
0:2:24.038,249.501,31.7641,0,0.000885,0,0
0:2:24.341,249.968,31.8262,0,0.000885,0,0
0:2:24.639,250.204,31.8538,0,0.000885,0,0
0:2:24.936,250.671,31.9158,0,0.000885,0,0
0:2:25.236,251.378,32.0055,0,0.000885,0,0
0:2:25.541,251.961,32.0813,0,0.000885,0,0
0:2:25.839,251.961,32.0813,0,0.000885,0,0
0:2:26.140,253.019,32.2123,0,0.000885,0,0
0:2:26.440,253.429,32.2675,0,0.000885,0,0
0:2:26.737,254.661,32.426,0,0.000885,0,0
0:2:27.036,254.954,32.4605,0,0.000885,0,0
0:2:27.337,255.128,32.4812,0,0.000885,0,0
0:2:27.637,255.306,32.5088,0,0.000885,0,0
0:2:27.941,255.715,32.557,0,0.000885,0,0
0:2:28.238,256.947,32.7156,0,0.000885,0,0
0:2:28.534,257.534,32.7915,0,0.000885,0,0
0:2:28.828,258.357,32.8949,0,0.000885,0,0
0:2:29.127,258.651,32.9294,0,0.000885,0,0
0:2:29.419,259.647,33.0604,0,0.000885,0,0
0:2:29.719,259.999,33.1017,0,0.000885,0,0
0:2:30.012,260.701,33.1914,0,0.000885,0,0
0:2:30.313,260.995,33.2327,0,0.000885,0,0
0:2:30.615,261.404,33.281,0,0.000885,0,0
0:2:30.917,262.107,33.3706,0,0.000885,0,0
0:2:31.218,263.108,33.5016,0,0.000885,0,0
0:2:31.518,263.811,33.5913,0,0.000885,0,0
0:2:31.817,264.104,33.6257,0,0.000885,0,0
0:2:32.112,264.629,33.6947,0,0.000885,0,0
0:2:32.408,265.336,33.7843,0,0.000885,0,0
0:2:32.706,265.688,33.8257,0,0.000885,0,0
0:2:32.999,266.506,33.936,0,0.000885,0,0
0:2:33.300,267.036,33.998,0,0.000885,0,0
0:2:33.593,267.387,34.0463,0,0.000885,0,0
0:2:33.890,268.09,34.1359,0,0.000885,0,0
0:2:34.188,268.619,34.2049,0,0.000885,0,0
0:2:34.482,268.971,34.2463,0,0.000885,0,0
0:2:34.780,269.851,34.3566,0,0.000885,0,0
0:2:35.074,270.145,34.3979,0,0.000885,0,0
0:2:35.375,271.257,34.5358,0,0.000885,0,0
0:2:35.679,271.729,34.5979,0,0.000885,0,0
0:2:35.980,272.374,34.6806,0,0.000885,0,0
0:2:36.281,272.841,34.7427,0,0.000885,0,0
0:2:36.580,273.192,34.7841,0,0.000885,0,0
0:2:36.879,274.131,34.9013,0,0.000885,0,0
0:2:37.173,274.896,34.9978,0,0.000885,0,0
0:2:37.473,275.305,35.0529,0,0.000885,0,0
0:2:37.768,275.714,35.1081,0,0.000885,0,0
0:2:38.064,276.128,35.1564,0,0.000885,0,0
0:2:38.361,276.537,35.2115,0,0.000885,0,0
0:2:38.656,277.711,35.3563,0,0.000885,0,0
0:2:38.955,278.178,35.4184,0,0.000885,0,0
0:2:39.246,278.766,35.4942,0,0.000885,0,0
0:2:39.546,279.237,35.5563,0,0.000885,0,0
0:2:39.841,279.646,35.6045,0,0.000885,0,0
0:2:40.144,280.758,35.7493,0,0.000885,0,0
0:2:40.446,281.466,35.8389,0,0.000885,0,0
0:2:40.746,281.639,35.8596,0,0.000885,0,0
0:2:41.045,281.933,35.8941,0,0.000885,0,0
0:2:41.346,282.636,35.9837,0,0.000885,0,0
0:2:41.644,283.574,36.1078,0,0.000885,0,0
0:2:41.940,284.161,36.1837,0,0.000885,0,0
0:2:42.243,284.633,36.2388,0,0.000885,0,0
0:2:42.543,285.158,36.3078,0,0.000885,0,0
0:2:42.836,285.393,36.3354,0,0.000885,0,0
0:2:43.132,286.332,36.4595,0,0.000885,0,0
0:2:43.440,287.093,36.556,0,0.000885,0,0
0:2:43.745,287.444,36.5974,0,0.000885,0,0
0:2:44.043,287.973,36.6663,0,0.000885,0,0
0:2:44.337,288.912,36.7835,0,0.000885,0,0
0:2:44.635,289.206,36.8249,0,0.000885,0,0
0:2:44.927,289.966,36.9214,0,0.000885,0,0
0:2:45.228,290.144,36.9421,0,0.000885,0,0
0:2:45.529,290.673,37.0111,0,0.000885,0,0
0:2:45.831,291.843,37.1558,0,0.000885,0,0
0:2:46.131,291.963,37.1765,0,0.000885,0,0
0:2:46.433,293.076,37.3144,0,0.000885,0,0
0:2:46.741,293.721,37.3972,0,0.000885,0,0
0:2:47.040,294.25,37.4661,0,0.000885,0,0
0:2:47.343,294.953,37.5557,0,0.000885,0,0
0:2:47.643,295.598,37.6385,0,0.000885,0,0
0:2:47.933,295.598,37.6385,0,0.000885,0,0
0:2:48.232,296.185,37.7143,0,0.000885,0,0
0:2:48.539,296.83,37.7902,0,0.000885,0,0
0:2:48.842,297.181,37.8384,0,0.000885,0,0
0:2:49.141,297.768,37.9143,0,0.000885,0,0
0:2:49.444,298.062,37.9487,0,0.000885,0,0
0:2:49.743,299.001,38.0728,0,0.000885,0,0
0:2:50.039,299.588,38.1418,0,0.000885,0,0
0:2:50.339,300.291,38.2314,0,0.000885,0,0
0:2:50.643,301.523,38.39,0,0.000885,0,0
0:2:50.943,301.696,38.4107,0,0.000885,0,0
0:2:51.244,302.577,38.5279,0,0.000885,0,0
0:2:51.543,303.048,38.5831,0,0.000885,0,0
0:2:51.841,303.693,38.6658,0,0.000885,0,0
0:2:52.137,303.751,38.6727,0,0.000885,0,0
0:2:52.442,304.983,38.8313,0,0.000885,0,0
0:2:52.742,305.277,38.8657,0,0.000885,0,0
0:2:53.032,305.628,38.914,0,0.000885,0,0
0:2:53.343,306.158,38.983,0,0.000885,0,0
0:2:53.641,306.74,39.0588,0,0.000885,0,0
0:2:53.943,308.03,39.2174,0,0.000885,0,0
0:2:54.243,308.324,39.2587,0,0.000885,0,0
0:2:54.537,309.325,39.3829,0,0.000885,0,0
0:2:54.845,309.676,39.4311,0,0.000885,0,0
0:2:55.140,309.908,39.4587,0,0.000885,0,0
0:2:55.441,310.437,39.5276,0,0.000885,0,0
0:2:55.743,311.26,39.6311,0,0.000885,0,0
0:2:56.045,311.611,39.6724,0,0.000885,0,0
0:2:56.344,311.785,39.7,0,0.000885,0,0
0:2:56.646,313.017,39.8517,0,0.000885,0,0
0:2:56.942,313.137,39.8724,0,0.000885,0,0
0:2:57.240,314.133,39.9965,0,0.000885,0,0
0:2:57.543,314.543,40.0516,0,0.000885,0,0
0:2:57.843,315.303,40.1482,0,0.000885,0,0
0:2:58.145,315.775,40.2033,0,0.000885,0,0
0:2:58.442,316.656,40.3205,0,0.000885,0,0
0:2:58.739,316.771,40.3343,0,0.000885,0,0
0:2:59.043,317.416,40.4171,0,0.000885,0,0
0:2:59.342,318.297,40.5274,0,0.000885,0,0
0:2:59.634,319,40.617,0,0.000885,0,0
0:2:59.934,319.351,40.6584,0,0.000885,0,0
0:3:0.238,319.881,40.7273,0,0.000885,0,0
0:3:0.541,320.583,40.817,0,0.000885,0,0
0:3:0.839,321.406,40.9204,0,0.000885,0,0
0:3:1.140,321.464,40.9273,0,0.000885,0,0
0:3:1.441,322.225,41.0238,0,0.000885,0,0
0:3:1.742,322.576,41.0721,0,0.000885,0,0
0:3:2.042,322.99,41.1272,0,0.000885,0,0
0:3:2.338,324.044,41.2582,0,0.000885,0,0
0:3:2.643,324.395,41.3065,0,0.000885,0,0
0:3:2.940,325.57,41.4513,0,0.000885,0,0
0:3:3.244,325.806,41.4858,0,0.000885,0,0
0:3:3.544,326.566,41.5823,0,0.000885,0,0
0:3:3.838,326.802,41.6099,0,0.000885,0,0
0:3:4.145,327.563,41.7064,0,0.000885,0,0
0:3:4.441,328.208,41.7891,0,0.000885,0,0
0:3:4.744,329.088,41.8994,0,0.000885,0,0
0:3:5.044,330.085,42.0304,0,0.000885,0,0
0:3:5.346,330.027,42.0235,0,0.000885,0,0
0:3:5.647,330.378,42.0649,0,0.000885,0,0
0:3:5.949,330.672,42.0994,0,0.000885,0,0
0:3:6.249,331.201,42.1683,0,0.000885,0,0
0:3:6.550,332.491,42.3338,0,0.000885,0,0
0:3:6.843,333.194,42.4234,0,0.000885,0,0
0:3:7.142,333.545,42.4717,0,0.000885,0,0
0:3:7.438,333.897,42.5131,0,0.000885,0,0
0:3:7.744,334.778,42.6234,0,0.000885,0,0
0:3:8.041,335.307,42.6923,0,0.000885,0,0
0:3:8.344,336.068,42.7889,0,0.000885,0,0
0:3:8.645,336.246,42.8095,0,0.000885,0,0
0:3:8.946,337.18,42.9337,0,0.000885,0,0
0:3:9.244,337.415,42.9612,0,0.000885,0,0
0:3:9.541,337.945,43.0302,0,0.000885,0,0
0:3:9.843,339.057,43.1681,0,0.000885,0,0
0:3:10.142,339.35,43.2094,0,0.000885,0,0
0:3:10.444,339.995,43.2922,0,0.000885,0,0
0:3:10.746,340.876,43.4025,0,0.000885,0,0
0:3:11.047,341.228,43.4439,0,0.000885,0,0
0:3:11.347,341.463,43.4783,0,0.000885,0,0
0:3:11.648,342.224,43.5749,0,0.000885,0,0
0:3:11.942,342.695,43.63,0,0.000885,0,0
0:3:12.242,343.283,43.7059,0,0.000885,0,0
0:3:12.547,343.985,43.7955,0,0.000885,0,0
0:3:12.841,344.515,43.8644,0,0.000885,0,0
0:3:13.140,345.275,43.961,0,0.000885,0,0
0:3:13.443,345.453,43.9817,0,0.000885,0,0
0:3:13.744,345.742,44.023,0,0.000885,0,0
0:3:14.046,346.681,44.1402,0,0.000885,0,0
0:3:14.342,347.326,44.223,0,0.000885,0,0
0:3:14.640,348.327,44.3471,0,0.000885,0,0
0:3:14.943,348.794,44.4091,0,0.000885,0,0
0:3:15.243,349.91,44.5539,0,0.000885,0,0
0:3:15.546,349.675,44.5194,0,0.000885,0,0
0:3:15.847,350.787,44.6642,0,0.000885,0,0
0:3:16.148,351.432,44.747,0,0.000885,0,0
0:3:16.448,351.845,44.7952,0,0.000885,0,0
0:3:16.748,352.433,44.8711,0,0.000885,0,0
0:3:17.043,352.433,44.8711,0,0.000885,0,0
0:3:17.341,353.251,44.9745,0,0.000885,0,0
0:3:17.646,354.132,45.0917,0,0.000885,0,0
0:3:17.942,354.483,45.1331,0,0.000885,0,0
0:3:18.240,354.955,45.1951,0,0.000885,0,0
0:3:18.542,355.306,45.2365,0,0.000885,0,0
0:3:18.842,356.538,45.3951,0,0.000885,0,0
0:3:19.145,357.005,45.4571,0,0.000885,0,0
0:3:19.444,357.708,45.5468,0,0.000885,0,0
0:3:19.736,358.647,45.664,0,0.000885,0,0
0:3:20.044,359.412,45.7605,0,0.000885,0,0
0:3:20.342,359.995,45.8363,0,0.000885,0,0
0:3:20.645,360.115,45.8501,0,0.000885,0,0
0:3:20.946,360.524,45.9053,0,0.000885,0,0
0:3:21.249,361.169,45.988,0,0.000885,0,0
0:3:21.548,361.347,46.0087,0,0.000885,0,0
0:3:21.849,362.285,46.1259,0,0.000885,0,0
0:3:22.144,363.046,46.2225,0,0.000885,0,0
0:3:22.444,363.104,46.2293,0,0.000885,0,0
0:3:22.746,364.456,46.4017,0,0.000885,0,0
0:3:23.046,364.687,46.4362,0,0.000885,0,0
0:3:23.341,365.568,46.5465,0,0.000885,0,0
0:3:23.646,365.746,46.5672,0,0.000885,0,0
0:3:23.944,366.271,46.6361,0,0.000885,0,0
0:3:24.248,367.267,46.7602,0,0.000885,0,0
0:3:24.548,367.623,46.8085,0,0.000885,0,0
0:3:24.842,368.148,46.8775,0,0.000885,0,0
0:3:25.142,368.62,46.9326,0,0.000885,0,0
0:3:25.445,369.496,47.0429,0,0.000885,0,0
0:3:25.745,369.732,47.0774,0,0.000885,0,0
0:3:26.045,370.319,47.1532,0,0.000885,0,0
0:3:26.346,371.08,47.2498,0,0.000885,0,0
0:3:26.645,371.551,47.3049,0,0.000885,0,0
0:3:26.940,371.902,47.3532,0,0.000885,0,0
0:3:27.245,372.725,47.4566,0,0.000885,0,0
0:3:27.544,373.664,47.5738,0,0.000885,0,0
0:3:27.846,373.958,47.6152,0,0.000885,0,0
0:3:28.146,374.54,47.691,0,0.000885,0,0
0:3:28.437,375.305,47.7876,0,0.000885,0,0
0:3:28.746,376.186,47.8979,0,0.000885,0,0
0:3:29.043,376.595,47.9461,0,0.000885,0,0
0:3:29.347,377.24,48.0289,0,0.000885,0,0
0:3:29.647,377.592,48.0771,0,0.000885,0,0
0:3:29.937,378.415,48.1806,0,0.000885,0,0
0:3:30.241,378.94,48.2495,0,0.000885,0,0
0:3:30.541,379.233,48.284,0,0.000885,0,0
0:3:30.844,379.353,48.2978,0,0.000885,0,0
0:3:31.144,380.292,48.4219,0,0.000885,0,0
0:3:31.445,380.995,48.5115,0,0.000885,0,0
0:3:31.745,381.11,48.5253,0,0.000885,0,0
0:3:32.049,381.991,48.6356,0,0.000885,0,0
0:3:32.345,382.694,48.7252,0,0.000885,0,0
0:3:32.643,383.69,48.8563,0,0.000885,0,0
0:3:32.947,383.984,48.8907,0,0.000885,0,0
0:3:33.247,385.043,49.0217,0,0.000885,0,0
0:3:33.548,385.274,49.0562,0,0.000885,0,0
0:3:33.848,386.212,49.1734,0,0.000885,0,0
0:3:34.143,386.742,49.2424,0,0.000885,0,0
0:3:34.437,387.093,49.2837,0,0.000885,0,0
0:3:34.734,387.68,49.3596,0,0.000885,0,0
0:3:35.030,388.21,49.4285,0,0.000885,0,0
0:3:35.329,388.677,49.4906,0,0.000885,0,0
0:3:35.630,389.437,49.5871,0,0.000885,0,0
0:3:35.932,389.731,49.6216,0,0.000885,0,0
0:3:36.232,390.082,49.6698,0,0.000885,0,0
0:3:36.532,391.083,49.7939,0,0.000885,0,0
0:3:36.832,391.377,49.8284,0,0.000885,0,0
0:3:37.136,392.195,49.9387,0,0.000885,0,0
0:3:37.447,392.725,50.0008,0,0.000885,0,0
0:3:37.738,393.076,50.049,0,0.000885,0,0
0:3:38.047,394.25,50.2007,0,0.000885,0,0
0:3:38.343,394.717,50.2559,0,0.000885,0,0
0:3:38.647,395.011,50.2973,0,0.000885,0,0
0:3:38.946,395.656,50.3731,0,0.000885,0,0
0:3:39.237,396.359,50.4627,0,0.000885,0,0
0:3:39.547,397.124,50.5661,0,0.000885,0,0
0:3:39.842,397.417,50.6006,0,0.000885,0,0
0:3:40.143,397.885,50.6627,0,0.000885,0,0
0:3:40.446,398.53,50.7454,0,0.000885,0,0
0:3:40.747,399.117,50.8144,0,0.000885,0,0
0:3:41.048,399.41,50.8557,0,0.000885,0,0
0:3:41.348,400.055,50.9385,0,0.000885,0,0
0:3:41.645,400.642,51.0143,0,0.000885,0,0
0:3:41.942,401.345,51.1039,0,0.000885,0,0
0:3:42.246,402.284,51.2212,0,0.000885,0,0
0:3:42.547,402.226,51.2143,0,0.000885,0,0
0:3:42.848,402.693,51.2694,0,0.000885,0,0
0:3:43.146,403.81,51.4142,0,0.000885,0,0
0:3:43.443,404.161,51.4625,0,0.000885,0,0
0:3:43.747,404.57,51.5107,0,0.000885,0,0
0:3:44.046,405.393,51.6142,0,0.000885,0,0
0:3:44.337,406.038,51.6969,0,0.000885,0,0
0:3:44.648,406.39,51.7452,0,0.000885,0,0
0:3:44.943,407.035,51.8279,0,0.000885,0,0
0:3:45.244,407.68,51.9106,0,0.000885,0,0
0:3:45.546,408.502,52.014,0,0.000885,0,0
0:3:45.848,409.027,52.0761,0,0.000885,0,0
0:3:46.149,409.672,52.1588,0,0.000885,0,0
0:3:46.449,410.202,52.2278,0,0.000885,0,0
0:3:46.748,410.731,52.2967,0,0.000885,0,0
0:3:47.044,411.082,52.3381,0,0.000885,0,0
0:3:47.347,411.549,52.4002,0,0.000885,0,0
0:3:47.648,412.43,52.5105,0,0.000885,0,0
0:3:47.939,412.666,52.5449,0,0.000885,0,0
0:3:48.249,413.191,52.607,0,0.000885,0,0
0:3:48.544,414.072,52.7242,0,0.000885,0,0
0:3:48.850,414.601,52.7863,0,0.000885,0,0
0:3:49.150,414.895,52.8276,0,0.000885,0,0
0:3:49.443,415.419,52.8897,0,0.000885,0,0
0:3:49.740,415.833,52.9448,0,0.000885,0,0
0:3:50.046,416.714,53.0552,0,0.000885,0,0
0:3:50.347,417.297,53.131,0,0.000885,0,0
0:3:50.651,417.942,53.2137,0,0.000885,0,0
0:3:50.951,419.174,53.3723,0,0.000885,0,0
0:3:51.252,419.294,53.3861,0,0.000885,0,0
0:3:51.553,419.819,53.4551,0,0.000885,0,0
0:3:51.850,421.051,53.6067,0,0.000885,0,0
0:3:52.148,421.522,53.6688,0,0.000885,0,0
0:3:52.450,422.341,53.7722,0,0.000885,0,0
0:3:52.749,422.167,53.7515,0,0.000885,0,0
0:3:53.044,422.87,53.8412,0,0.000885,0,0
0:3:53.340,423.279,53.8963,0,0.000885,0,0
0:3:53.649,423.809,53.9584,0,0.000885,0,0
0:3:53.943,424.569,54.0549,0,0.000885,0,0
0:3:54.243,424.921,54.1032,0,0.000885,0,0
0:3:54.544,425.686,54.1997,0,0.000885,0,0
0:3:54.843,426.273,54.2755,0,0.000885,0,0
0:3:55.149,426.74,54.3376,0,0.000885,0,0
0:3:55.451,427.212,54.3927,0,0.000885,0,0
0:3:55.755,428.382,54.5444,0,0.000885,0,0
0:3:56.055,428.853,54.6065,0,0.000885,0,0
0:3:56.355,429.32,54.6616,0,0.000885,0,0
0:3:56.656,430.143,54.7651,0,0.000885,0,0
0:3:56.950,430.846,54.8547,0,0.000885,0,0
0:3:57.248,431.669,54.965,0,0.000885,0,0
0:3:57.540,432.136,55.0202,0,0.000885,0,0
0:3:57.840,432.256,55.034,0,0.000885,0,0
0:3:58.144,433.195,55.1581,0,0.000885,0,0
0:3:58.443,433.604,55.2063,0,0.000885,0,0
0:3:58.751,434.778,55.358,0,0.000885,0,0
0:3:59.043,435.539,55.4545,0,0.000885,0,0
0:3:59.340,436.184,55.5373,0,0.000885,0,0
0:3:59.647,436.944,55.6338,0,0.000885,0,0
0:3:59.943,437.709,55.7303,0,0.000885,0,0
0:4:0.250,438.177,55.7924,0,0.000885,0,0
0:4:0.551,438.764,55.8682,0,0.000885,0,0
0:4:0.855,439.467,55.9579,0,0.000885,0,0
0:4:1.156,440.232,56.0544,0,0.000885,0,0
0:4:1.456,441.112,56.1647,0,0.000885,0,0
0:4:1.757,442.051,56.2819,0,0.000885,0,0
0:4:2.051,442.518,56.344,0,0.000885,0,0
0:4:2.350,443.047,56.4129,0,0.000885,0,0
0:4:2.645,443.399,56.4543,0,0.000885,0,0
0:4:2.941,443.808,56.5094,0,0.000885,0,0
0:4:3.248,444.747,56.6266,0,0.000885,0,0
0:4:3.544,445.627,56.737,0,0.000885,0,0
0:4:3.845,446.214,56.8128,0,0.000885,0,0
0:4:4.145,446.508,56.8542,0,0.000885,0,0
0:4:4.445,447.384,56.9645,0,0.000885,0,0
0:4:4.750,447.384,56.9645,0,0.000885,0,0
0:4:5.044,448.385,57.0886,0,0.000885,0,0
0:4:5.352,448.852,57.1506,0,0.000885,0,0
0:4:5.654,449.319,57.2127,0,0.000885,0,0
0:4:5.956,449.964,57.2885,0,0.000885,0,0
0:4:6.258,450.845,57.4057,0,0.000885,0,0
0:4:6.558,451.196,57.4471,0,0.000885,0,0
0:4:6.858,451.432,57.4816,0,0.000885,0,0
0:4:7.154,452.371,57.5988,0,0.000885,0,0
0:4:7.454,452.842,57.6609,0,0.000885,0,0
0:4:7.747,453.074,57.6884,0,0.000885,0,0
0:4:8.045,453.487,57.7367,0,0.000885,0,0
0:4:8.351,454.426,57.8608,0,0.000885,0,0
0:4:8.654,454.777,57.9022,0,0.000885,0,0
0:4:8.954,454.951,57.9229,0,0.000885,0,0
0:4:9.247,455.654,58.0125,0,0.000885,0,0
0:4:9.546,456.009,58.0608,0,0.000885,0,0
0:4:9.853,457.415,58.24,0,0.000885,0,0
0:4:10.151,457.179,58.2124,0,0.000885,0,0
0:4:10.456,457.531,58.2538,0,0.000885,0,0
0:4:10.755,458.589,58.3917,0,0.000885,0,0
0:4:11.057,459.234,58.4744,0,0.000885,0,0
0:4:11.357,459.234,58.4744,0,0.000885,0,0
0:4:11.652,460.346,58.6123,0,0.000885,0,0
0:4:11.951,461.049,58.702,0,0.000885,0,0
0:4:12.254,461.463,58.7571,0,0.000885,0,0
0:4:12.553,462.281,58.8605,0,0.000885,0,0
0:4:12.847,462.695,58.9088,0,0.000885,0,0
0:4:13.145,463.162,58.9709,0,0.000885,0,0
0:4:13.453,463.456,59.0122,0,0.000885,0,0
0:4:13.745,464.159,59.1019,0,0.000885,0,0
0:4:14.042,465.039,59.2122,0,0.000885,0,0
0:4:14.349,465.569,59.2811,0,0.000885,0,0
0:4:14.645,466.271,59.3708,0,0.000885,0,0
0:4:14.952,466.916,59.4466,0,0.000885,0,0
0:4:15.254,467.677,59.55,0,0.000885,0,0
0:4:15.557,468.033,59.5914,0,0.000885,0,0
0:4:15.856,468.264,59.619,0,0.000885,0,0
0:4:16.158,469.029,59.7155,0,0.000885,0,0
0:4:16.458,469.554,59.7844,0,0.000885,0,0
0:4:16.752,470.555,59.9154,0,0.000885,0,0
0:4:17.051,470.786,59.943,0,0.000885,0,0
0:4:17.354,471.431,60.0258,0,0.000885,0,0
0:4:17.654,471.903,60.0878,0,0.000885,0,0
0:4:17.947,472.49,60.1568,0,0.000885,0,0
0:4:18.252,473.073,60.2326,0,0.000885,0,0
0:4:18.551,473.722,60.3153,0,0.000885,0,0
0:4:18.854,473.544,60.2947,0,0.000885,0,0
0:4:19.154,474.425,60.405,0,0.000885,0,0
0:4:19.445,475.595,60.5567,0,0.000885,0,0
0:4:19.745,476.182,60.6325,0,0.000885,0,0
0:4:20.050,476.711,60.6945,0,0.000885,0,0
0:4:20.351,477.179,60.7566,0,0.000885,0,0
0:4:20.655,478.059,60.8669,0,0.000885,0,0
0:4:20.956,478.237,60.8876,0,0.000885,0,0
0:4:21.256,479.407,61.0393,0,0.000885,0,0
0:4:21.555,479.234,61.0186,0,0.000885,0,0
0:4:21.852,479.763,61.0875,0,0.000885,0,0
0:4:22.150,480.933,61.2323,0,0.000885,0,0
0:4:22.452,481.404,61.2944,0,0.000885,0,0
0:4:22.752,482.165,61.3909,0,0.000885,0,0
0:4:23.046,482.868,61.4806,0,0.000885,0,0
0:4:23.354,483.633,61.5771,0,0.000885,0,0
0:4:23.649,483.749,61.5909,0,0.000885,0,0
0:4:23.952,484.1,61.6391,0,0.000885,0,0
0:4:24.251,484.687,61.715,0,0.000885,0,0
0:4:24.554,485.039,61.7563,0,0.000885,0,0
0:4:24.855,485.919,61.8667,0,0.000885,0,0
0:4:25.149,487.151,62.0252,0,0.000885,0,0
0:4:25.450,486.916,61.9977,0,0.000885,0,0
0:4:25.754,488.032,62.1356,0,0.000885,0,0
0:4:26.056,488.499,62.1976,0,0.000885,0,0
0:4:26.354,488.851,62.2459,0,0.000885,0,0
0:4:26.654,489.674,62.3493,0,0.000885,0,0
0:4:26.951,489.967,62.3838,0,0.000885,0,0
0:4:27.248,490.786,62.4872,0,0.000885,0,0
0:4:27.551,491.493,62.5768,0,0.000885,0,0
0:4:27.850,492.431,62.7009,0,0.000885,0,0
0:4:28.154,492.311,62.6802,0,0.000885,0,0
0:4:28.454,492.956,62.763,0,0.000885,0,0
0:4:28.744,493.837,62.8802,0,0.000885,0,0
0:4:29.043,493.895,62.8871,0,0.000885,0,0
0:4:29.350,494.891,63.0112,0,0.000885,0,0
0:4:29.655,495.656,63.1077,0,0.000885,0,0
0:4:29.952,495.95,63.1491,0,0.000885,0,0
0:4:30.256,496.946,63.2732,0,0.000885,0,0
0:4:30.557,497.12,63.2939,0,0.000885,0,0
0:4:30.858,498.001,63.4042,0,0.000885,0,0
0:4:31.156,498.41,63.4593,0,0.000885,0,0
0:4:31.458,498.472,63.4662,0,0.000885,0,0
0:4:31.749,499.936,63.6524,0,0.000885,0,0
0:4:32.049,500.523,63.7282,0,0.000885,0,0
0:4:32.355,500.994,63.7903,0,0.000885,0,0
0:4:32.650,501.519,63.8523,0,0.000885,0,0
0:4:32.948,502.342,63.9627,0,0.000885,0,0
0:4:33.251,502.458,63.9765,0,0.000885,0,0
0:4:33.551,503.045,64.0523,0,0.000885,0,0
0:4:33.854,503.396,64.0937,0,0.000885,0,0
0:4:34.151,504.335,64.2109,0,0.000885,0,0
0:4:34.449,505.273,64.335,0,0.000885,0,0
0:4:34.752,505.389,64.3488,0,0.000885,0,0
0:4:35.051,505.976,64.4246,0,0.000885,0,0
0:4:35.355,506.328,64.466,0,0.000885,0,0
0:4:35.656,507.208,64.5832,0,0.000885,0,0
0:4:35.956,508.147,64.7004,0,0.000885,0,0
0:4:36.256,508.205,64.7073,0,0.000885,0,0
0:4:36.556,508.97,64.8038,0,0.000885,0,0
0:4:36.849,508.912,64.7969,0,0.000885,0,0
0:4:37.149,510.496,64.9969,0,0.000885,0,0
0:4:37.454,511.078,65.0727,0,0.000885,0,0
0:4:37.751,511.666,65.1486,0,0.000885,0,0
0:4:38.058,512.195,65.2175,0,0.000885,0,0
0:4:38.351,513.018,65.3209,0,0.000885,0,0
0:4:38.650,513.307,65.3554,0,0.000885,0,0
0:4:38.952,513.894,65.4312,0,0.000885,0,0
0:4:39.252,514.308,65.4864,0,0.000885,0,0
0:4:39.556,515.068,65.5829,0,0.000885,0,0
0:4:39.855,515.771,65.6726,0,0.000885,0,0
0:4:40.150,515.891,65.6864,0,0.000885,0,0
0:4:40.451,517.003,65.8242,0,0.000885,0,0
0:4:40.755,517.355,65.8725,0,0.000885,0,0
0:4:41.054,517.648,65.907,0,0.000885,0,0
0:4:41.355,518.351,65.9966,0,0.000885,0,0
0:4:41.655,518.938,66.0725,0,0.000885,0,0
0:4:41.951,519.877,66.1897,0,0.000885,0,0
0:4:42.249,519.877,66.1897,0,0.000885,0,0
0:4:42.550,521.109,66.3482,0,0.000885,0,0
0:4:42.850,521.99,66.4586,0,0.000885,0,0
0:4:43.154,521.638,66.4172,0,0.000885,0,0
0:4:43.451,522.808,66.5689,0,0.000885,0,0
0:4:43.757,523.338,66.6309,0,0.000885,0,0
0:4:44.051,523.747,66.6861,0,0.000885,0,0
0:4:44.350,524.748,66.8102,0,0.000885,0,0
0:4:44.651,524.921,66.8378,0,0.000885,0,0
0:4:44.951,525.508,66.9067,0,0.000885,0,0
0:4:45.255,525.624,66.9274,0,0.000885,0,0
0:4:45.557,526.976,67.0998,0,0.000885,0,0
0:4:45.860,527.208,67.1274,0,0.000885,0,0
0:4:46.161,527.737,67.1963,0,0.000885,0,0
0:4:46.460,527.795,67.2032,0,0.000885,0,0
0:4:46.761,529.436,67.41,0,0.000885,0,0
0:4:47.059,529.378,67.4031,0,0.000885,0,0
0:4:47.356,530.611,67.5617,0,0.000885,0,0
0:4:47.658,530.962,67.6031,0,0.000885,0,0
0:4:47.957,531.549,67.6789,0,0.000885,0,0
0:4:48.250,531.958,67.7341,0,0.000885,0,0
0:4:48.550,533.311,67.8996,0,0.000885,0,0
0:4:48.853,533.542,67.934,0,0.000885,0,0
0:4:49.151,534.307,68.0306,0,0.000885,0,0
0:4:49.459,534.365,68.0375,0,0.000885,0,0
0:4:49.751,535.01,68.1202,0,0.000885,0,0
0:4:50.051,535.303,68.1547,0,0.000885,0,0
0:4:50.352,535.655,68.2029,0,0.000885,0,0
0:4:50.655,536.593,68.3201,0,0.000885,0,0
0:4:50.956,537.181,68.396,0,0.000885,0,0
0:4:51.255,537.941,68.4925,0,0.000885,0,0
0:4:51.555,538.119,68.5132,0,0.000885,0,0
0:4:51.846,538.644,68.5822,0,0.000885,0,0
0:4:52.157,539.818,68.7338,0,0.000885,0,0
0:4:52.452,539.876,68.7407,0,0.000885,0,0
0:4:52.758,540.993,68.8786,0,0.000885,0,0
0:4:53.056,541.344,68.9269,0,0.000885,0,0
0:4:53.349,541.873,68.9958,0,0.000885,0,0
0:4:53.651,542.812,69.113,0,0.000885,0,0
0:4:53.953,543.163,69.1544,0,0.000885,0,0
0:4:54.251,544.102,69.2785,0,0.000885,0,0
0:4:54.545,544.453,69.3199,0,0.000885,0,0
0:4:54.841,544.92,69.3819,0,0.000885,0,0
0:4:55.153,545.859,69.4992,0,0.000885,0,0
0:4:55.453,546.037,69.5267,0,0.000885,0,0
0:4:55.756,546.855,69.6302,0,0.000885,0,0
0:4:56.056,547.211,69.6715,0,0.000885,0,0
0:4:56.357,548.088,69.7818,0,0.000885,0,0
0:4:56.656,547.856,69.7543,0,0.000885,0,0
0:4:56.959,549.084,69.9128,0,0.000885,0,0
0:4:57.259,549.498,69.9611,0,0.000885,0,0
0:4:57.551,549.907,70.0163,0,0.000885,0,0
0:4:57.850,551.433,70.2093,0,0.000885,0,0
0:4:58.155,551.313,70.1955,0,0.000885,0,0
0:4:58.447,552.429,70.3403,0,0.000885,0,0
0:4:58.746,552.958,70.4024,0,0.000885,0,0
0:4:59.050,553.19,70.4368,0,0.000885,0,0
0:4:59.346,554.306,70.5747,0,0.000885,0,0
0:4:59.654,554.306,70.5747,0,0.000885,0,0
0:4:59.950,555.125,70.6782,0,0.000885,0,0
0:5:0.258,555.89,70.7747,0,0.000885,0,0
0:5:0.558,555.654,70.7471,0,0.000885,0,0
0:5:0.861,557.238,70.9471,0,0.000885,0,0
0:5:1.161,557.18,70.9402,0,0.000885,0,0
0:5:1.462,557.295,70.9539,0,0.000885,0,0
0:5:1.761,558.585,71.1194,0,0.000885,0,0
0:5:2.057,558.941,71.1677,0,0.000885,0,0
0:5:2.356,559.057,71.1815,0,0.000885,0,0
0:5:2.645,559.996,71.2987,0,0.000885,0,0
0:5:2.946,561.17,71.4504,0,0.000885,0,0
0:5:3.252,561.815,71.5331,0,0.000885,0,0
0:5:3.557,561.815,71.5331,0,0.000885,0,0
0:5:3.856,562.282,71.5952,0,0.000885,0,0
0:5:4.158,563.047,71.6917,0,0.000885,0,0
0:5:4.458,564.043,71.8158,0,0.000885,0,0
0:5:4.751,564.804,71.9123,0,0.000885,0,0
0:5:5.052,564.982,71.933,0,0.000885,0,0
0:5:5.355,565.449,71.9951,0,0.000885,0,0
0:5:5.657,566.388,72.1123,0,0.000885,0,0
0:5:5.957,567.504,72.2571,0,0.000885,0,0
0:5:6.257,567.148,72.2088,0,0.000885,0,0
0:5:6.555,567.793,72.2915,0,0.000885,0,0
0:5:6.851,568.616,72.4018,0,0.000885,0,0
0:5:7.157,569.319,72.4915,0,0.000885,0,0
0:5:7.456,569.555,72.5191,0,0.000885,0,0
0:5:7.758,570.729,72.6707,0,0.000885,0,0
0:5:8.058,570.729,72.6707,0,0.000885,0,0
0:5:8.351,570.845,72.6845,0,0.000885,0,0
0:5:8.658,571.841,72.8086,0,0.000885,0,0
0:5:8.955,572.78,72.9258,0,0.000885,0,0
0:5:9.259,573.309,72.9948,0,0.000885,0,0
0:5:9.558,573.776,73.0568,0,0.000885,0,0
0:5:9.860,573.66,73.0431,0,0.000885,0,0
0:5:10.160,574.657,73.1672,0,0.000885,0,0
0:5:10.464,575.48,73.2706,0,0.000885,0,0
0:5:10.765,575.711,73.3051,0,0.000885,0,0
0:5:11.065,576.361,73.3809,0,0.000885,0,0
0:5:11.365,577.53,73.5326,0,0.000885,0,0
0:5:11.665,578.295,73.6291,0,0.000885,0,0
0:5:11.959,578.94,73.7119,0,0.000885,0,0
0:5:12.257,579.292,73.7601,0,0.000885,0,0
0:5:12.553,579.585,73.7946,0,0.000885,0,0
0:5:12.858,580.346,73.8911,0,0.000885,0,0
0:5:13.157,581.285,74.0083,0,0.000885,0,0
0:5:13.448,581.694,74.0635,0,0.000885,0,0
0:5:13.747,582.165,74.1255,0,0.000885,0,0
0:5:14.052,582.575,74.1738,0,0.000885,0,0
0:5:14.348,583.691,74.3186,0,0.000885,0,0
0:5:14.647,584.216,74.3875,0,0.000885,0,0
0:5:14.960,584.043,74.36,0,0.000885,0,0
0:5:15.260,584.51,74.422,0,0.000885,0,0
0:5:15.564,584.923,74.4772,0,0.000885,0,0
0:5:15.866,585.275,74.5185,0,0.000885,0,0
0:5:16.168,586.623,74.6909,0,0.000885,0,0
0:5:16.468,587.383,74.7874,0,0.000885,0,0
0:5:16.767,587.445,74.7943,0,0.000885,0,0
0:5:17.060,588.264,74.8977,0,0.000885,0,0
0:5:17.361,589.558,75.0632,0,0.000885,0,0
0:5:17.657,589.496,75.0563,0,0.000885,0,0
0:5:17.955,590.083,75.1322,0,0.000885,0,0
0:5:18.255,591.378,75.2976,0,0.000885,0,0
0:5:18.556,591.378,75.2976,0,0.000885,0,0
0:5:18.858,592.138,75.3942,0,0.000885,0,0
0:5:19.154,593.135,75.5183,0,0.000885,0,0
0:5:19.452,593.491,75.5665,0,0.000885,0,0
0:5:19.748,593.606,75.5803,0,0.000885,0,0
0:5:20.045,595.016,75.7596,0,0.000885,0,0
0:5:20.344,594.603,75.7044,0,0.000885,0,0
0:5:20.647,593.664,75.5872,0,0.000885,0,0
0:5:20.952,594.371,75.6769,0,0.000885,0,0
0:5:21.252,595.839,75.863,0,0.000885,0,0
0:5:21.555,596.542,75.9526,0,0.000885,0,0
0:5:21.857,597.009,76.0147,0,0.000885,0,0
0:5:22.161,597.596,76.0905,0,0.000885,0,0
0:5:22.462,599.358,76.3112,0,0.000885,0,0
0:5:22.757,595.955,75.8768,0,0.000885,0,0
0:5:23.056,596.249,75.9182,0,0.000885,0,0
0:5:23.363,597.245,76.0423,0,0.000885,0,0
0:5:23.657,598.183,76.1664,0,0.000885,0,0
0:5:23.958,600.417,76.4491,0,0.000885,0,0
0:5:24.250,601.413,76.5732,0,0.000885,0,0
0:5:24.561,602.236,76.6766,0,0.000885,0,0
0:5:24.859,603.584,76.849,0,0.000885,0,0
0:5:25.162,604.527,76.9731,0,0.000885,0,0
0:5:25.467,605.99,77.1592,0,0.000885,0,0
0:5:25.769,606.462,77.2144,0,0.000885,0,0
0:5:26.071,606.933,77.2764,0,0.000885,0,0
0:5:26.374,607.578,77.3592,0,0.000885,0,0
0:5:26.671,606.64,77.242,0,0.000885,0,0
0:5:26.969,605.759,77.1248,0,0.000885,0,0
0:5:27.265,606.284,77.1937,0,0.000885,0,0
0:5:27.566,607.227,77.3109,0,0.000885,0,0
0:5:27.858,606.226,77.1868,0,0.000885,0,0
0:5:28.156,599.594,76.3456,0,0.000885,0,0
0:5:28.454,600.532,76.4629,0,0.000885,0,0
0:5:28.758,601.827,76.6283,0,0.000885,0,0
0:5:29.059,603.352,76.8214,0,0.000885,0,0
0:5:29.349,443.047,56.4129,0,0.000885,0,0