File: DataFile2021-07-28_100321.csv
Test ID:,Date Tested:,Time:,Test Type:,Diameter Avg. (mm):,Cyl. Corr. Factor:,Height (mm):,Age (days):,Weight (kN):,Break Type:,Ramp Rate (MPa/s):,Load at Break (kN):,Stress at Break (MPa):
12,7/28/2021,10:03,Cylinder,100,1,200,0,13.69,3,0.35,1026.4,130.68
Sample Time,Load (kN),Stress (MPa),Long. Strain,Trans. Strain,Chan1 Deflection (mm),Chan2 Deflection (mm)
0:0:3.508,5.7471,0.730844,0,0.000885,0,0
0:0:3.907,6.68568,0.848055,0,0.000885,0,0
0:0:4.305,6.7435,0.861845,0,0.000885,0,0
0:0:4.701,7.73991,0.98595,0,0.000885,0,0
0:0:5.098,8.85641,1.13074,0,0.000885,0,0
0:0:5.493,9.85281,1.25485,0,0.000885,0,0
0:0:5.894,11.2629,1.43411,0,0.000885,0,0
0:0:6.293,12.4906,1.59269,0,0.000885,0,0
0:0:6.690,13.785,1.75816,0,0.000885,0,0
0:0:7.085,14.0742,1.79264,0,0.000885,0,0
0:0:7.484,15.7778,2.00637,0,0.000885,0,0
0:0:7.884,16.7164,2.13048,0,0.000885,0,0
0:0:8.280,17.4192,2.22011,0,0.000885,0,0
0:0:8.685,18.5357,2.35801,0,0.000885,0,0
0:0:9.088,19.3542,2.46143,0,0.000885,0,0
0:0:9.495,20.702,2.6338,0,0.000885,0,0
0:0:9.900,22.4635,2.86132,0,0.000885,0,0
0:0:10.303,23.3443,2.97164,0,0.000885,0,0
0:0:10.699,25.2214,3.21296,0,0.000885,0,0
0:0:11.100,26.0399,3.31638,0,0.000885,0,0
0:0:11.500,27.3299,3.48185,0,0.000885,0,0
0:0:11.897,28.7978,3.66801,0,0.000885,0,0
0:0:12.293,29.7942,3.79212,0,0.000885,0,0
0:0:12.691,30.9107,3.93691,0,0.000885,0,0
0:0:13.090,32.3163,4.11617,0,0.000885,0,0
0:0:13.491,33.7842,4.30233,0,0.000885,0,0
0:0:13.886,34.3091,4.37128,0,0.000885,0,0
0:0:14.291,34.8963,4.44022,0,0.000885,0,0
0:0:14.696,35.8927,4.57122,0,0.000885,0,0
0:0:15.100,36.9514,4.70222,0,0.000885,0,0
0:0:15.505,37.6542,4.79186,0,0.000885,0,0
0:0:15.901,38.6506,4.92286,0,0.000885,0,0
0:0:16.297,40.1185,5.10902,0,0.000885,0,0
0:0:16.699,41.1149,5.23312,0,0.000885,0,0
0:0:17.098,42.5784,5.41928,0,0.000885,0,0
0:0:17.493,43.6949,5.56407,0,0.000885,0,0
0:0:17.891,44.8069,5.70196,0,0.000885,0,0
0:0:18.289,46.1592,5.87433,0,0.000885,0,0
0:0:18.690,46.9777,5.98465,0,0.000885,0,0
0:0:19.097,48.0942,6.12254,0,0.000885,0,0
0:0:19.502,49.0906,6.25354,0,0.000885,0,0
0:0:19.907,50.1448,6.38455,0,0.000885,0,0
0:0:20.308,51.4348,6.55002,0,0.000885,0,0
0:0:20.708,52.9605,6.74307,0,0.000885,0,0
0:0:21.105,53.6055,6.82581,0,0.000885,0,0
0:0:21.499,54.1927,6.90165,0,0.000885,0,0
0:0:21.899,55.0156,7.00507,0,0.000885,0,0
0:0:22.299,56.657,7.21192,0,0.000885,0,0
0:0:22.696,57.8313,7.3636,0,0.000885,0,0
0:0:23.093,59.1213,7.52907,0,0.000885,0,0
0:0:23.491,60.3535,7.68076,0,0.000885,0,0
0:0:23.893,62.1105,7.90829,0,0.000885,0,0
0:0:24.299,62.582,7.97034,0,0.000885,0,0
0:0:24.705,64.0455,8.1565,0,0.000885,0,0
0:0:25.108,64.4547,8.20476,0,0.000885,0,0
0:0:25.509,65.7492,8.37024,0,0.000885,0,0
0:0:25.909,66.6255,8.48055,0,0.000885,0,0
0:0:26.308,67.6219,8.61155,0,0.000885,0,0
0:0:26.703,68.5026,8.72187,0,0.000885,0,0
0:0:27.101,69.4412,8.83908,0,0.000885,0,0
0:0:27.502,70.9091,9.02524,0,0.000885,0,0
0:0:27.899,72.3726,9.21829,0,0.000885,0,0
0:0:28.297,73.4891,9.35619,0,0.000885,0,0
0:0:28.693,74.8369,9.52855,0,0.000885,0,0
0:0:29.099,75.8956,9.66645,0,0.000885,0,0
0:0:29.506,77.1233,9.81813,0,0.000885,0,0
0:0:29.910,77.6526,9.88708,0,0.000885,0,0
0:0:30.314,78.649,10.0112,0,0.000885,0,0
0:0:30.713,79.3563,10.1008,0,0.000885,0,0
0:0:31.112,80.9977,10.3146,0,0.000885,0,0
0:0:31.512,82.4033,10.4938,0,0.000885,0,0
0:0:31.907,83.2262,10.5972,0,0.000885,0,0
0:0:32.302,84.2805,10.7282,0,0.000885,0,0
0:0:32.701,85.6905,10.9075,0,0.000885,0,0
0:0:33.102,86.3355,10.9902,0,0.000885,0,0
0:0:33.501,87.6833,11.1626,0,0.000885,0,0
0:0:33.896,88.7954,11.3074,0,0.000885,0,0
0:0:34.300,89.6183,11.4108,0,0.000885,0,0
0:0:34.708,91.4376,11.6452,0,0.000885,0,0
0:0:35.112,91.9625,11.7073,0,0.000885,0,0
0:0:35.515,93.4304,11.8935,0,0.000885,0,0
0:0:35.913,94.8361,12.0727,0,0.000885,0,0
0:0:36.311,95.7747,12.1968,0,0.000885,0,0
0:0:36.711,96.8912,12.3347,0,0.000885,0,0
0:0:37.109,97.0068,12.3485,0,0.000885,0,0
0:0:37.504,98.1233,12.4933,0,0.000885,0,0
0:0:37.901,99.2354,12.6381,0,0.000885,0,0
0:0:38.302,100.232,12.7622,0,0.000885,0,0
0:0:38.700,101.758,12.9552,0,0.000885,0,0
0:0:39.107,102.874,13.1,0,0.000885,0,0
0:0:39.512,103.928,13.231,0,0.000885,0,0
0:0:39.916,105.512,13.431,0,0.000885,0,0
0:0:40.319,106.508,13.562,0,0.000885,0,0
0:0:40.717,107.798,13.7275,0,0.000885,0,0
0:0:41.114,109.088,13.8929,0,0.000885,0,0
0:0:41.512,110.027,14.0101,0,0.000885,0,0
0:0:41.912,110.965,14.1274,0,0.000885,0,0
0:0:42.311,111.904,14.2515,0,0.000885,0,0
0:0:42.707,112.727,14.3549,0,0.000885,0,0
0:0:43.106,114.253,14.5479,0,0.000885,0,0
0:0:43.505,115.191,14.6651,0,0.000885,0,0
0:0:43.905,116.01,14.7686,0,0.000885,0,0
0:0:44.312,117.184,14.9203,0,0.000885,0,0
0:0:44.717,118.358,15.0719,0,0.000885,0,0
0:0:45.120,119.47,15.2098,0,0.000885,0,0
0:0:45.521,120.818,15.3822,0,0.000885,0,0
0:0:45.919,121.992,15.5339,0,0.000885,0,0
0:0:46.319,123.403,15.7132,0,0.000885,0,0
0:0:46.714,124.048,15.7959,0,0.000885,0,0
0:0:47.113,124.986,15.9131,0,0.000885,0,0
0:0:47.513,126.507,16.1062,0,0.000885,0,0
0:0:47.909,127.566,16.244,0,0.000885,0,0
0:0:48.305,128.211,16.3268,0,0.000885,0,0
0:0:48.702,129.207,16.4509,0,0.000885,0,0
0:0:49.105,130.497,16.6164,0,0.000885,0,0
0:0:49.512,131.436,16.7336,0,0.000885,0,0
0:0:49.917,132.61,16.8853,0,0.000885,0,0
0:0:50.320,133.487,16.9956,0,0.000885,0,0
0:0:50.722,135.012,17.1886,0,0.000885,0,0
0:0:51.121,136.187,17.3403,0,0.000885,0,0
0:0:51.517,136.774,17.4162,0,0.000885,0,0
0:0:51.913,138.473,17.6299,0,0.000885,0,0
0:0:52.312,139.354,17.7402,0,0.000885,0,0
0:0:52.712,140.702,17.9126,0,0.000885,0,0
0:0:53.112,141.818,18.0574,0,0.000885,0,0
0:0:53.507,142.93,18.1953,0,0.000885,0,0
0:0:53.902,143.989,18.3332,0,0.000885,0,0
0:0:54.307,145.279,18.4986,0,0.000885,0,0
0:0:54.714,146.511,18.6572,0,0.000885,0,0
0:0:55.118,147.214,18.7468,0,0.000885,0,0
0:0:55.521,148.677,18.933,0,0.000885,0,0
0:0:55.917,149.029,18.9744,0,0.000885,0,0
0:0:56.318,150.261,19.133,0,0.000885,0,0
0:0:56.716,150.906,19.2157,0,0.000885,0,0
0:0:57.114,152.196,19.3812,0,0.000885,0,0
0:0:57.510,153.606,19.5604,0,0.000885,0,0
0:0:57.911,154.896,19.719,0,0.000885,0,0
0:0:58.310,155.483,19.7948,0,0.000885,0,0
0:0:58.706,156.657,19.9465,0,0.000885,0,0
0:0:59.113,158.121,20.1327,0,0.000885,0,0
0:0:59.518,159.117,20.2568,0,0.000885,0,0
0:0:59.922,160.47,20.4292,0,0.000885,0,0
0:1:0.324,161.172,20.5188,0,0.000885,0,0
0:1:0.722,162.462,20.6843,0,0.000885,0,0
0:1:1.118,163.517,20.8222,0,0.000885,0,0
0:1:1.518,164.633,20.9601,0,0.000885,0,0
0:1:1.917,165.63,21.0911,0,0.000885,0,0
0:1:2.315,166.92,21.2496,0,0.000885,0,0
0:1:2.710,167.916,21.3806,0,0.000885,0,0
0:1:3.110,168.854,21.4979,0,0.000885,0,0
0:1:3.510,170.38,21.6909,0,0.000885,0,0
0:1:3.907,171.377,21.8219,0,0.000885,0,0
0:1:4.312,172.845,22.0081,0,0.000885,0,0
0:1:4.718,173.49,22.0908,0,0.000885,0,0
0:1:5.121,174.428,22.208,0,0.000885,0,0
0:1:5.526,175.131,22.2976,0,0.000885,0,0
0:1:5.923,176.599,22.4838,0,0.000885,0,0
0:1:6.322,177.533,22.6079,0,0.000885,0,0
0:1:6.718,179.059,22.801,0,0.000885,0,0
0:1:7.118,180.117,22.932,0,0.000885,0,0
0:1:7.519,181.345,23.0905,0,0.000885,0,0
0:1:7.915,182.284,23.2078,0,0.000885,0,0
0:1:8.312,182.933,23.2905,0,0.000885,0,0
0:1:8.711,184.281,23.4629,0,0.000885,0,0
0:1:9.111,185.513,23.6214,0,0.000885,0,0
0:1:9.518,186.745,23.78,0,0.000885,0,0
0:1:9.921,188.093,23.9455,0,0.000885,0,0
0:1:10.325,189.147,24.0834,0,0.000885,0,0
0:1:10.726,190.086,24.2006,0,0.000885,0,0
0:1:11.124,191.202,24.3454,0,0.000885,0,0
0:1:11.520,191.847,24.4281,0,0.000885,0,0
0:1:11.917,192.844,24.5522,0,0.000885,0,0
0:1:12.314,194.485,24.766,0,0.000885,0,0
0:1:12.711,195.602,24.9039,0,0.000885,0,0
0:1:13.106,196.598,25.0349,0,0.000885,0,0
0:1:13.497,197.007,25.0831,0,0.000885,0,0
0:1:13.899,198.239,25.2417,0,0.000885,0,0
0:1:14.304,199.823,25.4417,0,0.000885,0,0
0:1:14.705,200.41,25.5175,0,0.000885,0,0
0:1:15.106,201.642,25.6761,0,0.000885,0,0
0:1:15.499,202.697,25.8071,0,0.000885,0,0
0:1:15.898,204.28,26.007,0,0.000885,0,0
0:1:16.295,205.392,26.1518,0,0.000885,0,0
0:1:16.687,206.331,26.269,0,0.000885,0,0
0:1:17.092,207.563,26.4276,0,0.000885,0,0
0:1:17.486,208.795,26.5862,0,0.000885,0,0
0:1:17.884,209.969,26.731,0,0.000885,0,0
0:1:18.290,210.73,26.8344,0,0.000885,0,0
0:1:18.692,211.726,26.9585,0,0.000885,0,0
0:1:19.094,212.727,27.0826,0,0.000885,0,0
0:1:19.497,214.133,27.2619,0,0.000885,0,0
0:1:19.899,215.249,27.4067,0,0.000885,0,0
0:1:20.300,216.597,27.579,0,0.000885,0,0
0:1:20.693,217.767,27.7238,0,0.000885,0,0
0:1:21.090,218.648,27.841,0,0.000885,0,0
0:1:21.488,219.293,27.9238,0,0.000885,0,0
0:1:21.891,220.583,28.0823,0,0.000885,0,0
0:1:22.285,221.642,28.2202,0,0.000885,0,0
0:1:22.689,222.989,28.3926,0,0.000885,0,0
0:1:23.085,223.634,28.4753,0,0.000885,0,0
0:1:23.481,224.982,28.6477,0,0.000885,0,0
0:1:23.886,225.863,28.758,0,0.000885,0,0
0:1:24.289,227.153,28.9235,0,0.000885,0,0
0:1:24.691,228.327,29.0683,0,0.000885,0,0
0:1:25.091,229.439,29.2131,0,0.000885,0,0
0:1:25.493,230.729,29.3786,0,0.000885,0,0
0:1:25.887,231.259,29.4475,0,0.000885,0,0
0:1:26.289,232.606,29.6199,0,0.000885,0,0
0:1:26.689,233.839,29.7716,0,0.000885,0,0
0:1:27.086,234.835,29.9026,0,0.000885,0,0
0:1:27.486,235.716,30.0129,0,0.000885,0,0
0:1:27.879,237.184,30.199,0,0.000885,0,0
0:1:28.276,238.416,30.3576,0,0.000885,0,0
0:1:28.674,239.292,30.4679,0,0.000885,0,0
0:1:29.076,240.587,30.6334,0,0.000885,0,0
0:1:29.479,241.583,30.7575,0,0.000885,0,0
0:1:29.878,242.401,30.8609,0,0.000885,0,0
0:1:30.289,243.927,31.0609,0,0.000885,0,0
0:1:30.682,244.572,31.1367,0,0.000885,0,0
0:1:31.077,245.626,31.2746,0,0.000885,0,0
0:1:31.471,246.507,31.3849,0,0.000885,0,0
0:1:31.869,247.797,31.5504,0,0.000885,0,0
0:1:32.265,248.856,31.6883,0,0.000885,0,0
0:1:32.659,250.377,31.8814,0,0.000885,0,0
0:1:33.053,251.084,31.971,0,0.000885,0,0
0:1:33.449,252.374,32.1365,0,0.000885,0,0
0:1:33.847,254.016,32.3433,0,0.000885,0,0
0:1:34.251,254.839,32.4467,0,0.000885,0,0
0:1:34.653,255.951,32.5915,0,0.000885,0,0
0:1:35.053,256.889,32.7087,0,0.000885,0,0
0:1:35.451,258.001,32.8466,0,0.000885,0,0
0:1:35.849,259.821,33.081,0,0.000885,0,0
0:1:36.243,260.644,33.1845,0,0.000885,0,0
0:1:36.636,261.231,33.2603,0,0.000885,0,0
0:1:37.032,262.579,33.4327,0,0.000885,0,0
0:1:37.429,262.988,33.4878,0,0.000885,0,0
0:1:37.822,264.336,33.6533,0,0.000885,0,0
0:1:38.216,265.101,33.7567,0,0.000885,0,0
0:1:38.611,266.506,33.936,0,0.000885,0,0
0:1:39.011,267.387,34.0463,0,0.000885,0,0
0:1:39.416,268.326,34.1635,0,0.000885,0,0
0:1:39.817,269.673,34.3359,0,0.000885,0,0
0:1:40.217,271.084,34.5152,0,0.000885,0,0
0:1:40.615,271.964,34.6255,0,0.000885,0,0
0:1:41.011,273.076,34.7703,0,0.000885,0,0
0:1:41.408,274.718,34.9771,0,0.000885,0,0
0:1:41.800,275.834,35.1219,0,0.000885,0,0
0:1:42.195,276.595,35.2184,0,0.000885,0,0
0:1:42.592,277.591,35.3425,0,0.000885,0,0
0:1:42.989,278.472,35.4528,0,0.000885,0,0
0:1:43.392,279.117,35.5356,0,0.000885,0,0
0:1:43.784,280.758,35.7493,0,0.000885,0,0
0:1:44.187,282.226,35.9355,0,0.000885,0,0
0:1:44.591,282.756,36.0044,0,0.000885,0,0
0:1:44.992,284.219,36.1906,0,0.000885,0,0
0:1:45.392,285.278,36.3216,0,0.000885,0,0
0:1:45.787,286.038,36.4181,0,0.000885,0,0
0:1:46.191,287.622,36.6181,0,0.000885,0,0
0:1:46.590,288.325,36.7077,0,0.000885,0,0
0:1:46.995,289.735,36.887,0,0.000885,0,0
0:1:47.388,290.673,37.0111,0,0.000885,0,0
0:1:47.792,291.843,37.1558,0,0.000885,0,0
0:1:48.188,292.315,37.2179,0,0.000885,0,0
0:1:48.595,294.486,37.4937,0,0.000885,0,0
0:1:48.999,295.246,37.5902,0,0.000885,0,0
0:1:49.401,296.714,37.7764,0,0.000885,0,0
0:1:49.801,297.711,37.9074,0,0.000885,0,0
0:1:50.201,298.591,38.0177,0,0.000885,0,0
0:1:50.597,300.233,38.2245,0,0.000885,0,0
0:1:50.994,301.113,38.3417,0,0.000885,0,0
0:1:51.384,301.758,38.4176,0,0.000885,0,0
0:1:51.790,302.341,38.4934,0,0.000885,0,0
0:1:52.187,303.751,38.6727,0,0.000885,0,0
0:1:52.592,304.926,38.8244,0,0.000885,0,0
0:1:52.987,306.158,38.983,0,0.000885,0,0
0:1:53.389,307.328,39.1277,0,0.000885,0,0
0:1:53.791,307.973,39.2105,0,0.000885,0,0
0:1:54.194,309.441,39.3966,0,0.000885,0,0
0:1:54.593,309.908,39.4587,0,0.000885,0,0
0:1:54.994,311.433,39.6517,0,0.000885,0,0
0:1:55.390,312.723,39.8172,0,0.000885,0,0
0:1:55.795,313.195,39.8793,0,0.000885,0,0
0:1:56.193,315.188,40.1344,0,0.000885,0,0
0:1:56.596,315.948,40.2309,0,0.000885,0,0
0:1:56.990,317.123,40.3757,0,0.000885,0,0
0:1:57.394,318.648,40.5688,0,0.000885,0,0
0:1:57.791,319.236,40.6446,0,0.000885,0,0
0:1:58.185,320.232,40.7756,0,0.000885,0,0
0:1:58.592,321.406,40.9204,0,0.000885,0,0
0:1:58.995,322.928,41.1134,0,0.000885,0,0
0:1:59.397,323.283,41.1617,0,0.000885,0,0
0:1:59.796,325.45,41.4375,0,0.000885,0,0
0:2:0.198,325.921,41.4995,0,0.000885,0,0
0:2:0.592,326.918,41.6236,0,0.000885,0,0
0:2:0.994,328.328,41.8029,0,0.000885,0,0
0:2:1.391,329.031,41.8925,0,0.000885,0,0
0:2:1.788,330.2,42.0442,0,0.000885,0,0
0:2:2.193,331.139,42.1614,0,0.000885,0,0
0:2:2.585,332.313,42.3131,0,0.000885,0,0
0:2:2.989,333.545,42.4717,0,0.000885,0,0
0:2:3.396,334.542,42.5958,0,0.000885,0,0
0:2:3.794,335.716,42.7475,0,0.000885,0,0
0:2:4.197,336.891,42.8923,0,0.000885,0,0
0:2:4.599,337.887,43.0233,0,0.000885,0,0
0:2:5.001,338.941,43.1543,0,0.000885,0,0
0:2:5.399,340.347,43.3335,0,0.000885,0,0
0:2:5.797,341.17,43.437,0,0.000885,0,0
0:2:6.190,342.402,43.5956,0,0.000885,0,0
0:2:6.594,343.398,43.7197,0,0.000885,0,0
0:2:6.989,344.63,43.8782,0,0.000885,0,0
0:2:7.395,345.805,44.0299,0,0.000885,0,0
0:2:7.790,346.508,44.1196,0,0.000885,0,0
0:2:8.195,348.265,44.3402,0,0.000885,0,0
0:2:8.589,349.145,44.4574,0,0.000885,0,0
0:2:8.989,350.493,44.6298,0,0.000885,0,0
0:2:9.394,351.258,44.7263,0,0.000885,0,0
0:2:9.795,353.015,44.9469,0,0.000885,0,0
0:2:10.193,353.078,44.9538,0,0.000885,0,0
0:2:10.590,354.541,45.14,0,0.000885,0,0
0:2:10.997,355.422,45.2503,0,0.000885,0,0
0:2:11.396,356.89,45.4433,0,0.000885,0,0
0:2:11.799,357.415,45.5054,0,0.000885,0,0
0:2:12.193,358.589,45.6571,0,0.000885,0,0
0:2:12.596,359.879,45.8226,0,0.000885,0,0
0:2:12.994,360.875,45.9467,0,0.000885,0,0
0:2:13.392,362.343,46.1328,0,0.000885,0,0
0:2:13.793,363.162,46.2362,0,0.000885,0,0
0:2:14.196,364.63,46.4293,0,0.000885,0,0
0:2:14.598,364.981,46.4707,0,0.000885,0,0
0:2:14.999,366.743,46.6982,0,0.000885,0,0
0:2:15.400,367.036,46.7327,0,0.000885,0,0
0:2:15.795,368.851,46.9671,0,0.000885,0,0
0:2:16.187,369.674,47.0705,0,0.000885,0,0
0:2:16.595,371.022,47.2429,0,0.000885,0,0
0:2:16.991,372.196,47.3877,0,0.000885,0,0
0:2:17.397,373.135,47.5118,0,0.000885,0,0
0:2:17.789,375.012,47.7462,0,0.000885,0,0
0:2:18.193,375.599,47.822,0,0.000885,0,0
0:2:18.592,376.889,47.9875,0,0.000885,0,0
0:2:18.996,378.063,48.1392,0,0.000885,0,0
0:2:19.398,378.472,48.1875,0,0.000885,0,0
0:2:19.800,379.878,48.3667,0,0.000885,0,0
0:2:20.200,380.875,48.4977,0,0.000885,0,0
0:2:20.602,382.165,48.6563,0,0.000885,0,0
0:2:20.995,382.814,48.739,0,0.000885,0,0
0:2:21.397,383.397,48.8149,0,0.000885,0,0
0:2:21.792,385.1,49.0355,0,0.000885,0,0
0:2:22.187,385.803,49.1251,0,0.000885,0,0
0:2:22.593,387.151,49.2906,0,0.000885,0,0
0:2:22.986,388.032,49.4078,0,0.000885,0,0
0:2:23.392,389.437,49.5871,0,0.000885,0,0
0:2:23.792,390.612,49.7319,0,0.000885,0,0
0:2:24.196,391.728,49.8767,0,0.000885,0,0
0:2:24.598,393.427,50.0904,0,0.000885,0,0
0:2:24.999,394.015,50.1663,0,0.000885,0,0
0:2:25.393,395.247,50.3248,0,0.000885,0,0
0:2:25.791,396.127,50.4351,0,0.000885,0,0
0:2:26.197,397.475,50.6075,0,0.000885,0,0
0:2:26.591,398.414,50.7247,0,0.000885,0,0
0:2:26.994,399.468,50.8626,0,0.000885,0,0
0:2:27.398,401.052,51.0626,0,0.000885,0,0
0:2:27.795,402.048,51.1936,0,0.000885,0,0
0:2:28.192,403.338,51.3522,0,0.000885,0,0
0:2:28.595,403.632,51.3935,0,0.000885,0,0
0:2:28.997,405.335,51.6073,0,0.000885,0,0
0:2:29.401,405.687,51.6555,0,0.000885,0,0
0:2:29.801,407.386,51.8693,0,0.000885,0,0
0:2:30.202,408.325,51.9865,0,0.000885,0,0
0:2:30.595,409.027,52.0761,0,0.000885,0,0
0:2:30.998,410.144,52.2209,0,0.000885,0,0
0:2:31.396,410.904,52.3174,0,0.000885,0,0
0:2:31.793,412.724,52.5518,0,0.000885,0,0
0:2:32.196,413.662,52.6691,0,0.000885,0,0
0:2:32.599,414.307,52.7518,0,0.000885,0,0
0:2:32.994,416.42,53.0207,0,0.000885,0,0
0:2:33.391,417.417,53.1448,0,0.000885,0,0
0:2:33.796,418.413,53.2758,0,0.000885,0,0
0:2:34.199,419.645,53.4275,0,0.000885,0,0
0:2:34.601,420.29,53.5102,0,0.000885,0,0
0:2:35.001,421.932,53.7239,0,0.000885,0,0
0:2:35.402,422.461,53.786,0,0.000885,0,0
0:2:35.797,424.512,54.048,0,0.000885,0,0
0:2:36.197,424.921,54.1032,0,0.000885,0,0
0:2:36.594,426.447,54.2962,0,0.000885,0,0
0:2:36.991,427.269,54.3996,0,0.000885,0,0
0:2:37.395,428.559,54.5651,0,0.000885,0,0
0:2:37.799,428.675,54.5789,0,0.000885,0,0
0:2:38.192,430.027,54.7513,0,0.000885,0,0
0:2:38.599,431.082,54.8892,0,0.000885,0,0
0:2:38.996,432.314,55.0408,0,0.000885,0,0
0:2:39.399,433.074,55.1443,0,0.000885,0,0
0:2:39.801,434.658,55.3442,0,0.000885,0,0
0:2:40.201,435.597,55.4614,0,0.000885,0,0
0:2:40.602,436.362,55.558,0,0.000885,0,0
0:2:40.998,437.709,55.7303,0,0.000885,0,0
0:2:41.399,438.999,55.8958,0,0.000885,0,0
0:2:41.794,440.174,56.0475,0,0.000885,0,0
0:2:42.200,440.877,56.1371,0,0.000885,0,0
0:2:42.597,442.754,56.3715,0,0.000885,0,0
0:2:43.001,443.692,56.4956,0,0.000885,0,0
0:2:43.394,445.392,56.7094,0,0.000885,0,0
0:2:43.796,446.152,56.8059,0,0.000885,0,0
0:2:44.200,446.566,56.8611,0,0.000885,0,0
0:2:44.602,448.443,57.0955,0,0.000885,0,0
0:2:45.001,449.146,57.1851,0,0.000885,0,0
0:2:45.396,449.849,57.2747,0,0.000885,0,0
0:2:45.792,451.841,57.5299,0,0.000885,0,0
0:2:46.200,452.429,57.6057,0,0.000885,0,0
0:2:46.590,452.78,57.6471,0,0.000885,0,0
0:2:46.995,454.426,57.8608,0,0.000885,0,0
0:2:47.402,455.422,57.9849,0,0.000885,0,0
0:2:47.798,457.006,58.1849,0,0.000885,0,0
0:2:48.194,457.766,58.2814,0,0.000885,0,0
0:2:48.597,458.705,58.4055,0,0.000885,0,0
0:2:48.999,459.47,58.502,0,0.000885,0,0
0:2:49.405,461.521,58.764,0,0.000885,0,0
0:2:49.804,462.517,58.8881,0,0.000885,0,0
0:2:50.205,462.869,58.9364,0,0.000885,0,0
0:2:50.597,464.394,59.1294,0,0.000885,0,0
0:2:50.993,465.391,59.2535,0,0.000885,0,0
0:2:51.402,466.094,59.3432,0,0.000885,0,0
0:2:51.796,466.916,59.4466,0,0.000885,0,0
0:2:52.198,468.794,59.6879,0,0.000885,0,0
0:2:52.601,469.79,59.8189,0,0.000885,0,0
0:2:52.999,471.374,60.0189,0,0.000885,0,0
0:2:53.396,472.842,60.205,0,0.000885,0,0
0:2:53.800,474.074,60.3636,0,0.000885,0,0
0:2:54.202,474.599,60.4257,0,0.000885,0,0
0:2:54.605,475.595,60.5567,0,0.000885,0,0
0:2:55.007,477.299,60.7704,0,0.000885,0,0
0:2:55.406,477.472,60.7911,0,0.000885,0,0
0:2:55.800,478.531,60.929,0,0.000885,0,0
0:2:56.194,479.701,61.0807,0,0.000885,0,0
0:2:56.590,480.639,61.1979,0,0.000885,0,0
0:2:56.999,481.814,61.3496,0,0.000885,0,0
0:2:57.401,482.81,61.4737,0,0.000885,0,0
0:2:57.795,484.451,61.6805,0,0.000885,0,0
0:2:58.200,484.923,61.7426,0,0.000885,0,0
0:2:58.598,485.977,61.8736,0,0.000885,0,0
0:2:59.001,486.858,61.9908,0,0.000885,0,0
0:2:59.404,488.384,62.1838,0,0.000885,0,0
0:2:59.804,489.731,62.3562,0,0.000885,0,0
0:3:0.204,491.021,62.5217,0,0.000885,0,0
0:3:0.599,491.96,62.6389,0,0.000885,0,0
0:3:1.002,493.192,62.7974,0,0.000885,0,0
0:3:1.395,494.598,62.9767,0,0.000885,0,0
0:3:1.802,495.83,63.1284,0,0.000885,0,0
0:3:2.199,496.826,63.2594,0,0.000885,0,0
0:3:2.601,497.298,63.3146,0,0.000885,0,0
0:3:2.995,498.179,63.4318,0,0.000885,0,0
0:3:3.400,499.704,63.6248,0,0.000885,0,0
0:3:3.801,500.638,63.742,0,0.000885,0,0
0:3:4.206,501.933,63.9075,0,0.000885,0,0
0:3:4.607,502.809,64.0178,0,0.000885,0,0
0:3:5.008,504.277,64.204,0,0.000885,0,0
0:3:5.403,505.625,64.3763,0,0.000885,0,0
0:3:5.801,505.976,64.4246,0,0.000885,0,0
0:3:6.196,507.035,64.5556,0,0.000885,0,0
0:3:6.599,508.205,64.7073,0,0.000885,0,0
0:3:6.991,509.264,64.8383,0,0.000885,0,0
0:3:7.389,510.26,64.9693,0,0.000885,0,0
0:3:7.795,511.372,65.1072,0,0.000885,0,0
0:3:8.199,512.373,65.2382,0,0.000885,0,0
0:3:8.602,514.481,65.5071,0,0.000885,0,0
0:3:9.003,515.011,65.576,0,0.000885,0,0
0:3:9.409,515.713,65.6657,0,0.000885,0,0
0:3:9.811,517.355,65.8725,0,0.000885,0,0
0:3:10.211,518.587,66.0311,0,0.000885,0,0
0:3:10.606,519.352,66.1276,0,0.000885,0,0
0:3:11.002,520.171,66.231,0,0.000885,0,0
0:3:11.399,521.932,66.4517,0,0.000885,0,0
0:3:11.803,522.871,66.5758,0,0.000885,0,0
0:3:12.204,524.218,66.7481,0,0.000885,0,0
0:3:12.601,524.921,66.8378,0,0.000885,0,0
0:3:12.999,525.918,66.9619,0,0.000885,0,0
0:3:13.402,527.034,67.1067,0,0.000885,0,0
0:3:13.797,528.088,67.2377,0,0.000885,0,0
0:3:14.198,529.436,67.41,0,0.000885,0,0
0:3:14.602,530.611,67.5617,0,0.000885,0,0
0:3:15.003,531.843,67.7134,0,0.000885,0,0
0:3:15.406,532.372,67.7824,0,0.000885,0,0
0:3:15.798,533.72,67.9547,0,0.000885,0,0
0:3:16.204,534.538,68.0581,0,0.000885,0,0
0:3:16.602,535.477,68.1823,0,0.000885,0,0
0:3:16.998,536.945,68.3684,0,0.000885,0,0
0:3:17.401,537.826,68.4787,0,0.000885,0,0
0:3:17.796,539,68.6304,0,0.000885,0,0
0:3:18.203,540.228,68.7821,0,0.000885,0,0
0:3:18.599,541.344,68.9269,0,0.000885,0,0
0:3:19.003,542.341,69.051,0,0.000885,0,0
0:3:19.403,543.751,69.2303,0,0.000885,0,0
0:3:19.806,544.92,69.3819,0,0.000885,0,0
0:3:20.206,545.979,69.5129,0,0.000885,0,0
0:3:20.599,546.682,69.6026,0,0.000885,0,0
0:3:21.003,547.972,69.768,0,0.000885,0,0
0:3:21.398,549.146,69.9197,0,0.000885,0,0
0:3:21.803,549.907,70.0163,0,0.000885,0,0
0:3:22.201,551.313,70.1955,0,0.000885,0,0
0:3:22.604,552.607,70.361,0,0.000885,0,0
0:3:22.998,554.013,70.5403,0,0.000885,0,0
0:3:23.403,554.836,70.6437,0,0.000885,0,0
0:3:23.801,555.654,70.7471,0,0.000885,0,0
0:3:24.206,556.419,70.8436,0,0.000885,0,0
0:3:24.607,557.883,71.0298,0,0.000885,0,0
0:3:25.007,559.115,71.1884,0,0.000885,0,0
0:3:25.407,560.169,71.3263,0,0.000885,0,0
0:3:25.802,560.698,71.3883,0,0.000885,0,0
0:3:26.204,561.988,71.5538,0,0.000885,0,0
0:3:26.599,563.572,71.7537,0,0.000885,0,0
0:3:27.006,564.568,71.8847,0,0.000885,0,0
0:3:27.402,565.565,72.0088,0,0.000885,0,0
0:3:27.806,566.33,72.1054,0,0.000885,0,0
0:3:28.197,567.678,72.2777,0,0.000885,0,0
0:3:28.603,568.323,72.3605,0,0.000885,0,0
0:3:29.002,569.848,72.5535,0,0.000885,0,0
0:3:29.406,571.138,72.719,0,0.000885,0,0
0:3:29.807,572.428,72.8845,0,0.000885,0,0
0:3:30.207,573.193,72.981,0,0.000885,0,0
0:3:30.603,574.599,73.1603,0,0.000885,0,0
0:3:31.001,575.711,73.3051,0,0.000885,0,0
0:3:31.403,576.65,73.4223,0,0.000885,0,0
0:3:31.798,577.651,73.5464,0,0.000885,0,0
0:3:32.203,578.469,73.6498,0,0.000885,0,0
0:3:32.601,580.11,73.8635,0,0.000885,0,0
0:3:33.006,581.578,74.0497,0,0.000885,0,0
0:3:33.399,582.108,74.1186,0,0.000885,0,0
0:3:33.800,583.22,74.2565,0,0.000885,0,0
0:3:34.203,584.158,74.3806,0,0.000885,0,0
0:3:34.604,585.506,74.5461,0,0.000885,0,0
0:3:35.006,586.507,74.6771,0,0.000885,0,0
0:3:35.399,587.503,74.8012,0,0.000885,0,0
0:3:35.803,588.148,74.884,0,0.000885,0,0
0:3:36.203,588.967,74.9874,0,0.000885,0,0
0:3:36.600,590.67,75.208,0,0.000885,0,0
0:3:36.994,591.903,75.3666,0,0.000885,0,0
0:3:37.401,592.903,75.4907,0,0.000885,0,0
0:3:37.800,594.309,75.67,0,0.000885,0,0
0:3:38.200,595.483,75.8216,0,0.000885,0,0
0:3:38.606,596.128,75.9044,0,0.000885,0,0
0:3:39.009,597.596,76.0905,0,0.000885,0,0
0:3:39.414,598.419,76.194,0,0.000885,0,0
0:3:39.817,599.709,76.3594,0,0.000885,0,0
0:3:40.220,600.71,76.4835,0,0.000885,0,0
0:3:40.614,601.529,76.587,0,0.000885,0,0
0:3:41.009,602.823,76.7524,0,0.000885,0,0
0:3:41.410,603.997,76.9041,0,0.000885,0,0
0:3:41.808,604.878,77.0144,0,0.000885,0,0
0:3:42.202,606.577,77.2351,0,0.000885,0,0
0:3:42.608,608.103,77.4281,0,0.000885,0,0
0:3:43.003,608.632,77.4902,0,0.000885,0,0
0:3:43.404,609.865,77.6488,0,0.000885,0,0
0:3:43.800,610.572,77.7384,0,0.000885,0,0
0:3:44.206,611.217,77.8211,0,0.000885,0,0
0:3:44.609,612.743,78.0142,0,0.000885,0,0
0:3:45.012,613.859,78.159,0,0.000885,0,0
0:3:45.415,615.322,78.3451,0,0.000885,0,0
0:3:45.811,616.088,78.4417,0,0.000885,0,0
0:3:46.204,617.32,78.6002,0,0.000885,0,0
0:3:46.602,618.258,78.7174,0,0.000885,0,0
0:3:47.000,619.611,78.8898,0,0.000885,0,0
0:3:47.408,620.843,79.0484,0,0.000885,0,0
0:3:47.802,621.43,79.1242,0,0.000885,0,0
0:3:48.206,622.956,79.3173,0,0.000885,0,0
0:3:48.606,623.658,79.4069,0,0.000885,0,0
0:3:49.003,625.184,79.6,0,0.000885,0,0
0:3:49.410,625.771,79.6758,0,0.000885,0,0
0:3:49.813,627.359,79.8758,0,0.000885,0,0
0:3:50.216,628.534,80.0274,0,0.000885,0,0
0:3:50.617,629.352,80.1309,0,0.000885,0,0
0:3:51.016,631.114,80.3584,0,0.000885,0,0
0:3:51.409,631.994,80.4687,0,0.000885,0,0
0:3:51.806,632.875,80.579,0,0.000885,0,0
0:3:52.204,633.347,80.6411,0,0.000885,0,0
0:3:52.602,634.694,80.8135,0,0.000885,0,0
0:3:53.009,635.984,80.9789,0,0.000885,0,0
0:3:53.403,636.572,81.0479,0,0.000885,0,0
0:3:53.808,637.924,81.2202,0,0.000885,0,0
0:3:54.212,638.92,81.3512,0,0.000885,0,0
0:3:54.616,639.685,81.4478,0,0.000885,0,0
0:3:55.016,640.975,81.6132,0,0.000885,0,0
0:3:55.411,642.443,81.7994,0,0.000885,0,0
0:3:55.810,643.618,81.9511,0,0.000885,0,0
0:3:56.208,644.498,82.0614,0,0.000885,0,0
0:3:56.604,645.673,82.2062,0,0.000885,0,0
0:3:57.009,646.669,82.3372,0,0.000885,0,0
0:3:57.408,648.373,82.5509,0,0.000885,0,0
0:3:57.806,648.902,82.6199,0,0.000885,0,0
0:3:58.212,650.134,82.7785,0,0.000885,0,0
0:3:58.609,651.718,82.9784,0,0.000885,0,0
0:3:59.012,652.892,83.1301,0,0.000885,0,0
0:3:59.417,654.067,83.2749,0,0.000885,0,0
0:3:59.818,655.005,83.399,0,0.000885,0,0
0:4:0.221,656.064,83.53,0,0.000885,0,0
0:4:0.616,656.882,83.6403,0,0.000885,0,0
0:4:1.013,657.999,83.7782,0,0.000885,0,0
0:4:1.414,659.582,83.9781,0,0.000885,0,0
0:4:1.810,659.996,84.0333,0,0.000885,0,0
0:4:2.204,660.641,84.116,0,0.000885,0,0
0:4:2.610,662.225,84.316,0,0.000885,0,0
0:4:3.009,663.341,84.4608,0,0.000885,0,0
0:4:3.407,664.458,84.5987,0,0.000885,0,0
0:4:3.802,665.69,84.7573,0,0.000885,0,0
0:4:4.208,666.686,84.8883,0,0.000885,0,0
0:4:4.611,667.683,85.0124,0,0.000885,0,0
0:4:5.013,668.977,85.1778,0,0.000885,0,0
0:4:5.416,669.68,85.2675,0,0.000885,0,0
0:4:5.812,671.148,85.4536,0,0.000885,0,0
0:4:6.206,672.144,85.5777,0,0.000885,0,0
0:4:6.603,673.963,85.8121,0,0.000885,0,0
0:4:7.003,675.022,85.9431,0,0.000885,0,0
0:4:7.410,676.018,86.0741,0,0.000885,0,0
0:4:7.806,676.899,86.1845,0,0.000885,0,0
0:4:8.210,677.722,86.2879,0,0.000885,0,0
0:4:8.608,679.07,86.4603,0,0.000885,0,0
0:4:9.009,679.835,86.5568,0,0.000885,0,0
0:4:9.414,681.067,86.7154,0,0.000885,0,0
0:4:9.817,682.357,86.8808,0,0.000885,0,0
0:4:10.219,682.944,86.9567,0,0.000885,0,0
0:4:10.619,684.59,87.1635,0,0.000885,0,0
0:4:11.017,685.351,87.26,0,0.000885,0,0
0:4:11.413,686.881,87.4531,0,0.000885,0,0
0:4:11.806,687.877,87.5841,0,0.000885,0,0
0:4:12.204,688.994,87.722,0,0.000885,0,0
0:4:12.603,689.812,87.8323,0,0.000885,0,0
0:4:13.010,690.635,87.9357,0,0.000885,0,0
0:4:13.404,691.458,88.0392,0,0.000885,0,0
0:4:13.808,692.926,88.2253,0,0.000885,0,0
0:4:14.212,694.274,88.3977,0,0.000885,0,0
0:4:14.614,695.742,88.5838,0,0.000885,0,0
0:4:15.018,696.329,88.6597,0,0.000885,0,0
0:4:15.415,697.561,88.8183,0,0.000885,0,0
0:4:15.809,698.678,88.9562,0,0.000885,0,0
0:4:16.210,700.026,89.1285,0,0.000885,0,0
0:4:16.609,701.142,89.2733,0,0.000885,0,0
0:4:17.004,701.965,89.3767,0,0.000885,0,0
0:4:17.397,703.139,89.5284,0,0.000885,0,0
0:4:17.795,704.314,89.6732,0,0.000885,0,0
0:4:18.193,705.137,89.7835,0,0.000885,0,0
0:4:18.591,706.075,89.9007,0,0.000885,0,0
0:4:18.996,707.307,90.0593,0,0.000885,0,0
0:4:19.400,708.126,90.1627,0,0.000885,0,0
0:4:19.803,709.478,90.3351,0,0.000885,0,0
0:4:20.206,710.181,90.4247,0,0.000885,0,0
0:4:20.612,711.413,90.5833,0,0.000885,0,0
0:4:21.008,713.41,90.8315,0,0.000885,0,0
0:4:21.412,714.349,90.9556,0,0.000885,0,0
0:4:21.812,715.172,91.0591,0,0.000885,0,0
0:4:22.210,715.875,91.1487,0,0.000885,0,0
0:4:22.606,716.933,91.2797,0,0.000885,0,0
0:4:23.012,718.459,91.4796,0,0.000885,0,0
0:4:23.407,719.282,91.5831,0,0.000885,0,0
0:4:23.808,720.336,91.7141,0,0.000885,0,0
0:4:24.213,721.395,91.852,0,0.000885,0,0
0:4:24.615,722.569,92.0036,0,0.000885,0,0
0:4:25.017,723.508,92.1209,0,0.000885,0,0
0:4:25.416,724.976,92.307,0,0.000885,0,0
0:4:25.813,726.444,92.4932,0,0.000885,0,0
0:4:26.211,727.618,92.6449,0,0.000885,0,0
0:4:26.607,728.027,92.6931,0,0.000885,0,0
0:4:27.000,729.081,92.831,0,0.000885,0,0
0:4:27.410,730.549,93.0172,0,0.000885,0,0
0:4:27.810,731.844,93.1826,0,0.000885,0,0
0:4:28.207,733.427,93.3826,0,0.000885,0,0
0:4:28.611,733.899,93.4446,0,0.000885,0,0
0:4:29.016,734.717,93.5481,0,0.000885,0,0
0:4:29.419,735.892,93.6998,0,0.000885,0,0
0:4:29.823,736.714,93.8032,0,0.000885,0,0
0:4:30.226,737.889,93.948,0,0.000885,0,0
0:4:30.623,739.121,94.1065,0,0.000885,0,0
0:4:31.019,740.117,94.2375,0,0.000885,0,0
0:4:31.418,741.763,94.4444,0,0.000885,0,0
0:4:31.817,742.995,94.603,0,0.000885,0,0
0:4:32.211,743.467,94.6581,0,0.000885,0,0
0:4:32.607,744.637,94.8098,0,0.000885,0,0
0:4:33.013,746.105,94.996,0,0.000885,0,0
0:4:33.413,747.573,95.1821,0,0.000885,0,0
0:4:33.809,748.218,95.2649,0,0.000885,0,0
0:4:34.214,749.276,95.4028,0,0.000885,0,0
0:4:34.618,750.451,95.5475,0,0.000885,0,0
0:4:35.019,751.273,95.6579,0,0.000885,0,0
0:4:35.423,752.563,95.8164,0,0.000885,0,0
0:4:35.820,753.738,95.9681,0,0.000885,0,0
0:4:36.213,754.912,96.1198,0,0.000885,0,0
0:4:36.610,755.966,96.2508,0,0.000885,0,0
0:4:37.009,756.731,96.3473,0,0.000885,0,0
0:4:37.407,758.142,96.5266,0,0.000885,0,0
0:4:37.812,758.902,96.6231,0,0.000885,0,0
0:4:38.207,759.841,96.7472,0,0.000885,0,0
0:4:38.602,760.957,96.8851,0,0.000885,0,0
0:4:39.006,761.954,97.0161,0,0.000885,0,0
0:4:39.412,763.657,97.2299,0,0.000885,0,0
0:4:39.815,764.832,97.3816,0,0.000885,0,0
0:4:40.217,765.241,97.4367,0,0.000885,0,0
0:4:40.615,766.887,97.6436,0,0.000885,0,0
0:4:41.014,767.941,97.7746,0,0.000885,0,0
0:4:41.411,768.586,97.8573,0,0.000885,0,0
0:4:41.807,769.645,97.9952,0,0.000885,0,0
0:4:42.212,771.228,98.1951,0,0.000885,0,0
0:4:42.610,772.345,98.3399,0,0.000885,0,0
0:4:43.010,773.991,98.5468,0,0.000885,0,0
0:4:43.415,774.458,98.6088,0,0.000885,0,0
0:4:43.810,775.868,98.7881,0,0.000885,0,0
0:4:44.214,777.158,98.9536,0,0.000885,0,0
0:4:44.618,777.451,98.988,0,0.000885,0,0
0:4:45.021,778.804,99.1604,0,0.000885,0,0
0:4:45.424,780.561,99.381,0,0.000885,0,0
0:4:45.819,780.974,99.4362,0,0.000885,0,0
0:4:46.217,782.149,99.5879,0,0.000885,0,0
0:4:46.616,783.439,99.7533,0,0.000885,0,0
0:4:47.013,784.319,99.8637,0,0.000885,0,0
0:4:47.409,785.729,100.043,0,0.000885,0,0
0:4:47.800,786.904,100.195,0,0.000885,0,0
0:4:48.200,787.784,100.305,0,0.000885,0,0
0:4:48.611,788.959,100.45,0,0.000885,0,0
0:4:49.017,789.604,100.532,0,0.000885,0,0
0:4:49.420,790.778,100.684,0,0.000885,0,0
0:4:49.823,791.89,100.829,0,0.000885,0,0
0:4:50.221,793.242,101.001,0,0.000885,0,0
0:4:50.620,794.239,101.125,0,0.000885,0,0
0:4:51.014,795.24,101.25,0,0.000885,0,0
0:4:51.411,796.53,101.415,0,0.000885,0,0
0:4:51.809,797.233,101.505,0,0.000885,0,0
0:4:52.208,799.172,101.753,0,0.000885,0,0
0:4:52.601,799.759,101.829,0,0.000885,0,0
0:4:52.996,801.227,102.015,0,0.000885,0,0
0:4:53.402,802.103,102.125,0,0.000885,0,0
0:4:53.807,802.633,102.194,0,0.000885,0,0
0:4:54.213,804.336,102.408,0,0.000885,0,0
0:4:54.616,805.275,102.532,0,0.000885,0,0
0:4:55.018,806.858,102.732,0,0.000885,0,0
0:4:55.414,807.446,102.808,0,0.000885,0,0
0:4:55.814,808.269,102.911,0,0.000885,0,0
0:4:56.212,809.736,103.097,0,0.000885,0,0
0:4:56.617,810.791,103.235,0,0.000885,0,0
0:4:57.011,812.085,103.401,0,0.000885,0,0
0:4:57.410,813.082,103.525,0,0.000885,0,0
0:4:57.818,814.434,103.697,0,0.000885,0,0
0:4:58.216,815.079,103.78,0,0.000885,0,0
0:4:58.610,816.195,103.918,0,0.000885,0,0
0:4:59.013,816.898,104.007,0,0.000885,0,0
0:4:59.418,818.895,104.263,0,0.000885,0,0
0:4:59.820,819.42,104.331,0,0.000885,0,0
0:5:0.222,821.066,104.538,0,0.000885,0,0
0:5:0.617,821.36,104.58,0,0.000885,0,0
0:5:1.016,822.765,104.759,0,0.000885,0,0
0:5:1.415,823.588,104.862,0,0.000885,0,0
0:5:1.811,825.528,105.111,0,0.000885,0,0
0:5:2.204,826.053,105.18,0,0.000885,0,0
0:5:2.612,827.405,105.345,0,0.000885,0,0
0:5:3.009,828.108,105.442,0,0.000885,0,0
0:5:3.411,829.811,105.655,0,0.000885,0,0
0:5:3.816,830.634,105.759,0,0.000885,0,0
0:5:4.221,832.04,105.938,0,0.000885,0,0
0:5:4.625,832.805,106.034,0,0.000885,0,0
0:5:5.026,834.157,106.207,0,0.000885,0,0
0:5:5.428,834.976,106.31,0,0.000885,0,0
0:5:5.824,836.27,106.476,0,0.000885,0,0
0:5:6.220,837.444,106.627,0,0.000885,0,0
0:5:6.617,838.556,106.765,0,0.000885,0,0
0:5:7.014,839.495,106.889,0,0.000885,0,0
0:5:7.413,840.26,106.986,0,0.000885,0,0
0:5:7.809,840.79,107.055,0,0.000885,0,0
0:5:8.212,842.667,107.289,0,0.000885,0,0
0:5:8.612,843.369,107.379,0,0.000885,0,0
0:5:9.011,844.602,107.538,0,0.000885,0,0
0:5:9.417,846.132,107.731,0,0.000885,0,0
0:5:9.820,847.364,107.889,0,0.000885,0,0
0:5:10.222,848.067,107.979,0,0.000885,0,0
0:5:10.622,849.708,108.186,0,0.000885,0,0
0:5:11.021,850.415,108.275,0,0.000885,0,0
0:5:11.416,850.945,108.344,0,0.000885,0,0
0:5:11.811,852.586,108.558,0,0.000885,0,0
0:5:12.209,853.818,108.71,0,0.000885,0,0
0:5:12.617,855.051,108.868,0,0.000885,0,0
0:5:13.013,855.58,108.937,0,0.000885,0,0
0:5:13.417,857.048,109.123,0,0.000885,0,0
0:5:13.819,858.631,109.323,0,0.000885,0,0
0:5:14.224,859.218,109.399,0,0.000885,0,0
0:5:14.627,860.686,109.585,0,0.000885,0,0
0:5:15.029,862.27,109.785,0,0.000885,0,0
0:5:15.424,862.919,109.868,0,0.000885,0,0
0:5:15.822,864.094,110.02,0,0.000885,0,0
0:5:16.222,864.797,110.109,0,0.000885,0,0
0:5:16.617,865.557,110.206,0,0.000885,0,0
0:5:17.012,866.38,110.309,0,0.000885,0,0
0:5:17.410,868.199,110.544,0,0.000885,0,0
0:5:17.804,868.729,110.613,0,0.000885,0,0
0:5:18.214,869.61,110.723,0,0.000885,0,0
0:5:18.609,871.077,110.909,0,0.000885,0,0
0:5:19.012,872.661,111.109,0,0.000885,0,0
0:5:19.416,873.306,111.192,0,0.000885,0,0
0:5:19.819,874.187,111.302,0,0.000885,0,0
0:5:20.220,875.245,111.44,0,0.000885,0,0
0:5:20.616,877.065,111.674,0,0.000885,0,0
0:5:21.011,878.297,111.826,0,0.000885,0,0
0:5:21.412,878.884,111.902,0,0.000885,0,0
0:5:21.819,880.232,112.074,0,0.000885,0,0
0:5:22.213,881.7,112.26,0,0.000885,0,0
0:5:22.609,882.229,112.329,0,0.000885,0,0
0:5:23.016,883.346,112.474,0,0.000885,0,0
0:5:23.416,884.756,112.653,0,0.000885,0,0
0:5:23.811,885.636,112.764,0,0.000885,0,0
0:5:24.217,885.988,112.805,0,0.000885,0,0
0:5:24.619,887.749,113.033,0,0.000885,0,0
0:5:25.022,889.155,113.212,0,0.000885,0,0
0:5:25.424,890.272,113.35,0,0.000885,0,0
0:5:25.820,891.562,113.515,0,0.000885,0,0
0:5:26.214,892.033,113.577,0,0.000885,0,0
0:5:26.616,893.559,113.77,0,0.000885,0,0
0:5:27.013,894.324,113.867,0,0.000885,0,0
0:5:27.419,895.378,114.005,0,0.000885,0,0
0:5:27.814,896.668,114.17,0,0.000885,0,0
0:5:28.211,897.375,114.26,0,0.000885,0,0
0:5:28.611,898.314,114.377,0,0.000885,0,0
0:5:29.017,899.782,114.563,0,0.000885,0,0
0:5:29.419,900.778,114.687,0,0.000885,0,0
0:5:29.820,902.304,114.887,0,0.000885,0,0
0:5:30.220,903.478,115.032,0,0.000885,0,0
0:5:30.619,904.417,115.156,0,0.000885,0,0
0:5:31.014,905.062,115.239,0,0.000885,0,0
0:5:31.405,906.592,115.432,0,0.000885,0,0
0:5:31.815,907.531,115.549,0,0.000885,0,0
0:5:32.213,908.999,115.735,0,0.000885,0,0
0:5:32.619,909.586,115.811,0,0.000885,0,0
0:5:33.014,910.524,115.928,0,0.000885,0,0
0:5:33.408,912.223,116.149,0,0.000885,0,0
0:5:33.813,913.224,116.273,0,0.000885,0,0
0:5:34.216,914.75,116.466,0,0.000885,0,0
0:5:34.619,915.689,116.59,0,0.000885,0,0
0:5:35.019,916.449,116.687,0,0.000885,0,0
0:5:35.418,917.157,116.777,0,0.000885,0,0
0:5:35.815,918.389,116.935,0,0.000885,0,0
0:5:36.213,919.327,117.052,0,0.000885,0,0
0:5:36.617,920.68,117.225,0,0.000885,0,0
0:5:37.013,921.734,117.356,0,0.000885,0,0
0:5:37.412,923.086,117.528,0,0.000885,0,0
0:5:37.810,923.495,117.583,0,0.000885,0,0
0:5:38.217,924.785,117.749,0,0.000885,0,0
0:5:38.611,925.724,117.866,0,0.000885,0,0
0:5:39.014,926.84,118.011,0,0.000885,0,0
0:5:39.419,928.544,118.224,0,0.000885,0,0
0:5:39.820,929.598,118.362,0,0.000885,0,0
0:5:40.223,930.893,118.528,0,0.000885,0,0
0:5:40.619,932.005,118.666,0,0.000885,0,0
0:5:41.016,933.299,118.831,0,0.000885,0,0
0:5:41.415,934.18,118.941,0,0.000885,0,0
0:5:41.809,935.176,119.072,0,0.000885,0,0
0:5:42.214,936.115,119.19,0,0.000885,0,0
0:5:42.613,936.938,119.293,0,0.000885,0,0
0:5:43.009,937.819,119.403,0,0.000885,0,0
0:5:43.415,939.638,119.638,0,0.000885,0,0
0:5:43.812,940.692,119.776,0,0.000885,0,0
0:5:44.215,941.573,119.886,0,0.000885,0,0
0:5:44.620,942.747,120.038,0,0.000885,0,0
0:5:45.021,944.629,120.272,0,0.000885,0,0
0:5:45.425,945.51,120.382,0,0.000885,0,0
0:5:45.820,945.977,120.445,0,0.000885,0,0
0:5:46.217,947.387,120.624,0,0.000885,0,0
0:5:46.616,948.677,120.789,0,0.000885,0,0
0:5:47.013,949.322,120.872,0,0.000885,0,0
0:5:47.416,950.087,120.969,0,0.000885,0,0
0:5:47.812,950.79,121.058,0,0.000885,0,0
0:5:48.209,952.609,121.293,0,0.000885,0,0
0:5:48.607,953.668,121.424,0,0.000885,0,0
0:5:49.012,954.428,121.52,0,0.000885,0,0
0:5:49.417,955.896,121.706,0,0.000885,0,0
0:5:49.818,957.191,121.872,0,0.000885,0,0
0:5:50.220,958.654,122.058,0,0.000885,0,0
0:5:50.617,959.771,122.203,0,0.000885,0,0
0:5:51.012,960.593,122.306,0,0.000885,0,0
0:5:51.417,961.123,122.375,0,0.000885,0,0
0:5:51.814,962.004,122.485,0,0.000885,0,0
0:5:52.214,963.529,122.678,0,0.000885,0,0
0:5:52.609,964.174,122.761,0,0.000885,0,0
0:5:53.015,966.109,123.009,0,0.000885,0,0
0:5:53.420,965.936,122.989,0,0.000885,0,0
0:5:53.821,967.226,123.154,0,0.000885,0,0
0:5:54.225,967.697,123.209,0,0.000885,0,0
0:5:54.628,969.165,123.395,0,0.000885,0,0
0:5:55.031,970.749,123.602,0,0.000885,0,0
0:5:55.432,971.629,123.713,0,0.000885,0,0
0:5:55.830,972.684,123.844,0,0.000885,0,0
0:5:56.224,973.858,123.995,0,0.000885,0,0
0:5:56.620,975.562,124.209,0,0.000885,0,0
0:5:57.017,976.91,124.381,0,0.000885,0,0
0:5:57.417,978.498,124.588,0,0.000885,0,0
0:5:57.812,979.2,124.678,0,0.000885,0,0
0:5:58.217,980.081,124.788,0,0.000885,0,0
0:5:58.613,981.843,125.009,0,0.000885,0,0
0:5:59.015,983.133,125.174,0,0.000885,0,0
0:5:59.421,984.307,125.326,0,0.000885,0,0
0:5:59.824,984.952,125.409,0,0.000885,0,0
0:6:0.225,986.068,125.554,0,0.000885,0,0
0:6:0.623,986.304,125.581,0,0.000885,0,0
0:6:1.021,987.946,125.788,0,0.000885,0,0
0:6:1.419,988.533,125.864,0,0.000885,0,0
0:6:1.814,990.414,126.105,0,0.000885,0,0
0:6:2.207,991.469,126.236,0,0.000885,0,0
0:6:2.620,992.643,126.388,0,0.000885,0,0
0:6:3.017,993.875,126.546,0,0.000885,0,0
0:6:3.410,995.459,126.746,0,0.000885,0,0
0:6:3.817,996.753,126.912,0,0.000885,0,0
0:6:4.220,996.166,126.836,0,0.000885,0,0
0:6:4.625,997.634,127.022,0,0.000885,0,0
0:6:5.026,999.275,127.229,0,0.000885,0,0
0:6:5.428,999.747,127.291,0,0.000885,0,0
0:6:5.824,1001.57,127.525,0,0.000885,0,0
0:6:6.222,1002.39,127.629,0,0.000885,0,0
0:6:6.621,1003.62,127.787,0,0.000885,0,0
0:6:7.017,1003.85,127.815,0,0.000885,0,0
0:6:7.410,1005.97,128.084,0,0.000885,0,0
0:6:7.820,1006.32,128.125,0,0.000885,0,0
0:6:8.218,1008.08,128.353,0,0.000885,0,0
0:6:8.623,1008.96,128.463,0,0.000885,0,0
0:6:9.027,1009.61,128.546,0,0.000885,0,0
0:6:9.431,1011.78,128.822,0,0.000885,0,0
0:6:9.833,1011.84,128.829,0,0.000885,0,0
0:6:10.236,1012.78,128.953,0,0.000885,0,0
0:6:10.632,1014.71,129.194,0,0.000885,0,0
0:6:11.025,1015.12,129.249,0,0.000885,0,0
0:6:11.424,1016.65,129.442,0,0.000885,0,0
0:6:11.823,1017.47,129.546,0,0.000885,0,0
0:6:12.218,1019.18,129.766,0,0.000885,0,0
0:6:12.611,1020.06,129.877,0,0.000885,0,0
0:6:13.019,1020.82,129.973,0,0.000885,0,0
0:6:13.418,1021.64,130.076,0,0.000885,0,0
0:6:13.816,1023.11,130.27,0,0.000885,0,0
0:6:14.222,1024.46,130.435,0,0.000885,0,0
0:6:14.624,1024.93,130.497,0,0.000885,0,0
0:6:15.027,1026.45,130.69,0,0.000885,0,0
0:6:15.428,1026.51,130.697,0,0.000885,0,0
0:6:15.582,1026.34,130.676,0,0.000885,0,0