File: DataFile2021-06-29_044426.csv
Test ID:,Date Tested:,Time:,Test Type:,Width (mm):,Depth (mm):,Height (mm):,Age (days):,Weight (kN):,Ramp Rate (MPa/s):,Load at Break (kN):,Stress at Break (MPa):
12,6/29/2021,04:44,Cube,100,100,100,7,8.37,0.01,38.24,3.83
Sample Time,Load (kN),Stress (MPa),Long. Strain,Trans. Strain,Chan1 Deflection (mm),Chan2 Deflection (mm)
0:0:14.244,9.67933,0.965266,0,0.000885,0,0
0:0:14.341,10.44,1.04111,0,0.000885,0,0
0:0:14.437,10.44,1.04111,0,0.000885,0,0
0:0:14.535,10.3821,1.04111,0,0.000885,0,0
0:0:14.634,10.3821,1.04111,0,0.000885,0,0
0:0:14.731,10.5556,1.0549,0,0.000885,0,0
0:0:14.828,10.5556,1.0549,0,0.000885,0,0
0:0:14.925,10.6757,1.06869,0,0.000885,0,0
0:0:15.024,10.3243,1.03421,0,0.000885,0,0
0:0:15.123,10.4978,1.048,0,0.000885,0,0
0:0:15.222,10.4978,1.048,0,0.000885,0,0
0:0:15.327,10.44,1.04111,0,0.000885,0,0
0:0:15.434,10.1464,1.01353,0,0.000885,0,0
0:0:15.531,10.2042,1.02042,0,0.000885,0,0
0:0:15.630,10.2042,1.02042,0,0.000885,0,0
0:0:15.728,10.4978,1.048,0,0.000885,0,0
0:0:15.836,10.5556,1.0549,0,0.000885,0,0
0:0:15.943,10.7914,1.08248,0,0.000885,0,0
0:0:16.042,10.7914,1.08248,0,0.000885,0,0
0:0:16.142,10.44,1.04111,0,0.000885,0,0
0:0:16.241,11.085,1.11006,0,0.000885,0,0
0:0:16.336,11.085,1.11006,0,0.000885,0,0
0:0:16.441,11.0271,1.10316,0,0.000885,0,0
0:0:16.540,10.9693,1.09627,0,0.000885,0,0
0:0:16.639,11.1428,1.11695,0,0.000885,0,0
0:0:16.738,11.1428,1.11695,0,0.000885,0,0
0:0:16.842,11.1428,1.11695,0,0.000885,0,0
0:0:16.940,11.3207,1.13074,0,0.000885,0,0
0:0:17.037,11.3786,1.13763,0,0.000885,0,0
0:0:17.137,11.3786,1.13763,0,0.000885,0,0
0:0:17.237,11.6143,1.15832,0,0.000885,0,0
0:0:17.342,12.0235,1.19969,0,0.000885,0,0
0:0:17.438,12.0235,1.19969,0,0.000885,0,0
0:0:17.536,12.0235,1.19969,0,0.000885,0,0
0:0:17.635,11.7878,1.179,0,0.000885,0,0
0:0:17.731,11.8456,1.1859,0,0.000885,0,0
0:0:17.840,12.2015,1.22037,0,0.000885,0,0
0:0:17.936,12.2015,1.22037,0,0.000885,0,0
0:0:18.031,12.2015,1.22037,0,0.000885,0,0
0:0:18.131,12.1392,1.21348,0,0.000885,0,0
0:0:18.230,12.1392,1.21348,0,0.000885,0,0
0:0:18.328,12.4328,1.24106,0,0.000885,0,0
0:0:18.436,12.9043,1.28932,0,0.000885,0,0
0:0:18.542,13.3135,1.33069,0,0.000885,0,0
0:0:18.641,13.3135,1.33069,0,0.000885,0,0
0:0:18.741,13.1356,1.3169,0,0.000885,0,0
0:0:18.839,13.5493,1.35827,0,0.000885,0,0
0:0:18.943,13.6649,1.36516,0,0.000885,0,0
0:0:19.041,13.6649,1.36516,0,0.000885,0,0
0:0:19.141,13.8429,1.38585,0,0.000885,0,0
0:0:19.241,13.6649,1.36516,0,0.000885,0,0
0:0:19.339,13.9007,1.39274,0,0.000885,0,0
0:0:19.443,13.9007,1.39274,0,0.000885,0,0
0:0:19.540,14.2521,1.42721,0,0.000885,0,0
0:0:19.638,14.4879,1.4479,0,0.000885,0,0
0:0:19.738,14.1364,1.41343,0,0.000885,0,0
0:0:19.837,14.1364,1.41343,0,0.000885,0,0
0:0:19.936,14.3099,1.43411,0,0.000885,0,0
0:0:20.036,14.7192,1.47548,0,0.000885,0,0
0:0:20.136,14.5457,1.45479,0,0.000885,0,0
0:0:20.235,14.5457,1.45479,0,0.000885,0,0
0:0:20.336,14.8393,1.48237,0,0.000885,0,0
0:0:20.436,15.1328,1.50995,0,0.000885,0,0
0:0:20.535,15.1328,1.50995,0,0.000885,0,0
0:0:20.631,15.3063,1.53064,0,0.000885,0,0
0:0:20.731,15.6577,1.56511,0,0.000885,0,0
0:0:20.831,15.8935,1.59269,0,0.000885,0,0
0:0:20.930,15.8935,1.59269,0,0.000885,0,0
0:0:21.029,16.0136,1.59958,0,0.000885,0,0
0:0:21.127,16.4228,1.64095,0,0.000885,0,0
0:0:21.227,16.5385,1.65474,0,0.000885,0,0
0:0:21.326,16.5385,1.65474,0,0.000885,0,0
0:0:21.426,16.5963,1.66164,0,0.000885,0,0
0:0:21.522,16.5963,1.66164,0,0.000885,0,0
0:0:21.628,16.9522,1.69611,0,0.000885,0,0
0:0:21.728,16.9522,1.69611,0,0.000885,0,0
0:0:21.827,17.0678,1.7099,0,0.000885,0,0
0:0:21.924,16.9522,1.69611,0,0.000885,0,0
0:0:22.029,16.8899,1.68922,0,0.000885,0,0
0:0:22.126,16.8899,1.68922,0,0.000885,0,0
0:0:22.225,16.9522,1.69611,0,0.000885,0,0
0:0:22.325,17.4771,1.74437,0,0.000885,0,0
0:0:22.423,17.4771,1.74437,0,0.000885,0,0
0:0:22.528,17.5972,1.75816,0,0.000885,0,0
0:0:22.637,17.5972,1.75816,0,0.000885,0,0
0:0:22.737,18.0642,1.80643,0,0.000885,0,0
0:0:22.835,18.0642,1.80643,0,0.000885,0,0
0:0:22.942,18.0642,1.80643,0,0.000885,0,0
0:0:23.038,18.4735,1.84779,0,0.000885,0,0
0:0:23.136,18.3,1.82711,0,0.000885,0,0
0:0:23.236,18.3,1.82711,0,0.000885,0,0
0:0:23.335,18.5357,1.85469,0,0.000885,0,0
0:0:23.430,18.3578,1.83401,0,0.000885,0,0
0:0:23.538,18.4735,1.84779,0,0.000885,0,0
0:0:23.635,18.4735,1.84779,0,0.000885,0,0
0:0:23.731,18.4735,1.84779,0,0.000885,0,0
0:0:23.831,18.8871,1.88916,0,0.000885,0,0
0:0:23.929,18.7092,1.86848,0,0.000885,0,0
0:0:24.036,18.7092,1.86848,0,0.000885,0,0
0:0:24.131,18.8249,1.88227,0,0.000885,0,0
0:0:24.230,19.0028,1.90295,0,0.000885,0,0
0:0:24.329,19.1185,1.90985,0,0.000885,0,0
0:0:24.441,19.1185,1.90985,0,0.000885,0,0
0:0:24.539,19.412,1.94432,0,0.000885,0,0
0:0:24.641,19.7056,1.9719,0,0.000885,0,0
0:0:24.740,19.7056,1.9719,0,0.000885,0,0
0:0:24.840,19.7056,1.9719,0,0.000885,0,0
0:0:24.939,19.7056,1.9719,0,0.000885,0,0
0:0:25.038,19.6478,1.96501,0,0.000885,0,0
0:0:25.137,19.6478,1.96501,0,0.000885,0,0
0:0:25.237,20.1771,2.02016,0,0.000885,0,0
0:0:25.337,20.235,2.02016,0,0.000885,0,0
0:0:25.437,20.4084,2.04085,0,0.000885,0,0
0:0:25.532,20.4084,2.04085,0,0.000885,0,0
0:0:25.632,20.6442,2.06153,0,0.000885,0,0
0:0:25.731,20.6442,2.06153,0,0.000885,0,0
0:0:25.832,20.7643,2.07532,0,0.000885,0,0
0:0:25.931,20.7643,2.07532,0,0.000885,0,0
0:0:26.039,20.702,2.06843,0,0.000885,0,0
0:0:26.145,21.0534,2.1029,0,0.000885,0,0
0:0:26.245,21.0534,2.1029,0,0.000885,0,0
0:0:26.345,21.0534,2.1029,0,0.000885,0,0
0:0:26.443,20.9956,2.1029,0,0.000885,0,0
0:0:26.540,21.1735,2.11669,0,0.000885,0,0
0:0:26.636,21.1735,2.11669,0,0.000885,0,0
0:0:26.731,21.1735,2.11669,0,0.000885,0,0
0:0:26.832,21.4093,2.13737,0,0.000885,0,0
0:0:26.930,21.7029,2.17185,0,0.000885,0,0
0:0:27.039,21.7029,2.17185,0,0.000885,0,0
0:0:27.144,21.7029,2.17185,0,0.000885,0,0
0:0:27.243,21.5249,2.15116,0,0.000885,0,0
0:0:27.343,21.8185,2.17874,0,0.000885,0,0
0:0:27.443,22.2278,2.22011,0,0.000885,0,0
0:0:27.539,22.2278,2.22011,0,0.000885,0,0
0:0:27.635,22.4635,2.24769,0,0.000885,0,0
0:0:27.731,22.7571,2.27527,0,0.000885,0,0
0:0:27.832,22.7571,2.27527,0,0.000885,0,0
0:0:27.931,22.7571,2.27527,0,0.000885,0,0
0:0:28.040,22.9306,2.29595,0,0.000885,0,0
0:0:28.144,23.1663,2.31664,0,0.000885,0,0
0:0:28.243,23.1663,2.31664,0,0.000885,0,0
0:0:28.343,23.0507,2.30285,0,0.000885,0,0
0:0:28.442,23.2242,2.32353,0,0.000885,0,0
0:0:28.538,23.6378,2.3649,0,0.000885,0,0
0:0:28.645,23.6378,2.3649,0,0.000885,0,0
0:0:28.742,23.4599,2.34422,0,0.000885,0,0
0:0:28.842,23.4021,2.33732,0,0.000885,0,0
0:0:28.941,23.3443,2.33732,0,0.000885,0,0
0:0:29.038,23.3443,2.33732,0,0.000885,0,0
0:0:29.143,23.4599,2.34422,0,0.000885,0,0
0:0:29.240,23.3443,2.33732,0,0.000885,0,0
0:0:29.339,23.5177,2.35111,0,0.000885,0,0
0:0:29.439,23.5177,2.35111,0,0.000885,0,0
0:0:29.538,23.8113,2.37869,0,0.000885,0,0
0:0:29.639,23.8692,2.38559,0,0.000885,0,0
0:0:29.739,23.8692,2.38559,0,0.000885,0,0
0:0:29.839,23.9893,2.39938,0,0.000885,0,0
0:0:29.939,24.1627,2.41317,0,0.000885,0,0
0:0:30.040,24.2206,2.42006,0,0.000885,0,0
0:0:30.138,24.2206,2.42006,0,0.000885,0,0
0:0:30.238,24.3407,2.43385,0,0.000885,0,0
0:0:30.338,24.87,2.48901,0,0.000885,0,0
0:0:30.438,25.515,2.55106,0,0.000885,0,0
0:0:30.536,25.515,2.55106,0,0.000885,0,0
0:0:30.632,25.3949,2.53727,0,0.000885,0,0
0:0:30.732,25.4527,2.54417,0,0.000885,0,0
0:0:30.832,25.8041,2.57864,0,0.000885,0,0
0:0:30.931,25.8041,2.57864,0,0.000885,0,0
0:0:31.031,25.9242,2.59243,0,0.000885,0,0
0:0:31.139,26.2756,2.6269,0,0.000885,0,0
0:0:31.244,26.2178,2.62001,0,0.000885,0,0
0:0:31.344,26.2178,2.62001,0,0.000885,0,0
0:0:31.443,26.5114,2.64759,0,0.000885,0,0
0:0:31.542,26.5692,2.65448,0,0.000885,0,0
0:0:31.637,26.5692,2.65448,0,0.000885,0,0
0:0:31.743,26.5692,2.65448,0,0.000885,0,0
0:0:31.843,26.5114,2.64759,0,0.000885,0,0
0:0:31.942,26.9206,2.68896,0,0.000885,0,0
0:0:32.042,27.3299,2.73032,0,0.000885,0,0
0:0:32.138,27.3299,2.73032,0,0.000885,0,0
0:0:32.242,27.0363,2.70274,0,0.000885,0,0
0:0:32.342,27.5078,2.75101,0,0.000885,0,0
0:0:32.442,27.5078,2.75101,0,0.000885,0,0
0:0:32.540,27.6813,2.77169,0,0.000885,0,0
0:0:32.645,27.6235,2.7648,0,0.000885,0,0
0:0:32.741,27.9749,2.79927,0,0.000885,0,0
0:0:32.841,27.9749,2.79927,0,0.000885,0,0
0:0:32.941,28.1528,2.81306,0,0.000885,0,0
0:0:33.040,27.8592,2.78548,0,0.000885,0,0
0:0:33.137,28.3263,2.83375,0,0.000885,0,0
0:0:33.242,28.3263,2.83375,0,0.000885,0,0
0:0:33.342,28.0371,2.80617,0,0.000885,0,0
0:0:33.441,28.5042,2.84753,0,0.000885,0,0
0:0:33.539,28.2684,2.82685,0,0.000885,0,0
0:0:33.632,28.2684,2.82685,0,0.000885,0,0
0:0:33.741,28.7978,2.88201,0,0.000885,0,0
0:0:33.839,28.9713,2.8958,0,0.000885,0,0
0:0:33.937,28.6821,2.86822,0,0.000885,0,0
0:0:34.037,28.6821,2.86822,0,0.000885,0,0
0:0:34.132,29.1492,2.91648,0,0.000885,0,0
0:0:34.241,29.2648,2.92338,0,0.000885,0,0
0:0:34.340,29.2648,2.92338,0,0.000885,0,0
0:0:34.440,29.3271,2.93027,0,0.000885,0,0
0:0:34.538,29.2648,2.92338,0,0.000885,0,0
0:0:34.638,29.4428,2.94406,0,0.000885,0,0
0:0:34.739,29.4428,2.94406,0,0.000885,0,0
0:0:34.839,29.852,2.98543,0,0.000885,0,0
0:0:34.940,29.7364,2.97164,0,0.000885,0,0
0:0:35.040,30.0299,3.00611,0,0.000885,0,0
0:0:35.137,30.0299,3.00611,0,0.000885,0,0
0:0:35.237,30.0878,3.00611,0,0.000885,0,0
0:0:35.337,30.3235,3.03369,0,0.000885,0,0
0:0:35.436,30.3235,3.03369,0,0.000885,0,0
0:0:35.532,30.3235,3.03369,0,0.000885,0,0
0:0:35.630,30.3235,3.03369,0,0.000885,0,0
0:0:35.730,30.497,3.04748,0,0.000885,0,0
0:0:35.830,30.7328,3.07506,0,0.000885,0,0
0:0:35.929,30.7328,3.07506,0,0.000885,0,0
0:0:36.029,30.6749,3.06817,0,0.000885,0,0
0:0:36.126,30.7906,3.08196,0,0.000885,0,0
0:0:36.231,30.7906,3.08196,0,0.000885,0,0
0:0:36.330,31.0263,3.10264,0,0.000885,0,0
0:0:36.430,30.6171,3.06127,0,0.000885,0,0
0:0:36.529,30.9685,3.09575,0,0.000885,0,0
0:0:36.637,30.9685,3.09575,0,0.000885,0,0
0:0:36.743,31.2621,3.12333,0,0.000885,0,0
0:0:36.840,31.4934,3.1509,0,0.000885,0,0
0:0:36.940,31.7292,3.17159,0,0.000885,0,0
0:0:37.040,31.7292,3.17159,0,0.000885,0,0
0:0:37.137,31.5557,3.1578,0,0.000885,0,0
0:0:37.232,31.787,3.17848,0,0.000885,0,0
0:0:37.342,31.8493,3.18538,0,0.000885,0,0
0:0:37.442,31.8493,3.18538,0,0.000885,0,0
0:0:37.541,32.3163,3.23364,0,0.000885,0,0
0:0:37.637,32.3742,3.24054,0,0.000885,0,0
0:0:37.743,32.3742,3.24054,0,0.000885,0,0
0:0:37.840,32.3742,3.24054,0,0.000885,0,0
0:0:37.941,32.4943,3.24743,0,0.000885,0,0
0:0:38.039,32.7834,3.2819,0,0.000885,0,0
0:0:38.136,33.077,3.30948,0,0.000885,0,0
0:0:38.231,33.077,3.30948,0,0.000885,0,0
0:0:38.329,33.1971,3.31638,0,0.000885,0,0
0:0:38.429,33.077,3.30948,0,0.000885,0,0
0:0:38.526,33.077,3.30948,0,0.000885,0,0
0:0:38.633,33.1393,3.31638,0,0.000885,0,0
0:0:38.741,33.3127,3.33017,0,0.000885,0,0
0:0:38.838,33.6063,3.35775,0,0.000885,0,0
0:0:38.939,33.6063,3.35775,0,0.000885,0,0
0:0:39.038,33.6641,3.36464,0,0.000885,0,0
0:0:39.145,33.6641,3.36464,0,0.000885,0,0
0:0:39.241,33.6063,3.35775,0,0.000885,0,0
0:0:39.339,33.6063,3.35775,0,0.000885,0,0
0:0:39.438,33.8999,3.39222,0,0.000885,0,0
0:0:39.538,34.0778,3.40601,0,0.000885,0,0
0:0:39.638,34.1935,3.4198,0,0.000885,0,0
0:0:39.738,34.1935,3.4198,0,0.000885,0,0
0:0:39.839,34.367,3.43359,0,0.000885,0,0
0:0:39.940,34.8385,3.48185,0,0.000885,0,0
0:0:40.039,35.1321,3.51633,0,0.000885,0,0
0:0:40.139,35.1321,3.51633,0,0.000885,0,0
0:0:40.238,34.8963,3.48875,0,0.000885,0,0
0:0:40.338,34.9541,3.49564,0,0.000885,0,0
0:0:40.437,35.1899,3.51633,0,0.000885,0,0
0:0:40.537,35.1899,3.51633,0,0.000885,0,0
0:0:40.632,35.3055,3.53012,0,0.000885,0,0
0:0:40.733,35.3678,3.53701,0,0.000885,0,0
0:0:40.832,35.6614,3.56459,0,0.000885,0,0
0:0:40.932,35.6614,3.56459,0,0.000885,0,0
0:0:41.031,35.6614,3.56459,0,0.000885,0,0
0:0:41.141,35.5991,3.55769,0,0.000885,0,0
0:0:41.237,35.5991,3.55769,0,0.000885,0,0
0:0:41.343,35.8349,3.58527,0,0.000885,0,0
0:0:41.442,35.7192,3.57148,0,0.000885,0,0
0:0:41.541,35.777,3.57838,0,0.000885,0,0
0:0:41.641,35.777,3.57838,0,0.000885,0,0
0:0:41.737,36.1863,3.61975,0,0.000885,0,0
0:0:41.843,36.3642,3.63354,0,0.000885,0,0
0:0:41.942,36.3064,3.63354,0,0.000885,0,0
0:0:42.041,36.3064,3.63354,0,0.000885,0,0
0:0:42.141,36.8313,3.6818,0,0.000885,0,0
0:0:42.245,36.6,3.66112,0,0.000885,0,0
0:0:42.342,37.245,3.72317,0,0.000885,0,0
0:0:42.440,37.245,3.72317,0,0.000885,0,0
0:0:42.540,36.7734,3.67491,0,0.000885,0,0
0:0:42.639,37.067,3.70938,0,0.000885,0,0
0:0:42.745,37.3028,3.73006,0,0.000885,0,0
0:0:42.841,37.3028,3.73006,0,0.000885,0,0
0:0:42.939,37.9478,3.79212,0,0.000885,0,0
0:0:43.040,37.5385,3.75075,0,0.000885,0,0
0:0:43.138,37.7698,3.77833,0,0.000885,0,0
0:0:43.244,37.7698,3.77833,0,0.000885,0,0
0:0:43.339,37.5385,3.75075,0,0.000885,0,0
0:0:43.437,37.89,3.79212,0,0.000885,0,0
0:0:43.537,37.89,3.79212,0,0.000885,0,0
0:0:43.632,37.6542,3.76454,0,0.000885,0,0
0:0:43.731,38.0634,3.80591,0,0.000885,0,0
0:0:43.827,37.9478,3.79212,0,0.000885,0,0
0:0:43.937,37.9478,3.79212,0,0.000885,0,0
0:0:44.033,38.0056,3.79901,0,0.000885,0,0
0:0:44.133,38.2414,3.82659,0,0.000885,0,0
0:0:44.230,38.2992,3.82659,0,0.000885,0,0
0:0:44.338,38.2992,3.82659,0,0.000885,0,0
0:0:44.432,38.2414,3.82659,0,0.000885,0,0
0:0:44.533,38.5349,3.85417,0,0.000885,0,0
0:0:44.632,38.2414,3.82659,0,0.000885,0,0
0:0:44.730,38.2414,3.82659,0,0.000885,0,0
0:0:44.829,38.4727,3.84727,0,0.000885,0,0
0:0:44.931,38.4727,3.84727,0,0.000885,0,0
0:0:45.030,38.0634,3.80591,0,0.000885,0,0
0:0:45.130,38.0634,3.80591,0,0.000885,0,0
0:0:45.229,37.89,3.79212,0,0.000885,0,0
0:0:45.329,37.9478,3.79212,0,0.000885,0,0
0:0:45.427,37.9478,3.79212,0,0.000885,0,0
0:0:45.527,38.0634,3.80591,0,0.000885,0,0
0:0:45.627,37.4184,3.74385,0,0.000885,0,0
0:0:45.725,37.0092,3.70248,0,0.000885,0,0
0:0:45.824,37.0092,3.70248,0,0.000885,0,0
0:0:45.924,36.422,3.64043,0,0.000885,0,0
0:0:46.023,36.0706,3.60596,0,0.000885,0,0
0:0:46.123,36.3064,3.63354,0,0.000885,0,0
0:0:46.221,36.3064,3.63354,0,0.000885,0,0
0:0:46.327,36.3064,3.63354,0,0.000885,0,0
0:0:46.432,36.0128,3.59906,0,0.000885,0,0
0:0:46.532,35.777,3.57838,0,0.000885,0,0
0:0:46.632,35.777,3.57838,0,0.000885,0,0
0:0:46.730,35.777,3.57838,0,0.000885,0,0
0:0:46.838,35.2477,3.52322,0,0.000885,0,0
0:0:46.944,35.3055,3.53012,0,0.000885,0,0
0:0:47.044,35.3055,3.53012,0,0.000885,0,0
0:0:47.143,35.0164,3.50254,0,0.000885,0,0
0:0:47.241,34.5449,3.45427,0,0.000885,0,0
0:0:47.346,34.0778,3.40601,0,0.000885,0,0
0:0:47.443,34.0778,3.40601,0,0.000885,0,0
0:0:47.542,33.6063,3.35775,0,0.000885,0,0
0:0:47.642,32.9035,3.2888,0,0.000885,0,0
0:0:47.739,32.2007,3.21985,0,0.000885,0,0
0:0:47.845,32.2007,3.21985,0,0.000885,0,0
0:0:47.942,31.8493,3.18538,0,0.000885,0,0
0:0:48.041,31.2043,3.12333,0,0.000885,0,0
0:0:48.140,31.2043,3.12333,0,0.000885,0,0
0:0:48.239,30.6749,3.06817,0,0.000885,0,0
0:0:48.344,29.852,2.98543,0,0.000885,0,0
0:0:48.440,29.2648,2.92338,0,0.000885,0,0
0:0:48.539,29.2648,2.92338,0,0.000885,0,0
0:0:48.638,28.9134,2.8889,0,0.000885,0,0
0:0:48.734,28.562,2.85443,0,0.000885,0,0
0:0:48.843,28.095,2.80617,0,0.000885,0,0
0:0:48.939,28.095,2.80617,0,0.000885,0,0
0:0:49.047,27.7436,2.77169,0,0.000885,0,0
0:0:49.146,27.3299,2.73032,0,0.000885,0,0
0:0:49.246,27.0363,2.70274,0,0.000885,0,0
0:0:49.342,27.0363,2.70274,0,0.000885,0,0
0:0:49.446,26.9206,2.68896,0,0.000885,0,0
0:0:49.544,26.5114,2.64759,0,0.000885,0,0
0:0:49.644,26.0977,2.61311,0,0.000885,0,0
0:0:49.744,26.0977,2.61311,0,0.000885,0,0
0:0:49.844,25.7463,2.57174,0,0.000885,0,0
0:0:49.942,25.3949,2.53727,0,0.000885,0,0
0:0:50.043,25.4527,2.54417,0,0.000885,0,0
0:0:50.143,25.4527,2.54417,0,0.000885,0,0
0:0:50.243,25.1013,2.50969,0,0.000885,0,0
0:0:50.342,24.8077,2.48211,0,0.000885,0,0
0:0:50.442,24.8077,2.48211,0,0.000885,0,0
0:0:50.540,24.9278,2.4959,0,0.000885,0,0
0:0:50.640,24.9857,2.4959,0,0.000885,0,0
0:0:50.739,24.8077,2.48211,0,0.000885,0,0
0:0:50.838,24.8077,2.48211,0,0.000885,0,0
0:0:50.935,24.6921,2.46832,0,0.000885,0,0
0:0:51.033,24.4563,2.44764,0,0.000885,0,0
0:0:51.133,24.5141,2.45453,0,0.000885,0,0
0:0:51.233,24.5141,2.45453,0,0.000885,0,0
0:0:51.331,24.6921,2.46832,0,0.000885,0,0
0:0:51.439,24.5764,2.45453,0,0.000885,0,0
0:0:51.544,24.5141,2.45453,0,0.000885,0,0
0:0:51.643,24.5141,2.45453,0,0.000885,0,0
0:0:51.742,24.6343,2.46143,0,0.000885,0,0
0:0:51.841,24.6343,2.46143,0,0.000885,0,0
0:0:51.946,24.5764,2.45453,0,0.000885,0,0
0:0:52.043,24.5764,2.45453,0,0.000885,0,0
0:0:52.141,24.6921,2.46832,0,0.000885,0,0
0:0:52.241,24.6921,2.46832,0,0.000885,0,0
0:0:52.340,24.7499,2.47522,0,0.000885,0,0
0:0:52.445,24.7499,2.47522,0,0.000885,0,0
0:0:52.541,24.8077,2.48211,0,0.000885,0,0
0:0:52.639,24.9278,2.4959,0,0.000885,0,0
0:0:52.739,24.9278,2.4959,0,0.000885,0,0
0:0:52.835,24.5764,2.45453,0,0.000885,0,0
0:0:52.943,24.6921,2.46832,0,0.000885,0,0
0:0:53.040,24.6921,2.46832,0,0.000885,0,0
0:0:53.135,24.6921,2.46832,0,0.000885,0,0
0:0:53.238,24.9857,2.4959,0,0.000885,0,0
0:0:53.334,25.1591,2.51659,0,0.000885,0,0
0:0:53.443,25.1591,2.51659,0,0.000885,0,0
0:0:53.539,25.1591,2.51659,0,0.000885,0,0
0:0:53.646,24.87,2.48901,0,0.000885,0,0
0:0:53.744,24.9278,2.4959,0,0.000885,0,0
0:0:53.844,25.3371,2.53038,0,0.000885,0,0
0:0:53.941,25.3371,2.53038,0,0.000885,0,0
0:0:54.045,25.1013,2.50969,0,0.000885,0,0
0:0:54.144,24.9857,2.4959,0,0.000885,0,0
0:0:54.244,25.2792,2.53038,0,0.000885,0,0
0:0:54.342,25.2792,2.53038,0,0.000885,0,0
0:0:54.440,24.8077,2.48211,0,0.000885,0,0
0:0:54.545,24.9278,2.4959,0,0.000885,0,0
0:0:54.642,25.2792,2.53038,0,0.000885,0,0
0:0:54.740,25.2792,2.53038,0,0.000885,0,0
0:0:54.840,24.9857,2.4959,0,0.000885,0,0
0:0:54.940,25.1013,2.50969,0,0.000885,0,0
0:0:55.039,25.1013,2.50969,0,0.000885,0,0
0:0:55.140,24.8077,2.48211,0,0.000885,0,0
0:0:55.240,24.8077,2.48211,0,0.000885,0,0
0:0:55.339,24.6343,2.46143,0,0.000885,0,0
0:0:55.439,24.6343,2.46143,0,0.000885,0,0
0:0:55.539,24.5764,2.45453,0,0.000885,0,0
0:0:55.635,24.87,2.48901,0,0.000885,0,0
0:0:55.734,24.9278,2.4959,0,0.000885,0,0
0:0:55.832,24.9278,2.4959,0,0.000885,0,0
0:0:55.932,24.6921,2.46832,0,0.000885,0,0
0:0:56.031,25.1591,2.51659,0,0.000885,0,0
0:0:56.131,24.9278,2.4959,0,0.000885,0,0
0:0:56.229,24.9278,2.4959,0,0.000885,0,0
0:0:56.327,24.87,2.48901,0,0.000885,0,0
0:0:56.427,24.6343,2.46143,0,0.000885,0,0
0:0:56.525,24.6343,2.46143,0,0.000885,0,0
0:0:56.630,24.6921,2.46832,0,0.000885,0,0
0:0:56.727,24.8077,2.48211,0,0.000885,0,0
0:0:56.827,24.3985,2.44074,0,0.000885,0,0
0:0:56.926,24.3985,2.44074,0,0.000885,0,0
0:0:57.023,24.0471,2.40627,0,0.000885,0,0
0:0:57.128,23.9893,2.39938,0,0.000885,0,0
0:0:57.225,23.9893,2.39938,0,0.000885,0,0
0:0:57.323,23.9893,2.39938,0,0.000885,0,0
0:0:57.423,24.3985,2.44074,0,0.000885,0,0
0:0:57.522,24.3985,2.44074,0,0.000885,0,0
0:0:57.627,24.3407,2.43385,0,0.000885,0,0
0:0:57.724,24.3407,2.43385,0,0.000885,0,0
0:0:57.823,24.1627,2.41317,0,0.000885,0,0
0:0:57.922,24.1049,2.41317,0,0.000885,0,0
0:0:58.020,24.2206,2.42006,0,0.000885,0,0
0:0:58.125,24.2206,2.42006,0,0.000885,0,0
0:0:58.222,24.1627,2.41317,0,0.000885,0,0
0:0:58.321,23.7535,2.37869,0,0.000885,0,0
0:0:58.430,23.9893,2.39938,0,0.000885,0,0
0:0:58.528,23.9893,2.39938,0,0.000885,0,0
0:0:58.633,24.1049,2.41317,0,0.000885,0,0
0:0:58.741,24.1627,2.41317,0,0.000885,0,0
0:0:58.841,23.6378,2.3649,0,0.000885,0,0
0:0:58.940,23.6378,2.3649,0,0.000885,0,0
0:0:59.039,23.5756,2.35801,0,0.000885,0,0
0:0:59.144,23.4599,2.34422,0,0.000885,0,0
0:0:59.241,23.4021,2.33732,0,0.000885,0,0
0:0:59.339,23.4021,2.33732,0,0.000885,0,0
0:0:59.436,23.5756,2.35801,0,0.000885,0,0
0:0:59.535,23.7535,2.37869,0,0.000885,0,0
0:0:59.634,23.7535,2.37869,0,0.000885,0,0
0:0:59.735,23.6378,2.3649,0,0.000885,0,0
0:0:59.834,23.6957,2.3718,0,0.000885,0,0
0:0:59.934,23.5177,2.35111,0,0.000885,0,0
0:1:0.034,23.5177,2.35111,0,0.000885,0,0
0:1:0.134,23.6378,2.3649,0,0.000885,0,0
0:1:0.233,23.6378,2.3649,0,0.000885,0,0
0:1:0.332,23.2864,2.33043,0,0.000885,0,0
0:1:0.431,23.2864,2.33043,0,0.000885,0,0
0:1:0.531,23.4021,2.33732,0,0.000885,0,0
0:1:0.630,23.5756,2.35801,0,0.000885,0,0
0:1:0.729,23.3443,2.33732,0,0.000885,0,0
0:1:0.827,23.3443,2.33732,0,0.000885,0,0
0:1:0.927,23.6957,2.3718,0,0.000885,0,0
0:1:1.026,23.5756,2.35801,0,0.000885,0,0
0:1:1.124,23.5756,2.35801,0,0.000885,0,0
0:1:1.220,23.5177,2.35111,0,0.000885,0,0
0:1:1.325,23.4021,2.33732,0,0.000885,0,0
0:1:1.425,23.5177,2.35111,0,0.000885,0,0
0:1:1.524,23.5177,2.35111,0,0.000885,0,0
0:1:1.623,23.4599,2.34422,0,0.000885,0,0
0:1:1.728,23.4599,2.34422,0,0.000885,0,0
0:1:1.833,23.7535,2.37869,0,0.000885,0,0
0:1:1.932,23.7535,2.37869,0,0.000885,0,0
0:1:2.032,23.6957,2.3718,0,0.000885,0,0
0:1:2.130,23.2864,2.33043,0,0.000885,0,0
0:1:2.235,23.4599,2.34422,0,0.000885,0,0
0:1:2.344,23.4599,2.34422,0,0.000885,0,0
0:1:2.443,23.0507,2.30285,0,0.000885,0,0
0:1:2.543,23.1085,2.30974,0,0.000885,0,0
0:1:2.641,22.9929,2.29595,0,0.000885,0,0
0:1:2.746,22.9929,2.29595,0,0.000885,0,0
0:1:2.843,22.9929,2.29595,0,0.000885,0,0
0:1:2.942,23.1663,2.31664,0,0.000885,0,0
0:1:3.043,22.9929,2.29595,0,0.000885,0,0
0:1:3.140,22.9929,2.29595,0,0.000885,0,0
0:1:3.245,23.2242,2.32353,0,0.000885,0,0
0:1:3.341,23.0507,2.30285,0,0.000885,0,0
0:1:3.440,22.9929,2.29595,0,0.000885,0,0
0:1:3.540,22.9929,2.29595,0,0.000885,0,0
0:1:3.635,22.9306,2.29595,0,0.000885,0,0
0:1:3.732,22.7571,2.27527,0,0.000885,0,0
0:1:3.840,22.8149,2.28216,0,0.000885,0,0
0:1:3.936,22.8149,2.28216,0,0.000885,0,0
0:1:4.036,22.7571,2.27527,0,0.000885,0,0
0:1:4.134,22.7571,2.27527,0,0.000885,0,0
0:1:4.242,22.8728,2.28906,0,0.000885,0,0
0:1:4.346,22.8728,2.28906,0,0.000885,0,0
0:1:4.445,22.8728,2.28906,0,0.000885,0,0
0:1:4.545,22.8149,2.28216,0,0.000885,0,0
0:1:4.644,22.9929,2.29595,0,0.000885,0,0
0:1:4.744,22.9929,2.29595,0,0.000885,0,0
0:1:4.842,22.6993,2.26838,0,0.000885,0,0
0:1:4.943,22.6993,2.26838,0,0.000885,0,0
0:1:5.043,22.6993,2.26838,0,0.000885,0,0
0:1:5.143,22.637,2.26148,0,0.000885,0,0
0:1:5.243,22.5213,2.25459,0,0.000885,0,0
0:1:5.343,22.7571,2.27527,0,0.000885,0,0
0:1:5.441,22.7571,2.27527,0,0.000885,0,0
0:1:5.540,22.7571,2.27527,0,0.000885,0,0
0:1:5.636,22.8149,2.28216,0,0.000885,0,0
0:1:5.736,22.6993,2.26838,0,0.000885,0,0
0:1:5.835,22.6993,2.26838,0,0.000885,0,0
0:1:5.934,22.9306,2.29595,0,0.000885,0,0
0:1:6.034,22.4635,2.24769,0,0.000885,0,0
0:1:6.133,22.4635,2.24769,0,0.000885,0,0
0:1:6.230,22.4635,2.24769,0,0.000885,0,0
0:1:6.335,22.5213,2.25459,0,0.000885,0,0
0:1:6.444,22.8149,2.28216,0,0.000885,0,0
0:1:6.543,22.8149,2.28216,0,0.000885,0,0
0:1:6.643,22.8149,2.28216,0,0.000885,0,0
0:1:6.741,22.7571,2.27527,0,0.000885,0,0
0:1:6.845,22.6993,2.26838,0,0.000885,0,0
0:1:6.943,22.9306,2.29595,0,0.000885,0,0
0:1:7.042,22.9306,2.29595,0,0.000885,0,0
0:1:7.142,22.7571,2.27527,0,0.000885,0,0
0:1:7.240,22.8728,2.28906,0,0.000885,0,0
0:1:7.345,22.8728,2.28906,0,0.000885,0,0
0:1:7.442,22.6993,2.26838,0,0.000885,0,0
0:1:7.540,22.7571,2.27527,0,0.000885,0,0
0:1:7.640,22.8728,2.28906,0,0.000885,0,0
0:1:7.735,22.8728,2.28906,0,0.000885,0,0
0:1:7.844,22.6993,2.26838,0,0.000885,0,0
0:1:7.941,22.8149,2.28216,0,0.000885,0,0
0:1:8.036,22.6993,2.26838,0,0.000885,0,0
0:1:8.136,22.6993,2.26838,0,0.000885,0,0
0:1:8.235,22.5213,2.25459,0,0.000885,0,0
0:1:8.343,22.8149,2.28216,0,0.000885,0,0
0:1:8.447,22.8149,2.28216,0,0.000885,0,0
0:1:8.545,22.8149,2.28216,0,0.000885,0,0
0:1:8.645,22.9929,2.29595,0,0.000885,0,0
0:1:8.744,22.7571,2.27527,0,0.000885,0,0
0:1:8.842,22.9929,2.29595,0,0.000885,0,0
0:1:8.946,22.9929,2.29595,0,0.000885,0,0
0:1:9.044,22.9929,2.29595,0,0.000885,0,0
0:1:9.144,22.6993,2.26838,0,0.000885,0,0
0:1:9.244,22.6993,2.26838,0,0.000885,0,0
0:1:9.342,22.6993,2.26838,0,0.000885,0,0
0:1:9.447,23.1663,2.31664,0,0.000885,0,0
0:1:9.543,23.1085,2.30974,0,0.000885,0,0
0:1:9.641,23.1085,2.30974,0,0.000885,0,0
0:1:9.741,23.1663,2.31664,0,0.000885,0,0
0:1:9.840,23.1663,2.31664,0,0.000885,0,0
0:1:9.941,22.8728,2.28906,0,0.000885,0,0
0:1:10.040,22.8728,2.28906,0,0.000885,0,0
0:1:10.140,22.8149,2.28216,0,0.000885,0,0
0:1:10.237,23.1663,2.31664,0,0.000885,0,0
0:1:10.340,23.0507,2.30285,0,0.000885,0,0
0:1:10.436,23.0507,2.30285,0,0.000885,0,0
0:1:10.535,23.1663,2.31664,0,0.000885,0,0
0:1:10.634,22.8149,2.28216,0,0.000885,0,0
0:1:10.733,22.9306,2.29595,0,0.000885,0,0
0:1:10.832,22.9306,2.29595,0,0.000885,0,0
0:1:10.932,22.8149,2.28216,0,0.000885,0,0
0:1:11.030,22.8728,2.28906,0,0.000885,0,0
0:1:11.129,22.8728,2.28906,0,0.000885,0,0
0:1:11.229,22.9929,2.29595,0,0.000885,0,0
0:1:11.328,22.9929,2.29595,0,0.000885,0,0
0:1:11.426,22.6993,2.26838,0,0.000885,0,0
0:1:11.531,22.6993,2.26838,0,0.000885,0,0
0:1:11.640,22.6993,2.26838,0,0.000885,0,0
0:1:11.736,22.5213,2.25459,0,0.000885,0,0
0:1:11.835,22.6993,2.26838,0,0.000885,0,0
0:1:11.945,22.6993,2.26838,0,0.000885,0,0
0:1:12.041,22.9306,2.29595,0,0.000885,0,0
0:1:12.136,22.7571,2.27527,0,0.000885,0,0
0:1:12.234,22.8728,2.28906,0,0.000885,0,0
0:1:12.334,22.8728,2.28906,0,0.000885,0,0
0:1:12.433,22.8728,2.28906,0,0.000885,0,0
0:1:12.541,22.7571,2.27527,0,0.000885,0,0
0:1:12.635,22.8149,2.28216,0,0.000885,0,0
0:1:12.734,22.8149,2.28216,0,0.000885,0,0
0:1:12.833,22.8728,2.28906,0,0.000885,0,0
0:1:12.931,22.4635,2.24769,0,0.000885,0,0
0:1:13.036,22.8149,2.28216,0,0.000885,0,0
0:1:13.133,22.8149,2.28216,0,0.000885,0,0
0:1:13.232,22.637,2.26148,0,0.000885,0,0
0:1:13.331,22.6993,2.26838,0,0.000885,0,0
0:1:13.430,22.6993,2.26838,0,0.000885,0,0
0:1:13.536,23.2864,2.33043,0,0.000885,0,0
0:1:13.632,23.2242,2.32353,0,0.000885,0,0
0:1:13.731,23.1663,2.31664,0,0.000885,0,0
0:1:13.830,23.1663,2.31664,0,0.000885,0,0
0:1:13.928,23.1663,2.31664,0,0.000885,0,0
0:1:14.033,23.4021,2.33732,0,0.000885,0,0
0:1:14.141,23.4021,2.33732,0,0.000885,0,0
0:1:14.250,23.4021,2.33732,0,0.000885,0,0
0:1:14.349,23.5177,2.35111,0,0.000885,0,0
0:1:14.449,23.6378,2.3649,0,0.000885,0,0
0:1:14.548,23.6957,2.3718,0,0.000885,0,0
0:1:14.647,23.6957,2.3718,0,0.000885,0,0
0:1:14.748,24.1049,2.41317,0,0.000885,0,0
0:1:14.848,23.9314,2.39248,0,0.000885,0,0
0:1:14.948,24.1049,2.41317,0,0.000885,0,0
0:1:15.048,24.1049,2.41317,0,0.000885,0,0
0:1:15.147,24.0471,2.40627,0,0.000885,0,0
0:1:15.247,24.1627,2.41317,0,0.000885,0,0
0:1:15.346,24.1627,2.41317,0,0.000885,0,0
0:1:15.445,24.1627,2.41317,0,0.000885,0,0
0:1:15.544,23.9314,2.39248,0,0.000885,0,0
0:1:15.644,23.8692,2.38559,0,0.000885,0,0
0:1:15.743,23.9893,2.39938,0,0.000885,0,0
0:1:15.843,23.9893,2.39938,0,0.000885,0,0
0:1:15.941,23.7535,2.37869,0,0.000885,0,0
0:1:16.047,23.9314,2.39248,0,0.000885,0,0
0:1:16.144,23.9314,2.39248,0,0.000885,0,0
0:1:16.237,24.1049,2.41317,0,0.000885,0,0
0:1:16.337,23.8113,2.37869,0,0.000885,0,0
0:1:16.448,23.6957,2.3718,0,0.000885,0,0
0:1:16.546,23.6957,2.3718,0,0.000885,0,0
0:1:16.643,24.1627,2.41317,0,0.000885,0,0
0:1:16.747,23.8692,2.38559,0,0.000885,0,0
0:1:16.847,24.0471,2.40627,0,0.000885,0,0
0:1:16.946,24.0471,2.40627,0,0.000885,0,0
0:1:17.045,23.7535,2.37869,0,0.000885,0,0
0:1:17.149,24.1049,2.41317,0,0.000885,0,0
0:1:17.246,24.0471,2.40627,0,0.000885,0,0
0:1:17.345,24.0471,2.40627,0,0.000885,0,0
0:1:17.445,24.1627,2.41317,0,0.000885,0,0
0:1:17.544,24.1627,2.41317,0,0.000885,0,0
0:1:17.649,23.6957,2.3718,0,0.000885,0,0
0:1:17.745,23.6957,2.3718,0,0.000885,0,0
0:1:17.844,23.9893,2.39938,0,0.000885,0,0
0:1:17.943,23.8692,2.38559,0,0.000885,0,0
0:1:18.042,23.9893,2.39938,0,0.000885,0,0
0:1:18.147,23.9893,2.39938,0,0.000885,0,0
0:1:18.243,24.1627,2.41317,0,0.000885,0,0
0:1:18.350,24.3985,2.44074,0,0.000885,0,0
0:1:18.449,23.9893,2.39938,0,0.000885,0,0
0:1:18.549,23.9893,2.39938,0,0.000885,0,0
0:1:18.647,24.3407,2.43385,0,0.000885,0,0
0:1:18.742,24.0471,2.40627,0,0.000885,0,0
0:1:18.849,24.0471,2.40627,0,0.000885,0,0
0:1:18.948,23.6378,2.3649,0,0.000885,0,0
0:1:19.048,23.6957,2.3718,0,0.000885,0,0
0:1:19.145,23.5756,2.35801,0,0.000885,0,0
0:1:19.242,23.5756,2.35801,0,0.000885,0,0
0:1:19.348,22.9306,2.29595,0,0.000885,0,0
0:1:19.448,23.0507,2.30285,0,0.000885,0,0
0:1:19.546,22.9306,2.29595,0,0.000885,0,0
0:1:19.645,22.9306,2.29595,0,0.000885,0,0
0:1:19.745,22.6993,2.26838,0,0.000885,0,0
0:1:19.846,22.4635,2.24769,0,0.000885,0,0
0:1:19.945,22.4635,2.24769,0,0.000885,0,0
0:1:20.045,22.4635,2.24769,0,0.000885,0,0
0:1:20.144,22.5213,2.25459,0,0.000885,0,0
0:1:20.244,22.4635,2.24769,0,0.000885,0,0
0:1:20.343,22.4635,2.24769,0,0.000885,0,0
0:1:20.443,22.4635,2.24769,0,0.000885,0,0
0:1:20.542,22.2856,2.22701,0,0.000885,0,0
0:1:20.638,22.3479,2.2339,0,0.000885,0,0
0:1:20.736,22.3479,2.2339,0,0.000885,0,0
0:1:20.836,22.1121,2.21322,0,0.000885,0,0
0:1:20.935,21.992,2.19943,0,0.000885,0,0
0:1:21.035,21.9342,2.19253,0,0.000885,0,0
0:1:21.133,21.9342,2.19253,0,0.000885,0,0
0:1:21.241,21.8764,2.18564,0,0.000885,0,0
0:1:21.346,21.9342,2.19253,0,0.000885,0,0
0:1:21.444,21.8185,2.17874,0,0.000885,0,0
0:1:21.544,21.8185,2.17874,0,0.000885,0,0
0:1:21.643,21.9342,2.19253,0,0.000885,0,0
0:1:21.749,22.5213,2.25459,0,0.000885,0,0
0:1:21.845,22.4057,2.2408,0,0.000885,0,0
0:1:21.944,22.4057,2.2408,0,0.000885,0,0
0:1:22.043,22.0543,2.20632,0,0.000885,0,0
0:1:22.143,22.1121,2.21322,0,0.000885,0,0
0:1:22.249,22.3479,2.2339,0,0.000885,0,0
0:1:22.344,22.3479,2.2339,0,0.000885,0,0
0:1:22.441,22.1121,2.21322,0,0.000885,0,0
0:1:22.541,22.2278,2.22011,0,0.000885,0,0
0:1:22.637,21.9342,2.19253,0,0.000885,0,0
0:1:22.735,21.9342,2.19253,0,0.000885,0,0
0:1:22.844,21.7607,2.17874,0,0.000885,0,0
0:1:22.950,21.6406,2.16495,0,0.000885,0,0
0:1:23.050,21.7607,2.17874,0,0.000885,0,0
0:1:23.149,21.7607,2.17874,0,0.000885,0,0
0:1:23.246,21.4093,2.13737,0,0.000885,0,0
0:1:23.342,21.4671,2.14427,0,0.000885,0,0
0:1:23.448,21.4671,2.14427,0,0.000885,0,0
0:1:23.546,21.4093,2.13737,0,0.000885,0,0
0:1:23.646,21.4093,2.13737,0,0.000885,0,0
0:1:23.744,21.2314,2.12359,0,0.000885,0,0
0:1:23.842,21.2314,2.12359,0,0.000885,0,0
0:1:23.947,21.2892,2.13048,0,0.000885,0,0
0:1:24.046,21.4093,2.13737,0,0.000885,0,0
0:1:24.145,21.2892,2.13048,0,0.000885,0,0
0:1:24.244,21.2892,2.13048,0,0.000885,0,0
0:1:24.349,21.0534,2.1029,0,0.000885,0,0
0:1:24.446,21.347,2.13737,0,0.000885,0,0
0:1:24.545,20.9956,2.1029,0,0.000885,0,0
0:1:24.643,20.9956,2.1029,0,0.000885,0,0
0:1:24.743,21.0534,2.1029,0,0.000885,0,0
0:1:24.842,20.702,2.06843,0,0.000885,0,0
0:1:24.938,20.8221,2.08222,0,0.000885,0,0
0:1:25.042,20.8221,2.08222,0,0.000885,0,0
0:1:25.138,20.88,2.08911,0,0.000885,0,0
0:1:25.238,20.9378,2.09601,0,0.000885,0,0
0:1:25.338,20.9378,2.09601,0,0.000885,0,0
0:1:25.438,20.9378,2.09601,0,0.000885,0,0
0:1:25.537,20.88,2.08911,0,0.000885,0,0
0:1:25.635,21.4671,2.14427,0,0.000885,0,0
0:1:25.734,21.4671,2.14427,0,0.000885,0,0
0:1:25.834,20.5864,2.06153,0,0.000885,0,0
0:1:25.933,20.6442,2.06153,0,0.000885,0,0
0:1:26.032,20.3506,2.03395,0,0.000885,0,0
0:1:26.131,20.3506,2.03395,0,0.000885,0,0
0:1:26.231,20.702,2.06843,0,0.000885,0,0
0:1:26.337,20.2928,2.02706,0,0.000885,0,0
0:1:26.445,20.6442,2.06153,0,0.000885,0,0
0:1:26.542,20.6442,2.06153,0,0.000885,0,0
0:1:26.637,20.235,2.02016,0,0.000885,0,0
0:1:26.737,20.4084,2.04085,0,0.000885,0,0
0:1:26.847,20.1771,2.02016,0,0.000885,0,0
0:1:26.943,20.1771,2.02016,0,0.000885,0,0
0:1:27.049,19.9992,1.99948,0,0.000885,0,0
0:1:27.148,20.1193,2.01327,0,0.000885,0,0
0:1:27.249,19.9992,1.99948,0,0.000885,0,0
0:1:27.346,19.9992,1.99948,0,0.000885,0,0
0:1:27.442,19.7634,1.9788,0,0.000885,0,0
0:1:27.547,19.59,1.95811,0,0.000885,0,0
0:1:27.647,19.59,1.95811,0,0.000885,0,0
0:1:27.746,19.59,1.95811,0,0.000885,0,0
0:1:27.844,19.6478,1.96501,0,0.000885,0,0
0:1:27.949,19.7056,1.9719,0,0.000885,0,0
0:1:28.046,19.7056,1.9719,0,0.000885,0,0
0:1:28.144,19.7056,1.9719,0,0.000885,0,0
0:1:28.244,19.8257,1.98569,0,0.000885,0,0
0:1:28.343,19.7056,1.9719,0,0.000885,0,0
0:1:28.448,19.7056,1.9719,0,0.000885,0,0
0:1:28.544,19.5321,1.95122,0,0.000885,0,0
0:1:28.642,19.7634,1.9788,0,0.000885,0,0
0:1:28.738,19.59,1.95811,0,0.000885,0,0
0:1:28.837,19.59,1.95811,0,0.000885,0,0
0:1:28.945,19.7634,1.9788,0,0.000885,0,0
0:1:29.042,19.6478,1.96501,0,0.000885,0,0
0:1:29.137,19.7056,1.9719,0,0.000885,0,0
0:1:29.237,19.7056,1.9719,0,0.000885,0,0
0:1:29.336,19.5321,1.95122,0,0.000885,0,0
0:1:29.445,19.412,1.94432,0,0.000885,0,0
0:1:29.550,19.2964,1.93053,0,0.000885,0,0
0:1:29.647,19.2964,1.93053,0,0.000885,0,0
0:1:29.747,19.4699,1.94432,0,0.000885,0,0
0:1:29.845,19.2964,1.93053,0,0.000885,0,0
0:1:29.945,19.412,1.94432,0,0.000885,0,0
0:1:30.044,19.412,1.94432,0,0.000885,0,0
0:1:30.064,19.412,1.94432,0,0.000885,0,0