File: DataFile2021-06-24_051428.csv
Test ID:,Date Tested:,Time:,Test Type:,Diameter Avg. (mm):,Cyl. Corr. Factor:,Height (mm):,Age (days):,Weight (kN):,Break Type:,Ramp Rate (MPa/s):,Load at Break (kN):,Stress at Break (MPa):
12,6/24/2021,05:14,Cylinder,150,1,300,0,3.6,3,0.25,1157.06,65.48
Sample Time,Load (kN),Stress (MPa),Long. Strain,Trans. Strain,Chan1 Deflection (mm),Chan2 Deflection (mm)
0:0:21.932,5.92503,0.337843,0,0.000885,0,0
0:0:22.236,10.8492,0.613633,0,0.000885,0,0
0:0:22.543,13.1356,0.744634,0,0.000885,0,0
0:0:22.840,12.9621,0.730844,0,0.000885,0,0
0:0:23.138,12.4328,0.703265,0,0.000885,0,0
0:0:23.431,12.6107,0.71016,0,0.000885,0,0
0:0:23.732,12.375,0.703265,0,0.000885,0,0
0:0:24.037,13.4292,0.758423,0,0.000885,0,0
0:0:24.336,13.785,0.779108,0,0.000885,0,0
0:0:24.636,15.4264,0.875634,0,0.000885,0,0
0:0:24.942,18.0064,1.02042,0,0.000885,0,0
0:0:25.243,18.945,1.06869,0,0.000885,0,0
0:0:25.539,20.88,1.179,0,0.000885,0,0
0:0:25.841,21.5828,1.22037,0,0.000885,0,0
0:0:26.137,23.5177,1.33069,0,0.000885,0,0
0:0:26.436,24.87,1.40653,0,0.000885,0,0
0:0:26.735,27.0363,1.53064,0,0.000885,0,0
0:0:27.029,28.3263,1.60648,0,0.000885,0,0
0:0:27.330,29.852,1.68922,0,0.000885,0,0
0:0:27.638,31.7292,1.79264,0,0.000885,0,0
0:0:27.943,32.7256,1.85469,0,0.000885,0,0
0:0:28.245,34.5449,1.95811,0,0.000885,0,0
0:0:28.548,36.0706,2.04085,0,0.000885,0,0
0:0:28.852,37.4184,2.11669,0,0.000885,0,0
0:0:29.148,38.2992,2.16495,0,0.000885,0,0
0:0:29.450,39.2956,2.22701,0,0.000885,0,0
0:0:29.747,40.3498,2.28216,0,0.000885,0,0
0:0:30.046,40.937,2.31664,0,0.000885,0,0
0:0:30.346,42.1113,2.38559,0,0.000885,0,0
0:0:30.641,43.0499,2.43385,0,0.000885,0,0
0:0:30.943,44.927,2.54417,0,0.000885,0,0
0:0:31.240,46.5106,2.6338,0,0.000885,0,0
0:0:31.541,47.6849,2.69585,0,0.000885,0,0
0:0:31.837,49.0327,2.77169,0,0.000885,0,0
0:0:32.137,50.8521,2.87511,0,0.000885,0,0
0:0:32.446,52.2577,2.95785,0,0.000885,0,0
0:0:32.752,53.2541,3.01301,0,0.000885,0,0
0:0:33.055,54.6642,3.09575,0,0.000885,0,0
0:0:33.358,55.7763,3.1578,0,0.000885,0,0
0:0:33.661,57.4176,3.24743,0,0.000885,0,0
0:0:33.965,58.8277,3.33017,0,0.000885,0,0
0:0:34.260,60.1177,3.39912,0,0.000885,0,0
0:0:34.563,61.2298,3.46806,0,0.000885,0,0
0:0:34.858,63.227,3.57838,0,0.000885,0,0
0:0:35.160,64.3391,3.64043,0,0.000885,0,0
0:0:35.458,65.3355,3.69559,0,0.000885,0,0
0:0:35.755,65.9805,3.73696,0,0.000885,0,0
0:0:36.055,67.6841,3.83349,0,0.000885,0,0
0:0:36.352,68.9741,3.90243,0,0.000885,0,0
0:0:36.653,70.5577,3.99206,0,0.000885,0,0
0:0:36.950,71.4384,4.04033,0,0.000885,0,0
0:0:37.253,72.9597,4.12996,0,0.000885,0,0
0:0:37.558,74.8947,4.24028,0,0.000885,0,0
0:0:37.862,76.3048,4.31612,0,0.000885,0,0
0:0:38.165,77.8884,4.40575,0,0.000885,0,0
0:0:38.466,78.8269,4.46091,0,0.000885,0,0
0:0:38.768,80.3527,4.54365,0,0.000885,0,0
0:0:39.066,80.9977,4.58501,0,0.000885,0,0
0:0:39.362,82.5234,4.66775,0,0.000885,0,0
0:0:39.665,83.2841,4.71601,0,0.000885,0,0
0:0:39.959,85.0411,4.81254,0,0.000885,0,0
0:0:40.261,86.2154,4.88149,0,0.000885,0,0
0:0:40.560,87.9191,4.97801,0,0.000885,0,0
0:0:40.858,89.7918,5.08144,0,0.000885,0,0
0:0:41.158,90.4991,5.1228,0,0.000885,0,0
0:0:41.454,91.9625,5.20554,0,0.000885,0,0
0:0:41.756,92.9589,5.2607,0,0.000885,0,0
0:0:42.050,94.4847,5.34344,0,0.000885,0,0
0:0:42.353,95.9526,5.43307,0,0.000885,0,0
0:0:42.659,96.5398,5.46065,0,0.000885,0,0
0:0:42.962,98.1811,5.55717,0,0.000885,0,0
0:0:43.267,99.7647,5.64681,0,0.000885,0,0
0:0:43.568,101.233,5.72954,0,0.000885,0,0
0:0:43.871,102.523,5.79849,0,0.000885,0,0
0:0:44.167,103.692,5.86744,0,0.000885,0,0
0:0:44.467,105.627,5.97775,0,0.000885,0,0
0:0:44.768,106.802,6.0467,0,0.000885,0,0
0:0:45.063,107.505,6.08118,0,0.000885,0,0
0:0:45.366,108.795,6.15702,0,0.000885,0,0
0:0:45.661,110.027,6.22597,0,0.000885,0,0
0:0:45.961,111.553,6.3156,0,0.000885,0,0
0:0:46.259,113.02,6.39833,0,0.000885,0,0
0:0:46.556,114.132,6.46039,0,0.000885,0,0
0:0:46.858,115.191,6.51555,0,0.000885,0,0
0:0:47.154,116.539,6.59139,0,0.000885,0,0
0:0:47.458,118.532,6.7086,0,0.000885,0,0
0:0:47.763,119.942,6.78444,0,0.000885,0,0
0:0:48.067,120.996,6.84649,0,0.000885,0,0
0:0:48.370,121.935,6.90165,0,0.000885,0,0
0:0:48.673,123.692,6.99818,0,0.000885,0,0
0:0:48.976,124.693,7.05334,0,0.000885,0,0
0:0:49.272,125.747,7.11539,0,0.000885,0,0
0:0:49.572,127.33,7.20502,0,0.000885,0,0
0:0:49.869,129.381,7.32223,0,0.000885,0,0
0:0:50.168,130.733,7.39807,0,0.000885,0,0
0:0:50.468,131.845,7.46013,0,0.000885,0,0
0:0:50.764,132.962,7.52218,0,0.000885,0,0
0:0:51.066,133.843,7.57044,0,0.000885,0,0
0:0:51.363,135.426,7.66008,0,0.000885,0,0
0:0:51.662,136.947,7.74971,0,0.000885,0,0
0:0:51.961,138.593,7.83934,0,0.000885,0,0
0:0:52.259,139.527,7.8945,0,0.000885,0,0
0:0:52.562,140.408,7.94276,0,0.000885,0,0
0:0:52.867,142.343,8.05308,0,0.000885,0,0
0:0:53.171,143.108,8.10134,0,0.000885,0,0
0:0:53.474,144.807,8.19787,0,0.000885,0,0
0:0:53.777,145.63,8.23923,0,0.000885,0,0
0:0:54.082,147.681,8.35645,0,0.000885,0,0
0:0:54.378,148.855,8.42539,0,0.000885,0,0
0:0:54.678,150.555,8.52192,0,0.000885,0,0
0:0:54.976,151.32,8.56329,0,0.000885,0,0
0:0:55.274,152.845,8.64603,0,0.000885,0,0
0:0:55.575,154.429,8.73566,0,0.000885,0,0
0:0:55.869,155.483,8.79771,0,0.000885,0,0
0:0:56.170,156.48,8.85287,0,0.000885,0,0
0:0:56.469,158.179,8.94939,0,0.000885,0,0
0:0:56.767,159.998,9.05282,0,0.000885,0,0
0:0:57.067,161.288,9.12866,0,0.000885,0,0
0:0:57.364,161.76,9.15624,0,0.000885,0,0
0:0:57.666,162.929,9.21829,0,0.000885,0,0
0:0:57.972,164.397,9.30103,0,0.000885,0,0
0:0:58.275,165.865,9.38376,0,0.000885,0,0
0:0:58.579,167.271,9.4665,0,0.000885,0,0
0:0:58.881,168.445,9.52855,0,0.000885,0,0
0:0:59.184,169.971,9.61819,0,0.000885,0,0
0:0:59.480,171.492,9.70782,0,0.000885,0,0
0:0:59.781,172.724,9.77677,0,0.000885,0,0
0:1:0.079,173.899,9.83882,0,0.000885,0,0
0:1:0.376,175.425,9.92845,0,0.000885,0,0
0:1:0.678,176.421,9.98361,0,0.000885,0,0
0:1:0.975,178.592,10.1077,0,0.000885,0,0
0:1:1.275,179.472,10.156,0,0.000885,0,0
0:1:1.573,180.878,10.2387,0,0.000885,0,0
0:1:1.872,182.052,10.3008,0,0.000885,0,0
0:1:2.173,182.871,10.349,0,0.000885,0,0
0:1:2.478,184.69,10.4525,0,0.000885,0,0
0:1:2.782,185.864,10.5145,0,0.000885,0,0
0:1:3.084,186.977,10.5835,0,0.000885,0,0
0:1:3.388,188.68,10.68,0,0.000885,0,0
0:1:3.692,190.264,10.7696,0,0.000885,0,0
0:1:3.989,191.496,10.8386,0,0.000885,0,0
0:1:4.289,192.492,10.8937,0,0.000885,0,0
0:1:4.584,193.662,10.9558,0,0.000885,0,0
0:1:4.880,195.13,11.0454,0,0.000885,0,0
0:1:5.179,196.772,11.135,0,0.000885,0,0
0:1:5.472,198.062,11.2109,0,0.000885,0,0
0:1:5.772,199.12,11.266,0,0.000885,0,0
0:1:6.067,200.348,11.335,0,0.000885,0,0
0:1:6.365,201.349,11.397,0,0.000885,0,0
0:1:6.662,202.519,11.4591,0,0.000885,0,0
0:1:6.958,203.871,11.5349,0,0.000885,0,0
0:1:7.259,205.686,11.6384,0,0.000885,0,0
0:1:7.562,207.038,11.7142,0,0.000885,0,0
0:1:7.864,208.795,11.8176,0,0.000885,0,0
0:1:8.165,210.027,11.8866,0,0.000885,0,0
0:1:8.465,211.259,11.9555,0,0.000885,0,0
0:1:8.765,211.962,11.9969,0,0.000885,0,0
0:1:9.059,213.782,12.1003,0,0.000885,0,0
0:1:9.359,215.894,12.2175,0,0.000885,0,0
0:1:9.654,216.419,12.2451,0,0.000885,0,0
0:1:9.950,217.767,12.3209,0,0.000885,0,0
0:1:10.248,218.941,12.3899,0,0.000885,0,0
0:1:10.543,220.116,12.4588,0,0.000885,0,0
0:1:10.842,221.757,12.5485,0,0.000885,0,0
0:1:11.133,222.811,12.6105,0,0.000885,0,0
0:1:11.432,223.812,12.6657,0,0.000885,0,0
0:1:11.728,225.16,12.7415,0,0.000885,0,0
0:1:12.023,226.508,12.8174,0,0.000885,0,0
0:1:12.322,227.624,12.8794,0,0.000885,0,0
0:1:12.625,229.502,12.9897,0,0.000885,0,0
0:1:12.927,230.614,13.0518,0,0.000885,0,0
0:1:13.229,231.961,13.1276,0,0.000885,0,0
0:1:13.530,233.314,13.2035,0,0.000885,0,0
0:1:13.831,235.306,13.3138,0,0.000885,0,0
0:1:14.125,236.712,13.3965,0,0.000885,0,0
0:1:14.423,237.535,13.4448,0,0.000885,0,0
0:1:14.721,238.474,13.493,0,0.000885,0,0
0:1:15.025,239.706,13.562,0,0.000885,0,0
0:1:15.324,241.756,13.6792,0,0.000885,0,0
0:1:15.618,242.753,13.7344,0,0.000885,0,0
0:1:15.918,243.985,13.8102,0,0.000885,0,0
0:1:16.211,244.808,13.8516,0,0.000885,0,0
0:1:16.509,245.92,13.9136,0,0.000885,0,0
0:1:16.806,247.739,14.017,0,0.000885,0,0
0:1:17.101,249.381,14.1136,0,0.000885,0,0
0:1:17.402,250.791,14.1894,0,0.000885,0,0
0:1:17.704,252.316,14.279,0,0.000885,0,0
0:1:18.007,252.726,14.2997,0,0.000885,0,0
0:1:18.307,254.896,14.4238,0,0.000885,0,0
0:1:18.608,256.008,14.4859,0,0.000885,0,0
0:1:18.910,257.067,14.5479,0,0.000885,0,0
0:1:19.203,258.473,14.6238,0,0.000885,0,0
0:1:19.502,260.292,14.7272,0,0.000885,0,0
0:1:19.796,261.231,14.7824,0,0.000885,0,0
0:1:20.094,262.579,14.8582,0,0.000885,0,0
0:1:20.393,263.401,14.9065,0,0.000885,0,0
0:1:20.686,264.985,14.9961,0,0.000885,0,0
0:1:20.986,267.093,15.1133,0,0.000885,0,0
0:1:21.281,267.859,15.1547,0,0.000885,0,0
0:1:21.578,269.028,15.2236,0,0.000885,0,0
0:1:21.874,270.087,15.2857,0,0.000885,0,0
0:1:22.169,271.141,15.3408,0,0.000885,0,0
0:1:22.471,272.783,15.4374,0,0.000885,0,0
0:1:22.774,274.366,15.527,0,0.000885,0,0
0:1:23.075,275.598,15.5959,0,0.000885,0,0
0:1:23.375,276.479,15.6442,0,0.000885,0,0
0:1:23.674,277.591,15.7063,0,0.000885,0,0
0:1:23.975,279.762,15.8304,0,0.000885,0,0
0:1:24.269,281.403,15.9269,0,0.000885,0,0
0:1:24.568,282.342,15.9752,0,0.000885,0,0
0:1:24.863,283.281,16.0303,0,0.000885,0,0
0:1:25.159,284.922,16.1268,0,0.000885,0,0
0:1:25.459,286.506,16.2096,0,0.000885,0,0
0:1:25.751,287.564,16.2716,0,0.000885,0,0
0:1:26.052,288.796,16.3406,0,0.000885,0,0
0:1:26.347,289.908,16.4026,0,0.000885,0,0
0:1:26.645,291.083,16.4716,0,0.000885,0,0
0:1:26.942,292.551,16.5543,0,0.000885,0,0
0:1:27.244,294.014,16.637,0,0.000885,0,0
0:1:27.546,295.131,16.6991,0,0.000885,0,0
0:1:27.846,296.594,16.7818,0,0.000885,0,0
0:1:28.146,298.004,16.8646,0,0.000885,0,0
0:1:28.447,299.116,16.9266,0,0.000885,0,0
0:1:28.743,300.642,17.0163,0,0.000885,0,0
0:1:29.042,301.874,17.0852,0,0.000885,0,0
0:1:29.334,303.342,17.1679,0,0.000885,0,0
0:1:29.634,304.863,17.2507,0,0.000885,0,0
0:1:29.928,306.038,17.3196,0,0.000885,0,0
0:1:30.225,307.741,17.4162,0,0.000885,0,0
0:1:30.523,308.853,17.4782,0,0.000885,0,0
0:1:30.836,309.792,17.5334,0,0.000885,0,0
0:1:31.135,311.905,17.6506,0,0.000885,0,0
0:1:31.442,312.901,17.7057,0,0.000885,0,0
0:1:31.738,313.253,17.7264,0,0.000885,0,0
0:1:32.045,315.072,17.8298,0,0.000885,0,0
0:1:32.346,316.656,17.9195,0,0.000885,0,0
0:1:32.649,317.594,17.9746,0,0.000885,0,0
0:1:32.951,318.591,18.0298,0,0.000885,0,0
0:1:33.252,320.174,18.1194,0,0.000885,0,0
0:1:33.551,321.758,18.2091,0,0.000885,0,0
0:1:33.851,323.105,18.2849,0,0.000885,0,0
0:1:34.147,324.689,18.3745,0,0.000885,0,0
0:1:34.439,325.806,18.4366,0,0.000885,0,0
0:1:34.738,327.033,18.5055,0,0.000885,0,0
0:1:35.033,328.617,18.5952,0,0.000885,0,0
0:1:35.331,330.027,18.6779,0,0.000885,0,0
0:1:35.628,331.375,18.7537,0,0.000885,0,0
0:1:35.933,332.785,18.8296,0,0.000885,0,0
0:1:36.232,333.43,18.871,0,0.000885,0,0
0:1:36.534,335.658,18.9951,0,0.000885,0,0
0:1:36.835,336.77,19.0571,0,0.000885,0,0
0:1:37.150,337.536,19.0985,0,0.000885,0,0
0:1:37.452,338.763,19.1674,0,0.000885,0,0
0:1:37.756,340.409,19.264,0,0.000885,0,0
0:1:38.058,341.463,19.326,0,0.000885,0,0
0:1:38.357,342.989,19.4087,0,0.000885,0,0
0:1:38.659,344.159,19.4777,0,0.000885,0,0
0:1:38.956,344.982,19.5191,0,0.000885,0,0
0:1:39.255,347.153,19.6432,0,0.000885,0,0
0:1:39.548,348.265,19.7052,0,0.000885,0,0
0:1:39.849,350.026,19.8086,0,0.000885,0,0
0:1:40.144,351.143,19.8707,0,0.000885,0,0
0:1:40.439,352.312,19.9396,0,0.000885,0,0
0:1:40.747,354.016,20.0362,0,0.000885,0,0
0:1:41.043,355.306,20.1051,0,0.000885,0,0
0:1:41.343,356.009,20.1465,0,0.000885,0,0
0:1:41.635,357.65,20.2361,0,0.000885,0,0
0:1:41.944,358.473,20.2844,0,0.000885,0,0
0:1:42.243,360.582,20.4016,0,0.000885,0,0
0:1:42.543,362.05,20.4912,0,0.000885,0,0
0:1:42.845,363.34,20.5602,0,0.000885,0,0
0:1:43.147,363.985,20.5946,0,0.000885,0,0
0:1:43.447,366.098,20.7187,0,0.000885,0,0
0:1:43.749,366.858,20.7601,0,0.000885,0,0
0:1:44.044,367.623,20.8015,0,0.000885,0,0
0:1:44.340,369.029,20.8842,0,0.000885,0,0
0:1:44.636,370.261,20.9532,0,0.000885,0,0
0:1:44.935,372.08,21.0566,0,0.000885,0,0
0:1:45.229,373.544,21.1393,0,0.000885,0,0
0:1:45.527,374.954,21.2152,0,0.000885,0,0
0:1:45.833,376.831,21.3255,0,0.000885,0,0
0:1:46.126,377.183,21.3462,0,0.000885,0,0
0:1:46.428,379.06,21.4496,0,0.000885,0,0
0:1:46.732,380.114,21.5116,0,0.000885,0,0
0:1:47.029,381.462,21.5875,0,0.000885,0,0
0:1:47.326,382.165,21.6289,0,0.000885,0,0
0:1:47.625,384.629,21.7667,0,0.000885,0,0
0:1:47.929,385.625,21.8219,0,0.000885,0,0
0:1:48.231,386.626,21.8771,0,0.000885,0,0
0:1:48.532,387.916,21.9529,0,0.000885,0,0
0:1:48.832,389.557,22.0425,0,0.000885,0,0
0:1:49.129,391.021,22.1253,0,0.000885,0,0
0:1:49.427,392.373,22.2011,0,0.000885,0,0
0:1:49.721,393.485,22.2701,0,0.000885,0,0
0:1:50.021,394.13,22.3045,0,0.000885,0,0
0:1:50.315,395.598,22.3873,0,0.000885,0,0
0:1:50.613,397.182,22.4769,0,0.000885,0,0
0:1:50.913,398.294,22.539,0,0.000885,0,0
0:1:51.205,399.41,22.601,0,0.000885,0,0
0:1:51.504,401.052,22.6975,0,0.000885,0,0
0:1:51.797,402.106,22.7527,0,0.000885,0,0
0:1:52.100,403.458,22.8285,0,0.000885,0,0
0:1:52.404,405.567,22.9526,0,0.000885,0,0
0:1:52.706,407.092,23.0354,0,0.000885,0,0
0:1:53.006,407.857,23.0768,0,0.000885,0,0
0:1:53.307,409.672,23.1802,0,0.000885,0,0
0:1:53.605,410.669,23.2422,0,0.000885,0,0
0:1:53.900,411.082,23.2629,0,0.000885,0,0
0:1:54.196,412.724,23.3525,0,0.000885,0,0
0:1:54.494,414.423,23.4491,0,0.000885,0,0
0:1:54.787,415.597,23.518,0,0.000885,0,0
0:1:55.089,416.887,23.5939,0,0.000885,0,0
0:1:55.383,418.471,23.6835,0,0.000885,0,0
0:1:55.680,419.587,23.7455,0,0.000885,0,0
0:1:55.977,420.699,23.8076,0,0.000885,0,0
0:1:56.271,421.754,23.8696,0,0.000885,0,0
0:1:56.572,423.924,23.9869,0,0.000885,0,0
0:1:56.865,425.392,24.0696,0,0.000885,0,0
0:1:57.166,426.153,24.1179,0,0.000885,0,0
0:1:57.469,427.269,24.1799,0,0.000885,0,0
0:1:57.772,429.382,24.2971,0,0.000885,0,0
0:1:58.073,430.259,24.3454,0,0.000885,0,0
0:1:58.373,431.317,24.4074,0,0.000885,0,0
0:1:58.673,432.781,24.4902,0,0.000885,0,0
0:1:58.968,433.719,24.5453,0,0.000885,0,0
0:1:59.266,435.423,24.6419,0,0.000885,0,0
0:1:59.564,436.887,24.7246,0,0.000885,0,0
0:1:59.857,438.234,24.8004,0,0.000885,0,0
0:2:0.158,439.467,24.8694,0,0.000885,0,0
0:2:0.451,440.699,24.9383,0,0.000885,0,0
0:2:0.750,442.051,25.0142,0,0.000885,0,0
0:2:1.046,443.279,25.0831,0,0.000885,0,0
0:2:1.340,444.279,25.1383,0,0.000885,0,0
0:2:1.639,445.801,25.2279,0,0.000885,0,0
0:2:1.951,447.327,25.3107,0,0.000885,0,0
0:2:2.253,449.319,25.4279,0,0.000885,0,0
0:2:2.556,450.258,25.4761,0,0.000885,0,0
0:2:2.857,452.019,25.5795,0,0.000885,0,0
0:2:3.156,452.664,25.614,0,0.000885,0,0
0:2:3.458,454.306,25.7105,0,0.000885,0,0
0:2:3.761,455.538,25.7795,0,0.000885,0,0
0:2:4.055,455.947,25.8002,0,0.000885,0,0
0:2:4.353,457.651,25.8967,0,0.000885,0,0
0:2:4.650,458.469,25.945,0,0.000885,0,0
0:2:4.946,460.467,26.0553,0,0.000885,0,0
0:2:5.246,461.872,26.138,0,0.000885,0,0
0:2:5.538,463.22,26.2139,0,0.000885,0,0
0:2:5.838,464.337,26.2759,0,0.000885,0,0
0:2:6.153,465.862,26.3656,0,0.000885,0,0
0:2:6.450,467.326,26.4483,0,0.000885,0,0
0:2:6.749,468.616,26.5172,0,0.000885,0,0
0:2:7.042,469.848,26.5862,0,0.000885,0,0
0:2:7.341,470.844,26.6413,0,0.000885,0,0
0:2:7.646,472.428,26.731,0,0.000885,0,0
0:2:7.948,474.189,26.8344,0,0.000885,0,0
0:2:8.248,475.301,26.8964,0,0.000885,0,0
0:2:8.548,476.947,26.993,0,0.000885,0,0
0:2:8.848,478.059,27.055,0,0.000885,0,0
0:2:9.141,479.349,27.124,0,0.000885,0,0
0:2:9.441,480.639,27.1998,0,0.000885,0,0
0:2:9.746,481.698,27.2619,0,0.000885,0,0
0:2:10.042,482.694,27.317,0,0.000885,0,0
0:2:10.339,483.691,27.3722,0,0.000885,0,0
0:2:10.654,485.919,27.4963,0,0.000885,0,0
0:2:10.953,487.267,27.5721,0,0.000885,0,0
0:2:11.247,488.09,27.6204,0,0.000885,0,0
0:2:11.546,489.264,27.6893,0,0.000885,0,0
0:2:11.850,491.666,27.8203,0,0.000885,0,0
0:2:12.151,492.605,27.8755,0,0.000885,0,0
0:2:12.454,493.601,27.9307,0,0.000885,0,0
0:2:12.755,494.891,28.0065,0,0.000885,0,0
0:2:13.055,496.244,28.0823,0,0.000885,0,0
0:2:13.356,497.943,28.1789,0,0.000885,0,0
0:2:13.654,498.939,28.234,0,0.000885,0,0
0:2:13.949,500.229,28.3099,0,0.000885,0,0
0:2:14.246,501.577,28.3857,0,0.000885,0,0
0:2:14.543,503.574,28.496,0,0.000885,0,0
0:2:14.837,504.513,28.5512,0,0.000885,0,0
0:2:15.136,505.509,28.6063,0,0.000885,0,0
0:2:15.432,506.506,28.6615,0,0.000885,0,0
0:2:15.737,508.267,28.7649,0,0.000885,0,0
0:2:16.044,510.26,28.8752,0,0.000885,0,0
0:2:16.350,511.314,28.9373,0,0.000885,0,0
0:2:16.651,512.195,28.9856,0,0.000885,0,0
0:2:16.953,513.427,29.0545,0,0.000885,0,0
0:2:17.255,515.011,29.1441,0,0.000885,0,0
0:2:17.558,515.771,29.1855,0,0.000885,0,0
0:2:17.861,517.297,29.2751,0,0.000885,0,0
0:2:18.160,519.059,29.3717,0,0.000885,0,0
0:2:18.462,519.997,29.4268,0,0.000885,0,0
0:2:18.763,521.932,29.5371,0,0.000885,0,0
0:2:19.056,523.044,29.5992,0,0.000885,0,0
0:2:19.353,524.103,29.6612,0,0.000885,0,0
0:2:19.652,525.393,29.7302,0,0.000885,0,0
0:2:19.955,526.389,29.7854,0,0.000885,0,0
0:2:20.255,528.382,29.9026,0,0.000885,0,0
0:2:20.549,529.436,29.9577,0,0.000885,0,0
0:2:20.847,530.846,30.0405,0,0.000885,0,0
0:2:21.140,532.136,30.1094,0,0.000885,0,0
0:2:21.437,533.248,30.1784,0,0.000885,0,0
0:2:21.736,535.126,30.2818,0,0.000885,0,0
0:2:22.029,536.3,30.3507,0,0.000885,0,0
0:2:22.329,537.416,30.4128,0,0.000885,0,0
0:2:22.632,538.177,30.4541,0,0.000885,0,0
0:2:22.934,540.17,30.5645,0,0.000885,0,0
0:2:23.235,541.166,30.6265,0,0.000885,0,0
0:2:23.536,542.456,30.6955,0,0.000885,0,0
0:2:23.837,543.337,30.7437,0,0.000885,0,0
0:2:24.130,544.689,30.8196,0,0.000885,0,0
0:2:24.430,546.562,30.9299,0,0.000885,0,0
0:2:24.736,547.972,31.0057,0,0.000885,0,0
0:2:25.031,549.44,31.0885,0,0.000885,0,0
0:2:25.329,550.73,31.1643,0,0.000885,0,0
0:2:25.623,551.548,31.2126,0,0.000885,0,0
0:2:25.925,553.603,31.3298,0,0.000885,0,0
0:2:26.218,554.893,31.3987,0,0.000885,0,0
0:2:26.516,556.005,31.4608,0,0.000885,0,0
0:2:26.812,557.238,31.5366,0,0.000885,0,0
0:2:27.114,558.292,31.5918,0,0.000885,0,0
0:2:27.418,560.111,31.6952,0,0.000885,0,0
0:2:27.719,561.285,31.7641,0,0.000885,0,0
0:2:28.019,562.753,31.8469,0,0.000885,0,0
0:2:28.320,563.808,31.902,0,0.000885,0,0
0:2:28.617,565.391,31.9917,0,0.000885,0,0
0:2:28.916,566.859,32.0744,0,0.000885,0,0
0:2:29.210,568.029,32.1434,0,0.000885,0,0
0:2:29.509,568.91,32.1916,0,0.000885,0,0
0:2:29.803,569.79,32.2468,0,0.000885,0,0
0:2:30.101,571.08,32.3157,0,0.000885,0,0
0:2:30.399,573.251,32.4398,0,0.000885,0,0
0:2:30.692,574.248,32.495,0,0.000885,0,0
0:2:30.992,575.302,32.557,0,0.000885,0,0
0:2:31.286,576.476,32.6191,0,0.000885,0,0
0:2:31.585,578.06,32.7087,0,0.000885,0,0
0:2:31.879,579.701,32.8053,0,0.000885,0,0
0:2:32.180,581.049,32.8811,0,0.000885,0,0
0:2:32.483,582.045,32.9363,0,0.000885,0,0
0:2:32.786,583.22,33.0052,0,0.000885,0,0
0:2:33.086,585.039,33.1086,0,0.000885,0,0
0:2:33.387,586.507,33.1914,0,0.000885,0,0
0:2:33.685,587.503,33.2465,0,0.000885,0,0
0:2:33.982,588.909,33.3224,0,0.000885,0,0
0:2:34.280,589.968,33.3844,0,0.000885,0,0
0:2:34.581,591.787,33.4878,0,0.000885,0,0
0:2:34.874,593.077,33.5637,0,0.000885,0,0
0:2:35.176,594.309,33.6326,0,0.000885,0,0
0:2:35.473,595.483,33.6947,0,0.000885,0,0
0:2:35.770,596.716,33.7705,0,0.000885,0,0
0:2:36.070,598.419,33.867,0,0.000885,0,0
0:2:36.365,599.536,33.9291,0,0.000885,0,0
0:2:36.666,600.296,33.9705,0,0.000885,0,0
0:2:36.959,601.884,34.0601,0,0.000885,0,0
0:2:37.263,602.939,34.1222,0,0.000885,0,0
0:2:37.567,604.816,34.2256,0,0.000885,0,0
0:2:37.870,605.759,34.2807,0,0.000885,0,0
0:2:38.173,606.697,34.329,0,0.000885,0,0
0:2:38.475,607.809,34.3979,0,0.000885,0,0
0:2:38.777,610.216,34.5289,0,0.000885,0,0
0:2:39.072,611.568,34.6048,0,0.000885,0,0
0:2:39.371,612.858,34.6806,0,0.000885,0,0
0:2:39.672,613.917,34.7427,0,0.000885,0,0
0:2:39.965,615.327,34.8185,0,0.000885,0,0
0:2:40.267,616.617,34.8944,0,0.000885,0,0
0:2:40.561,617.907,34.9633,0,0.000885,0,0
0:2:40.863,619.317,35.0461,0,0.000885,0,0
0:2:41.159,620.371,35.1081,0,0.000885,0,0
0:2:41.456,621.43,35.1633,0,0.000885,0,0
0:2:41.757,623.307,35.2736,0,0.000885,0,0
0:2:42.060,624.601,35.3425,0,0.000885,0,0
0:2:42.364,626.421,35.4459,0,0.000885,0,0
0:2:42.666,627.066,35.4873,0,0.000885,0,0
0:2:42.969,628.24,35.5494,0,0.000885,0,0
0:2:43.273,629.414,35.6183,0,0.000885,0,0
0:2:43.568,631.172,35.7148,0,0.000885,0,0
0:2:43.871,632.524,35.7907,0,0.000885,0,0
0:2:44.164,634.05,35.8803,0,0.000885,0,0
0:2:44.466,635.282,35.9493,0,0.000885,0,0
0:2:44.762,636.807,36.0389,0,0.000885,0,0
0:2:45.061,637.688,36.0872,0,0.000885,0,0
0:2:45.360,638.862,36.1492,0,0.000885,0,0
0:2:45.653,640.33,36.2319,0,0.000885,0,0
0:2:45.955,641.269,36.2871,0,0.000885,0,0
0:2:46.250,643.088,36.3905,0,0.000885,0,0
0:2:46.551,643.733,36.425,0,0.000885,0,0
0:2:46.844,645.321,36.5146,0,0.000885,0,0
0:2:47.147,647.434,36.6387,0,0.000885,0,0
0:2:47.454,648.551,36.7008,0,0.000885,0,0
0:2:47.756,649.956,36.7766,0,0.000885,0,0
0:2:48.060,650.895,36.8318,0,0.000885,0,0
0:2:48.362,651.896,36.887,0,0.000885,0,0
0:2:48.662,654.418,37.0317,0,0.000885,0,0
0:2:48.960,655.414,37.0869,0,0.000885,0,0
0:2:49.256,656.179,37.1352,0,0.000885,0,0
0:2:49.556,657.647,37.2179,0,0.000885,0,0
0:2:49.851,658.528,37.2662,0,0.000885,0,0
0:2:50.153,660.463,37.3765,0,0.000885,0,0
0:2:50.450,661.757,37.4454,0,0.000885,0,0
0:2:50.745,662.696,37.5006,0,0.000885,0,0
0:2:51.044,663.692,37.5557,0,0.000885,0,0
0:2:51.351,665.338,37.6523,0,0.000885,0,0
0:2:51.653,666.98,37.7419,0,0.000885,0,0
0:2:51.945,668.096,37.804,0,0.000885,0,0
0:2:52.250,669.271,37.8729,0,0.000885,0,0
0:2:52.555,670.503,37.9418,0,0.000885,0,0
0:2:52.859,672.558,38.0591,0,0.000885,0,0
0:2:53.161,673.496,38.1142,0,0.000885,0,0
0:2:53.464,674.786,38.1832,0,0.000885,0,0
0:2:53.764,676.018,38.2521,0,0.000885,0,0
0:2:54.062,677.664,38.3486,0,0.000885,0,0
0:2:54.361,678.545,38.3969,0,0.000885,0,0
0:2:54.661,680.013,38.4796,0,0.000885,0,0
0:2:54.954,681.361,38.5555,0,0.000885,0,0
0:2:55.255,682.944,38.6451,0,0.000885,0,0
0:2:55.552,684.532,38.7347,0,0.000885,0,0
0:2:55.851,685.765,38.8037,0,0.000885,0,0
0:2:56.146,686.525,38.852,0,0.000885,0,0
0:2:56.444,687.762,38.9209,0,0.000885,0,0
0:2:56.744,689.581,39.0243,0,0.000885,0,0
0:2:57.039,691.107,39.1071,0,0.000885,0,0
0:2:57.341,692.219,39.1691,0,0.000885,0,0
0:2:57.644,693.335,39.2381,0,0.000885,0,0
0:2:57.946,694.745,39.3139,0,0.000885,0,0
0:2:58.251,696.035,39.3897,0,0.000885,0,0
0:2:58.554,697.797,39.4863,0,0.000885,0,0
0:2:58.856,698.326,39.5139,0,0.000885,0,0
0:2:59.150,699.381,39.5759,0,0.000885,0,0
0:2:59.450,700.555,39.6449,0,0.000885,0,0
0:2:59.748,702.081,39.7276,0,0.000885,0,0
0:3:0.044,703.842,39.831,0,0.000885,0,0
0:3:0.345,705.137,39.9,0,0.000885,0,0
0:3:0.639,706.72,39.9896,0,0.000885,0,0
0:3:0.940,707.952,40.0585,0,0.000885,0,0
0:3:1.236,709.536,40.1482,0,0.000885,0,0
0:3:1.533,710.359,40.1964,0,0.000885,0,0
0:3:1.833,711.591,40.2654,0,0.000885,0,0
0:3:2.136,712.943,40.3412,0,0.000885,0,0
0:3:2.442,714.936,40.4584,0,0.000885,0,0
0:3:2.743,715.875,40.5136,0,0.000885,0,0
0:3:3.044,717.285,40.5894,0,0.000885,0,0
0:3:3.346,718.695,40.6722,0,0.000885,0,0
0:3:3.642,719.455,40.7135,0,0.000885,0,0
0:3:3.942,721.924,40.8514,0,0.000885,0,0
0:3:4.246,722.685,40.8928,0,0.000885,0,0
0:3:4.548,723.801,40.9618,0,0.000885,0,0
0:3:4.843,724.918,41.0238,0,0.000885,0,0
0:3:5.143,726.795,41.1272,0,0.000885,0,0
0:3:5.442,727.734,41.1824,0,0.000885,0,0
0:3:5.737,728.792,41.2444,0,0.000885,0,0
0:3:6.038,730.198,41.3203,0,0.000885,0,0
0:3:6.333,731.256,41.3823,0,0.000885,0,0
0:3:6.642,733.485,41.5064,0,0.000885,0,0
0:3:6.948,734.602,41.5685,0,0.000885,0,0
0:3:7.254,735.834,41.6374,0,0.000885,0,0
0:3:7.559,736.95,41.6995,0,0.000885,0,0
0:3:7.862,738.476,41.7891,0,0.000885,0,0
0:3:8.163,739.944,41.8719,0,0.000885,0,0
0:3:8.465,741.234,41.9477,0,0.000885,0,0
0:3:8.762,742.35,42.0098,0,0.000885,0,0
0:3:9.063,744.054,42.1063,0,0.000885,0,0
0:3:9.360,744.872,42.1545,0,0.000885,0,0
0:3:9.662,745.989,42.2166,0,0.000885,0,0
0:3:9.956,746.812,42.258,0,0.000885,0,0
0:3:10.256,748.338,42.3476,0,0.000885,0,0
0:3:10.554,750.215,42.451,0,0.000885,0,0
0:3:10.859,751.918,42.5475,0,0.000885,0,0
0:3:11.161,753.266,42.6234,0,0.000885,0,0
0:3:11.455,754.441,42.6923,0,0.000885,0,0
0:3:11.756,755.673,42.7613,0,0.000885,0,0
0:3:12.052,757.319,42.8578,0,0.000885,0,0
0:3:12.356,758.373,42.913,0,0.000885,0,0
0:3:12.660,759.609,42.9819,0,0.000885,0,0
0:3:12.964,760.842,43.0578,0,0.000885,0,0
0:3:13.266,762.603,43.1543,0,0.000885,0,0
0:3:13.569,764.009,43.237,0,0.000885,0,0
0:3:13.868,765.067,43.2922,0,0.000885,0,0
0:3:14.167,766.357,43.368,0,0.000885,0,0
0:3:14.461,767.296,43.4232,0,0.000885,0,0
0:3:14.763,768.942,43.5128,0,0.000885,0,0
0:3:15.058,770.054,43.5749,0,0.000885,0,0
0:3:15.359,771.228,43.6438,0,0.000885,0,0
0:3:15.655,772.638,43.7197,0,0.000885,0,0
0:3:15.954,773.697,43.7817,0,0.000885,0,0
0:3:16.253,775.632,43.892,0,0.000885,0,0
0:3:16.546,776.984,43.9679,0,0.000885,0,0
0:3:16.848,777.981,44.023,0,0.000885,0,0
0:3:17.154,779.328,44.0989,0,0.000885,0,0
0:3:17.458,781.268,44.2092,0,0.000885,0,0
0:3:17.760,782.442,44.2781,0,0.000885,0,0
0:3:18.063,783.381,44.3333,0,0.000885,0,0
0:3:18.365,784.671,44.4022,0,0.000885,0,0
0:3:18.660,785.494,44.4505,0,0.000885,0,0
0:3:18.962,787.429,44.5608,0,0.000885,0,0
0:3:19.257,788.781,44.6367,0,0.000885,0,0
0:3:19.553,789.955,44.7056,0,0.000885,0,0
0:3:19.853,791.13,44.7677,0,0.000885,0,0
0:3:20.157,792.713,44.8573,0,0.000885,0,0
0:3:20.460,793.945,44.9262,0,0.000885,0,0
0:3:20.754,795.533,45.0159,0,0.000885,0,0
0:3:21.054,796.997,45.0986,0,0.000885,0,0
0:3:21.349,797.82,45.1469,0,0.000885,0,0
0:3:21.647,799.466,45.2434,0,0.000885,0,0
0:3:21.947,800.756,45.3123,0,0.000885,0,0
0:3:22.254,802.103,45.3882,0,0.000885,0,0
0:3:22.556,803.456,45.464,0,0.000885,0,0
0:3:22.859,805.159,45.5606,0,0.000885,0,0
0:3:23.161,806.271,45.6226,0,0.000885,0,0
0:3:23.464,807.446,45.6916,0,0.000885,0,0
0:3:23.759,808.856,45.7743,0,0.000885,0,0
0:3:24.061,809.794,45.8226,0,0.000885,0,0
0:3:24.356,811.614,45.926,0,0.000885,0,0
0:3:24.656,812.966,46.0018,0,0.000885,0,0
0:3:24.950,813.962,46.0639,0,0.000885,0,0
0:3:25.249,815.137,46.1259,0,0.000885,0,0
0:3:25.549,816.369,46.1949,0,0.000885,0,0
0:3:25.842,818.66,46.3259,0,0.000885,0,0
0:3:26.144,820.185,46.4155,0,0.000885,0,0
0:3:26.440,820.773,46.4431,0,0.000885,0,0
0:3:26.739,821.711,46.4982,0,0.000885,0,0
0:3:27.038,822.885,46.5672,0,0.000885,0,0
0:3:27.339,824.589,46.6637,0,0.000885,0,0
0:3:27.645,826.288,46.7602,0,0.000885,0,0
0:3:27.946,827.289,46.8154,0,0.000885,0,0
0:3:28.248,828.343,46.8775,0,0.000885,0,0
0:3:28.550,830.221,46.9809,0,0.000885,0,0
0:3:28.848,831.809,47.0705,0,0.000885,0,0
0:3:29.147,832.747,47.1257,0,0.000885,0,0
0:3:29.451,833.392,47.1601,0,0.000885,0,0
0:3:29.754,834.451,47.2222,0,0.000885,0,0
0:3:30.049,836.622,47.3463,0,0.000885,0,0
0:3:30.347,838.032,47.4221,0,0.000885,0,0
0:3:30.647,839.028,47.4773,0,0.000885,0,0
0:3:30.942,840.024,47.5325,0,0.000885,0,0
0:3:31.244,841.377,47.6152,0,0.000885,0,0
0:3:31.547,843.663,47.7393,0,0.000885,0,0
0:3:31.848,844.544,47.7945,0,0.000885,0,0
0:3:32.146,845.718,47.8565,0,0.000885,0,0
0:3:32.449,846.892,47.9255,0,0.000885,0,0
0:3:32.756,848.77,48.0289,0,0.000885,0,0
0:3:33.058,849.77,48.084,0,0.000885,0,0
0:3:33.360,851.412,48.1806,0,0.000885,0,0
0:3:33.664,852.413,48.2357,0,0.000885,0,0
0:3:33.961,854.406,48.3529,0,0.000885,0,0
0:3:34.262,855.406,48.4081,0,0.000885,0,0
0:3:34.556,856.639,48.477,0,0.000885,0,0
0:3:34.857,857.635,48.5322,0,0.000885,0,0
0:3:35.155,859.045,48.6149,0,0.000885,0,0
0:3:35.449,860.393,48.6908,0,0.000885,0,0
0:3:35.749,861.509,48.7528,0,0.000885,0,0
0:3:36.044,863.093,48.8425,0,0.000885,0,0
0:3:36.346,864.503,48.9183,0,0.000885,0,0
0:3:36.640,865.913,49.001,0,0.000885,0,0
0:3:36.943,867.319,49.0769,0,0.000885,0,0
0:3:37.247,867.906,49.1114,0,0.000885,0,0
0:3:37.550,869.316,49.1941,0,0.000885,0,0
0:3:37.855,870.784,49.2768,0,0.000885,0,0
0:3:38.156,872.719,49.3871,0,0.000885,0,0
0:3:38.456,874.129,49.463,0,0.000885,0,0
0:3:38.763,875.125,49.525,0,0.000885,0,0
0:3:39.060,876.126,49.5802,0,0.000885,0,0
0:3:39.362,877.243,49.6423,0,0.000885,0,0
0:3:39.656,878.826,49.7319,0,0.000885,0,0
0:3:39.955,880.236,49.8077,0,0.000885,0,0
0:3:40.255,881.762,49.8974,0,0.000885,0,0
0:3:40.550,882.701,49.9525,0,0.000885,0,0
0:3:40.849,883.697,50.0077,0,0.000885,0,0
0:3:41.144,885.868,50.1318,0,0.000885,0,0
0:3:41.446,887.1,50.2007,0,0.000885,0,0
0:3:41.741,887.571,50.2283,0,0.000885,0,0
0:3:42.043,888.924,50.3041,0,0.000885,0,0
0:3:42.349,890.917,50.4145,0,0.000885,0,0
0:3:42.652,892.327,50.4972,0,0.000885,0,0
0:3:42.952,893.674,50.573,0,0.000885,0,0
0:3:43.257,895.32,50.6627,0,0.000885,0,0
0:3:43.557,896.143,50.7109,0,0.000885,0,0
0:3:43.852,897.785,50.8075,0,0.000885,0,0
0:3:44.149,898.665,50.8557,0,0.000885,0,0
0:3:44.448,900.191,50.9385,0,0.000885,0,0
0:3:44.744,901.601,51.0212,0,0.000885,0,0
0:3:45.045,902.833,51.0902,0,0.000885,0,0
0:3:45.342,903.892,51.1522,0,0.000885,0,0
0:3:45.640,905.418,51.2349,0,0.000885,0,0
0:3:45.939,906.356,51.2901,0,0.000885,0,0
0:3:46.242,907.882,51.3728,0,0.000885,0,0
0:3:46.544,909.466,51.4625,0,0.000885,0,0
0:3:46.838,910.466,51.5245,0,0.000885,0,0
0:3:47.141,911.756,51.5935,0,0.000885,0,0
0:3:47.445,913.104,51.6693,0,0.000885,0,0
0:3:47.749,914.63,51.7589,0,0.000885,0,0
0:3:48.052,915.279,51.7934,0,0.000885,0,0
0:3:48.353,916.921,51.8899,0,0.000885,0,0
0:3:48.658,918.624,51.9865,0,0.000885,0,0
0:3:48.951,919.563,52.0347,0,0.000885,0,0
0:3:49.249,921.734,52.1588,0,0.000885,0,0
0:3:49.548,923.38,52.2554,0,0.000885,0,0
0:3:49.844,924.318,52.3036,0,0.000885,0,0
0:3:50.146,924.963,52.345,0,0.000885,0,0
0:3:50.439,926.017,52.4002,0,0.000885,0,0
0:3:50.741,928.015,52.5174,0,0.000885,0,0
0:3:51.037,929.189,52.5794,0,0.000885,0,0
0:3:51.344,930.479,52.6553,0,0.000885,0,0
0:3:51.643,931.595,52.7173,0,0.000885,0,0
0:3:51.939,932.885,52.7932,0,0.000885,0,0
0:3:52.244,934.767,52.8966,0,0.000885,0,0
0:3:52.549,936.057,52.9724,0,0.000885,0,0
0:3:52.851,937.174,53.0345,0,0.000885,0,0
0:3:53.153,938.228,53.0896,0,0.000885,0,0
0:3:53.457,939.754,53.1793,0,0.000885,0,0
0:3:53.760,941.048,53.2551,0,0.000885,0,0
0:3:54.053,942.396,53.3309,0,0.000885,0,0
0:3:54.352,943.57,53.393,0,0.000885,0,0
0:3:54.649,945.567,53.5102,0,0.000885,0,0
0:3:54.946,946.8,53.5792,0,0.000885,0,0
0:3:55.248,947.974,53.6412,0,0.000885,0,0
0:3:55.552,949.09,53.7102,0,0.000885,0,0
0:3:55.853,950.26,53.7722,0,0.000885,0,0
0:3:56.150,951.964,53.8687,0,0.000885,0,0
0:3:56.449,953.254,53.9446,0,0.000885,0,0
0:3:56.747,954.49,54.0135,0,0.000885,0,0
0:3:57.051,955.723,54.0825,0,0.000885,0,0
0:3:57.357,957.542,54.1859,0,0.000885,0,0
0:3:57.659,958.596,54.248,0,0.000885,0,0
0:3:57.958,960.184,54.3376,0,0.000885,0,0
0:3:58.260,961.065,54.3858,0,0.000885,0,0
0:3:58.558,962.061,54.441,0,0.000885,0,0
0:3:58.858,963.881,54.5444,0,0.000885,0,0
0:3:59.150,964.819,54.5996,0,0.000885,0,0
0:3:59.451,965.936,54.6616,0,0.000885,0,0
0:3:59.748,967.577,54.7513,0,0.000885,0,0
0:4:0.057,969.574,54.8685,0,0.000885,0,0
0:4:0.365,970.513,54.9167,0,0.000885,0,0
0:4:0.661,971.629,54.9857,0,0.000885,0,0
0:4:0.963,972.804,55.0477,0,0.000885,0,0
0:4:1.258,974.036,55.1167,0,0.000885,0,0
0:4:1.559,975.677,55.2132,0,0.000885,0,0
0:4:1.853,977.265,55.3028,0,0.000885,0,0
0:4:2.159,978.026,55.3442,0,0.000885,0,0
0:4:2.463,979.32,55.4201,0,0.000885,0,0
0:4:2.766,981.371,55.5373,0,0.000885,0,0
0:4:3.066,982.545,55.5993,0,0.000885,0,0
0:4:3.369,984.071,55.689,0,0.000885,0,0
0:4:3.666,984.894,55.7303,0,0.000885,0,0
0:4:3.966,986.42,55.82,0,0.000885,0,0
0:4:4.261,987.714,55.8958,0,0.000885,0,0
0:4:4.562,988.946,55.9647,0,0.000885,0,0
0:4:4.858,990.414,56.0475,0,0.000885,0,0
0:4:5.155,991.526,56.1095,0,0.000885,0,0
0:4:5.451,992.585,56.1716,0,0.000885,0,0
0:4:5.761,994.169,56.2612,0,0.000885,0,0
0:4:6.062,995.227,56.3164,0,0.000885,0,0
0:4:6.366,996.517,56.3922,0,0.000885,0,0
0:4:6.666,997.985,56.475,0,0.000885,0,0
0:4:6.964,999.689,56.5715,0,0.000885,0,0
0:4:7.268,1000.69,56.6266,0,0.000885,0,0
0:4:7.570,1001.8,56.6887,0,0.000885,0,0
0:4:7.873,1003.68,56.799,0,0.000885,0,0
0:4:8.174,1005.38,56.8955,0,0.000885,0,0
0:4:8.476,1006.32,56.9438,0,0.000885,0,0
0:4:8.773,1007.9,57.0334,0,0.000885,0,0
0:4:9.074,1009.19,57.1093,0,0.000885,0,0
0:4:9.369,1010.08,57.1575,0,0.000885,0,0
0:4:9.671,1012.07,57.2747,0,0.000885,0,0
0:4:9.965,1013.19,57.3368,0,0.000885,0,0
0:4:10.265,1014.01,57.3782,0,0.000885,0,0
0:4:10.562,1015.24,57.454,0,0.000885,0,0
0:4:10.859,1016.77,57.5367,0,0.000885,0,0
0:4:11.159,1018.35,57.6264,0,0.000885,0,0
0:4:11.463,1019.7,57.7022,0,0.000885,0,0
0:4:11.764,1020.82,57.7643,0,0.000885,0,0
0:4:12.059,1022.17,57.8401,0,0.000885,0,0
0:4:12.362,1023.58,57.9229,0,0.000885,0,0
0:4:12.666,1024.93,57.9987,0,0.000885,0,0
0:4:12.968,1025.87,58.0539,0,0.000885,0,0
0:4:13.271,1026.93,58.109,0,0.000885,0,0
0:4:13.573,1028.39,58.1918,0,0.000885,0,0
0:4:13.873,1030.15,58.2952,0,0.000885,0,0
0:4:14.171,1031.68,58.3779,0,0.000885,0,0
0:4:14.469,1032.73,58.44,0,0.000885,0,0
0:4:14.769,1033.79,58.502,0,0.000885,0,0
0:4:15.063,1035.03,58.571,0,0.000885,0,0
0:4:15.365,1036.72,58.6675,0,0.000885,0,0
0:4:15.661,1037.9,58.7364,0,0.000885,0,0
0:4:15.960,1039.54,58.8261,0,0.000885,0,0
0:4:16.256,1040.36,58.8743,0,0.000885,0,0
0:4:16.553,1042.42,58.9915,0,0.000885,0,0
0:4:16.853,1043.48,59.0467,0,0.000885,0,0
0:4:17.159,1044.71,59.1156,0,0.000885,0,0
0:4:17.462,1045.71,59.1777,0,0.000885,0,0
0:4:17.764,1046.82,59.2398,0,0.000885,0,0
0:4:18.067,1048.47,59.3294,0,0.000885,0,0
0:4:18.368,1049.41,59.3845,0,0.000885,0,0
0:4:18.663,1050.75,59.4604,0,0.000885,0,0
0:4:18.963,1052.22,59.5431,0,0.000885,0,0
0:4:19.261,1054.1,59.6465,0,0.000885,0,0
0:4:19.559,1055.39,59.7224,0,0.000885,0,0
0:4:19.869,1056.33,59.7775,0,0.000885,0,0
0:4:20.163,1057.62,59.8465,0,0.000885,0,0
0:4:20.464,1058.85,59.9223,0,0.000885,0,0
0:4:20.761,1060.44,60.012,0,0.000885,0,0
0:4:21.060,1062.08,60.1016,0,0.000885,0,0
0:4:21.368,1063.67,60.1912,0,0.000885,0,0
0:4:21.664,1064.61,60.2464,0,0.000885,0,0
0:4:21.965,1065.96,60.3222,0,0.000885,0,0
0:4:22.270,1067.13,60.3843,0,0.000885,0,0
0:4:22.573,1068.54,60.467,0,0.000885,0,0
0:4:22.875,1069.48,60.5222,0,0.000885,0,0
0:4:23.176,1071.18,60.6187,0,0.000885,0,0
0:4:23.480,1072.77,60.7083,0,0.000885,0,0
0:4:23.774,1074.17,60.7842,0,0.000885,0,0
0:4:24.074,1075.47,60.86,0,0.000885,0,0
0:4:24.371,1076.52,60.9221,0,0.000885,0,0
0:4:24.666,1077.05,60.9497,0,0.000885,0,0
0:4:24.967,1079.28,61.0738,0,0.000885,0,0
0:4:25.263,1080.58,61.1496,0,0.000885,0,0
0:4:25.564,1081.99,61.2254,0,0.000885,0,0
0:4:25.860,1083.04,61.2875,0,0.000885,0,0
0:4:26.160,1084.8,61.384,0,0.000885,0,0
0:4:26.455,1086.03,61.4599,0,0.000885,0,0
0:4:26.750,1086.86,61.5012,0,0.000885,0,0
0:4:27.051,1088.03,61.5702,0,0.000885,0,0
0:4:27.355,1089.03,61.6253,0,0.000885,0,0
0:4:27.662,1090.61,61.715,0,0.000885,0,0
0:4:27.964,1091.67,61.777,0,0.000885,0,0
0:4:28.266,1093.08,61.8529,0,0.000885,0,0
0:4:28.568,1093.78,61.8942,0,0.000885,0,0
0:4:28.863,1095.01,61.9632,0,0.000885,0,0
0:4:29.165,1097.24,62.0942,0,0.000885,0,0
0:4:29.462,1098.71,62.1769,0,0.000885,0,0
0:4:29.767,1099.89,62.239,0,0.000885,0,0
0:4:30.069,1101.41,62.3286,0,0.000885,0,0
0:4:30.364,1103,62.4182,0,0.000885,0,0
0:4:30.665,1104.76,62.5148,0,0.000885,0,0
0:4:30.960,1105.52,62.563,0,0.000885,0,0
0:4:31.261,1107.46,62.6664,0,0.000885,0,0
0:4:31.556,1108.51,62.7285,0,0.000885,0,0
0:4:31.852,1109.75,62.7974,0,0.000885,0,0
0:4:32.152,1110.98,62.8664,0,0.000885,0,0
0:4:32.457,1112.1,62.9284,0,0.000885,0,0
0:4:32.762,1112.92,62.9767,0,0.000885,0,0
0:4:33.063,1111.86,62.9216,0,0.000885,0,0
0:4:33.362,1111.86,62.9216,0,0.000885,0,0
0:4:33.665,1113.51,63.0112,0,0.000885,0,0
0:4:33.968,1114.85,63.087,0,0.000885,0,0
0:4:34.270,1117.2,63.218,0,0.000885,0,0
0:4:34.567,1120.43,63.4042,0,0.000885,0,0
0:4:34.865,1122.43,63.5145,0,0.000885,0,0
0:4:35.164,1124.54,63.6386,0,0.000885,0,0
0:4:35.468,1123.83,63.5972,0,0.000885,0,0
0:4:35.769,1123.13,63.5559,0,0.000885,0,0
0:4:36.061,1123.19,63.5628,0,0.000885,0,0
0:4:36.362,1125.19,63.6731,0,0.000885,0,0
0:4:36.657,1127.12,63.7834,0,0.000885,0,0
0:4:36.954,1129.65,63.9282,0,0.000885,0,0
0:4:37.254,1132.76,64.1006,0,0.000885,0,0
0:4:37.558,1134.87,64.2178,0,0.000885,0,0
0:4:37.863,1136.98,64.3419,0,0.000885,0,0
0:4:38.165,1139.04,64.4591,0,0.000885,0,0
0:4:38.467,1140.62,64.5487,0,0.000885,0,0
0:4:38.770,1143.32,64.7004,0,0.000885,0,0
0:4:39.064,1144.73,64.7762,0,0.000885,0,0
0:4:39.366,1145.96,64.8452,0,0.000885,0,0
0:4:39.671,1146.73,64.8935,0,0.000885,0,0
0:4:39.970,1148.26,64.9762,0,0.000885,0,0
0:4:40.268,1149.55,65.052,0,0.000885,0,0
0:4:40.563,1150.02,65.0796,0,0.000885,0,0
0:4:40.865,1151.13,65.1417,0,0.000885,0,0
0:4:41.157,1151.72,65.1761,0,0.000885,0,0
0:4:41.458,1145.85,64.8383,0,0.000885,0,0
0:4:41.763,1143.62,64.7142,0,0.000885,0,0
0:4:42.066,1144.62,64.7693,0,0.000885,0,0
0:4:42.369,1146.14,64.859,0,0.000885,0,0
0:4:42.671,1146.14,64.859,0,0.000885,0,0
0:4:42.971,1147.14,64.9141,0,0.000885,0,0
0:4:43.274,1149.6,65.052,0,0.000885,0,0
0:4:43.573,1152.25,65.2037,0,0.000885,0,0
0:4:43.869,1154.65,65.3416,0,0.000885,0,0
0:4:44.168,1158.29,65.5485,0,0.000885,0,0
0:4:44.468,1025.52,58.0332,0,0.000885,0,0
0:4:44.554,1025.52,58.0332,0,0.000885,0,0