File: DataFile2021-07-17_060656.csv
Test ID:,Date Tested:,Time:,Test Type:,Diameter Avg. (mm):,Cyl. Corr. Factor:,Height (mm):,Age (days):,Weight (kN):,Break Type:,Ramp Rate (MPa/s):,Load at Break (kN):,Stress at Break (MPa):
12,7/17/2021,06:06,Cylinder,100,1,200,0,3.6,3,0.25,463.81,59.05
Sample Time,Load (kN),Stress (MPa),Long. Strain,Trans. Strain,Chan1 Deflection (mm),Chan2 Deflection (mm)
0:0:7.883,5.04428,0.641212,0,0.000885,0,0
0:0:8.183,5.7471,0.730844,0,0.000885,0,0
0:0:8.479,6.68568,0.848055,0,0.000885,0,0
0:0:8.778,7.56642,0.965266,0,0.000885,0,0
0:0:9.075,8.26924,1.0549,0,0.000885,0,0
0:0:9.373,7.86001,0.99974,0,0.000885,0,0
0:0:9.672,8.74076,1.11006,0,0.000885,0,0
0:0:9.966,8.97206,1.14453,0,0.000885,0,0
0:0:10.269,9.85281,1.25485,0,0.000885,0,0
0:0:10.564,10.0307,1.27553,0,0.000885,0,0
0:0:10.864,10.6179,1.35137,0,0.000885,0,0
0:0:11.161,11.3786,1.4479,0,0.000885,0,0
0:0:11.459,12.1392,1.54443,0,0.000885,0,0
0:0:11.758,12.2015,1.55132,0,0.000885,0,0
0:0:12.053,12.7264,1.62027,0,0.000885,0,0
0:0:12.355,13.6071,1.73058,0,0.000885,0,0
0:0:12.651,14.43,1.83401,0,0.000885,0,0
0:0:12.949,14.43,1.83401,0,0.000885,0,0
0:0:13.258,15.9513,2.03395,0,0.000885,0,0
0:0:13.560,15.8935,2.02706,0,0.000885,0,0
0:0:13.863,16.2449,2.06843,0,0.000885,0,0
0:0:14.166,16.9522,2.15806,0,0.000885,0,0
0:0:14.469,18.3,2.33043,0,0.000885,0,0
0:0:14.770,18.6514,2.3718,0,0.000885,0,0
0:0:15.069,18.945,2.41317,0,0.000885,0,0
0:0:15.370,19.3542,2.46143,0,0.000885,0,0
0:0:15.668,20.3506,2.59243,0,0.000885,0,0
0:0:15.967,21.0534,2.68206,0,0.000885,0,0
0:0:16.266,21.5828,2.75101,0,0.000885,0,0
0:0:16.563,22.0543,2.80617,0,0.000885,0,0
0:0:16.865,22.7571,2.8958,0,0.000885,0,0
0:0:17.160,23.6378,3.00611,0,0.000885,0,0
0:0:17.461,24.6343,3.13711,0,0.000885,0,0
0:0:17.759,25.4527,3.24054,0,0.000885,0,0
0:0:18.057,25.9242,3.30259,0,0.000885,0,0
0:0:18.356,26.2178,3.33706,0,0.000885,0,0
0:0:18.660,27.272,3.47496,0,0.000885,0,0
0:0:18.964,27.7436,3.53012,0,0.000885,0,0
0:0:19.266,28.4464,3.61975,0,0.000885,0,0
0:0:19.568,28.5042,3.62664,0,0.000885,0,0
0:0:19.871,29.385,3.74385,0,0.000885,0,0
0:0:20.167,29.9098,3.80591,0,0.000885,0,0
0:0:20.469,30.4392,3.87485,0,0.000885,0,0
0:0:20.764,30.5548,3.88864,0,0.000885,0,0
0:0:21.066,31.3199,3.98517,0,0.000885,0,0
0:0:21.362,31.6135,4.02654,0,0.000885,0,0
0:0:21.659,32.432,4.12996,0,0.000885,0,0
0:0:21.959,32.8457,4.18512,0,0.000885,0,0
0:0:22.255,33.077,4.2127,0,0.000885,0,0
0:0:22.557,33.7842,4.30233,0,0.000885,0,0
0:0:22.853,34.6605,4.41264,0,0.000885,0,0
0:0:23.154,34.7228,4.41954,0,0.000885,0,0
0:0:23.460,35.6614,4.54365,0,0.000885,0,0
0:0:23.761,36.3642,4.63328,0,0.000885,0,0
0:0:24.065,37.3028,4.75049,0,0.000885,0,0
0:0:24.365,37.4763,4.77117,0,0.000885,0,0
0:0:24.667,38.0634,4.84701,0,0.000885,0,0
0:0:24.963,38.6506,4.92286,0,0.000885,0,0
0:0:25.263,39.8249,5.06765,0,0.000885,0,0
0:0:25.562,40.0562,5.10212,0,0.000885,0,0
0:0:25.857,40.9948,5.21933,0,0.000885,0,0
0:0:26.160,41.6398,5.30207,0,0.000885,0,0
0:0:26.457,41.9334,5.33654,0,0.000885,0,0
0:0:26.756,42.4627,5.40549,0,0.000885,0,0
0:0:27.053,43.1655,5.49512,0,0.000885,0,0
0:0:27.350,43.4013,5.5227,0,0.000885,0,0
0:0:27.652,44.0463,5.60544,0,0.000885,0,0
0:0:27.943,44.8069,5.70196,0,0.000885,0,0
0:0:28.250,45.5142,5.7916,0,0.000885,0,0
0:0:28.553,46.0391,5.86054,0,0.000885,0,0
0:0:28.856,46.3327,5.90191,0,0.000885,0,0
0:0:29.158,47.2713,6.01912,0,0.000885,0,0
0:0:29.461,47.4492,6.03981,0,0.000885,0,0
0:0:29.763,47.6227,6.06049,0,0.000885,0,0
0:0:30.059,48.3878,6.16391,0,0.000885,0,0
0:0:30.359,49.2062,6.26733,0,0.000885,0,0
0:0:30.658,50.1448,6.38455,0,0.000885,0,0
0:0:30.954,50.087,6.37765,0,0.000885,0,0
0:0:31.255,50.9099,6.48107,0,0.000885,0,0
0:0:31.551,51.5549,6.56381,0,0.000885,0,0
0:0:31.851,52.2577,6.65344,0,0.000885,0,0
0:0:32.146,53.1385,6.76376,0,0.000885,0,0
0:0:32.445,54.4284,6.92923,0,0.000885,0,0
0:0:32.745,54.4284,6.92923,0,0.000885,0,0
0:0:33.052,54.8955,6.99128,0,0.000885,0,0
0:0:33.353,55.7184,7.09471,0,0.000885,0,0
0:0:33.658,56.3056,7.17055,0,0.000885,0,0
0:0:33.963,56.8928,7.24639,0,0.000885,0,0
0:0:34.263,56.7727,7.22571,0,0.000885,0,0
0:0:34.566,57.5377,7.32913,0,0.000885,0,0
0:0:34.868,58.1205,7.39807,0,0.000885,0,0
0:0:35.165,58.6498,7.46702,0,0.000885,0,0
0:0:35.465,59.237,7.54286,0,0.000885,0,0
0:0:35.761,59.7663,7.61181,0,0.000885,0,0
0:0:36.059,60.8205,7.74281,0,0.000885,0,0
0:0:36.359,61.5812,7.83934,0,0.000885,0,0
0:0:36.655,61.7591,7.86002,0,0.000885,0,0
0:0:36.956,62.2884,7.92897,0,0.000885,0,0
0:0:37.250,62.9334,8.01171,0,0.000885,0,0
0:0:37.548,63.2848,8.05997,0,0.000885,0,0
0:0:37.845,63.9877,8.1496,0,0.000885,0,0
0:0:38.151,64.5748,8.21855,0,0.000885,0,0
0:0:38.456,65.2777,8.30818,0,0.000885,0,0
0:0:38.759,65.6291,8.35645,0,0.000885,0,0
0:0:39.061,66.8034,8.50813,0,0.000885,0,0
0:0:39.364,67.1548,8.5495,0,0.000885,0,0
0:0:39.662,67.742,8.62534,0,0.000885,0,0
0:0:39.963,68.3291,8.70118,0,0.000885,0,0
0:0:40.258,69.032,8.79082,0,0.000885,0,0
0:0:40.560,69.6769,8.87355,0,0.000885,0,0
0:0:40.855,70.4376,8.97008,0,0.000885,0,0
0:0:41.156,70.6155,8.99076,0,0.000885,0,0
0:0:41.454,71.2605,9.0735,0,0.000885,0,0
0:0:41.759,71.4384,9.09418,0,0.000885,0,0
0:0:42.060,73.022,9.29413,0,0.000885,0,0
0:0:42.356,73.2533,9.32861,0,0.000885,0,0
0:0:42.656,73.3111,9.3355,0,0.000885,0,0
0:0:42.952,73.667,9.37687,0,0.000885,0,0
0:0:43.254,74.312,9.45961,0,0.000885,0,0
0:0:43.559,75.1883,9.57682,0,0.000885,0,0
0:0:43.863,75.8333,9.65266,0,0.000885,0,0
0:0:44.166,76.3626,9.72161,0,0.000885,0,0
0:0:44.468,76.8341,9.78366,0,0.000885,0,0
0:0:44.769,78.1819,9.95603,0,0.000885,0,0
0:0:45.068,78.2398,9.96292,0,0.000885,0,0
0:0:45.365,78.5334,9.9974,0,0.000885,0,0
0:0:45.666,79.294,10.0939,0,0.000885,0,0
0:0:45.961,80.2904,10.2249,0,0.000885,0,0
0:0:46.261,80.4105,10.2387,0,0.000885,0,0
0:0:46.560,81.229,10.3421,0,0.000885,0,0
0:0:46.858,82.0519,10.4456,0,0.000885,0,0
0:0:47.157,82.4033,10.4938,0,0.000885,0,0
0:0:47.454,83.1061,10.5835,0,0.000885,0,0
0:0:47.756,83.6933,10.6593,0,0.000885,0,0
0:0:48.047,84.4584,10.7558,0,0.000885,0,0
0:0:48.353,84.6319,10.7765,0,0.000885,0,0
0:0:48.657,84.9254,10.811,0,0.000885,0,0
0:0:48.960,86.1576,10.9696,0,0.000885,0,0
0:0:49.263,86.6869,11.0385,0,0.000885,0,0
0:0:49.566,87.2118,11.1075,0,0.000885,0,0
0:0:49.868,87.6255,11.1557,0,0.000885,0,0
0:0:50.166,88.5018,11.266,0,0.000885,0,0
0:0:50.464,88.7954,11.3074,0,0.000885,0,0
0:0:50.765,89.6183,11.4108,0,0.000885,0,0
0:0:51.058,90.0854,11.4729,0,0.000885,0,0
0:0:51.360,90.0854,11.4729,0,0.000885,0,0
0:0:51.656,91.7312,11.6797,0,0.000885,0,0
0:0:51.957,91.8469,11.6935,0,0.000885,0,0
0:0:52.254,92.1405,11.7349,0,0.000885,0,0
0:0:52.561,92.6698,11.7969,0,0.000885,0,0
0:0:52.863,93.4304,11.8935,0,0.000885,0,0
0:0:53.157,93.9598,11.9624,0,0.000885,0,0
0:0:53.461,94.5425,12.0382,0,0.000885,0,0
0:0:53.766,95.4232,12.1486,0,0.000885,0,0
0:0:54.069,96.4819,12.2865,0,0.000885,0,0
0:0:54.370,96.8333,12.3278,0,0.000885,0,0
0:0:54.673,97.2426,12.383,0,0.000885,0,0
0:0:54.975,97.594,12.4244,0,0.000885,0,0
0:0:55.271,98.3546,12.5209,0,0.000885,0,0
0:0:55.570,98.5326,12.5485,0,0.000885,0,0
0:0:55.869,99.7647,12.7001,0,0.000885,0,0
0:0:56.167,100.294,12.7691,0,0.000885,0,0
0:0:56.468,100.468,12.7898,0,0.000885,0,0
0:0:56.762,101.29,12.8932,0,0.000885,0,0
0:0:57.066,101.878,12.969,0,0.000885,0,0
0:0:57.362,102.403,13.038,0,0.000885,0,0
0:0:57.660,102.638,13.0656,0,0.000885,0,0
0:0:57.959,103.283,13.1483,0,0.000885,0,0
0:0:58.263,103.692,13.2035,0,0.000885,0,0
0:0:58.568,104.982,13.3689,0,0.000885,0,0
0:0:58.870,105.338,13.4103,0,0.000885,0,0
0:0:59.172,105.863,13.4793,0,0.000885,0,0
0:0:59.475,106.45,13.5551,0,0.000885,0,0
0:0:59.772,107.331,13.6654,0,0.000885,0,0
0:1:0.074,107.625,13.6999,0,0.000885,0,0
0:1:0.369,107.856,13.7344,0,0.000885,0,0
0:1:0.671,108.679,13.8378,0,0.000885,0,0
0:1:0.969,109.618,13.955,0,0.000885,0,0
0:1:1.265,109.56,13.9481,0,0.000885,0,0
0:1:1.566,110.556,14.0791,0,0.000885,0,0
0:1:1.860,111.379,14.1825,0,0.000885,0,0
0:1:2.164,111.962,14.2584,0,0.000885,0,0
0:1:2.459,112.549,14.3273,0,0.000885,0,0
0:1:2.759,113.43,14.4445,0,0.000885,0,0
0:1:3.057,114.075,14.5273,0,0.000885,0,0
0:1:3.359,114.31,14.5548,0,0.000885,0,0
0:1:3.665,114.777,14.6169,0,0.000885,0,0
0:1:3.967,115.422,14.6996,0,0.000885,0,0
0:1:4.269,115.716,14.7341,0,0.000885,0,0
0:1:4.572,116.597,14.8444,0,0.000885,0,0
0:1:4.871,116.948,14.8927,0,0.000885,0,0
0:1:5.170,118.007,15.0237,0,0.000885,0,0
0:1:5.466,118.532,15.0926,0,0.000885,0,0
0:1:5.768,119.003,15.1547,0,0.000885,0,0
0:1:6.064,119.648,15.2305,0,0.000885,0,0
0:1:6.363,119.648,15.2305,0,0.000885,0,0
0:1:6.663,120.115,15.2926,0,0.000885,0,0
0:1:6.958,120.818,15.3822,0,0.000885,0,0
0:1:7.261,121.525,15.4718,0,0.000885,0,0
0:1:7.558,121.877,15.5201,0,0.000885,0,0
0:1:7.856,123.109,15.6718,0,0.000885,0,0
0:1:8.156,123.754,15.7545,0,0.000885,0,0
0:1:8.460,124.105,15.8028,0,0.000885,0,0
0:1:8.764,125.102,15.9269,0,0.000885,0,0
0:1:9.067,125.511,15.982,0,0.000885,0,0
0:1:9.369,126.45,16.0993,0,0.000885,0,0
0:1:9.671,126.743,16.1406,0,0.000885,0,0
0:1:9.969,127.508,16.2372,0,0.000885,0,0
0:1:10.271,128.091,16.3061,0,0.000885,0,0
0:1:10.565,128.091,16.3061,0,0.000885,0,0
0:1:10.867,128.563,16.3682,0,0.000885,0,0
0:1:11.164,129.381,16.4716,0,0.000885,0,0
0:1:11.460,130.204,16.575,0,0.000885,0,0
0:1:11.761,130.555,16.6233,0,0.000885,0,0
0:1:12.056,131.085,16.6922,0,0.000885,0,0
0:1:12.359,131.965,16.8025,0,0.000885,0,0
0:1:12.664,132.317,16.8439,0,0.000885,0,0
0:1:12.965,133.135,16.9542,0,0.000885,0,0
0:1:13.263,133.487,16.9956,0,0.000885,0,0
0:1:13.567,134.661,17.1473,0,0.000885,0,0
0:1:13.870,135.012,17.1886,0,0.000885,0,0
0:1:14.173,135.19,17.2162,0,0.000885,0,0
0:1:14.475,135.542,17.2576,0,0.000885,0,0
0:1:14.779,136.596,17.3955,0,0.000885,0,0
0:1:15.075,136.89,17.4299,0,0.000885,0,0
0:1:15.377,137.886,17.5541,0,0.000885,0,0
0:1:15.672,138.473,17.6299,0,0.000885,0,0
0:1:15.975,138.767,17.6713,0,0.000885,0,0
0:1:16.271,139.883,17.8092,0,0.000885,0,0
0:1:16.570,140.292,17.8643,0,0.000885,0,0
0:1:16.870,140.466,17.885,0,0.000885,0,0
0:1:17.166,141.231,17.9815,0,0.000885,0,0
0:1:17.468,141.76,18.0505,0,0.000885,0,0
0:1:17.763,142.93,18.1953,0,0.000885,0,0
0:1:18.064,143.402,18.2573,0,0.000885,0,0
0:1:18.362,143.633,18.2849,0,0.000885,0,0
0:1:18.665,144.34,18.3745,0,0.000885,0,0
0:1:18.970,145.159,18.4848,0,0.000885,0,0
0:1:19.272,145.573,18.5331,0,0.000885,0,0
0:1:19.574,145.862,18.5745,0,0.000885,0,0
0:1:19.877,146.155,18.6089,0,0.000885,0,0
0:1:20.176,147.214,18.7468,0,0.000885,0,0
0:1:20.478,147.33,18.7606,0,0.000885,0,0
0:1:20.771,148.446,18.8985,0,0.000885,0,0
0:1:21.073,149.091,18.9813,0,0.000885,0,0
0:1:21.369,149.558,19.0433,0,0.000885,0,0
0:1:21.669,150.439,19.1536,0,0.000885,0,0
0:1:21.969,150.906,19.2157,0,0.000885,0,0
0:1:22.265,151.965,19.3467,0,0.000885,0,0
0:1:22.567,152.489,19.4156,0,0.000885,0,0
0:1:22.862,152.196,19.3812,0,0.000885,0,0
0:1:23.164,153.077,19.4915,0,0.000885,0,0
0:1:23.469,153.664,19.5673,0,0.000885,0,0
0:1:23.771,154.193,19.6294,0,0.000885,0,0
0:1:24.074,154.135,19.6225,0,0.000885,0,0
0:1:24.378,155.541,19.8017,0,0.000885,0,0
0:1:24.678,155.95,19.8569,0,0.000885,0,0
0:1:24.978,156.715,19.9534,0,0.000885,0,0
0:1:25.273,156.889,19.9741,0,0.000885,0,0
0:1:25.574,157.418,20.0431,0,0.000885,0,0
0:1:25.871,158.415,20.1672,0,0.000885,0,0
0:1:26.171,158.415,20.1672,0,0.000885,0,0
0:1:26.469,158.886,20.2292,0,0.000885,0,0
0:1:26.766,160.056,20.3809,0,0.000885,0,0
0:1:27.067,160.821,20.4774,0,0.000885,0,0
0:1:27.361,161.408,20.5533,0,0.000885,0,0
0:1:27.665,162.284,20.6636,0,0.000885,0,0
0:1:27.960,162.698,20.7119,0,0.000885,0,0
0:1:28.264,163.574,20.8291,0,0.000885,0,0
0:1:28.567,163.868,20.8635,0,0.000885,0,0
0:1:28.871,164.397,20.9325,0,0.000885,0,0
0:1:29.173,164.927,21.0014,0,0.000885,0,0
0:1:29.475,165.745,21.1049,0,0.000885,0,0
0:1:29.775,165.63,21.0911,0,0.000885,0,0
0:1:30.074,166.332,21.1807,0,0.000885,0,0
0:1:30.372,167.097,21.2772,0,0.000885,0,0
0:1:30.671,167.742,21.36,0,0.000885,0,0
0:1:30.968,168.677,21.4772,0,0.000885,0,0
0:1:31.270,169.206,21.5461,0,0.000885,0,0
0:1:31.566,169.264,21.553,0,0.000885,0,0
0:1:31.865,169.615,21.5944,0,0.000885,0,0
0:1:32.166,170.732,21.7392,0,0.000885,0,0
0:1:32.461,171.377,21.8219,0,0.000885,0,0
0:1:32.763,172.257,21.9322,0,0.000885,0,0
0:1:33.059,172.845,22.0081,0,0.000885,0,0
0:1:33.361,172.609,21.9805,0,0.000885,0,0
0:1:33.666,173.49,22.0908,0,0.000885,0,0
0:1:33.970,174.25,22.1873,0,0.000885,0,0
0:1:34.272,174.722,22.2494,0,0.000885,0,0
0:1:34.574,175.482,22.3459,0,0.000885,0,0
0:1:34.876,175.834,22.3873,0,0.000885,0,0
0:1:35.172,176.243,22.4424,0,0.000885,0,0
0:1:35.472,177.244,22.5665,0,0.000885,0,0
0:1:35.771,178.182,22.6838,0,0.000885,0,0
0:1:36.067,179.059,22.801,0,0.000885,0,0
0:1:36.368,179.179,22.8148,0,0.000885,0,0
0:1:36.665,179.294,22.8285,0,0.000885,0,0
0:1:36.964,180.411,22.9733,0,0.000885,0,0
0:1:37.264,180.82,23.0216,0,0.000885,0,0
0:1:37.559,181.523,23.1112,0,0.000885,0,0
0:1:37.859,181.639,23.125,0,0.000885,0,0
0:1:38.151,182.813,23.2767,0,0.000885,0,0
0:1:38.454,182.871,23.2836,0,0.000885,0,0
0:1:38.761,183.578,23.3732,0,0.000885,0,0
0:1:39.065,184.454,23.4835,0,0.000885,0,0
0:1:39.367,184.806,23.5318,0,0.000885,0,0
0:1:39.669,185.451,23.6145,0,0.000885,0,0
0:1:39.971,185.98,23.6766,0,0.000885,0,0
0:1:40.268,186.389,23.7318,0,0.000885,0,0
0:1:40.568,186.625,23.7593,0,0.000885,0,0
0:1:40.867,188.618,24.0144,0,0.000885,0,0
0:1:41.162,188.618,24.0144,0,0.000885,0,0
0:1:41.463,188.56,24.0075,0,0.000885,0,0
0:1:41.759,189.792,24.1661,0,0.000885,0,0
0:1:42.060,190.437,24.2489,0,0.000885,0,0
0:1:42.353,190.437,24.2489,0,0.000885,0,0
0:1:42.654,191.554,24.3868,0,0.000885,0,0
0:1:42.965,192.021,24.4488,0,0.000885,0,0
0:1:43.269,192.199,24.4695,0,0.000885,0,0
0:1:43.573,193.489,24.635,0,0.000885,0,0
0:1:43.872,193.489,24.635,0,0.000885,0,0
0:1:44.172,194.076,24.7108,0,0.000885,0,0
0:1:44.472,194.369,24.7453,0,0.000885,0,0
0:1:44.768,195.188,24.8556,0,0.000885,0,0
0:1:45.069,196.011,24.959,0,0.000885,0,0
0:1:45.361,196.304,24.9935,0,0.000885,0,0
0:1:45.660,197.359,25.1314,0,0.000885,0,0
0:1:45.954,197.537,25.1521,0,0.000885,0,0
0:1:46.260,198.062,25.221,0,0.000885,0,0
0:1:46.560,199.529,25.4072,0,0.000885,0,0
0:1:46.863,200.059,25.4692,0,0.000885,0,0
0:1:47.163,200.059,25.4692,0,0.000885,0,0
0:1:47.453,200.526,25.5313,0,0.000885,0,0
0:1:47.751,201.464,25.6485,0,0.000885,0,0
0:1:48.048,202.287,25.7588,0,0.000885,0,0
0:1:48.348,202.461,25.7795,0,0.000885,0,0
0:1:48.650,202.754,25.814,0,0.000885,0,0
0:1:48.951,203.987,25.9726,0,0.000885,0,0
0:1:49.251,204.338,26.0139,0,0.000885,0,0
0:1:49.549,204.574,26.0484,0,0.000885,0,0
0:1:49.847,205.748,26.1932,0,0.000885,0,0
0:1:50.144,206.509,26.2966,0,0.000885,0,0
0:1:50.460,206.918,26.3449,0,0.000885,0,0
0:1:50.760,207.856,26.4621,0,0.000885,0,0
0:1:51.061,207.977,26.4828,0,0.000885,0,0
0:1:51.360,207.799,26.4552,0,0.000885,0,0
0:1:51.655,208.973,26.6069,0,0.000885,0,0
0:1:51.960,209.146,26.6276,0,0.000885,0,0
0:1:52.260,210.788,26.8413,0,0.000885,0,0
0:1:52.551,210.85,26.8482,0,0.000885,0,0
0:1:52.850,210.908,26.8551,0,0.000885,0,0
0:1:53.165,211.433,26.924,0,0.000885,0,0
0:1:53.466,212.607,27.0688,0,0.000885,0,0
0:1:53.769,213.079,27.1309,0,0.000885,0,0
0:1:54.070,213.604,27.1998,0,0.000885,0,0
0:1:54.370,214.427,27.3032,0,0.000885,0,0
0:1:54.672,214.542,27.317,0,0.000885,0,0
0:1:54.969,214.956,27.3722,0,0.000885,0,0
0:1:55.266,216.01,27.5032,0,0.000885,0,0
0:1:55.562,216.771,27.5997,0,0.000885,0,0
0:1:55.860,217.006,27.6273,0,0.000885,0,0
0:1:56.163,218.181,27.779,0,0.000885,0,0
0:1:56.464,218.706,27.8479,0,0.000885,0,0
0:1:56.756,219.062,27.8893,0,0.000885,0,0
0:1:57.053,219.471,27.9445,0,0.000885,0,0
0:1:57.360,219.529,27.9513,0,0.000885,0,0
0:1:57.653,221.584,28.2133,0,0.000885,0,0
0:1:57.952,221.699,28.2271,0,0.000885,0,0
0:1:58.254,221.873,28.2478,0,0.000885,0,0
0:1:58.556,223.105,28.4064,0,0.000885,0,0
0:1:58.860,222.811,28.3719,0,0.000885,0,0
0:1:59.163,224.164,28.5443,0,0.000885,0,0
0:1:59.462,224.337,28.565,0,0.000885,0,0
0:1:59.762,224.395,28.5719,0,0.000885,0,0
0:2:0.061,225.511,28.7098,0,0.000885,0,0
0:2:0.354,225.685,28.7373,0,0.000885,0,0
0:2:0.651,226.156,28.7925,0,0.000885,0,0
0:2:0.949,227.211,28.9304,0,0.000885,0,0
0:2:1.263,227.798,29.0062,0,0.000885,0,0
0:2:1.563,228.621,29.1097,0,0.000885,0,0
0:2:1.854,228.852,29.1372,0,0.000885,0,0
0:2:2.154,229.969,29.282,0,0.000885,0,0
0:2:2.460,230.498,29.351,0,0.000885,0,0
0:2:2.754,230.204,29.3096,0,0.000885,0,0
0:2:3.063,231.316,29.4544,0,0.000885,0,0
0:2:3.366,232.019,29.544,0,0.000885,0,0
0:2:3.668,232.784,29.6406,0,0.000885,0,0
0:2:3.969,232.958,29.6612,0,0.000885,0,0
0:2:4.268,234.016,29.7991,0,0.000885,0,0
0:2:4.569,234.777,29.8957,0,0.000885,0,0
0:2:4.863,234.835,29.9026,0,0.000885,0,0
0:2:5.164,235.306,29.9577,0,0.000885,0,0
0:2:5.455,235.894,30.0336,0,0.000885,0,0
0:2:5.754,237.299,30.2128,0,0.000885,0,0
0:2:6.061,237.006,30.1784,0,0.000885,0,0
0:2:6.354,237.944,30.2956,0,0.000885,0,0
0:2:6.652,238.941,30.4197,0,0.000885,0,0
0:2:6.946,238.883,30.4128,0,0.000885,0,0
0:2:7.247,239.354,30.4748,0,0.000885,0,0
0:2:7.563,240.644,30.6403,0,0.000885,0,0
0:2:7.869,240.818,30.661,0,0.000885,0,0
0:2:8.166,240.524,30.6265,0,0.000885,0,0
0:2:8.468,242.344,30.854,0,0.000885,0,0
0:2:8.770,242.521,30.8816,0,0.000885,0,0
0:2:9.071,242.815,30.9161,0,0.000885,0,0
0:2:9.371,243.691,31.0264,0,0.000885,0,0
0:2:9.671,244.688,31.1574,0,0.000885,0,0
0:2:9.966,244.456,31.1229,0,0.000885,0,0
0:2:10.265,245.626,31.2746,0,0.000885,0,0
0:2:10.556,246.391,31.3711,0,0.000885,0,0
0:2:10.856,246.627,31.3987,0,0.000885,0,0
0:2:11.160,246.916,31.4401,0,0.000885,0,0
0:2:11.457,248.269,31.6125,0,0.000885,0,0
0:2:11.764,248.384,31.6263,0,0.000885,0,0
0:2:12.055,248.562,31.6469,0,0.000885,0,0
0:2:12.355,249.381,31.7504,0,0.000885,0,0
0:2:12.657,250.555,31.902,0,0.000885,0,0
0:2:12.957,250.906,31.9434,0,0.000885,0,0
0:2:13.250,250.906,31.9434,0,0.000885,0,0
0:2:13.551,251.609,32.033,0,0.000885,0,0
0:2:13.854,252.841,32.1916,0,0.000885,0,0
0:2:14.156,253.486,32.2744,0,0.000885,0,0
0:2:14.456,253.193,32.2399,0,0.000885,0,0
0:2:14.756,254.131,32.3571,0,0.000885,0,0
0:2:15.065,255.128,32.4812,0,0.000885,0,0
0:2:15.363,255.951,32.5915,0,0.000885,0,0
0:2:15.655,256.244,32.626,0,0.000885,0,0
0:2:15.955,256.538,32.6605,0,0.000885,0,0
0:2:16.256,257.298,32.757,0,0.000885,0,0
0:2:16.556,257.943,32.8397,0,0.000885,0,0
0:2:16.863,258.121,32.8673,0,0.000885,0,0
0:2:17.156,258.824,32.9569,0,0.000885,0,0
0:2:17.465,259.999,33.1017,0,0.000885,0,0
0:2:17.756,260.35,33.15,0,0.000885,0,0
0:2:18.057,260.35,33.15,0,0.000885,0,0
0:2:18.361,261.524,33.2948,0,0.000885,0,0
0:2:18.664,261.934,33.3499,0,0.000885,0,0
0:2:18.963,262.463,33.4189,0,0.000885,0,0
0:2:19.264,262.636,33.4396,0,0.000885,0,0
0:2:19.564,264.22,33.6395,0,0.000885,0,0
0:2:19.856,264.807,33.7154,0,0.000885,0,0
0:2:20.154,264.691,33.7016,0,0.000885,0,0
0:2:20.458,265.101,33.7567,0,0.000885,0,0
0:2:20.755,265.803,33.8464,0,0.000885,0,0
0:2:21.053,266.978,33.9912,0,0.000885,0,0
0:2:21.346,267.151,34.0118,0,0.000885,0,0
0:2:21.647,267.623,34.0739,0,0.000885,0,0
0:2:21.949,267.681,34.0808,0,0.000885,0,0
0:2:22.257,269.264,34.2807,0,0.000885,0,0
0:2:22.564,270.025,34.3842,0,0.000885,0,0
0:2:22.857,270.554,34.4462,0,0.000885,0,0
0:2:23.157,271.319,34.5427,0,0.000885,0,0
0:2:23.461,270.906,34.4945,0,0.000885,0,0
0:2:23.763,272.138,34.6531,0,0.000885,0,0
0:2:24.063,273.192,34.7841,0,0.000885,0,0
0:2:24.365,273.606,34.8392,0,0.000885,0,0
0:2:24.663,273.663,34.8461,0,0.000885,0,0
0:2:24.953,273.957,34.8806,0,0.000885,0,0
0:2:25.253,274.953,35.0116,0,0.000885,0,0
0:2:25.547,275.305,35.0529,0,0.000885,0,0
0:2:25.845,276.186,35.1633,0,0.000885,0,0
0:2:26.149,276.07,35.1495,0,0.000885,0,0
0:2:26.455,277.182,35.2943,0,0.000885,0,0
0:2:26.766,277.827,35.377,0,0.000885,0,0
0:2:27.067,278.708,35.4873,0,0.000885,0,0
0:2:27.368,279.295,35.5632,0,0.000885,0,0
0:2:27.662,279.526,35.5907,0,0.000885,0,0
0:2:27.956,280.113,35.6666,0,0.000885,0,0
0:2:28.266,280.701,35.7424,0,0.000885,0,0
0:2:28.567,281.697,35.8665,0,0.000885,0,0
0:2:28.869,282.168,35.9286,0,0.000885,0,0
0:2:29.170,282.578,35.9768,0,0.000885,0,0
0:2:29.471,283.401,36.0803,0,0.000885,0,0
0:2:29.771,283.81,36.1354,0,0.000885,0,0
0:2:30.066,284.455,36.2182,0,0.000885,0,0
0:2:30.366,284.748,36.2526,0,0.000885,0,0
0:2:30.668,285.336,36.3285,0,0.000885,0,0
0:2:30.968,286.39,36.4664,0,0.000885,0,0
0:2:31.262,286.506,36.4802,0,0.000885,0,0
0:2:31.559,286.919,36.5284,0,0.000885,0,0
0:2:31.856,287.973,36.6663,0,0.000885,0,0
0:2:32.159,288.561,36.7422,0,0.000885,0,0
0:2:32.459,289.263,36.8318,0,0.000885,0,0
0:2:32.754,289.793,36.9007,0,0.000885,0,0
0:2:33.063,290.438,36.9766,0,0.000885,0,0
0:2:33.370,291.434,37.1076,0,0.000885,0,0
0:2:33.669,291.376,37.1007,0,0.000885,0,0
0:2:33.973,291.906,37.1696,0,0.000885,0,0
0:2:34.274,292.608,37.2593,0,0.000885,0,0
0:2:34.574,293.076,37.3144,0,0.000885,0,0
0:2:34.875,293.956,37.4247,0,0.000885,0,0
0:2:35.172,294.601,37.5075,0,0.000885,0,0
0:2:35.471,295.362,37.604,0,0.000885,0,0
0:2:35.764,295.362,37.604,0,0.000885,0,0
0:2:36.066,296.363,37.735,0,0.000885,0,0
0:2:36.367,296.594,37.7626,0,0.000885,0,0
0:2:36.665,297.181,37.8384,0,0.000885,0,0
0:2:36.972,297.475,37.8729,0,0.000885,0,0
0:2:37.267,298.591,38.0177,0,0.000885,0,0
0:2:37.566,299.058,38.0797,0,0.000885,0,0
0:2:37.869,299.53,38.1349,0,0.000885,0,0
0:2:38.170,299.939,38.1901,0,0.000885,0,0
0:2:38.473,300.468,38.259,0,0.000885,0,0
0:2:38.774,301.287,38.3624,0,0.000885,0,0
0:2:39.075,302.403,38.5003,0,0.000885,0,0
0:2:39.376,303.048,38.5831,0,0.000885,0,0
0:2:39.675,303.106,38.59,0,0.000885,0,0
0:2:39.971,303.751,38.6727,0,0.000885,0,0
0:2:40.268,304.218,38.7347,0,0.000885,0,0
0:2:40.567,304.863,38.8175,0,0.000885,0,0
0:2:40.868,305.393,38.8864,0,0.000885,0,0
0:2:41.169,306.038,38.9692,0,0.000885,0,0
0:2:41.473,305.219,38.8589,0,0.000885,0,0
0:2:41.767,305.802,38.9347,0,0.000885,0,0
0:2:42.064,306.331,39.0036,0,0.000885,0,0
0:2:42.357,306.74,39.0588,0,0.000885,0,0
0:2:42.656,307.506,39.1553,0,0.000885,0,0
0:2:42.970,309.325,39.3829,0,0.000885,0,0
0:2:43.271,309.908,39.4587,0,0.000885,0,0
0:2:43.574,310.321,39.5139,0,0.000885,0,0
0:2:43.875,311.669,39.6862,0,0.000885,0,0
0:2:44.176,312.314,39.7621,0,0.000885,0,0
0:2:44.477,313.488,39.9137,0,0.000885,0,0
0:2:44.776,313.488,39.9137,0,0.000885,0,0
0:2:45.072,314.191,40.0034,0,0.000885,0,0
0:2:45.367,314.952,40.0999,0,0.000885,0,0
0:2:45.668,315.775,40.2033,0,0.000885,0,0
0:2:45.969,315.89,40.2171,0,0.000885,0,0
0:2:46.268,316.593,40.3068,0,0.000885,0,0
0:2:46.564,317.474,40.424,0,0.000885,0,0
0:2:46.858,318.239,40.5205,0,0.000885,0,0
0:2:47.156,319.471,40.6791,0,0.000885,0,0
0:2:47.450,319.351,40.6584,0,0.000885,0,0
0:2:47.749,319.938,40.7342,0,0.000885,0,0
0:2:48.044,320.641,40.8239,0,0.000885,0,0
0:2:48.344,320.935,40.8652,0,0.000885,0,0
0:2:48.649,321.522,40.9342,0,0.000885,0,0
0:2:48.950,321.638,40.9549,0,0.000885,0,0
0:2:49.250,322.46,41.0583,0,0.000885,0,0
0:2:49.550,322.99,41.1272,0,0.000885,0,0
0:2:49.849,323.693,41.2169,0,0.000885,0,0
0:2:50.145,324.044,41.2582,0,0.000885,0,0
0:2:50.458,323.928,41.2444,0,0.000885,0,0
0:2:50.758,324.573,41.3272,0,0.000885,0,0
0:2:51.052,325.276,41.4168,0,0.000885,0,0
0:2:51.350,326.508,41.5754,0,0.000885,0,0
0:2:51.655,326.86,41.6168,0,0.000885,0,0
0:2:51.952,327.033,41.6374,0,0.000885,0,0
0:2:52.249,327.678,41.7202,0,0.000885,0,0
0:2:52.542,328.092,41.7753,0,0.000885,0,0
0:2:52.842,328.737,41.8581,0,0.000885,0,0
0:2:53.148,329.382,41.9408,0,0.000885,0,0
0:2:53.450,329.849,41.996,0,0.000885,0,0
0:2:53.752,330.32,42.058,0,0.000885,0,0
0:2:54.053,331.784,42.2442,0,0.000885,0,0
0:2:54.352,332.371,42.32,0,0.000885,0,0
0:2:54.654,332.9,42.389,0,0.000885,0,0
0:2:54.951,333.074,42.4097,0,0.000885,0,0
0:2:55.249,333.252,42.4303,0,0.000885,0,0
0:2:55.554,334.893,42.6372,0,0.000885,0,0
0:2:55.852,335.071,42.6648,0,0.000885,0,0
0:2:56.157,335.716,42.7475,0,0.000885,0,0
0:2:56.461,336.183,42.8027,0,0.000885,0,0
0:2:56.770,337.006,42.9061,0,0.000885,0,0
0:2:57.062,337.415,42.9612,0,0.000885,0,0
0:2:57.365,338.06,43.044,0,0.000885,0,0
0:2:57.667,338.705,43.1267,0,0.000885,0,0
0:2:57.966,339.528,43.2301,0,0.000885,0,0
0:2:58.260,339.88,43.2715,0,0.000885,0,0
0:2:58.561,340.058,43.2991,0,0.000885,0,0
0:2:58.867,340.525,43.3542,0,0.000885,0,0
0:2:59.167,341.285,43.4508,0,0.000885,0,0
0:2:59.469,342.344,43.5887,0,0.000885,0,0
0:2:59.770,342.695,43.63,0,0.000885,0,0
0:3:0.066,342.989,43.6714,0,0.000885,0,0
0:3:0.361,343.692,43.761,0,0.000885,0,0
0:3:0.657,344.395,43.8507,0,0.000885,0,0
0:3:0.957,345.097,43.9403,0,0.000885,0,0
0:3:1.260,345.742,44.023,0,0.000885,0,0
0:3:1.558,345.805,44.0299,0,0.000885,0,0
0:3:1.852,346.623,44.1333,0,0.000885,0,0
0:3:2.158,347.913,44.2988,0,0.000885,0,0
0:3:2.457,348.091,44.3195,0,0.000885,0,0
0:3:2.751,348.443,44.3678,0,0.000885,0,0
0:3:3.051,349.323,44.4781,0,0.000885,0,0
0:3:3.355,349.79,44.5401,0,0.000885,0,0
0:3:3.656,350.32,44.6022,0,0.000885,0,0
0:3:3.957,350.849,44.6711,0,0.000885,0,0
0:3:4.257,351.61,44.7677,0,0.000885,0,0
0:3:4.558,352.433,44.8711,0,0.000885,0,0
0:3:4.853,352.548,44.8849,0,0.000885,0,0
0:3:5.159,353.371,44.9952,0,0.000885,0,0
0:3:5.457,353.896,45.0572,0,0.000885,0,0
0:3:5.761,354.074,45.0848,0,0.000885,0,0
0:3:6.060,355.013,45.202,0,0.000885,0,0
0:3:6.354,355.715,45.2917,0,0.000885,0,0
0:3:6.662,355.715,45.2917,0,0.000885,0,0
0:3:6.968,356.827,45.4296,0,0.000885,0,0
0:3:7.272,357.183,45.4778,0,0.000885,0,0
0:3:7.572,358.06,45.5881,0,0.000885,0,0
0:3:7.863,358.94,45.6985,0,0.000885,0,0
0:3:8.168,359.35,45.7536,0,0.000885,0,0
0:3:8.471,359.879,45.8226,0,0.000885,0,0
0:3:8.773,360.288,45.8708,0,0.000885,0,0
0:3:9.072,360.875,45.9467,0,0.000885,0,0
0:3:9.372,361.872,46.0777,0,0.000885,0,0
0:3:9.672,362.228,46.119,0,0.000885,0,0
0:3:9.975,363.162,46.2362,0,0.000885,0,0
0:3:10.274,363.633,46.2983,0,0.000885,0,0
0:3:10.570,364.22,46.3741,0,0.000885,0,0
0:3:10.874,364.336,46.3879,0,0.000885,0,0
0:3:11.172,364.865,46.4569,0,0.000885,0,0
0:3:11.464,365.51,46.5396,0,0.000885,0,0
0:3:11.766,366.565,46.6706,0,0.000885,0,0
0:3:12.070,366.916,46.7189,0,0.000885,0,0
0:3:12.367,367.21,46.7533,0,0.000885,0,0
0:3:12.662,367.33,46.7671,0,0.000885,0,0
0:3:12.966,368.268,46.8912,0,0.000885,0,0
0:3:13.268,369.265,47.0153,0,0.000885,0,0
0:3:13.571,369.496,47.0429,0,0.000885,0,0
0:3:13.872,370.145,47.1257,0,0.000885,0,0
0:3:14.172,370.79,47.2084,0,0.000885,0,0
0:3:14.472,371.729,47.3325,0,0.000885,0,0
0:3:14.773,372.018,47.367,0,0.000885,0,0
0:3:15.062,373.077,47.5049,0,0.000885,0,0
0:3:15.362,373.722,47.5807,0,0.000885,0,0
0:3:15.668,374.073,47.629,0,0.000885,0,0
0:3:15.963,374.834,47.7255,0,0.000885,0,0
0:3:16.260,375.012,47.7462,0,0.000885,0,0
0:3:16.556,375.95,47.8703,0,0.000885,0,0
0:3:16.855,376.711,47.9668,0,0.000885,0,0
0:3:17.146,377.005,48.0013,0,0.000885,0,0
0:3:17.447,377.65,48.084,0,0.000885,0,0
0:3:17.751,377.943,48.1185,0,0.000885,0,0
0:3:18.046,378.53,48.1944,0,0.000885,0,0
0:3:18.342,379.291,48.2909,0,0.000885,0,0
0:3:18.654,379.585,48.3322,0,0.000885,0,0
0:3:18.957,379.998,48.3805,0,0.000885,0,0
0:3:19.257,380.701,48.4701,0,0.000885,0,0
0:3:19.558,380.937,48.5046,0,0.000885,0,0
0:3:19.859,381.755,48.608,0,0.000885,0,0
0:3:20.155,382.52,48.7046,0,0.000885,0,0
0:3:20.454,383.339,48.808,0,0.000885,0,0
0:3:20.746,383.223,48.7942,0,0.000885,0,0
0:3:21.046,383.984,48.8907,0,0.000885,0,0
0:3:21.351,384.98,49.0148,0,0.000885,0,0
0:3:21.656,385.919,49.1389,0,0.000885,0,0
0:3:21.955,386.212,49.1734,0,0.000885,0,0
0:3:22.256,386.742,49.2424,0,0.000885,0,0
0:3:22.557,387.502,49.3389,0,0.000885,0,0
0:3:22.851,388.09,49.4147,0,0.000885,0,0
0:3:23.153,388.792,49.5044,0,0.000885,0,0
0:3:23.457,389.086,49.5388,0,0.000885,0,0
0:3:23.760,389.322,49.5733,0,0.000885,0,0
0:3:24.058,390.376,49.7043,0,0.000885,0,0
0:3:24.358,391.492,49.8491,0,0.000885,0,0
0:3:24.656,391.666,49.8698,0,0.000885,0,0
0:3:24.953,392.137,49.9318,0,0.000885,0,0
0:3:25.256,392.547,49.9801,0,0.000885,0,0
0:3:25.555,392.84,50.0215,0,0.000885,0,0
0:3:25.857,393.837,50.1456,0,0.000885,0,0
0:3:26.157,394.602,50.2421,0,0.000885,0,0
0:3:26.471,395.127,50.311,0,0.000885,0,0
0:3:26.768,395.482,50.3524,0,0.000885,0,0
0:3:27.076,396.537,50.4903,0,0.000885,0,0
0:3:27.370,397.004,50.5455,0,0.000885,0,0
0:3:27.669,397.355,50.5937,0,0.000885,0,0
0:3:27.970,398.356,50.7178,0,0.000885,0,0
0:3:28.272,398.587,50.7523,0,0.000885,0,0
0:3:28.575,399.295,50.8419,0,0.000885,0,0
0:3:28.876,399.468,50.8626,0,0.000885,0,0
0:3:29.175,399.997,50.9316,0,0.000885,0,0
0:3:29.475,400.055,50.9385,0,0.000885,0,0
0:3:29.776,401.639,51.1384,0,0.000885,0,0
0:3:30.070,402.168,51.2074,0,0.000885,0,0
0:3:30.369,402.577,51.2556,0,0.000885,0,0
0:3:30.664,403.458,51.3728,0,0.000885,0,0
0:3:30.966,404.045,51.4418,0,0.000885,0,0
0:3:31.266,404.69,51.5245,0,0.000885,0,0
0:3:31.571,404.979,51.5659,0,0.000885,0,0
0:3:31.869,405.335,51.6073,0,0.000885,0,0
0:3:32.162,405.86,51.6762,0,0.000885,0,0
0:3:32.458,407.035,51.8279,0,0.000885,0,0
0:3:32.757,407.622,51.8968,0,0.000885,0,0
0:3:33.058,408.031,51.952,0,0.000885,0,0
0:3:33.359,408.56,52.0209,0,0.000885,0,0
0:3:33.661,408.734,52.0416,0,0.000885,0,0
0:3:33.963,409.908,52.1933,0,0.000885,0,0
0:3:34.264,410.669,52.2898,0,0.000885,0,0
0:3:34.563,410.611,52.2829,0,0.000885,0,0
0:3:34.864,411.434,52.3864,0,0.000885,0,0
0:3:35.158,412.021,52.4622,0,0.000885,0,0
0:3:35.457,412.488,52.5174,0,0.000885,0,0
0:3:35.762,413.191,52.607,0,0.000885,0,0
0:3:36.077,413.72,52.6759,0,0.000885,0,0
0:3:36.376,414.014,52.7173,0,0.000885,0,0
0:3:36.669,415.304,52.8759,0,0.000885,0,0
0:3:36.969,415.13,52.8552,0,0.000885,0,0
0:3:37.271,415.833,52.9448,0,0.000885,0,0
0:3:37.570,416.358,53.0138,0,0.000885,0,0
0:3:37.865,416.945,53.0896,0,0.000885,0,0
0:3:38.158,418.235,53.2482,0,0.000885,0,0
0:3:38.458,418.649,53.3034,0,0.000885,0,0
0:3:38.760,418.88,53.3309,0,0.000885,0,0
0:3:39.061,419.232,53.3792,0,0.000885,0,0
0:3:39.361,420.406,53.5309,0,0.000885,0,0
0:3:39.661,420.877,53.5861,0,0.000885,0,0
0:3:39.961,421.051,53.6067,0,0.000885,0,0
0:3:40.264,421.402,53.655,0,0.000885,0,0
0:3:40.563,421.989,53.7308,0,0.000885,0,0
0:3:40.859,422.577,53.8067,0,0.000885,0,0
0:3:41.163,423.164,53.8756,0,0.000885,0,0
0:3:41.461,424.045,53.9928,0,0.000885,0,0
0:3:41.753,423.515,53.9239,0,0.000885,0,0
0:3:42.055,425.157,54.1307,0,0.000885,0,0
0:3:42.358,425.686,54.1997,0,0.000885,0,0
0:3:42.655,426.918,54.3583,0,0.000885,0,0
0:3:42.960,427.092,54.379,0,0.000885,0,0
0:3:43.260,427.679,54.4548,0,0.000885,0,0
0:3:43.563,428.675,54.5789,0,0.000885,0,0
0:3:43.862,428.969,54.6203,0,0.000885,0,0
0:3:44.162,429.849,54.7306,0,0.000885,0,0
0:3:44.462,429.614,54.703,0,0.000885,0,0
0:3:44.767,431.255,54.9098,0,0.000885,0,0
0:3:45.066,431.317,54.9167,0,0.000885,0,0
0:3:45.370,431.082,54.8892,0,0.000885,0,0
0:3:45.670,431.962,54.9995,0,0.000885,0,0
0:3:45.972,432.607,55.0822,0,0.000885,0,0
0:3:46.270,433.368,55.1787,0,0.000885,0,0
0:3:46.565,434.013,55.2615,0,0.000885,0,0
0:3:46.871,434.658,55.3442,0,0.000885,0,0
0:3:47.171,435.187,55.4063,0,0.000885,0,0
0:3:47.463,436.419,55.5648,0,0.000885,0,0
0:3:47.761,437.007,55.6407,0,0.000885,0,0
0:3:48.067,438.061,55.7786,0,0.000885,0,0
0:3:48.367,438.177,55.7924,0,0.000885,0,0
0:3:48.672,438.59,55.8406,0,0.000885,0,0
0:3:48.974,438.999,55.8958,0,0.000885,0,0
0:3:49.273,439.351,55.9372,0,0.000885,0,0
0:3:49.574,439.467,55.9579,0,0.000885,0,0
0:3:49.870,440.054,56.0268,0,0.000885,0,0
0:3:50.166,441.344,56.1923,0,0.000885,0,0
0:3:50.472,441.286,56.1854,0,0.000885,0,0
0:3:50.772,442.927,56.3922,0,0.000885,0,0
0:3:51.073,442.634,56.3577,0,0.000885,0,0
0:3:51.372,443.808,56.5094,0,0.000885,0,0
0:3:51.665,443.514,56.4681,0,0.000885,0,0
0:3:51.972,444.747,56.6266,0,0.000885,0,0
0:3:52.268,445.743,56.7507,0,0.000885,0,0
0:3:52.573,445.801,56.7645,0,0.000885,0,0
0:3:52.874,446.388,56.8335,0,0.000885,0,0
0:3:53.176,447.091,56.9231,0,0.000885,0,0
0:3:53.477,448.092,57.0541,0,0.000885,0,0
0:3:53.779,448.029,57.0472,0,0.000885,0,0
0:3:54.079,448.559,57.1093,0,0.000885,0,0
0:3:54.381,450.32,57.3368,0,0.000885,0,0
0:3:54.681,450.614,57.3713,0,0.000885,0,0
0:3:54.980,450.729,57.392,0,0.000885,0,0
0:3:55.275,451.196,57.4471,0,0.000885,0,0
0:3:55.571,451.841,57.5299,0,0.000885,0,0
0:3:55.868,452.077,57.5574,0,0.000885,0,0
0:3:56.160,452.9,57.6677,0,0.000885,0,0
0:3:56.459,453.719,57.7712,0,0.000885,0,0
0:3:56.765,453.954,57.7988,0,0.000885,0,0
0:3:57.072,454.364,57.8539,0,0.000885,0,0
0:3:57.367,454.719,57.8953,0,0.000885,0,0
0:3:57.674,455.654,58.0125,0,0.000885,0,0
0:3:57.973,455.832,58.0401,0,0.000885,0,0
0:3:58.275,456.828,58.1642,0,0.000885,0,0
0:3:58.576,457.415,58.24,0,0.000885,0,0
0:3:58.878,458.296,58.3503,0,0.000885,0,0
0:3:59.180,458.705,58.4055,0,0.000885,0,0
0:3:59.480,458.763,58.4124,0,0.000885,0,0
0:3:59.781,459.408,58.4951,0,0.000885,0,0
0:4:0.080,460.231,58.5985,0,0.000885,0,0
0:4:0.377,460.876,58.6813,0,0.000885,0,0
0:4:0.681,461.285,58.7295,0,0.000885,0,0
0:4:0.980,462.166,58.8468,0,0.000885,0,0
0:4:1.273,462.402,58.8743,0,0.000885,0,0
0:4:1.571,462.633,58.9019,0,0.000885,0,0
0:4:1.876,463.34,58.9915,0,0.000885,0,0
0:4:2.173,463.985,59.0743,0,0.000885,0,0
0:4:2.468,457.415,58.24,0,0.000885,0,0
0:4:2.772,456.828,58.1642,0,0.000885,0,0
0:4:3.071,457.651,58.2676,0,0.000885,0,0
0:4:3.373,458.002,58.3159,0,0.000885,0,0
0:4:3.674,458.941,58.4331,0,0.000885,0,0
0:4:3.973,459.114,58.4538,0,0.000885,0,0
0:4:4.274,460.231,58.5985,0,0.000885,0,0
0:4:4.573,460.404,58.6192,0,0.000885,0,0
0:4:4.877,460.524,58.633,0,0.000885,0,0
0:4:5.173,460.467,58.6261,0,0.000885,0,0
0:4:5.481,458.469,58.371,0,0.000885,0,0
0:4:5.772,457.064,58.1918,0,0.000885,0,0
0:4:6.072,457.064,58.1918,0,0.000885,0,0
0:4:6.363,456.477,58.1228,0,0.000885,0,0
0:4:6.673,457.006,58.1849,0,0.000885,0,0
0:4:6.978,456.534,58.1297,0,0.000885,0,0
0:4:7.273,456.534,58.1297,0,0.000885,0,0
0:4:7.569,456.534,58.1297,0,0.000885,0,0
0:4:7.874,456.712,58.1504,0,0.000885,0,0
0:4:8.172,456.299,58.0952,0,0.000885,0,0
0:4:8.475,455.654,58.0125,0,0.000885,0,0
0:4:8.775,454.542,57.8746,0,0.000885,0,0
0:4:9.074,453.545,57.7505,0,0.000885,0,0
0:4:9.373,449.906,57.2816,0,0.000885,0,0
0:4:9.673,438.648,55.8475,0,0.000885,0,0
0:4:9.976,422.283,53.7653,0,0.000885,0,0
0:4:10.269,411.082,52.3381,0,0.000885,0,0
0:4:10.577,383.459,48.8218,0,0.000885,0,0
0:4:10.598,383.459,48.8218,0,0.000885,0,0