File: DataFile2021-06-06_061910.csv
Test ID:,Date Tested:,Time:,Test Type:,Diameter Avg. (mm):,Cyl. Corr. Factor:,Height (mm):,Age (days):,Weight (kN):,Break Type:,Ramp Rate (MPa/s):,Load at Break (kN):,Stress at Break (MPa):
12,6/6/2021,06:19,Cylinder,150,1,300,0,13.39,3,0.24,673.5,38.11
Sample Time,Load (kN),Stress (MPa),Long. Strain,Trans. Strain,Chan1 Deflection (mm),Chan2 Deflection (mm)
0:0:16.908,7.45077,0.42058,0,0.000885,0,0
0:0:17.107,10.4978,0.592949,0,0.000885,0,0
0:0:17.301,10.2042,0.57916,0,0.000885,0,0
0:0:17.503,9.96846,0.56537,0,0.000885,0,0
0:0:17.701,10.0886,0.572265,0,0.000885,0,0
0:0:17.899,9.79498,0.551581,0,0.000885,0,0
0:0:18.097,10.1464,0.572265,0,0.000885,0,0
0:0:18.292,9.79498,0.551581,0,0.000885,0,0
0:0:18.494,11.2629,0.634318,0,0.000885,0,0
0:0:18.693,12.9043,0.730844,0,0.000885,0,0
0:0:18.890,13.7228,0.779108,0,0.000885,0,0
0:0:19.091,13.8429,0.786002,0,0.000885,0,0
0:0:19.287,15.3063,0.868739,0,0.000885,0,0
0:0:19.487,16.0714,0.910108,0,0.000885,0,0
0:0:19.687,16.8899,0.958371,0,0.000885,0,0
0:0:19.883,16.8321,0.951477,0,0.000885,0,0
0:0:20.085,18.4735,1.048,0,0.000885,0,0
0:0:20.279,19.0606,1.07558,0,0.000885,0,0
0:0:20.479,19.7634,1.11695,0,0.000885,0,0
0:0:20.681,20.7643,1.17211,0,0.000885,0,0
0:0:20.876,21.1735,1.19969,0,0.000885,0,0
0:0:21.078,22.7571,1.28932,0,0.000885,0,0
0:0:21.275,22.9929,1.30311,0,0.000885,0,0
0:0:21.475,24.0471,1.35827,0,0.000885,0,0
0:0:21.676,25.0435,1.42032,0,0.000885,0,0
0:0:21.872,26.2756,1.48927,0,0.000885,0,0
0:0:22.075,26.5114,1.50306,0,0.000885,0,0
0:0:22.277,27.917,1.5789,0,0.000885,0,0
0:0:22.481,28.4464,1.60648,0,0.000885,0,0
0:0:22.685,29.9098,1.68922,0,0.000885,0,0
0:0:22.886,30.5548,1.73058,0,0.000885,0,0
0:0:23.089,31.9071,1.80643,0,0.000885,0,0
0:0:23.289,32.7834,1.85469,0,0.000885,0,0
0:0:23.491,33.2549,1.88227,0,0.000885,0,0
0:0:23.694,33.5485,1.89606,0,0.000885,0,0
0:0:23.891,34.8963,1.9719,0,0.000885,0,0
0:0:24.093,35.6614,2.02016,0,0.000885,0,0
0:0:24.290,36.5377,2.06843,0,0.000885,0,0
0:0:24.488,37.067,2.09601,0,0.000885,0,0
0:0:24.690,38.4148,2.17185,0,0.000885,0,0
0:0:24.886,39.0598,2.21322,0,0.000885,0,0
0:0:25.087,41.1149,2.32353,0,0.000885,0,0
0:0:25.286,41.8756,2.3718,0,0.000885,0,0
0:0:25.483,42.872,2.42695,0,0.000885,0,0
0:0:25.685,44.1041,2.4959,0,0.000885,0,0
0:0:25.883,45.1628,2.55795,0,0.000885,0,0
0:0:26.084,46.4528,2.6269,0,0.000885,0,0
0:0:26.284,47.2134,2.67517,0,0.000885,0,0
0:0:26.480,49.2062,2.78548,0,0.000885,0,0
0:0:26.682,49.7934,2.81996,0,0.000885,0,0
0:0:26.879,51.4348,2.90959,0,0.000885,0,0
0:0:27.079,51.9063,2.93717,0,0.000885,0,0
0:0:27.281,53.0184,2.99922,0,0.000885,0,0
0:0:27.484,53.8991,3.04748,0,0.000885,0,0
0:0:27.688,55.1891,3.12333,0,0.000885,0,0
0:0:27.891,55.367,3.13022,0,0.000885,0,0
0:0:28.094,56.5992,3.20606,0,0.000885,0,0
0:0:28.294,56.8305,3.21296,0,0.000885,0,0
0:0:28.496,58.3562,3.30259,0,0.000885,0,0
0:0:28.698,58.5341,3.30948,0,0.000885,0,0
0:0:28.898,59.1213,3.34396,0,0.000885,0,0
0:0:29.093,59.7663,3.38533,0,0.000885,0,0
0:0:29.295,60.6426,3.43359,0,0.000885,0,0
0:0:29.494,61.2876,3.46806,0,0.000885,0,0
0:0:29.694,62.1683,3.51633,0,0.000885,0,0
0:0:29.895,62.7555,3.5508,0,0.000885,0,0
0:0:30.089,63.4583,3.59217,0,0.000885,0,0
0:0:30.291,64.3969,3.64733,0,0.000885,0,0
0:0:30.491,65.2198,3.6887,0,0.000885,0,0
0:0:30.688,66.3942,3.75764,0,0.000885,0,0
0:0:30.889,67.0391,3.79212,0,0.000885,0,0
0:0:31.084,68.0934,3.85417,0,0.000885,0,0
0:0:31.285,68.2713,3.86106,0,0.000885,0,0
0:0:31.486,69.1476,3.91622,0,0.000885,0,0
0:0:31.681,69.3834,3.92312,0,0.000885,0,0
0:0:31.884,71.0826,4.01964,0,0.000885,0,0
0:0:32.081,71.5541,4.04722,0,0.000885,0,0
0:0:32.280,72.7284,4.11617,0,0.000885,0,0
0:0:32.481,73.5469,4.16443,0,0.000885,0,0
0:0:32.685,74.6634,4.22649,0,0.000885,0,0
0:0:32.888,75.0726,4.24717,0,0.000885,0,0
0:0:33.090,76.4783,4.32991,0,0.000885,0,0
0:0:33.292,77.4168,4.37817,0,0.000885,0,0
0:0:33.496,78.8848,4.46091,0,0.000885,0,0
0:0:33.696,79.7077,4.50917,0,0.000885,0,0
0:0:33.898,81.4647,4.61259,0,0.000885,0,0
0:0:34.097,82.1097,4.64707,0,0.000885,0,0
0:0:34.294,83.4575,4.72291,0,0.000885,0,0
0:0:34.496,83.8712,4.74359,0,0.000885,0,0
0:0:34.693,85.5704,4.84012,0,0.000885,0,0
0:0:34.894,86.3355,4.88838,0,0.000885,0,0
0:0:35.093,86.6869,4.90217,0,0.000885,0,0
0:0:35.290,87.5632,4.95733,0,0.000885,0,0
0:0:35.492,88.1504,4.9918,0,0.000885,0,0
0:0:35.690,89.5605,5.06765,0,0.000885,0,0
0:0:35.890,90.0854,5.09523,0,0.000885,0,0
0:0:36.089,90.7304,5.13659,0,0.000885,0,0
0:0:36.286,91.1441,5.15728,0,0.000885,0,0
0:0:36.489,92.1405,5.21244,0,0.000885,0,0
0:0:36.686,92.7855,5.25381,0,0.000885,0,0
0:0:36.885,94.1333,5.32965,0,0.000885,0,0
0:0:37.087,94.6048,5.35033,0,0.000885,0,0
0:0:37.290,95.014,5.37791,0,0.000885,0,0
0:0:37.494,95.8369,5.42617,0,0.000885,0,0
0:0:37.696,97.3004,5.50891,0,0.000885,0,0
0:0:37.898,98.0655,5.55028,0,0.000885,0,0
0:0:38.100,99.7069,5.63991,0,0.000885,0,0
0:0:38.301,100.174,5.66749,0,0.000885,0,0
0:0:38.506,101.464,5.74333,0,0.000885,0,0
0:0:38.704,101.878,5.76402,0,0.000885,0,0
0:0:38.901,103.225,5.83986,0,0.000885,0,0
0:0:39.104,103.635,5.86744,0,0.000885,0,0
0:0:39.300,105.045,5.94328,0,0.000885,0,0
0:0:39.500,105.748,5.98465,0,0.000885,0,0
0:0:39.700,107.095,6.06049,0,0.000885,0,0
0:0:39.896,107.389,6.07428,0,0.000885,0,0
0:0:40.098,107.683,6.09497,0,0.000885,0,0
0:0:40.296,109.44,6.19149,0,0.000885,0,0
0:0:40.495,109.795,6.21218,0,0.000885,0,0
0:0:40.697,110.908,6.27423,0,0.000885,0,0
0:0:40.892,111.317,6.30181,0,0.000885,0,0
0:0:41.094,112.607,6.37076,0,0.000885,0,0
0:0:41.293,113.136,6.40523,0,0.000885,0,0
0:0:41.489,114.253,6.46728,0,0.000885,0,0
0:0:41.692,114.662,6.48797,0,0.000885,0,0
0:0:41.887,115.894,6.55691,0,0.000885,0,0
0:0:42.088,116.423,6.59139,0,0.000885,0,0
0:0:42.290,118.296,6.69481,0,0.000885,0,0
0:0:42.493,118.825,6.72239,0,0.000885,0,0
0:0:42.697,119.822,6.77755,0,0.000885,0,0
0:0:42.899,120.645,6.82581,0,0.000885,0,0
0:0:43.101,121.992,6.90165,0,0.000885,0,0
0:0:43.302,122.464,6.92923,0,0.000885,0,0
0:0:43.504,123.167,6.9706,0,0.000885,0,0
0:0:43.706,124.048,7.01886,0,0.000885,0,0
0:0:43.905,124.924,7.06713,0,0.000885,0,0
0:0:44.104,125.395,7.09471,0,0.000885,0,0
0:0:44.305,126.685,7.17055,0,0.000885,0,0
0:0:44.500,126.979,7.18434,0,0.000885,0,0
0:0:44.702,127.388,7.21192,0,0.000885,0,0
0:0:44.900,128.798,7.28776,0,0.000885,0,0
0:0:45.097,129.323,7.31534,0,0.000885,0,0
0:0:45.299,130.849,7.40497,0,0.000885,0,0
0:0:45.497,131.436,7.43944,0,0.000885,0,0
0:0:45.699,132.49,7.4946,0,0.000885,0,0
0:0:45.896,133.077,7.52907,0,0.000885,0,0
0:0:46.094,134.719,7.6256,0,0.000885,0,0
0:0:46.296,135.364,7.66008,0,0.000885,0,0
0:0:46.493,136.423,7.72213,0,0.000885,0,0
0:0:46.694,137.068,7.7566,0,0.000885,0,0
0:0:46.894,138.18,7.81865,0,0.000885,0,0
0:0:47.089,138.415,7.83244,0,0.000885,0,0
0:0:47.292,140.057,7.92897,0,0.000885,0,0
0:0:47.494,140.466,7.94966,0,0.000885,0,0
0:0:47.698,141.818,8.0255,0,0.000885,0,0
0:0:47.900,142.343,8.05308,0,0.000885,0,0
0:0:48.104,143.402,8.11513,0,0.000885,0,0
0:0:48.306,144.278,8.16339,0,0.000885,0,0
0:0:48.507,145.337,8.22545,0,0.000885,0,0
0:0:48.709,146.275,8.2806,0,0.000885,0,0
0:0:48.911,147.272,8.33576,0,0.000885,0,0
0:0:49.106,147.975,8.37713,0,0.000885,0,0
0:0:49.308,148.62,8.4116,0,0.000885,0,0
0:0:49.508,149.967,8.48745,0,0.000885,0,0
0:0:49.705,150.439,8.51503,0,0.000885,0,0
0:0:49.907,151.613,8.57708,0,0.000885,0,0
0:0:50.104,152.432,8.62534,0,0.000885,0,0
0:0:50.305,153.606,8.69429,0,0.000885,0,0
0:0:50.504,154.193,8.72876,0,0.000885,0,0
0:0:50.700,155.247,8.78392,0,0.000885,0,0
0:0:50.903,155.541,8.80461,0,0.000885,0,0
0:0:51.098,156.595,8.85976,0,0.000885,0,0
0:0:51.298,157.418,8.90803,0,0.000885,0,0
0:0:51.499,158.299,8.95629,0,0.000885,0,0
0:0:51.696,158.708,8.98387,0,0.000885,0,0
0:0:51.897,159.94,9.05282,0,0.000885,0,0
0:0:52.096,160.585,9.08729,0,0.000885,0,0
0:0:52.293,161.991,9.17003,0,0.000885,0,0
0:0:52.496,162.284,9.18382,0,0.000885,0,0
0:0:52.698,163.343,9.24587,0,0.000885,0,0
0:0:52.902,164.104,9.28724,0,0.000885,0,0
0:0:53.105,164.927,9.3355,0,0.000885,0,0
0:0:53.307,165.923,9.39066,0,0.000885,0,0
0:0:53.510,167.213,9.45961,0,0.000885,0,0
0:0:53.711,167.916,9.50098,0,0.000885,0,0
0:0:53.914,169.499,9.59061,0,0.000885,0,0
0:0:54.115,169.909,9.61819,0,0.000885,0,0
0:0:54.310,170.554,9.65266,0,0.000885,0,0
0:0:54.513,171.67,9.71471,0,0.000885,0,0
0:0:54.710,172.551,9.76298,0,0.000885,0,0
0:0:54.909,173.783,9.83192,0,0.000885,0,0
0:0:55.109,174.486,9.87329,0,0.000885,0,0
0:0:55.305,175.66,9.94224,0,0.000885,0,0
0:0:55.506,176.07,9.96292,0,0.000885,0,0
0:0:55.705,177.066,10.0181,0,0.000885,0,0
0:0:55.904,177.827,10.0663,0,0.000885,0,0
0:0:56.106,179.059,10.1353,0,0.000885,0,0
0:0:56.300,179.762,10.1698,0,0.000885,0,0
0:0:56.500,180.82,10.2318,0,0.000885,0,0
0:0:56.699,181.287,10.2594,0,0.000885,0,0
0:0:56.897,182.697,10.3352,0,0.000885,0,0
0:0:57.099,183.049,10.3559,0,0.000885,0,0
0:0:57.302,184.223,10.4249,0,0.000885,0,0
0:0:57.507,184.984,10.4662,0,0.000885,0,0
0:0:57.708,186.038,10.5283,0,0.000885,0,0
0:0:57.911,186.567,10.5559,0,0.000885,0,0
0:0:58.113,187.622,10.6179,0,0.000885,0,0
0:0:58.314,188.151,10.6455,0,0.000885,0,0
0:0:58.517,189.557,10.7282,0,0.000885,0,0
0:0:58.718,190.086,10.7558,0,0.000885,0,0
0:0:58.913,191.202,10.8179,0,0.000885,0,0
0:0:59.115,191.847,10.8592,0,0.000885,0,0
0:0:59.315,192.372,10.8868,0,0.000885,0,0
0:0:59.511,193.311,10.942,0,0.000885,0,0
0:0:59.710,193.782,10.9627,0,0.000885,0,0
0:0:59.905,195.014,11.0385,0,0.000885,0,0
0:1:0.103,195.366,11.0523,0,0.000885,0,0
0:1:0.304,196.772,11.135,0,0.000885,0,0
0:1:0.497,197.474,11.1764,0,0.000885,0,0
0:1:0.698,198.707,11.2453,0,0.000885,0,0
0:1:0.893,199.996,11.3143,0,0.000885,0,0
0:1:1.091,200.877,11.3695,0,0.000885,0,0
0:1:1.290,201.522,11.4039,0,0.000885,0,0
0:1:1.485,202.461,11.4591,0,0.000885,0,0
0:1:1.685,203.284,11.5005,0,0.000885,0,0
0:1:1.882,203.693,11.528,0,0.000885,0,0
0:1:2.078,205.161,11.6108,0,0.000885,0,0
0:1:2.278,205.392,11.6246,0,0.000885,0,0
0:1:2.480,207.038,11.7142,0,0.000885,0,0
0:1:2.681,207.505,11.7418,0,0.000885,0,0
0:1:2.883,209.204,11.8383,0,0.000885,0,0
0:1:3.083,209.324,11.8452,0,0.000885,0,0
0:1:3.285,211.081,11.9417,0,0.000885,0,0
0:1:3.484,211.611,11.9762,0,0.000885,0,0
0:1:3.686,212.434,12.0245,0,0.000885,0,0
0:1:3.886,213.252,12.0658,0,0.000885,0,0
0:1:4.079,214.017,12.1141,0,0.000885,0,0
0:1:4.280,214.778,12.1555,0,0.000885,0,0
0:1:4.476,216.126,12.2313,0,0.000885,0,0
0:1:4.673,216.833,12.2727,0,0.000885,0,0
0:1:4.874,218.123,12.3416,0,0.000885,0,0
0:1:5.067,218.296,12.3554,0,0.000885,0,0
0:1:5.267,218.941,12.3899,0,0.000885,0,0
0:1:5.466,219.822,12.4381,0,0.000885,0,0
0:1:5.660,220.409,12.4726,0,0.000885,0,0
0:1:5.863,221.642,12.5416,0,0.000885,0,0
0:1:6.067,222.051,12.5622,0,0.000885,0,0
0:1:6.266,223.577,12.6519,0,0.000885,0,0
0:1:6.465,224.101,12.6795,0,0.000885,0,0
0:1:6.657,225.218,12.7415,0,0.000885,0,0
0:1:6.858,225.921,12.7829,0,0.000885,0,0
0:1:7.054,226.979,12.8449,0,0.000885,0,0
0:1:7.260,227.624,12.8794,0,0.000885,0,0
0:1:7.463,229.381,12.9828,0,0.000885,0,0
0:1:7.665,230.262,13.0311,0,0.000885,0,0
0:1:7.867,231.201,13.0862,0,0.000885,0,0
0:1:8.067,231.961,13.1276,0,0.000885,0,0
0:1:8.268,233.194,13.1966,0,0.000885,0,0
0:1:8.469,233.959,13.2379,0,0.000885,0,0
0:1:8.669,235.013,13.3,0,0.000885,0,0
0:1:8.870,235.422,13.3207,0,0.000885,0,0
0:1:9.068,236.361,13.3758,0,0.000885,0,0
0:1:9.264,237.241,13.4241,0,0.000885,0,0
0:1:9.465,237.829,13.4586,0,0.000885,0,0
0:1:9.658,238.941,13.5206,0,0.000885,0,0
0:1:9.858,239.821,13.5689,0,0.000885,0,0
0:1:10.056,241.054,13.6378,0,0.000885,0,0
0:1:10.271,241.405,13.6585,0,0.000885,0,0
0:1:10.471,242.989,13.7481,0,0.000885,0,0
0:1:10.667,243.518,13.7826,0,0.000885,0,0
0:1:10.866,244.75,13.8516,0,0.000885,0,0
0:1:11.065,245.217,13.8791,0,0.000885,0,0
0:1:11.258,246.507,13.9481,0,0.000885,0,0
0:1:11.459,246.979,13.9757,0,0.000885,0,0
0:1:11.655,248.326,14.0515,0,0.000885,0,0
0:1:11.852,248.971,14.086,0,0.000885,0,0
0:1:12.053,250.146,14.1549,0,0.000885,0,0
0:1:12.254,250.497,14.1756,0,0.000885,0,0
0:1:12.456,251.378,14.2239,0,0.000885,0,0
0:1:12.656,252.023,14.2584,0,0.000885,0,0
0:1:12.857,253.077,14.3204,0,0.000885,0,0
0:1:13.057,253.429,14.3411,0,0.000885,0,0
0:1:13.257,254.719,14.4169,0,0.000885,0,0
0:1:13.458,255.599,14.4652,0,0.000885,0,0
0:1:13.655,255.951,14.4859,0,0.000885,0,0
0:1:13.860,257.067,14.5479,0,0.000885,0,0
0:1:14.060,257.886,14.5962,0,0.000885,0,0
0:1:14.258,259.176,14.6651,0,0.000885,0,0
0:1:14.455,259.411,14.6789,0,0.000885,0,0
0:1:14.655,260.586,14.7479,0,0.000885,0,0
0:1:14.859,261.346,14.7893,0,0.000885,0,0
0:1:15.058,262.872,14.8789,0,0.000885,0,0
0:1:15.256,263.753,14.9271,0,0.000885,0,0
0:1:15.451,264.807,14.9823,0,0.000885,0,0
0:1:15.652,265.216,15.0099,0,0.000885,0,0
0:1:15.847,266.391,15.0719,0,0.000885,0,0
0:1:16.045,267.093,15.1133,0,0.000885,0,0
0:1:16.246,268.21,15.1754,0,0.000885,0,0
0:1:16.440,268.677,15.2029,0,0.000885,0,0
0:1:16.642,269.736,15.265,0,0.000885,0,0
0:1:16.837,270.381,15.2995,0,0.000885,0,0
0:1:17.035,270.67,15.3202,0,0.000885,0,0
0:1:17.234,272.253,15.4098,0,0.000885,0,0
0:1:17.436,273.134,15.458,0,0.000885,0,0
0:1:17.638,274.073,15.5063,0,0.000885,0,0
0:1:17.839,274.544,15.5339,0,0.000885,0,0
0:1:18.038,275.776,15.6028,0,0.000885,0,0
0:1:18.239,276.479,15.6442,0,0.000885,0,0
0:1:18.439,277.24,15.6856,0,0.000885,0,0
0:1:18.639,277.827,15.72,0,0.000885,0,0
0:1:18.838,278.766,15.7752,0,0.000885,0,0
0:1:19.034,279.353,15.8097,0,0.000885,0,0
0:1:19.236,281.11,15.9062,0,0.000885,0,0
0:1:19.430,281.346,15.92,0,0.000885,0,0
0:1:19.630,282.871,16.0096,0,0.000885,0,0
0:1:19.828,283.165,16.0234,0,0.000885,0,0
0:1:20.022,284.513,16.0993,0,0.000885,0,0
0:1:20.223,285.042,16.1268,0,0.000885,0,0
0:1:20.420,286.038,16.1889,0,0.000885,0,0
0:1:20.618,287.506,16.2716,0,0.000885,0,0
0:1:20.817,287.916,16.2923,0,0.000885,0,0
0:1:21.012,289.028,16.3544,0,0.000885,0,0
0:1:21.212,289.557,16.3888,0,0.000885,0,0
0:1:21.409,290.611,16.444,0,0.000885,0,0
0:1:21.608,291.198,16.4785,0,0.000885,0,0
0:1:21.807,292.724,16.5681,0,0.000885,0,0
0:1:22.009,293.311,16.5957,0,0.000885,0,0
0:1:22.210,294.192,16.6508,0,0.000885,0,0
0:1:22.411,294.895,16.6853,0,0.000885,0,0
0:1:22.613,296.069,16.7543,0,0.000885,0,0
0:1:22.814,296.594,16.7818,0,0.000885,0,0
0:1:23.015,297.884,16.8577,0,0.000885,0,0
0:1:23.216,298.413,16.8853,0,0.000885,0,0
0:1:23.417,299.823,16.968,0,0.000885,0,0
0:1:23.617,300.584,17.0094,0,0.000885,0,0
0:1:23.819,301.113,17.0369,0,0.000885,0,0
0:1:24.014,302.168,17.099,0,0.000885,0,0
0:1:24.214,303.048,17.1473,0,0.000885,0,0
0:1:24.412,303.636,17.1817,0,0.000885,0,0
0:1:24.608,304.281,17.2162,0,0.000885,0,0
0:1:24.809,305.744,17.2989,0,0.000885,0,0
0:1:25.004,306.447,17.3403,0,0.000885,0,0
0:1:25.201,307.506,17.4024,0,0.000885,0,0
0:1:25.400,307.857,17.4231,0,0.000885,0,0
0:1:25.596,308.969,17.4851,0,0.000885,0,0
0:1:25.797,309.676,17.5265,0,0.000885,0,0
0:1:25.993,311.26,17.6161,0,0.000885,0,0
0:1:26.191,312.198,17.6644,0,0.000885,0,0
0:1:26.390,313.075,17.7195,0,0.000885,0,0
0:1:26.584,313.604,17.7471,0,0.000885,0,0
0:1:26.784,314.485,17.7954,0,0.000885,0,0
0:1:26.982,314.778,17.8161,0,0.000885,0,0
0:1:27.178,315.539,17.8574,0,0.000885,0,0
0:1:27.380,316.713,17.9195,0,0.000885,0,0
0:1:27.581,317.358,17.9608,0,0.000885,0,0
0:1:27.781,318.706,18.0367,0,0.000885,0,0
0:1:27.984,319.587,18.0849,0,0.000885,0,0
0:1:28.185,320.699,18.147,0,0.000885,0,0
0:1:28.385,321.113,18.1746,0,0.000885,0,0
0:1:28.586,322.46,18.2504,0,0.000885,0,0
0:1:28.788,323.105,18.2849,0,0.000885,0,0
0:1:28.986,324.16,18.3469,0,0.000885,0,0
0:1:29.182,324.747,18.3745,0,0.000885,0,0
0:1:29.383,326.095,18.4504,0,0.000885,0,0
0:1:29.576,326.74,18.4917,0,0.000885,0,0
0:1:29.777,327.62,18.54,0,0.000885,0,0
0:1:29.974,327.856,18.5538,0,0.000885,0,0
0:1:30.170,329.088,18.6227,0,0.000885,0,0
0:1:30.370,329.733,18.6572,0,0.000885,0,0
0:1:30.565,330.494,18.7055,0,0.000885,0,0
0:1:30.761,331.904,18.7813,0,0.000885,0,0
0:1:30.960,332.429,18.8089,0,0.000885,0,0
0:1:31.155,333.661,18.8847,0,0.000885,0,0
0:1:31.355,334.248,18.9123,0,0.000885,0,0
0:1:31.552,335.658,18.9951,0,0.000885,0,0
0:1:31.750,336.241,19.0295,0,0.000885,0,0
0:1:31.949,337.651,19.1054,0,0.000885,0,0
0:1:32.150,338.003,19.1261,0,0.000885,0,0
0:1:32.352,338.941,19.1812,0,0.000885,0,0
0:1:32.554,339.702,19.2226,0,0.000885,0,0
0:1:32.755,340.934,19.2915,0,0.000885,0,0
0:1:32.955,341.463,19.326,0,0.000885,0,0
0:1:33.156,342.638,19.3881,0,0.000885,0,0
0:1:33.357,343.283,19.4225,0,0.000885,0,0
0:1:33.555,344.63,19.5053,0,0.000885,0,0
0:1:33.771,345.275,19.5397,0,0.000885,0,0
0:1:33.972,345.92,19.5742,0,0.000885,0,0
0:1:34.167,346.45,19.6018,0,0.000885,0,0
0:1:34.366,347.798,19.6845,0,0.000885,0,0
0:1:34.565,348.265,19.7052,0,0.000885,0,0
0:1:34.768,349.381,19.7742,0,0.000885,0,0
0:1:34.969,350.262,19.8224,0,0.000885,0,0
0:1:35.166,351.08,19.8638,0,0.000885,0,0
0:1:35.365,352.433,19.9465,0,0.000885,0,0
0:1:35.562,353.135,19.981,0,0.000885,0,0
0:1:35.756,354.541,20.0637,0,0.000885,0,0
0:1:35.956,354.955,20.0844,0,0.000885,0,0
0:1:36.153,356.245,20.1603,0,0.000885,0,0
0:1:36.351,356.538,20.1741,0,0.000885,0,0
0:1:36.552,357.708,20.243,0,0.000885,0,0
0:1:36.745,358.473,20.2844,0,0.000885,0,0
0:1:36.946,358.94,20.312,0,0.000885,0,0
0:1:37.147,359.528,20.3464,0,0.000885,0,0
0:1:37.349,360.933,20.4223,0,0.000885,0,0
0:1:37.552,361.578,20.4636,0,0.000885,0,0
0:1:37.753,362.93,20.5395,0,0.000885,0,0
0:1:37.953,363.282,20.5602,0,0.000885,0,0
0:1:38.153,364.572,20.6291,0,0.000885,0,0
0:1:38.353,365.101,20.6636,0,0.000885,0,0
0:1:38.555,366.858,20.7601,0,0.000885,0,0
0:1:38.750,367.267,20.7808,0,0.000885,0,0
0:1:38.948,367.623,20.8015,0,0.000885,0,0
0:1:39.155,368.562,20.8566,0,0.000885,0,0
0:1:39.361,369.91,20.9325,0,0.000885,0,0
0:1:39.562,370.79,20.9807,0,0.000885,0,0
0:1:39.768,371.96,21.0497,0,0.000885,0,0
0:1:39.969,372.547,21.0842,0,0.000885,0,0
0:1:40.163,372.783,21.098,0,0.000885,0,0
0:1:40.370,374.189,21.1738,0,0.000885,0,0
0:1:40.570,374.482,21.1945,0,0.000885,0,0
0:1:40.767,376.48,21.3048,0,0.000885,0,0
0:1:40.963,377.062,21.3393,0,0.000885,0,0
0:1:41.162,378.001,21.3875,0,0.000885,0,0
0:1:41.355,378.472,21.4151,0,0.000885,0,0
0:1:41.557,379.705,21.4841,0,0.000885,0,0
0:1:41.754,380.523,21.5323,0,0.000885,0,0
0:1:41.951,381.462,21.5875,0,0.000885,0,0
0:1:42.152,381.813,21.6082,0,0.000885,0,0
0:1:42.355,382.52,21.6495,0,0.000885,0,0
0:1:42.557,383.459,21.6978,0,0.000885,0,0
0:1:42.758,384.922,21.7805,0,0.000885,0,0
0:1:42.959,385.332,21.8081,0,0.000885,0,0
0:1:43.158,387.035,21.9046,0,0.000885,0,0
0:1:43.358,387.502,21.9253,0,0.000885,0,0
0:1:43.560,388.561,21.9874,0,0.000885,0,0
0:1:43.757,388.97,22.0081,0,0.000885,0,0
0:1:43.955,390.318,22.0908,0,0.000885,0,0
0:1:44.154,390.79,22.1115,0,0.000885,0,0
0:1:44.369,392.373,22.2011,0,0.000885,0,0
0:1:44.570,392.84,22.2287,0,0.000885,0,0
0:1:44.767,393.605,22.2701,0,0.000885,0,0
0:1:44.962,394.188,22.3045,0,0.000885,0,0
0:1:45.162,395.305,22.3666,0,0.000885,0,0
0:1:45.356,396.71,22.4493,0,0.000885,0,0
0:1:45.557,396.946,22.4631,0,0.000885,0,0
0:1:45.755,398.236,22.539,0,0.000885,0,0
0:1:45.950,399.001,22.5803,0,0.000885,0,0
0:1:46.151,399.704,22.6217,0,0.000885,0,0
0:1:46.364,400.291,22.6493,0,0.000885,0,0
0:1:46.567,401.697,22.732,0,0.000885,0,0
0:1:46.772,402.284,22.7665,0,0.000885,0,0
0:1:46.970,403.107,22.8079,0,0.000885,0,0
0:1:47.169,403.689,22.8423,0,0.000885,0,0
0:1:47.371,405.273,22.932,0,0.000885,0,0
0:1:47.572,405.918,22.9733,0,0.000885,0,0
0:1:47.774,407.035,23.0354,0,0.000885,0,0
0:1:47.975,407.622,23.0699,0,0.000885,0,0
0:1:48.176,408.618,23.125,0,0.000885,0,0
0:1:48.375,409.321,23.1595,0,0.000885,0,0
0:1:48.577,410.495,23.2284,0,0.000885,0,0
0:1:48.776,411.314,23.2767,0,0.000885,0,0
0:1:48.971,412.724,23.3525,0,0.000885,0,0
0:1:49.172,413.369,23.3939,0,0.000885,0,0
0:1:49.368,414.774,23.4698,0,0.000885,0,0
0:1:49.576,415.362,23.5042,0,0.000885,0,0
0:1:49.774,416.127,23.5456,0,0.000885,0,0
0:1:49.969,416.478,23.5663,0,0.000885,0,0
0:1:50.169,417.003,23.6008,0,0.000885,0,0
0:1:50.364,418.119,23.6628,0,0.000885,0,0
0:1:50.561,418.707,23.6973,0,0.000885,0,0
0:1:50.760,420.054,23.7731,0,0.000885,0,0
0:1:50.964,420.815,23.8145,0,0.000885,0,0
0:1:51.163,421.696,23.8628,0,0.000885,0,0
0:1:51.373,422.341,23.8972,0,0.000885,0,0
0:1:51.569,423.751,23.98,0,0.000885,0,0
0:1:51.770,424.69,24.0351,0,0.000885,0,0
0:1:51.973,425.686,24.0903,0,0.000885,0,0
0:1:52.173,426.273,24.1248,0,0.000885,0,0
0:1:52.374,426.976,24.1592,0,0.000885,0,0
0:1:52.577,427.857,24.2144,0,0.000885,0,0
0:1:52.779,429.44,24.304,0,0.000885,0,0
0:1:52.979,430.201,24.3454,0,0.000885,0,0
0:1:53.179,431.433,24.4143,0,0.000885,0,0
0:1:53.380,431.962,24.4419,0,0.000885,0,0
0:1:53.581,432.781,24.4902,0,0.000885,0,0
0:1:53.781,433.484,24.5315,0,0.000885,0,0
0:1:53.978,434.778,24.6005,0,0.000885,0,0
0:1:54.174,435.423,24.6419,0,0.000885,0,0
0:1:54.375,436.242,24.6832,0,0.000885,0,0
0:1:54.569,437.007,24.7315,0,0.000885,0,0
0:1:54.769,437.416,24.7522,0,0.000885,0,0
0:1:54.964,439.057,24.8487,0,0.000885,0,0
0:1:55.170,439.351,24.8625,0,0.000885,0,0
0:1:55.371,439.996,24.897,0,0.000885,0,0
0:1:55.565,440.699,24.9383,0,0.000885,0,0
0:1:55.763,442.518,25.0418,0,0.000885,0,0
0:1:55.961,443.221,25.0831,0,0.000885,0,0
0:1:56.155,443.572,25.1038,0,0.000885,0,0
0:1:56.357,444.395,25.1452,0,0.000885,0,0
0:1:56.554,445.334,25.2003,0,0.000885,0,0
0:1:56.750,446.152,25.2486,0,0.000885,0,0
0:1:56.952,447.972,25.352,0,0.000885,0,0
0:1:57.154,448.616,25.3865,0,0.000885,0,0
0:1:57.356,449.849,25.4554,0,0.000885,0,0
0:1:57.558,450.084,25.4692,0,0.000885,0,0
0:1:57.759,451.548,25.552,0,0.000885,0,0
0:1:57.958,452.135,25.5864,0,0.000885,0,0
0:1:58.158,453.016,25.6347,0,0.000885,0,0
0:1:58.359,453.839,25.683,0,0.000885,0,0
0:1:58.558,454.719,25.7312,0,0.000885,0,0
0:1:58.763,455.774,25.7933,0,0.000885,0,0
0:1:58.964,456.419,25.8278,0,0.000885,0,0
0:1:59.169,457.473,25.8898,0,0.000885,0,0
0:1:59.364,457.766,25.9036,0,0.000885,0,0
0:1:59.564,459.292,25.9932,0,0.000885,0,0
0:1:59.759,459.822,26.0208,0,0.000885,0,0
0:1:59.959,460.524,26.0622,0,0.000885,0,0
0:2:0.155,461.285,26.1036,0,0.000885,0,0
0:2:0.354,462.459,26.1725,0,0.000885,0,0
0:2:0.553,462.926,26.1932,0,0.000885,0,0
0:2:0.749,464.337,26.2759,0,0.000885,0,0
0:2:0.948,464.63,26.2897,0,0.000885,0,0
0:2:1.155,466.329,26.3862,0,0.000885,0,0
0:2:1.360,467.032,26.4276,0,0.000885,0,0
0:2:1.561,468.206,26.4966,0,0.000885,0,0
0:2:1.776,468.909,26.5379,0,0.000885,0,0
0:2:1.977,470.141,26.6069,0,0.000885,0,0
0:2:2.177,470.613,26.6344,0,0.000885,0,0
0:2:2.380,471.609,26.6896,0,0.000885,0,0
0:2:2.581,472.254,26.7241,0,0.000885,0,0
0:2:2.782,473.602,26.7999,0,0.000885,0,0
0:2:2.983,474.131,26.8275,0,0.000885,0,0
0:2:3.184,475.244,26.8964,0,0.000885,0,0
0:2:3.384,475.951,26.9309,0,0.000885,0,0
0:2:3.585,476.947,26.993,0,0.000885,0,0
0:2:3.780,477.299,27.0068,0,0.000885,0,0
0:2:3.979,478.94,27.1033,0,0.000885,0,0
0:2:4.178,479.527,27.1378,0,0.000885,0,0
0:2:4.372,479.936,27.1584,0,0.000885,0,0
0:2:4.573,481.347,27.2412,0,0.000885,0,0
0:2:4.769,481.698,27.2619,0,0.000885,0,0
0:2:4.964,482.459,27.3032,0,0.000885,0,0
0:2:5.164,483.281,27.3515,0,0.000885,0,0
0:2:5.359,484.745,27.4342,0,0.000885,0,0
0:2:5.558,485.626,27.4825,0,0.000885,0,0
0:2:5.756,486.622,27.5377,0,0.000885,0,0
0:2:5.952,487.036,27.5583,0,0.000885,0,0
0:2:6.153,488.384,27.6342,0,0.000885,0,0
0:2:6.348,488.908,27.6687,0,0.000885,0,0
0:2:6.545,489.496,27.7031,0,0.000885,0,0
0:2:6.745,490.964,27.7859,0,0.000885,0,0
0:2:6.939,491.666,27.8203,0,0.000885,0,0
0:2:7.140,492.431,27.8686,0,0.000885,0,0
0:2:7.341,492.721,27.8824,0,0.000885,0,0
0:2:7.545,494.131,27.9651,0,0.000885,0,0
0:2:7.746,494.834,27.9996,0,0.000885,0,0
0:2:7.947,496.008,28.0686,0,0.000885,0,0
0:2:8.147,496.889,28.1168,0,0.000885,0,0
0:2:8.348,497.707,28.1651,0,0.000885,0,0
0:2:8.548,498.53,28.2133,0,0.000885,0,0
0:2:8.749,499.762,28.2823,0,0.000885,0,0
0:2:8.942,500.349,28.3168,0,0.000885,0,0
0:2:9.141,501.577,28.3857,0,0.000885,0,0
0:2:9.340,502.106,28.4133,0,0.000885,0,0
0:2:9.535,503.396,28.4891,0,0.000885,0,0
0:2:9.735,504.041,28.5236,0,0.000885,0,0
0:2:9.932,505.158,28.5857,0,0.000885,0,0
0:2:10.128,505.918,28.627,0,0.000885,0,0
0:2:10.328,506.328,28.6546,0,0.000885,0,0
0:2:10.522,507.444,28.7167,0,0.000885,0,0
0:2:10.723,508.089,28.7511,0,0.000885,0,0
0:2:10.920,509.557,28.8339,0,0.000885,0,0
0:2:11.115,510.14,28.8683,0,0.000885,0,0
0:2:11.317,510.611,28.8959,0,0.000885,0,0
0:2:11.513,511.141,28.9235,0,0.000885,0,0
0:2:11.712,512.956,29.0269,0,0.000885,0,0
0:2:11.910,513.663,29.0683,0,0.000885,0,0
0:2:12.104,514.833,29.1303,0,0.000885,0,0
0:2:12.305,515.184,29.151,0,0.000885,0,0
0:2:12.507,516.243,29.2131,0,0.000885,0,0
0:2:12.710,516.594,29.2338,0,0.000885,0,0
0:2:12.912,518.178,29.3234,0,0.000885,0,0
0:2:13.112,518.881,29.3648,0,0.000885,0,0
0:2:13.313,520.522,29.4544,0,0.000885,0,0
0:2:13.512,520.994,29.482,0,0.000885,0,0
0:2:13.712,521.051,29.4889,0,0.000885,0,0
0:2:13.914,521.932,29.5371,0,0.000885,0,0
0:2:14.108,522.808,29.5854,0,0.000885,0,0
0:2:14.308,524.041,29.6544,0,0.000885,0,0
0:2:14.508,524.806,29.6957,0,0.000885,0,0
0:2:14.702,526.211,29.7785,0,0.000885,0,0
0:2:14.902,527.208,29.8336,0,0.000885,0,0
0:2:15.098,528.266,29.8957,0,0.000885,0,0
0:2:15.294,529.027,29.937,0,0.000885,0,0
0:2:15.495,529.672,29.9715,0,0.000885,0,0
0:2:15.689,530.201,30.006,0,0.000885,0,0
0:2:15.890,531.549,30.0818,0,0.000885,0,0
0:2:16.086,532.194,30.1163,0,0.000885,0,0
0:2:16.283,533.017,30.1646,0,0.000885,0,0
0:2:16.483,533.662,30.199,0,0.000885,0,0
0:2:16.677,534.129,30.2266,0,0.000885,0,0
0:2:16.878,535.419,30.2956,0,0.000885,0,0
0:2:17.078,536.064,30.3369,0,0.000885,0,0
0:2:17.281,537.826,30.4335,0,0.000885,0,0
0:2:17.483,538.355,30.4679,0,0.000885,0,0
0:2:17.682,538.764,30.4886,0,0.000885,0,0
0:2:17.883,539.525,30.53,0,0.000885,0,0
0:2:18.084,540.641,30.592,0,0.000885,0,0
0:2:18.284,541.286,30.6334,0,0.000885,0,0
0:2:18.485,542.634,30.7092,0,0.000885,0,0
0:2:18.680,542.87,30.723,0,0.000885,0,0
0:2:18.879,544.275,30.7989,0,0.000885,0,0
0:2:19.079,544.805,30.8265,0,0.000885,0,0
0:2:19.273,546.273,30.9092,0,0.000885,0,0
0:2:19.474,546.855,30.9437,0,0.000885,0,0
0:2:19.670,548.088,31.0126,0,0.000885,0,0
0:2:19.865,548.559,31.0402,0,0.000885,0,0
0:2:20.066,549.084,31.0747,0,0.000885,0,0
0:2:20.272,550.903,31.1781,0,0.000885,0,0
0:2:20.468,551.139,31.185,0,0.000885,0,0
0:2:20.666,551.9,31.2333,0,0.000885,0,0
0:2:20.862,552.371,31.2608,0,0.000885,0,0
0:2:21.064,553.603,31.3298,0,0.000885,0,0
0:2:21.259,553.897,31.3436,0,0.000885,0,0
0:2:21.456,555.538,31.4401,0,0.000885,0,0
0:2:21.656,556.419,31.4884,0,0.000885,0,0
0:2:21.850,557.589,31.5504,0,0.000885,0,0
0:2:22.051,558.061,31.578,0,0.000885,0,0
0:2:22.252,559.586,31.6676,0,0.000885,0,0
0:2:22.454,560.289,31.709,0,0.000885,0,0
0:2:22.656,561.285,31.7641,0,0.000885,0,0
0:2:22.857,561.988,31.8055,0,0.000885,0,0
0:2:23.058,562.927,31.8538,0,0.000885,0,0
0:2:23.257,563.456,31.8883,0,0.000885,0,0
0:2:23.458,565.098,31.9779,0,0.000885,0,0
0:2:23.659,565.685,32.0124,0,0.000885,0,0
0:2:23.862,566.681,32.0675,0,0.000885,0,0
0:2:24.060,567.326,32.102,0,0.000885,0,0
0:2:24.259,568.087,32.1503,0,0.000885,0,0
0:2:24.462,569.497,32.2261,0,0.000885,0,0
0:2:24.664,569.906,32.2468,0,0.000885,0,0
0:2:24.871,570.845,32.3019,0,0.000885,0,0
0:2:25.066,571.254,32.3295,0,0.000885,0,0
0:2:25.267,572.193,32.3778,0,0.000885,0,0
0:2:25.462,572.664,32.4054,0,0.000885,0,0
0:2:25.663,574.19,32.495,0,0.000885,0,0
0:2:25.868,574.835,32.5295,0,0.000885,0,0
0:2:26.065,576.125,32.6053,0,0.000885,0,0
0:2:26.267,576.77,32.6398,0,0.000885,0,0
0:2:26.472,578.175,32.7156,0,0.000885,0,0
0:2:26.671,578.94,32.7639,0,0.000885,0,0
0:2:26.867,579.879,32.8121,0,0.000885,0,0
0:2:27.073,580.64,32.8604,0,0.000885,0,0
0:2:27.275,581.107,32.8811,0,0.000885,0,0
0:2:27.476,581.578,32.9087,0,0.000885,0,0
0:2:27.678,582.984,32.9914,0,0.000885,0,0
0:2:27.880,583.807,33.0397,0,0.000885,0,0
0:2:28.079,584.803,33.0948,0,0.000885,0,0
0:2:28.280,585.626,33.1362,0,0.000885,0,0
0:2:28.480,586.623,33.1983,0,0.000885,0,0
0:2:28.681,587.383,33.2396,0,0.000885,0,0
0:2:28.880,589.203,33.343,0,0.000885,0,0
0:2:29.076,589.554,33.3637,0,0.000885,0,0
0:2:29.278,590.728,33.4258,0,0.000885,0,0
0:2:29.475,591.431,33.4672,0,0.000885,0,0
0:2:29.675,592.374,33.5223,0,0.000885,0,0
0:2:29.873,593.371,33.5775,0,0.000885,0,0
0:2:30.078,593.486,33.5844,0,0.000885,0,0
0:2:30.280,594.545,33.6464,0,0.000885,0,0
0:2:30.477,594.954,33.6671,0,0.000885,0,0
0:2:30.676,596.249,33.7429,0,0.000885,0,0
0:2:30.875,596.716,33.7705,0,0.000885,0,0
0:2:31.072,597.774,33.8257,0,0.000885,0,0
0:2:31.273,598.535,33.867,0,0.000885,0,0
0:2:31.468,600.061,33.9567,0,0.000885,0,0
0:2:31.667,600.999,34.0118,0,0.000885,0,0
0:2:31.868,601.706,34.0463,0,0.000885,0,0
0:2:32.072,602.645,34.1015,0,0.000885,0,0
0:2:32.276,603.762,34.1635,0,0.000885,0,0
0:2:32.478,604.171,34.1911,0,0.000885,0,0
0:2:32.680,605.581,34.2669,0,0.000885,0,0
0:2:32.880,606.11,34.3014,0,0.000885,0,0
0:2:33.082,607.049,34.3497,0,0.000885,0,0
0:2:33.283,608.045,34.4117,0,0.000885,0,0
0:2:33.481,609.042,34.4669,0,0.000885,0,0
0:2:33.679,609.687,34.5014,0,0.000885,0,0
0:2:33.881,611.155,34.5841,0,0.000885,0,0
0:2:34.076,611.862,34.6255,0,0.000885,0,0
0:2:34.277,612.565,34.6668,0,0.000885,0,0
0:2:34.475,613.33,34.7082,0,0.000885,0,0
0:2:34.672,613.739,34.7289,0,0.000885,0,0
0:2:34.874,614.855,34.7909,0,0.000885,0,0
0:2:35.068,615.38,34.8254,0,0.000885,0,0
0:2:35.268,616.617,34.8944,0,0.000885,0,0
0:2:35.467,617.498,34.9426,0,0.000885,0,0
0:2:35.664,618.374,34.9909,0,0.000885,0,0
0:2:35.866,619.139,35.0392,0,0.000885,0,0
0:2:36.062,620.135,35.0943,0,0.000885,0,0
0:2:36.262,621.136,35.1495,0,0.000885,0,0
0:2:36.462,622.017,35.1977,0,0.000885,0,0
0:2:36.658,622.484,35.2253,0,0.000885,0,0
0:2:36.859,623.716,35.2943,0,0.000885,0,0
0:2:37.060,624.13,35.3218,0,0.000885,0,0
0:2:37.264,625.771,35.4115,0,0.000885,0,0
0:2:37.467,626.359,35.4459,0,0.000885,0,0
0:2:37.668,627.711,35.5218,0,0.000885,0,0
0:2:37.872,628.12,35.5425,0,0.000885,0,0
0:2:38.072,629.41,35.6183,0,0.000885,0,0
0:2:38.274,629.939,35.6459,0,0.000885,0,0
0:2:38.476,631.292,35.7217,0,0.000885,0,0
0:2:38.669,631.523,35.7355,0,0.000885,0,0
0:2:38.874,632.288,35.7769,0,0.000885,0,0
0:2:39.069,633.227,35.8321,0,0.000885,0,0
0:2:39.266,634.223,35.8872,0,0.000885,0,0
0:2:39.468,635.282,35.9493,0,0.000885,0,0
0:2:39.673,636.105,35.9975,0,0.000885,0,0
0:2:39.875,636.865,36.0389,0,0.000885,0,0
0:2:40.074,637.395,36.0665,0,0.000885,0,0
0:2:40.269,638.747,36.1423,0,0.000885,0,0
0:2:40.472,639.098,36.163,0,0.000885,0,0
0:2:40.666,640.566,36.2457,0,0.000885,0,0
0:2:40.866,641.505,36.3009,0,0.000885,0,0
0:2:41.066,642.265,36.3423,0,0.000885,0,0
0:2:41.262,642.737,36.3698,0,0.000885,0,0
0:2:41.464,643.56,36.4181,0,0.000885,0,0
0:2:41.660,644.32,36.4595,0,0.000885,0,0
0:2:41.861,646.024,36.556,0,0.000885,0,0
0:2:42.061,646.669,36.5974,0,0.000885,0,0
0:2:42.263,648.079,36.6732,0,0.000885,0,0
0:2:42.467,648.666,36.7077,0,0.000885,0,0
0:2:42.669,649.311,36.7422,0,0.000885,0,0
0:2:42.869,649.899,36.7766,0,0.000885,0,0
0:2:43.072,651.131,36.8456,0,0.000885,0,0
0:2:43.272,651.718,36.8801,0,0.000885,0,0
0:2:43.475,652.247,36.9076,0,0.000885,0,0
0:2:43.670,653.359,36.9697,0,0.000885,0,0
0:2:43.870,653.479,36.9766,0,0.000885,0,0
0:2:44.069,654.769,37.0524,0,0.000885,0,0
0:2:44.265,655.299,37.08,0,0.000885,0,0
0:2:44.467,657.176,37.1903,0,0.000885,0,0
0:2:44.664,657.585,37.211,0,0.000885,0,0
0:2:44.864,658.822,37.28,0,0.000885,0,0
0:2:45.063,659.173,37.3006,0,0.000885,0,0
0:2:45.269,660.579,37.3834,0,0.000885,0,0
0:2:45.473,661.522,37.4316,0,0.000885,0,0
0:2:45.678,662.634,37.5006,0,0.000885,0,0
0:2:45.878,663.105,37.5213,0,0.000885,0,0
0:2:46.078,663.692,37.5557,0,0.000885,0,0
0:2:46.270,664.337,37.5971,0,0.000885,0,0
0:2:46.474,665.16,37.6385,0,0.000885,0,0
0:2:46.670,665.983,37.6867,0,0.000885,0,0
0:2:46.868,666.744,37.7281,0,0.000885,0,0
0:2:47.069,667.153,37.7557,0,0.000885,0,0
0:2:47.274,667.803,37.7902,0,0.000885,0,0
0:2:47.477,668.799,37.8453,0,0.000885,0,0
0:2:47.680,669.444,37.8798,0,0.000885,0,0
0:2:47.881,670.147,37.9212,0,0.000885,0,0
0:2:48.082,671.028,37.9694,0,0.000885,0,0
0:2:48.284,671.383,37.9901,0,0.000885,0,0
0:2:48.486,671.793,38.0177,0,0.000885,0,0
0:2:48.684,671.677,38.0108,0,0.000885,0,0
0:2:48.882,671.908,38.0246,0,0.000885,0,0
0:2:49.083,672.616,38.0591,0,0.000885,0,0
0:2:49.276,672.616,38.0591,0,0.000885,0,0
0:2:49.478,673.083,38.0866,0,0.000885,0,0
0:2:49.676,673.434,38.1073,0,0.000885,0,0
0:2:49.873,673.496,38.1142,0,0.000885,0,0
0:2:50.075,673.496,38.1142,0,0.000885,0,0
0:2:50.267,673.376,38.1073,0,0.000885,0,0
0:2:50.467,672.673,38.066,0,0.000885,0,0
0:2:50.667,669.973,37.9143,0,0.000885,0,0
0:2:50.862,667.331,37.7626,0,0.000885,0,0
0:2:51.063,657.999,37.2317,0,0.000885,0,0
0:2:51.259,651.54,36.8663,0,0.000885,0,0
0:2:51.456,635.224,35.9493,0,0.000885,0,0
0:2:51.657,623.836,35.3012,0,0.000885,0,0
0:2:51.852,610.274,34.5358,0,0.000885,0,0
0:2:52.053,571.725,32.3502,0,0.000885,0,0
0:2:52.253,548.381,31.0333,0,0.000885,0,0
0:2:52.455,505.918,28.627,0,0.000885,0,0
0:2:52.656,489.496,27.7031,0,0.000885,0,0
0:2:52.798,477.534,27.0206,0,0.000885,0,0