File: DataFile2021-06-06_053924.csv
Test ID:,Date Tested:,Time:,Test Type:,Diameter Avg. (mm):,Cyl. Corr. Factor:,Height (mm):,Age (days):,Weight (kN):,Break Type:,Ramp Rate (MPa/s):,Load at Break (kN):,Stress at Break (MPa):
12,6/6/2021,05:39,Cylinder,150,1,300,0,13.39,3,0.25,1743.93,98.68
Sample Time,Load (kN),Stress (MPa),Long. Strain,Trans. Strain,Chan1 Deflection (mm),Chan2 Deflection (mm)
0:0:16.456,5.21776,0.296475,0,0.000885,0,0
0:0:16.853,7.91783,0.448159,0,0.000885,0,0
0:0:17.249,10.907,0.620528,0,0.000885,0,0
0:0:17.645,12.3171,0.69637,0,0.000885,0,0
0:0:18.044,12.375,0.703265,0,0.000885,0,0
0:0:18.444,13.9007,0.786002,0,0.000885,0,0
0:0:18.841,15.3063,0.868739,0,0.000885,0,0
0:0:19.237,16.5963,0.937687,0,0.000885,0,0
0:0:19.635,18.7092,1.06179,0,0.000885,0,0
0:0:20.035,19.9992,1.13074,0,0.000885,0,0
0:0:20.433,22.0543,1.24795,0,0.000885,0,0
0:0:20.830,23.5756,1.33758,0,0.000885,0,0
0:0:21.225,25.3949,1.43411,0,0.000885,0,0
0:0:21.625,27.45,1.55132,0,0.000885,0,0
0:0:22.026,29.385,1.66164,0,0.000885,0,0
0:0:22.432,31.6135,1.78574,0,0.000885,0,0
0:0:22.836,33.2549,1.88227,0,0.000885,0,0
0:0:23.239,35.8349,2.02706,0,0.000885,0,0
0:0:23.641,37.9478,2.14427,0,0.000885,0,0
0:0:24.042,39.7671,2.24769,0,0.000885,0,0
0:0:24.439,41.582,2.35111,0,0.000885,0,0
0:0:24.834,42.7563,2.42006,0,0.000885,0,0
0:0:25.232,44.5756,2.52348,0,0.000885,0,0
0:0:25.633,46.1592,2.61311,0,0.000885,0,0
0:0:26.031,47.8006,2.70274,0,0.000885,0,0
0:0:26.429,49.5576,2.80617,0,0.000885,0,0
0:0:26.824,51.3191,2.90269,0,0.000885,0,0
0:0:27.229,52.9027,2.99232,0,0.000885,0,0
0:0:27.635,54.8377,3.10264,0,0.000885,0,0
0:0:28.039,56.4791,3.19917,0,0.000885,0,0
0:0:28.443,57.947,3.2819,0,0.000885,0,0
0:0:28.840,59.7663,3.38533,0,0.000885,0,0
0:0:29.240,61.8748,3.50254,0,0.000885,0,0
0:0:29.641,63.5206,3.59217,0,0.000885,0,0
0:0:30.038,65.0419,3.6818,0,0.000885,0,0
0:0:30.435,66.6255,3.77143,0,0.000885,0,0
0:0:30.831,69.032,3.90933,0,0.000885,0,0
0:0:31.232,71.0248,4.01964,0,0.000885,0,0
0:0:31.631,72.4348,4.09549,0,0.000885,0,0
0:0:32.036,74.0762,4.19201,0,0.000885,0,0
0:0:32.441,76.3626,4.32301,0,0.000885,0,0
0:0:32.845,77.4168,4.37817,0,0.000885,0,0
0:0:33.247,79.3563,4.48849,0,0.000885,0,0
0:0:33.647,80.8197,4.57122,0,0.000885,0,0
0:0:34.043,82.6969,4.68154,0,0.000885,0,0
0:0:34.441,84.5162,4.78496,0,0.000885,0,0
0:0:34.841,86.5668,4.90217,0,0.000885,0,0
0:0:35.240,88.5018,5.00559,0,0.000885,0,0
0:0:35.637,89.9119,5.08833,0,0.000885,0,0
0:0:36.033,92.6698,5.24691,0,0.000885,0,0
0:0:36.432,93.8975,5.31586,0,0.000885,0,0
0:0:36.833,95.7168,5.41928,0,0.000885,0,0
0:0:37.240,97.3582,5.50891,0,0.000885,0,0
0:0:37.645,99.529,5.63302,0,0.000885,0,0
0:0:38.047,100.939,5.70886,0,0.000885,0,0
0:0:38.447,103.225,5.83986,0,0.000885,0,0
0:0:38.847,104.337,5.90191,0,0.000885,0,0
0:0:39.245,105.863,5.99154,0,0.000885,0,0
0:0:39.639,107.683,6.09497,0,0.000885,0,0
0:0:40.038,109.15,6.1777,0,0.000885,0,0
0:0:40.437,110.614,6.26044,0,0.000885,0,0
0:0:40.836,112.842,6.38455,0,0.000885,0,0
0:0:41.232,114.898,6.50176,0,0.000885,0,0
0:0:41.627,116.188,6.5776,0,0.000885,0,0
0:0:42.030,117.887,6.67413,0,0.000885,0,0
0:0:42.436,120.235,6.80513,0,0.000885,0,0
0:0:42.840,121.699,6.88786,0,0.000885,0,0
0:0:43.243,123.403,6.98439,0,0.000885,0,0
0:0:43.644,125.395,7.09471,0,0.000885,0,0
0:0:44.045,127.33,7.20502,0,0.000885,0,0
0:0:44.442,129.443,7.32223,0,0.000885,0,0
0:0:44.838,131.085,7.41876,0,0.000885,0,0
0:0:45.235,132.962,7.52218,0,0.000885,0,0
0:0:45.636,134.425,7.60492,0,0.000885,0,0
0:0:46.034,135.835,7.68765,0,0.000885,0,0
0:0:46.432,137.77,7.79797,0,0.000885,0,0
0:0:46.827,139.527,7.8945,0,0.000885,0,0
0:0:47.231,140.995,7.97723,0,0.000885,0,0
0:0:47.638,143.282,8.10823,0,0.000885,0,0
0:0:48.042,144.865,8.19787,0,0.000885,0,0
0:0:48.446,146.92,8.31508,0,0.000885,0,0
0:0:48.842,148.504,8.40471,0,0.000885,0,0
0:0:49.243,150.497,8.51503,0,0.000885,0,0
0:0:49.643,151.965,8.59776,0,0.000885,0,0
0:0:50.039,153.548,8.68739,0,0.000885,0,0
0:0:50.436,155.19,8.78392,0,0.000885,0,0
0:0:50.835,156.773,8.87355,0,0.000885,0,0
0:0:51.235,158.65,8.97697,0,0.000885,0,0
0:0:51.633,160.234,9.06661,0,0.000885,0,0
0:0:52.038,162.169,9.17692,0,0.000885,0,0
0:0:52.443,163.988,9.28034,0,0.000885,0,0
0:0:52.846,165.687,9.37687,0,0.000885,0,0
0:0:53.250,167.565,9.48029,0,0.000885,0,0
0:0:53.646,169.557,9.5975,0,0.000885,0,0
0:0:54.041,171.025,9.68024,0,0.000885,0,0
0:0:54.439,173.254,9.80434,0,0.000885,0,0
0:0:54.841,174.837,9.89398,0,0.000885,0,0
0:0:55.238,176.83,10.0043,0,0.000885,0,0
0:0:55.635,178.765,10.1146,0,0.000885,0,0
0:0:56.031,180.994,10.2456,0,0.000885,0,0
0:0:56.431,182.052,10.3008,0,0.000885,0,0
0:0:56.831,183.164,10.3628,0,0.000885,0,0
0:0:57.236,185.571,10.5007,0,0.000885,0,0
0:0:57.641,187.27,10.5972,0,0.000885,0,0
0:0:58.045,189.267,10.7076,0,0.000885,0,0
0:0:58.448,191.376,10.8317,0,0.000885,0,0
0:0:58.845,192.666,10.9006,0,0.000885,0,0
0:0:59.239,194.192,10.9902,0,0.000885,0,0
0:0:59.633,195.539,11.0661,0,0.000885,0,0
0:1:0.030,197.359,11.1695,0,0.000885,0,0
0:1:0.427,199.587,11.2936,0,0.000885,0,0
0:1:0.830,200.935,11.3695,0,0.000885,0,0
0:1:1.233,202.932,11.4867,0,0.000885,0,0
0:1:1.630,204.925,11.597,0,0.000885,0,0
0:1:2.027,206.273,11.6728,0,0.000885,0,0
0:1:2.431,208.266,11.7831,0,0.000885,0,0
0:1:2.833,210.263,11.9004,0,0.000885,0,0
0:1:3.234,211.726,11.9831,0,0.000885,0,0
0:1:3.632,213.839,12.1003,0,0.000885,0,0
0:1:4.037,215.187,12.1761,0,0.000885,0,0
0:1:4.432,217.3,12.2934,0,0.000885,0,0
0:1:4.822,219.351,12.4106,0,0.000885,0,0
0:1:5.220,221.228,12.5209,0,0.000885,0,0
0:1:5.616,222.287,12.576,0,0.000885,0,0
0:1:6.010,224.631,12.7139,0,0.000885,0,0
0:1:6.414,225.863,12.7829,0,0.000885,0,0
0:1:6.815,227.446,12.8725,0,0.000885,0,0
0:1:7.219,229.324,12.9759,0,0.000885,0,0
0:1:7.619,231.085,13.0794,0,0.000885,0,0
0:1:8.019,233.194,13.1966,0,0.000885,0,0
0:1:8.424,234.368,13.2655,0,0.000885,0,0
0:1:8.831,236.361,13.3758,0,0.000885,0,0
0:1:9.229,238.296,13.4861,0,0.000885,0,0
0:1:9.635,240.115,13.5896,0,0.000885,0,0
0:1:10.027,242.286,13.7137,0,0.000885,0,0
0:1:10.430,243.985,13.8102,0,0.000885,0,0
0:1:10.829,245.626,13.8998,0,0.000885,0,0
0:1:11.235,246.507,13.9481,0,0.000885,0,0
0:1:11.628,248.736,14.0722,0,0.000885,0,0
0:1:12.030,250.613,14.1825,0,0.000885,0,0
0:1:12.433,252.961,14.3135,0,0.000885,0,0
0:1:12.833,254.719,14.4169,0,0.000885,0,0
0:1:13.233,256.538,14.5204,0,0.000885,0,0
0:1:13.628,258.064,14.6031,0,0.000885,0,0
0:1:14.031,259.821,14.6996,0,0.000885,0,0
0:1:14.436,261.582,14.803,0,0.000885,0,0
0:1:14.835,263.869,14.934,0,0.000885,0,0
0:1:15.230,264.629,14.9754,0,0.000885,0,0
0:1:15.632,265.924,15.0513,0,0.000885,0,0
0:1:16.037,268.09,15.1685,0,0.000885,0,0
0:1:16.432,269.967,15.2788,0,0.000885,0,0
0:1:16.830,272.138,15.4029,0,0.000885,0,0
0:1:17.233,273.663,15.4856,0,0.000885,0,0
0:1:17.634,275.305,15.5822,0,0.000885,0,0
0:1:18.034,277.24,15.6856,0,0.000885,0,0
0:1:18.433,279.295,15.8028,0,0.000885,0,0
0:1:18.831,280.701,15.8855,0,0.000885,0,0
0:1:19.235,282.168,15.9683,0,0.000885,0,0
0:1:19.628,284.161,16.0786,0,0.000885,0,0
0:1:20.031,286.216,16.1958,0,0.000885,0,0
0:1:20.430,288.209,16.3061,0,0.000885,0,0
0:1:20.835,289.206,16.3682,0,0.000885,0,0
0:1:21.228,291.318,16.4854,0,0.000885,0,0
0:1:21.634,293.133,16.5888,0,0.000885,0,0
0:1:22.035,294.779,16.6784,0,0.000885,0,0
0:1:22.438,296.772,16.7956,0,0.000885,0,0
0:1:22.838,298.356,16.8853,0,0.000885,0,0
0:1:23.238,300.175,16.9887,0,0.000885,0,0
0:1:23.633,302.226,17.1059,0,0.000885,0,0
0:1:24.028,304.16,17.2093,0,0.000885,0,0
0:1:24.423,306.038,17.3196,0,0.000885,0,0
0:1:24.830,307.27,17.3886,0,0.000885,0,0
0:1:25.234,309.734,17.5265,0,0.000885,0,0
0:1:25.628,311.14,17.6092,0,0.000885,0,0
0:1:26.034,312.665,17.6919,0,0.000885,0,0
0:1:26.432,314.013,17.7678,0,0.000885,0,0
0:1:26.837,315.303,17.8436,0,0.000885,0,0
0:1:27.239,317.768,17.9815,0,0.000885,0,0
0:1:27.642,319.881,18.0987,0,0.000885,0,0
0:1:28.042,321.055,18.1677,0,0.000885,0,0
0:1:28.443,322.928,18.2711,0,0.000885,0,0
0:1:28.837,325.218,18.4021,0,0.000885,0,0
0:1:29.230,326.624,18.4848,0,0.000885,0,0
0:1:29.636,328.208,18.5745,0,0.000885,0,0
0:1:30.034,330.085,18.6779,0,0.000885,0,0
0:1:30.430,332.313,18.802,0,0.000885,0,0
0:1:30.833,334.133,18.9054,0,0.000885,0,0
0:1:31.238,335.48,18.9813,0,0.000885,0,0
0:1:31.634,337.767,19.1123,0,0.000885,0,0
0:1:32.031,339.528,19.2157,0,0.000885,0,0
0:1:32.436,340.64,19.2777,0,0.000885,0,0
0:1:32.837,342.811,19.4018,0,0.000885,0,0
0:1:33.236,345.16,19.5328,0,0.000885,0,0
0:1:33.634,346.45,19.6018,0,0.000885,0,0
0:1:34.032,348.558,19.7259,0,0.000885,0,0
0:1:34.435,350.262,19.8224,0,0.000885,0,0
0:1:34.837,351.61,19.8983,0,0.000885,0,0
0:1:35.233,352.726,19.9603,0,0.000885,0,0
0:1:35.631,354.661,20.0706,0,0.000885,0,0
0:1:36.036,356.418,20.1672,0,0.000885,0,0
0:1:36.430,358.18,20.2706,0,0.000885,0,0
0:1:36.832,360.173,20.3809,0,0.000885,0,0
0:1:37.235,361.64,20.4636,0,0.000885,0,0
0:1:37.635,364.1,20.6015,0,0.000885,0,0
0:1:38.034,365.746,20.6981,0,0.000885,0,0
0:1:38.426,366.978,20.767,0,0.000885,0,0
0:1:38.834,369.265,20.898,0,0.000885,0,0
0:1:39.231,371.551,21.0221,0,0.000885,0,0
0:1:39.637,372.899,21.1049,0,0.000885,0,0
0:1:40.029,374.482,21.1945,0,0.000885,0,0
0:1:40.435,375.893,21.2703,0,0.000885,0,0
0:1:40.832,378.415,21.4151,0,0.000885,0,0
0:1:41.238,379.117,21.4565,0,0.000885,0,0
0:1:41.632,381.755,21.6013,0,0.000885,0,0
0:1:42.033,383.165,21.684,0,0.000885,0,0
0:1:42.437,384.922,21.7805,0,0.000885,0,0
0:1:42.837,387.151,21.9115,0,0.000885,0,0
0:1:43.238,388.619,21.9943,0,0.000885,0,0
0:1:43.630,389.851,22.0632,0,0.000885,0,0
0:1:44.035,392.195,22.1942,0,0.000885,0,0
0:1:44.432,393.957,22.2908,0,0.000885,0,0
0:1:44.840,395.834,22.4011,0,0.000885,0,0
0:1:45.233,397.004,22.4631,0,0.000885,0,0
0:1:45.635,399.232,22.5941,0,0.000885,0,0
0:1:46.032,400.291,22.6493,0,0.000885,0,0
0:1:46.428,402.751,22.7941,0,0.000885,0,0
0:1:46.833,403.867,22.8561,0,0.000885,0,0
0:1:47.236,406.154,22.9802,0,0.000885,0,0
0:1:47.638,407.328,23.0492,0,0.000885,0,0
0:1:48.037,409.672,23.1802,0,0.000885,0,0
0:1:48.438,411.314,23.2767,0,0.000885,0,0
0:1:48.834,413.191,23.3801,0,0.000885,0,0
0:1:49.226,414.659,23.4629,0,0.000885,0,0
0:1:49.633,416.652,23.5801,0,0.000885,0,0
0:1:50.030,419.232,23.7249,0,0.000885,0,0
0:1:50.435,421.402,23.849,0,0.000885,0,0
0:1:50.837,422.634,23.9179,0,0.000885,0,0
0:1:51.231,423.573,23.9662,0,0.000885,0,0
0:1:51.628,426.273,24.1248,0,0.000885,0,0
0:1:52.035,427.385,24.1868,0,0.000885,0,0
0:1:52.438,429.44,24.304,0,0.000885,0,0
0:1:52.839,431.024,24.3937,0,0.000885,0,0
0:1:53.239,432.314,24.4626,0,0.000885,0,0
0:1:53.641,433.604,24.5384,0,0.000885,0,0
0:1:54.034,436.126,24.6763,0,0.000885,0,0
0:1:54.437,437.767,24.7729,0,0.000885,0,0
0:1:54.831,439.587,24.8763,0,0.000885,0,0
0:1:55.227,441.695,24.9935,0,0.000885,0,0
0:1:55.624,443.163,25.0762,0,0.000885,0,0
0:1:56.039,445.156,25.1934,0,0.000885,0,0
0:1:56.433,446.388,25.2624,0,0.000885,0,0
0:1:56.835,449.088,25.4141,0,0.000885,0,0
0:1:57.238,450.084,25.4692,0,0.000885,0,0
0:1:57.640,453.136,25.6416,0,0.000885,0,0
0:1:58.040,454.306,25.7105,0,0.000885,0,0
0:1:58.433,456.183,25.814,0,0.000885,0,0
0:1:58.829,457.179,25.8691,0,0.000885,0,0
0:1:59.238,459.644,26.0139,0,0.000885,0,0
0:1:59.628,460.76,26.076,0,0.000885,0,0
0:2:0.034,462.575,26.1794,0,0.000885,0,0
0:2:0.439,464.63,26.2897,0,0.000885,0,0
0:2:0.837,466.214,26.3793,0,0.000885,0,0
0:2:1.240,468.091,26.4897,0,0.000885,0,0
0:2:1.632,470.907,26.6482,0,0.000885,0,0
0:2:2.033,472.019,26.7103,0,0.000885,0,0
0:2:2.437,473.544,26.7999,0,0.000885,0,0
0:2:2.839,474.656,26.862,0,0.000885,0,0
0:2:3.240,476.885,26.9861,0,0.000885,0,0
0:2:3.634,478.353,27.0688,0,0.000885,0,0
0:2:4.040,480.114,27.1722,0,0.000885,0,0
0:2:4.438,481.756,27.2619,0,0.000885,0,0
0:2:4.841,483.633,27.3653,0,0.000885,0,0
0:2:5.236,485.51,27.4756,0,0.000885,0,0
0:2:5.639,487.387,27.579,0,0.000885,0,0
0:2:6.038,488.793,27.6618,0,0.000885,0,0
0:2:6.434,491.373,27.8066,0,0.000885,0,0
0:2:6.837,492.431,27.8686,0,0.000885,0,0
0:2:7.240,495.243,28.0272,0,0.000885,0,0
0:2:7.642,496.595,28.103,0,0.000885,0,0
0:2:8.043,498.588,28.2133,0,0.000885,0,0
0:2:8.444,500.465,28.3237,0,0.000885,0,0
0:2:8.837,502.284,28.4202,0,0.000885,0,0
0:2:9.233,503.281,28.4822,0,0.000885,0,0
0:2:9.641,505.745,28.6201,0,0.000885,0,0
0:2:10.036,506.915,28.6822,0,0.000885,0,0
0:2:10.428,508.912,28.7994,0,0.000885,0,0
0:2:10.833,510.318,28.8752,0,0.000885,0,0
0:2:11.228,512.195,28.9856,0,0.000885,0,0
0:2:11.626,513.133,29.0407,0,0.000885,0,0
0:2:12.029,516.358,29.22,0,0.000885,0,0
0:2:12.429,517.355,29.2751,0,0.000885,0,0
0:2:12.833,519.468,29.3992,0,0.000885,0,0
0:2:13.228,520.349,29.4475,0,0.000885,0,0
0:2:13.623,523.102,29.5992,0,0.000885,0,0
0:2:14.029,524.334,29.6681,0,0.000885,0,0
0:2:14.433,526.563,29.7991,0,0.000885,0,0
0:2:14.840,528.44,29.9026,0,0.000885,0,0
0:2:15.237,530.317,30.0129,0,0.000885,0,0
0:2:15.640,531.14,30.0542,0,0.000885,0,0
0:2:16.031,533.542,30.1921,0,0.000885,0,0
0:2:16.426,534.832,30.268,0,0.000885,0,0
0:2:16.824,537.238,30.399,0,0.000885,0,0
0:2:17.228,538.764,30.4886,0,0.000885,0,0
0:2:17.628,541.108,30.6196,0,0.000885,0,0
0:2:18.029,542.461,30.6955,0,0.000885,0,0
0:2:18.427,544.569,30.8196,0,0.000885,0,0
0:2:18.836,545.628,30.8747,0,0.000885,0,0
0:2:19.240,547.678,30.9919,0,0.000885,0,0
0:2:19.631,549.146,31.0747,0,0.000885,0,0
0:2:20.039,551.726,31.2195,0,0.000885,0,0
0:2:20.435,552.251,31.2539,0,0.000885,0,0
0:2:20.827,554.422,31.3711,0,0.000885,0,0
0:2:21.231,555.948,31.4608,0,0.000885,0,0
0:2:21.624,557.883,31.5711,0,0.000885,0,0
0:2:22.025,559.702,31.6745,0,0.000885,0,0
0:2:22.429,561.228,31.7573,0,0.000885,0,0
0:2:22.829,563.75,31.902,0,0.000885,0,0
0:2:23.229,565.04,31.9779,0,0.000885,0,0
0:2:23.627,567.326,32.102,0,0.000885,0,0
0:2:24.022,568.38,32.164,0,0.000885,0,0
0:2:24.419,570.903,32.3088,0,0.000885,0,0
0:2:24.834,572.428,32.3916,0,0.000885,0,0
0:2:25.238,574.421,32.5088,0,0.000885,0,0
0:2:25.636,575.244,32.5501,0,0.000885,0,0
0:2:26.031,577.53,32.6811,0,0.000885,0,0
0:2:26.437,579.408,32.7846,0,0.000885,0,0
0:2:26.827,581.049,32.8811,0,0.000885,0,0
0:2:27.229,583.749,33.0328,0,0.000885,0,0
0:2:27.632,584.981,33.1017,0,0.000885,0,0
0:2:28.032,586.387,33.1845,0,0.000885,0,0
0:2:28.435,587.97,33.2741,0,0.000885,0,0
0:2:28.826,590.435,33.412,0,0.000885,0,0
0:2:29.232,591.609,33.4809,0,0.000885,0,0
0:2:29.631,593.428,33.5844,0,0.000885,0,0
0:2:30.038,595.128,33.6809,0,0.000885,0,0
0:2:30.442,596.716,33.7705,0,0.000885,0,0
0:2:30.840,598.828,33.8877,0,0.000885,0,0
0:2:31.238,600.532,33.9843,0,0.000885,0,0
0:2:31.635,601.764,34.0532,0,0.000885,0,0
0:2:32.041,603.699,34.1635,0,0.000885,0,0
0:2:32.444,605.697,34.2738,0,0.000885,0,0
0:2:32.848,607.28,34.3635,0,0.000885,0,0
0:2:33.251,609.744,34.5014,0,0.000885,0,0
0:2:33.644,610.745,34.5634,0,0.000885,0,0
0:2:34.041,613.152,34.6944,0,0.000885,0,0
0:2:34.438,615.207,34.8116,0,0.000885,0,0
0:2:34.837,616.733,34.9013,0,0.000885,0,0
0:2:35.236,618.494,34.9978,0,0.000885,0,0
0:2:35.627,620.313,35.1012,0,0.000885,0,0
0:2:36.044,622.658,35.2322,0,0.000885,0,0
0:2:36.443,623.952,35.3081,0,0.000885,0,0
0:2:36.843,625.651,35.4046,0,0.000885,0,0
0:2:37.249,626.888,35.4735,0,0.000885,0,0
0:2:37.651,629.294,35.6114,0,0.000885,0,0
0:2:38.053,630.7,35.6873,0,0.000885,0,0
0:2:38.454,632.582,35.7976,0,0.000885,0,0
0:2:38.852,634.988,35.9355,0,0.000885,0,0
0:2:39.248,636.394,36.0113,0,0.000885,0,0
0:2:39.642,638.333,36.1216,0,0.000885,0,0
0:2:40.040,638.92,36.1561,0,0.000885,0,0
0:2:40.440,640.74,36.2595,0,0.000885,0,0
0:2:40.837,642.91,36.3836,0,0.000885,0,0
0:2:41.229,644.378,36.4664,0,0.000885,0,0
0:2:41.638,646.433,36.5836,0,0.000885,0,0
0:2:42.039,648.075,36.6732,0,0.000885,0,0
0:2:42.446,649.721,36.7697,0,0.000885,0,0
0:2:42.848,651.949,36.8938,0,0.000885,0,0
0:2:43.251,653.123,36.9559,0,0.000885,0,0
0:2:43.649,655.299,37.08,0,0.000885,0,0
0:2:44.047,657.349,37.1972,0,0.000885,0,0
0:2:44.446,658.644,37.2731,0,0.000885,0,0
0:2:44.842,661.282,37.4178,0,0.000885,0,0
0:2:45.238,661.811,37.4523,0,0.000885,0,0
0:2:45.636,664.275,37.5902,0,0.000885,0,0
0:2:46.033,665.979,37.6867,0,0.000885,0,0
0:2:46.431,667.918,37.7971,0,0.000885,0,0
0:2:46.839,670.325,37.935,0,0.000885,0,0
0:2:47.243,671.73,38.0108,0,0.000885,0,0
0:2:47.646,673.318,38.1004,0,0.000885,0,0
0:2:48.048,674.902,38.1901,0,0.000885,0,0
0:2:48.452,676.486,38.2797,0,0.000885,0,0
0:2:48.848,678.011,38.3693,0,0.000885,0,0
0:2:49.243,679.421,38.4452,0,0.000885,0,0
0:2:49.643,681.299,38.5555,0,0.000885,0,0
0:2:50.043,683.18,38.6589,0,0.000885,0,0
0:2:50.439,685.702,38.8037,0,0.000885,0,0
0:2:50.832,687.757,38.9209,0,0.000885,0,0
0:2:51.240,688.989,38.9899,0,0.000885,0,0
0:2:51.639,690.929,39.1002,0,0.000885,0,0
0:2:52.039,692.335,39.176,0,0.000885,0,0
0:2:52.444,694.038,39.2725,0,0.000885,0,0
0:2:52.848,695.622,39.3622,0,0.000885,0,0
0:2:53.250,697.441,39.4656,0,0.000885,0,0
0:2:53.650,699.674,39.5966,0,0.000885,0,0
0:2:54.048,701.551,39.7,0,0.000885,0,0
0:2:54.445,702.668,39.7621,0,0.000885,0,0
0:2:54.839,705.31,39.9137,0,0.000885,0,0
0:2:55.239,707.067,40.0103,0,0.000885,0,0
0:2:55.638,708.771,40.1068,0,0.000885,0,0
0:2:56.043,710.71,40.2171,0,0.000885,0,0
0:2:56.440,711.764,40.2792,0,0.000885,0,0
0:2:56.844,713.877,40.3964,0,0.000885,0,0
0:2:57.248,715.639,40.4998,0,0.000885,0,0
0:2:57.651,717.636,40.6101,0,0.000885,0,0
0:2:58.053,719.22,40.6998,0,0.000885,0,0
0:2:58.451,721.097,40.8032,0,0.000885,0,0
0:2:58.846,723.036,40.9135,0,0.000885,0,0
0:2:59.246,723.975,40.9686,0,0.000885,0,0
0:2:59.644,725.678,41.0652,0,0.000885,0,0
0:3:0.040,727.671,41.1755,0,0.000885,0,0
0:3:0.434,729.259,41.2651,0,0.000885,0,0
0:3:0.842,731.546,41.3961,0,0.000885,0,0
0:3:1.242,733.365,41.4995,0,0.000885,0,0
0:3:1.641,734.775,41.5823,0,0.000885,0,0
0:3:2.047,736.594,41.6857,0,0.000885,0,0
0:3:2.450,738.24,41.7753,0,0.000885,0,0
0:3:2.853,740.233,41.8857,0,0.000885,0,0
0:3:3.254,741.937,41.9822,0,0.000885,0,0
0:3:3.650,743.64,42.0787,0,0.000885,0,0
0:3:4.047,745.517,42.189,0,0.000885,0,0
0:3:4.442,747.63,42.3062,0,0.000885,0,0
0:3:4.843,749.334,42.4028,0,0.000885,0,0
0:3:5.241,750.802,42.4855,0,0.000885,0,0
0:3:5.647,752.559,42.5889,0,0.000885,0,0
0:3:6.042,754.556,42.6992,0,0.000885,0,0
0:3:6.439,756.727,42.8233,0,0.000885,0,0
0:3:6.839,758.079,42.8992,0,0.000885,0,0
0:3:7.245,760.077,43.0095,0,0.000885,0,0
0:3:7.648,761.718,43.106,0,0.000885,0,0
0:3:8.049,763.008,43.175,0,0.000885,0,0
0:3:8.449,764.654,43.2715,0,0.000885,0,0
0:3:8.848,766.179,43.3542,0,0.000885,0,0
0:3:9.244,768.47,43.4852,0,0.000885,0,0
0:3:9.639,769.818,43.5611,0,0.000885,0,0
0:3:10.046,772.109,43.6921,0,0.000885,0,0
0:3:10.445,773.693,43.7817,0,0.000885,0,0
0:3:10.842,775.863,43.9058,0,0.000885,0,0
0:3:11.239,777.389,43.9886,0,0.000885,0,0
0:3:11.632,778.741,44.0644,0,0.000885,0,0
0:3:12.034,780.267,44.154,0,0.000885,0,0
0:3:12.442,782.264,44.2643,0,0.000885,0,0
0:3:12.845,784.435,44.3884,0,0.000885,0,0
0:3:13.247,786.312,44.4988,0,0.000885,0,0
0:3:13.644,788.309,44.6091,0,0.000885,0,0
0:3:14.043,789.835,44.6987,0,0.000885,0,0
0:3:14.441,791.419,44.7883,0,0.000885,0,0
0:3:14.845,793.238,44.8849,0,0.000885,0,0
0:3:15.241,795.529,45.0159,0,0.000885,0,0
0:3:15.641,796.877,45.0917,0,0.000885,0,0
0:3:16.048,798.758,45.202,0,0.000885,0,0
0:3:16.445,800.751,45.3123,0,0.000885,0,0
0:3:16.836,801.81,45.3744,0,0.000885,0,0
0:3:17.242,803.513,45.4709,0,0.000885,0,0
0:3:17.648,805.275,45.5675,0,0.000885,0,0
0:3:18.049,807.21,45.6778,0,0.000885,0,0
0:3:18.453,808.736,45.7674,0,0.000885,0,0
0:3:18.850,810.555,45.8708,0,0.000885,0,0
0:3:19.248,813.375,46.0294,0,0.000885,0,0
0:3:19.648,814.136,46.0708,0,0.000885,0,0
0:3:20.043,816.075,46.1811,0,0.000885,0,0
0:3:20.436,817.774,46.2776,0,0.000885,0,0
0:3:20.833,819.594,46.381,0,0.000885,0,0
0:3:21.232,821.827,46.5051,0,0.000885,0,0
0:3:21.629,823.646,46.6086,0,0.000885,0,0
0:3:22.033,825.408,46.7051,0,0.000885,0,0
0:3:22.440,826.346,46.7602,0,0.000885,0,0
0:3:22.842,828.459,46.8843,0,0.000885,0,0
0:3:23.244,830.336,46.9878,0,0.000885,0,0
0:3:23.650,831.631,47.0636,0,0.000885,0,0
0:3:24.046,833.917,47.1877,0,0.000885,0,0
0:3:24.442,835.621,47.2842,0,0.000885,0,0
0:3:24.842,837.791,47.4084,0,0.000885,0,0
0:3:25.240,840.198,47.5462,0,0.000885,0,0
0:3:25.644,841.314,47.6083,0,0.000885,0,0
0:3:26.049,842.724,47.691,0,0.000885,0,0
0:3:26.448,843.957,47.76,0,0.000885,0,0
0:3:26.847,846.243,47.891,0,0.000885,0,0
0:3:27.253,848.062,47.9875,0,0.000885,0,0
0:3:27.655,849.472,48.0702,0,0.000885,0,0
0:3:28.058,851.412,48.1806,0,0.000885,0,0
0:3:28.460,853.289,48.284,0,0.000885,0,0
0:3:28.856,854.757,48.3667,0,0.000885,0,0
0:3:29.254,857.043,48.4977,0,0.000885,0,0
0:3:29.648,858.747,48.5942,0,0.000885,0,0
0:3:30.048,860.393,48.6908,0,0.000885,0,0
0:3:30.448,861.861,48.7735,0,0.000885,0,0
0:3:30.844,863.502,48.8631,0,0.000885,0,0
0:3:31.236,865.909,49.001,0,0.000885,0,0
0:3:31.646,868.079,49.1251,0,0.000885,0,0
0:3:32.046,869.725,49.2148,0,0.000885,0,0
0:3:32.452,870.9,49.2837,0,0.000885,0,0
0:3:32.856,872.541,49.3734,0,0.000885,0,0
0:3:33.258,874.245,49.4699,0,0.000885,0,0
0:3:33.658,876.473,49.6009,0,0.000885,0,0
0:3:34.056,877.999,49.6836,0,0.000885,0,0
0:3:34.453,880.116,49.8008,0,0.000885,0,0
0:3:34.848,882.167,49.918,0,0.000885,0,0
0:3:35.245,883.283,49.987,0,0.000885,0,0
0:3:35.644,885.281,50.0973,0,0.000885,0,0
0:3:36.039,886.571,50.1663,0,0.000885,0,0
0:3:36.434,888.977,50.3041,0,0.000885,0,0
0:3:36.839,889.978,50.3593,0,0.000885,0,0
0:3:37.245,891.971,50.4765,0,0.000885,0,0
0:3:37.648,893.674,50.573,0,0.000885,0,0
0:3:38.049,896.139,50.7109,0,0.000885,0,0
0:3:38.444,897.313,50.7799,0,0.000885,0,0
0:3:38.843,899.19,50.8833,0,0.000885,0,0
0:3:39.242,900.836,50.9798,0,0.000885,0,0
0:3:39.637,902.598,51.0764,0,0.000885,0,0
0:3:40.034,904.884,51.2074,0,0.000885,0,0
0:3:40.438,906.41,51.2901,0,0.000885,0,0
0:3:40.838,908.585,51.4142,0,0.000885,0,0
0:3:41.235,910.111,51.5038,0,0.000885,0,0
0:3:41.652,911.872,51.6004,0,0.000885,0,0
0:3:42.057,913.398,51.69,0,0.000885,0,0
0:3:42.460,914.336,51.7383,0,0.000885,0,0
0:3:42.863,916.449,51.8624,0,0.000885,0,0
0:3:43.265,918.798,51.9934,0,0.000885,0,0
0:3:43.661,920.791,52.1037,0,0.000885,0,0
0:3:44.059,922.259,52.1864,0,0.000885,0,0
0:3:44.457,924.256,52.3036,0,0.000885,0,0
0:3:44.857,926.191,52.4139,0,0.000885,0,0
0:3:45.254,927.779,52.5036,0,0.000885,0,0
0:3:45.648,929.127,52.5794,0,0.000885,0,0
0:3:46.045,930.773,52.6691,0,0.000885,0,0
0:3:46.445,932.24,52.7518,0,0.000885,0,0
0:3:46.843,934.647,52.8897,0,0.000885,0,0
0:3:47.248,936.288,52.9862,0,0.000885,0,0
0:3:47.650,938.228,53.0896,0,0.000885,0,0
0:3:48.054,940.221,53.2068,0,0.000885,0,0
0:3:48.456,942.16,53.3172,0,0.000885,0,0
0:3:48.852,943.45,53.3861,0,0.000885,0,0
0:3:49.248,945.034,53.4757,0,0.000885,0,0
0:3:49.645,946.857,53.5792,0,0.000885,0,0
0:3:50.043,948.557,53.6757,0,0.000885,0,0
0:3:50.444,950.669,53.7998,0,0.000885,0,0
0:3:50.837,952.431,53.8963,0,0.000885,0,0
0:3:51.232,953.957,53.9859,0,0.000885,0,0
0:3:51.630,955.66,54.0825,0,0.000885,0,0
0:3:52.032,957.48,54.179,0,0.000885,0,0
0:3:52.438,959.121,54.2755,0,0.000885,0,0
0:3:52.843,961.532,54.4134,0,0.000885,0,0
0:3:53.247,963.467,54.5237,0,0.000885,0,0
0:3:53.644,965.108,54.6134,0,0.000885,0,0
0:3:54.040,966.283,54.6823,0,0.000885,0,0
0:3:54.449,968.044,54.7788,0,0.000885,0,0
0:3:54.846,969.339,54.8547,0,0.000885,0,0
0:3:55.239,971.158,54.9581,0,0.000885,0,0
0:3:55.638,972.742,55.0477,0,0.000885,0,0
0:3:56.037,974.854,55.165,0,0.000885,0,0
0:3:56.433,977.439,55.3097,0,0.000885,0,0
0:3:56.840,978.907,55.3925,0,0.000885,0,0
0:3:57.247,980.548,55.489,0,0.000885,0,0
0:3:57.651,982.425,55.5924,0,0.000885,0,0
0:3:58.053,984.307,55.7027,0,0.000885,0,0
0:3:58.456,985.89,55.7924,0,0.000885,0,0
0:3:58.853,987.301,55.8682,0,0.000885,0,0
0:3:59.250,988.768,55.951,0,0.000885,0,0
0:3:59.649,990.761,56.0682,0,0.000885,0,0
0:4:0.047,992.874,56.1854,0,0.000885,0,0
0:4:0.452,994.929,56.3026,0,0.000885,0,0
0:4:0.849,996.691,56.3991,0,0.000885,0,0
0:4:1.245,998.51,56.5025,0,0.000885,0,0
0:4:1.645,999.684,56.5715,0,0.000885,0,0
0:4:2.044,1001.86,56.6956,0,0.000885,0,0
0:4:2.449,1003.56,56.7921,0,0.000885,0,0
0:4:2.853,1005.85,56.9162,0,0.000885,0,0
0:4:3.255,1007.38,57.0059,0,0.000885,0,0
0:4:3.658,1008.96,57.0955,0,0.000885,0,0
0:4:4.054,1009.96,57.1506,0,0.000885,0,0
0:4:4.450,1011.54,57.2403,0,0.000885,0,0
0:4:4.845,1013.54,57.3575,0,0.000885,0,0
0:4:5.246,1015.59,57.4678,0,0.000885,0,0
0:4:5.642,1017.82,57.5988,0,0.000885,0,0
0:4:6.049,1019.94,57.716,0,0.000885,0,0
0:4:6.441,1021.52,57.8056,0,0.000885,0,0
0:4:6.847,1023.1,57.8953,0,0.000885,0,0
0:4:7.253,1024.69,57.9849,0,0.000885,0,0
0:4:7.655,1026.04,58.0608,0,0.000885,0,0
0:4:8.058,1027.57,58.1504,0,0.000885,0,0
0:4:8.455,1029.97,58.2814,0,0.000885,0,0
0:4:8.851,1031.79,58.3848,0,0.000885,0,0
0:4:9.252,1033.9,58.5089,0,0.000885,0,0
0:4:9.649,1035.67,58.6054,0,0.000885,0,0
0:4:10.052,1037.37,58.702,0,0.000885,0,0
0:4:10.448,1039.01,58.7985,0,0.000885,0,0
0:4:10.848,1040.6,58.8881,0,0.000885,0,0
0:4:11.246,1042.53,58.9984,0,0.000885,0,0
0:4:11.640,1043.89,59.0743,0,0.000885,0,0
0:4:12.047,1046.11,59.1984,0,0.000885,0,0
0:4:12.451,1048.58,59.3363,0,0.000885,0,0
0:4:12.853,1049.87,59.4121,0,0.000885,0,0
0:4:13.256,1051.46,59.5018,0,0.000885,0,0
0:4:13.651,1052.93,59.5845,0,0.000885,0,0
0:4:14.046,1054.8,59.6879,0,0.000885,0,0
0:4:14.446,1056.27,59.7707,0,0.000885,0,0
0:4:14.843,1057.74,59.8534,0,0.000885,0,0
0:4:15.237,1059.44,59.9499,0,0.000885,0,0
0:4:15.643,1061.08,60.0464,0,0.000885,0,0
0:4:16.041,1063.14,60.1637,0,0.000885,0,0
0:4:16.440,1065.49,60.2947,0,0.000885,0,0
0:4:16.838,1067.19,60.3912,0,0.000885,0,0
0:4:17.245,1069.24,60.5084,0,0.000885,0,0
0:4:17.648,1070.77,60.5911,0,0.000885,0,0
0:4:18.050,1072.36,60.6808,0,0.000885,0,0
0:4:18.452,1073.94,60.7704,0,0.000885,0,0
0:4:18.846,1075.76,60.8738,0,0.000885,0,0
0:4:19.241,1077.76,60.991,0,0.000885,0,0
0:4:19.638,1079.45,61.0875,0,0.000885,0,0
0:4:20.039,1081.51,61.1979,0,0.000885,0,0
0:4:20.447,1083.33,61.3013,0,0.000885,0,0
0:4:20.839,1085.33,61.4185,0,0.000885,0,0
0:4:21.236,1087.38,61.5357,0,0.000885,0,0
0:4:21.635,1088.15,61.5771,0,0.000885,0,0
0:4:22.043,1089.44,61.646,0,0.000885,0,0
0:4:22.450,1091.26,61.7494,0,0.000885,0,0
0:4:22.853,1093.25,61.8667,0,0.000885,0,0
0:4:23.256,1095.13,61.9701,0,0.000885,0,0
0:4:23.657,1096.83,62.0666,0,0.000885,0,0
0:4:24.053,1098.88,62.1838,0,0.000885,0,0
0:4:24.449,1100.59,62.2803,0,0.000885,0,0
0:4:24.844,1102.47,62.3838,0,0.000885,0,0
0:4:25.244,1103.82,62.4665,0,0.000885,0,0
0:4:25.644,1105.75,62.5699,0,0.000885,0,0
0:4:26.037,1108.16,62.7078,0,0.000885,0,0
0:4:26.443,1109.63,62.7906,0,0.000885,0,0
0:4:26.849,1111.04,62.8733,0,0.000885,0,0
0:4:27.254,1112.91,62.9767,0,0.000885,0,0
0:4:27.658,1114.5,63.0663,0,0.000885,0,0
0:4:28.060,1116.49,63.1836,0,0.000885,0,0
0:4:28.457,1118.73,63.3077,0,0.000885,0,0
0:4:28.856,1120.13,63.3835,0,0.000885,0,0
0:4:29.254,1122.37,63.5145,0,0.000885,0,0
0:4:29.650,1123.89,63.5972,0,0.000885,0,0
0:4:30.042,1126.24,63.7351,0,0.000885,0,0
0:4:30.441,1128.12,63.8386,0,0.000885,0,0
0:4:30.841,1129.23,63.9006,0,0.000885,0,0
0:4:31.236,1130.41,63.9696,0,0.000885,0,0
0:4:31.632,1131.58,64.0316,0,0.000885,0,0
0:4:32.035,1133.93,64.1695,0,0.000885,0,0
0:4:32.442,1135.4,64.2522,0,0.000885,0,0
0:4:32.843,1137.51,64.3695,0,0.000885,0,0
0:4:33.247,1139.21,64.466,0,0.000885,0,0
0:4:33.640,1140.74,64.5556,0,0.000885,0,0
0:4:34.040,1143.09,64.6866,0,0.000885,0,0
0:4:34.438,1144.85,64.7831,0,0.000885,0,0
0:4:34.842,1147.14,64.9141,0,0.000885,0,0
0:4:35.239,1148.25,64.9762,0,0.000885,0,0
0:4:35.635,1150.25,65.0934,0,0.000885,0,0
0:4:36.036,1152.25,65.2037,0,0.000885,0,0
0:4:36.433,1153.71,65.2865,0,0.000885,0,0
0:4:36.837,1155.53,65.3899,0,0.000885,0,0
0:4:37.241,1157.58,65.5071,0,0.000885,0,0
0:4:37.644,1159.05,65.5898,0,0.000885,0,0
0:4:38.049,1160.46,65.6657,0,0.000885,0,0
0:4:38.452,1162.99,65.8105,0,0.000885,0,0
0:4:38.846,1164.57,65.9001,0,0.000885,0,0
0:4:39.243,1165.75,65.969,0,0.000885,0,0
0:4:39.643,1167.8,66.0862,0,0.000885,0,0
0:4:40.040,1169.21,66.1621,0,0.000885,0,0
0:4:40.445,1170.97,66.2655,0,0.000885,0,0
0:4:40.839,1172.91,66.3758,0,0.000885,0,0
0:4:41.240,1175.14,66.4999,0,0.000885,0,0
0:4:41.639,1176.43,66.5689,0,0.000885,0,0
0:4:42.044,1178.01,66.6585,0,0.000885,0,0
0:4:42.449,1180.24,66.7895,0,0.000885,0,0
0:4:42.852,1181.36,66.8516,0,0.000885,0,0
0:4:43.253,1183.53,66.9757,0,0.000885,0,0
0:4:43.651,1185.35,67.0791,0,0.000885,0,0
0:4:44.043,1187.05,67.1756,0,0.000885,0,0
0:4:44.438,1188.76,67.2721,0,0.000885,0,0
0:4:44.838,1190.69,67.3825,0,0.000885,0,0
0:4:45.237,1192.39,67.479,0,0.000885,0,0
0:4:45.634,1194.16,67.5755,0,0.000885,0,0
0:4:46.050,1195.8,67.6651,0,0.000885,0,0
0:4:46.454,1197.56,67.7686,0,0.000885,0,0
0:4:46.857,1199.97,67.9065,0,0.000885,0,0
0:4:47.262,1201.84,68.0099,0,0.000885,0,0
0:4:47.664,1203.37,68.0995,0,0.000885,0,0
0:4:48.068,1204.96,68.1891,0,0.000885,0,0
0:4:48.465,1206.78,68.2926,0,0.000885,0,0
0:4:48.865,1208.48,68.3891,0,0.000885,0,0
0:4:49.262,1211.06,68.5339,0,0.000885,0,0
0:4:49.656,1212.35,68.6028,0,0.000885,0,0
0:4:50.053,1214.23,68.7132,0,0.000885,0,0
0:4:50.452,1214.76,68.7407,0,0.000885,0,0
0:4:50.850,1216.46,68.8373,0,0.000885,0,0
0:4:51.244,1218.75,68.9683,0,0.000885,0,0
0:4:51.640,1220.57,69.0717,0,0.000885,0,0
0:4:52.041,1223.03,69.2096,0,0.000885,0,0
0:4:52.446,1224.27,69.2785,0,0.000885,0,0
0:4:52.850,1225.79,69.3682,0,0.000885,0,0
0:4:53.252,1227.5,69.4647,0,0.000885,0,0
0:4:53.651,1229.49,69.575,0,0.000885,0,0
0:4:54.051,1230.96,69.6577,0,0.000885,0,0
0:4:54.446,1232.66,69.7543,0,0.000885,0,0
0:4:54.841,1234.72,69.8715,0,0.000885,0,0
0:4:55.237,1237.06,70.0025,0,0.000885,0,0
0:4:55.636,1238.53,70.0852,0,0.000885,0,0
0:4:56.034,1240.12,70.1748,0,0.000885,0,0
0:4:56.432,1242.11,70.2921,0,0.000885,0,0
0:4:56.825,1244.28,70.4093,0,0.000885,0,0
0:4:57.229,1245.57,70.4851,0,0.000885,0,0
0:4:57.635,1247.81,70.6092,0,0.000885,0,0
0:4:58.038,1249.57,70.7126,0,0.000885,0,0
0:4:58.441,1251.8,70.8367,0,0.000885,0,0
0:4:58.837,1252.8,70.8919,0,0.000885,0,0
0:4:59.245,1254.09,70.9677,0,0.000885,0,0
0:4:59.646,1256.08,71.0781,0,0.000885,0,0
0:5:0.053,1257.73,71.1746,0,0.000885,0,0
0:5:0.447,1259.72,71.2849,0,0.000885,0,0
0:5:0.855,1261.01,71.3607,0,0.000885,0,0
0:5:1.254,1263.01,71.4711,0,0.000885,0,0
0:5:1.653,1265,71.5814,0,0.000885,0,0
0:5:2.058,1266.76,71.6848,0,0.000885,0,0
0:5:2.463,1267.94,71.7537,0,0.000885,0,0
0:5:2.864,1270.29,71.8847,0,0.000885,0,0
0:5:3.268,1272.4,72.002,0,0.000885,0,0
0:5:3.663,1274.16,72.1054,0,0.000885,0,0
0:5:4.059,1275.22,72.1605,0,0.000885,0,0
0:5:4.456,1277.1,72.2708,0,0.000885,0,0
0:5:4.856,1278.97,72.3743,0,0.000885,0,0
0:5:5.253,1280.91,72.4846,0,0.000885,0,0
0:5:5.647,1282.96,72.6018,0,0.000885,0,0
0:5:6.054,1284.9,72.7121,0,0.000885,0,0
0:5:6.453,1286.31,72.788,0,0.000885,0,0
0:5:6.852,1288.31,72.9052,0,0.000885,0,0
0:5:7.258,1289.42,72.9672,0,0.000885,0,0
0:5:7.660,1291.77,73.0982,0,0.000885,0,0
0:5:8.061,1293.71,73.2085,0,0.000885,0,0
0:5:8.464,1295.41,73.3051,0,0.000885,0,0
0:5:8.861,1297.35,73.4154,0,0.000885,0,0
0:5:9.257,1298.81,73.4981,0,0.000885,0,0
0:5:9.652,1300.17,73.574,0,0.000885,0,0
0:5:10.052,1302.69,73.7187,0,0.000885,0,0
0:5:10.449,1303.4,73.7601,0,0.000885,0,0
0:5:10.845,1305.21,73.8566,0,0.000885,0,0
0:5:11.241,1306.91,73.9532,0,0.000885,0,0
0:5:11.639,1309.09,74.0773,0,0.000885,0,0
0:5:12.039,1310.67,74.1669,0,0.000885,0,0
0:5:12.444,1312.38,74.2634,0,0.000885,0,0
0:5:12.846,1314.84,74.4013,0,0.000885,0,0
0:5:13.251,1316.42,74.4979,0,0.000885,0,0
0:5:13.660,1318.07,74.5875,0,0.000885,0,0
0:5:14.059,1319.36,74.6633,0,0.000885,0,0
0:5:14.457,1321.24,74.7667,0,0.000885,0,0
0:5:14.852,1323.41,74.8909,0,0.000885,0,0
0:5:15.246,1325.11,74.9874,0,0.000885,0,0
0:5:15.645,1326.58,75.0701,0,0.000885,0,0
0:5:16.055,1328.81,75.1942,0,0.000885,0,0
0:5:16.449,1330.34,75.2839,0,0.000885,0,0
0:5:16.845,1332.39,75.4011,0,0.000885,0,0
0:5:17.249,1333.98,75.4907,0,0.000885,0,0
0:5:17.656,1335.8,75.5872,0,0.000885,0,0
0:5:18.058,1337.73,75.6975,0,0.000885,0,0
0:5:18.461,1339.67,75.8079,0,0.000885,0,0
0:5:18.857,1340.79,75.8699,0,0.000885,0,0
0:5:19.255,1343.25,76.0147,0,0.000885,0,0
0:5:19.654,1344.54,76.0836,0,0.000885,0,0
0:5:20.049,1346.19,76.1802,0,0.000885,0,0
0:5:20.444,1347.94,76.2767,0,0.000885,0,0
0:5:20.841,1349.41,76.3594,0,0.000885,0,0
0:5:21.241,1351.65,76.4904,0,0.000885,0,0
0:5:21.639,1353.58,76.5939,0,0.000885,0,0
0:5:22.045,1355.4,76.6973,0,0.000885,0,0
0:5:22.449,1356.87,76.78,0,0.000885,0,0
0:5:22.854,1358.81,76.8903,0,0.000885,0,0
0:5:23.255,1360.86,77.0075,0,0.000885,0,0
0:5:23.653,1362.33,77.0903,0,0.000885,0,0
0:5:24.060,1363.86,77.1799,0,0.000885,0,0
0:5:24.455,1366.08,77.304,0,0.000885,0,0
0:5:24.853,1367.73,77.4005,0,0.000885,0,0
0:5:25.253,1369.72,77.5109,0,0.000885,0,0
0:5:25.649,1371.78,77.6281,0,0.000885,0,0
0:5:26.055,1372.95,77.6901,0,0.000885,0,0
0:5:26.449,1374.36,77.7729,0,0.000885,0,0
0:5:26.855,1376.3,77.8832,0,0.000885,0,0
0:5:27.260,1378.35,78.0004,0,0.000885,0,0
0:5:27.663,1380.41,78.1176,0,0.000885,0,0
0:5:28.064,1381.88,78.2003,0,0.000885,0,0
0:5:28.463,1383.05,78.2624,0,0.000885,0,0
0:5:28.861,1384.87,78.3658,0,0.000885,0,0
0:5:29.259,1386.69,78.4692,0,0.000885,0,0
0:5:29.656,1388.39,78.5658,0,0.000885,0,0
0:5:30.050,1390.21,78.6692,0,0.000885,0,0
0:5:30.448,1392.15,78.7795,0,0.000885,0,0
0:5:30.848,1394.2,78.8967,0,0.000885,0,0
0:5:31.245,1395.91,78.9932,0,0.000885,0,0
0:5:31.641,1397.67,79.0898,0,0.000885,0,0
0:5:32.046,1399.54,79.2001,0,0.000885,0,0
0:5:32.449,1400.89,79.2759,0,0.000885,0,0
0:5:32.854,1402.65,79.3724,0,0.000885,0,0
0:5:33.257,1404.53,79.4828,0,0.000885,0,0
0:5:33.655,1406.12,79.5724,0,0.000885,0,0
0:5:34.047,1408,79.6758,0,0.000885,0,0
0:5:34.448,1410.23,79.7999,0,0.000885,0,0
0:5:34.846,1411.99,79.9033,0,0.000885,0,0
0:5:35.241,1413.16,79.9654,0,0.000885,0,0
0:5:35.638,1414.63,80.055,0,0.000885,0,0
0:5:36.034,1416.74,80.1722,0,0.000885,0,0
0:5:36.442,1418.92,80.2963,0,0.000885,0,0
0:5:36.844,1420.5,80.386,0,0.000885,0,0
0:5:37.248,1422.03,80.4687,0,0.000885,0,0
0:5:37.654,1423.67,80.5652,0,0.000885,0,0
0:5:38.056,1425.66,80.6756,0,0.000885,0,0
0:5:38.457,1427.25,80.7652,0,0.000885,0,0
0:5:38.854,1429.54,80.8962,0,0.000885,0,0
0:5:39.260,1431.18,80.9858,0,0.000885,0,0
0:5:39.656,1432.65,81.0686,0,0.000885,0,0
0:5:40.054,1434.64,81.1858,0,0.000885,0,0
0:5:40.451,1436.05,81.2616,0,0.000885,0,0
0:5:40.849,1438.46,81.3995,0,0.000885,0,0
0:5:41.244,1440.34,81.5098,0,0.000885,0,0
0:5:41.648,1442.22,81.6132,0,0.000885,0,0
0:5:42.051,1443.33,81.6753,0,0.000885,0,0
0:5:42.458,1444.92,81.7649,0,0.000885,0,0
0:5:42.861,1446.74,81.8683,0,0.000885,0,0
0:5:43.264,1448.44,81.9649,0,0.000885,0,0
0:5:43.660,1450.61,82.089,0,0.000885,0,0
0:5:44.062,1452.55,82.1993,0,0.000885,0,0
0:5:44.460,1454.6,82.3165,0,0.000885,0,0
0:5:44.855,1456.54,82.4199,0,0.000885,0,0
0:5:45.248,1457.95,82.5027,0,0.000885,0,0
0:5:45.646,1459.18,82.5716,0,0.000885,0,0
0:5:46.045,1461.12,82.6819,0,0.000885,0,0
0:5:46.442,1462.65,82.7716,0,0.000885,0,0
0:5:46.836,1464.41,82.8681,0,0.000885,0,0
0:5:47.239,1466.64,82.9922,0,0.000885,0,0
0:5:47.646,1468.34,83.0887,0,0.000885,0,0
0:5:48.048,1469.92,83.1784,0,0.000885,0,0
0:5:48.450,1471.57,83.2749,0,0.000885,0,0
0:5:48.847,1473.39,83.3783,0,0.000885,0,0
0:5:49.245,1475.32,83.4886,0,0.000885,0,0
0:5:49.645,1476.91,83.5782,0,0.000885,0,0
0:5:50.041,1478.61,83.6748,0,0.000885,0,0
0:5:50.445,1480.37,83.7713,0,0.000885,0,0
0:5:50.842,1482.31,83.8816,0,0.000885,0,0
0:5:51.242,1484.14,83.985,0,0.000885,0,0
0:5:51.640,1486.2,84.1022,0,0.000885,0,0
0:5:52.046,1487.85,84.1919,0,0.000885,0,0
0:5:52.451,1489.79,84.3022,0,0.000885,0,0
0:5:52.852,1491.26,84.3849,0,0.000885,0,0
0:5:53.257,1492.97,84.4815,0,0.000885,0,0
0:5:53.650,1495.09,84.6056,0,0.000885,0,0
0:5:54.046,1497.33,84.7297,0,0.000885,0,0
0:5:54.452,1498.92,84.8193,0,0.000885,0,0
0:5:54.852,1500.15,84.8883,0,0.000885,0,0
0:5:55.250,1501.75,84.9848,0,0.000885,0,0
0:5:55.645,1502.98,85.0537,0,0.000885,0,0
0:5:56.040,1504.69,85.1503,0,0.000885,0,0
0:5:56.439,1506.75,85.2675,0,0.000885,0,0
0:5:56.837,1508.69,85.3778,0,0.000885,0,0
0:5:57.243,1510.58,85.4812,0,0.000885,0,0
0:5:57.645,1512.17,85.5708,0,0.000885,0,0
0:5:58.048,1513.81,85.6674,0,0.000885,0,0
0:5:58.449,1516.11,85.7915,0,0.000885,0,0
0:5:58.845,1517.82,85.888,0,0.000885,0,0
0:5:59.240,1519.12,85.9638,0,0.000885,0,0
0:5:59.637,1521.23,86.081,0,0.000885,0,0
0:6:0.035,1523.18,86.1914,0,0.000885,0,0
0:6:0.444,1524.77,86.281,0,0.000885,0,0
0:6:0.860,1527.07,86.412,0,0.000885,0,0
0:6:1.257,1528.71,86.5085,0,0.000885,0,0
0:6:1.650,1530.36,86.5982,0,0.000885,0,0
0:6:2.052,1531.95,86.6878,0,0.000885,0,0
0:6:2.459,1534.19,86.8188,0,0.000885,0,0
0:6:2.862,1536.02,86.9222,0,0.000885,0,0
0:6:3.265,1537.67,87.0118,0,0.000885,0,0
0:6:3.664,1539.67,87.129,0,0.000885,0,0
0:6:4.063,1540.84,87.1911,0,0.000885,0,0
0:6:4.459,1541.67,87.2394,0,0.000885,0,0
0:6:4.852,1543.73,87.3566,0,0.000885,0,0
0:6:5.249,1545.67,87.4669,0,0.000885,0,0
0:6:5.650,1547.67,87.5772,0,0.000885,0,0
0:6:6.057,1549.79,87.7013,0,0.000885,0,0
0:6:6.451,1551.56,87.7978,0,0.000885,0,0
0:6:6.859,1553.03,87.8806,0,0.000885,0,0
0:6:7.263,1554.86,87.984,0,0.000885,0,0
0:6:7.666,1556.57,88.0805,0,0.000885,0,0
0:6:8.068,1557.86,88.1564,0,0.000885,0,0
0:6:8.463,1560.51,88.3081,0,0.000885,0,0
0:6:8.862,1562.1,88.3977,0,0.000885,0,0
0:6:9.261,1563.75,88.4873,0,0.000885,0,0
0:6:9.655,1565.63,88.5976,0,0.000885,0,0
0:6:10.050,1567.63,88.7079,0,0.000885,0,0
0:6:10.445,1569.17,88.7976,0,0.000885,0,0
0:6:10.845,1570.99,88.901,0,0.000885,0,0
0:6:11.243,1573.05,89.0182,0,0.000885,0,0
0:6:11.646,1574.47,89.0941,0,0.000885,0,0
0:6:12.050,1576.05,89.1837,0,0.000885,0,0
0:6:12.454,1578.06,89.3009,0,0.000885,0,0
0:6:12.855,1579.76,89.3974,0,0.000885,0,0
0:6:13.259,1581.24,89.4802,0,0.000885,0,0
0:6:13.653,1582.41,89.5491,0,0.000885,0,0
0:6:14.050,1584.36,89.6594,0,0.000885,0,0
0:6:14.461,1586.42,89.7697,0,0.000885,0,0
0:6:14.868,1588.42,89.887,0,0.000885,0,0
0:6:15.265,1589.78,89.9628,0,0.000885,0,0
0:6:15.660,1591.6,90.0662,0,0.000885,0,0
0:6:16.058,1593.66,90.1834,0,0.000885,0,0
0:6:16.455,1595.43,90.28,0,0.000885,0,0
0:6:16.851,1597.2,90.3834,0,0.000885,0,0
0:6:17.255,1599.26,90.5006,0,0.000885,0,0
0:6:17.661,1601.08,90.604,0,0.000885,0,0
0:6:18.065,1602.55,90.6867,0,0.000885,0,0
0:6:18.467,1604.14,90.7764,0,0.000885,0,0
0:6:18.864,1605.97,90.8798,0,0.000885,0,0
0:6:19.259,1608.03,90.997,0,0.000885,0,0
0:6:19.654,1609.33,91.066,0,0.000885,0,0
0:6:20.052,1611.5,91.1901,0,0.000885,0,0
0:6:20.452,1613.45,91.3004,0,0.000885,0,0
0:6:20.856,1615.21,91.4038,0,0.000885,0,0
0:6:21.252,1617.04,91.5072,0,0.000885,0,0
0:6:21.651,1619.1,91.6244,0,0.000885,0,0
0:6:22.050,1619.81,91.6589,0,0.000885,0,0
0:6:22.455,1621.75,91.7692,0,0.000885,0,0
0:6:22.859,1623.52,91.8726,0,0.000885,0,0
0:6:23.261,1625.22,91.9692,0,0.000885,0,0
0:6:23.662,1627.7,92.1071,0,0.000885,0,0
0:6:24.060,1629.46,92.2105,0,0.000885,0,0
0:6:24.453,1630.46,92.2656,0,0.000885,0,0
0:6:24.851,1632.41,92.376,0,0.000885,0,0
0:6:25.248,1634.17,92.4725,0,0.000885,0,0
0:6:25.646,1636.23,92.5897,0,0.000885,0,0
0:6:26.044,1637.53,92.6655,0,0.000885,0,0
0:6:26.439,1639.59,92.7827,0,0.000885,0,0
0:6:26.843,1641.42,92.8862,0,0.000885,0,0
0:6:27.247,1643.3,92.9896,0,0.000885,0,0
0:6:27.651,1645.24,93.0999,0,0.000885,0,0
0:6:28.055,1646.83,93.1895,0,0.000885,0,0
0:6:28.451,1649.19,93.3274,0,0.000885,0,0
0:6:28.846,1650.72,93.4102,0,0.000885,0,0
0:6:29.243,1652.43,93.5067,0,0.000885,0,0
0:6:29.643,1653.96,93.5963,0,0.000885,0,0
0:6:30.040,1655.78,93.6998,0,0.000885,0,0
0:6:30.433,1656.84,93.7549,0,0.000885,0,0
0:6:30.831,1659.02,93.879,0,0.000885,0,0
0:6:31.231,1660.91,93.9893,0,0.000885,0,0
0:6:31.627,1662.61,94.0859,0,0.000885,0,0
0:6:32.033,1664.56,94.1962,0,0.000885,0,0
0:6:32.436,1666.21,94.2858,0,0.000885,0,0
0:6:32.839,1667.44,94.3548,0,0.000885,0,0
0:6:33.240,1669.92,94.4995,0,0.000885,0,0
0:6:33.636,1671.62,94.5961,0,0.000885,0,0
0:6:34.033,1672.68,94.6512,0,0.000885,0,0
0:6:34.427,1674.68,94.7684,0,0.000885,0,0
0:6:34.825,1676.69,94.8788,0,0.000885,0,0
0:6:35.224,1678.45,94.9822,0,0.000885,0,0
0:6:35.620,1680.52,95.0994,0,0.000885,0,0
0:6:36.017,1682.69,95.2235,0,0.000885,0,0
0:6:36.413,1684.46,95.32,0,0.000885,0,0
0:6:36.815,1685.99,95.4097,0,0.000885,0,0
0:6:37.222,1687.94,95.52,0,0.000885,0,0
0:6:37.625,1689.64,95.6165,0,0.000885,0,0
0:6:38.026,1691.23,95.7061,0,0.000885,0,0
0:6:38.424,1692.65,95.782,0,0.000885,0,0
0:6:38.822,1694.29,95.8785,0,0.000885,0,0
0:6:39.221,1695.59,95.9474,0,0.000885,0,0
0:6:39.617,1697.59,96.0647,0,0.000885,0,0
0:6:40.012,1698.65,96.1267,0,0.000885,0,0
0:6:40.411,1700.65,96.237,0,0.000885,0,0
0:6:40.811,1702.18,96.3267,0,0.000885,0,0
0:6:41.207,1704.54,96.4577,0,0.000885,0,0
0:6:41.604,1706.95,96.5955,0,0.000885,0,0
0:6:42.008,1708.48,96.6783,0,0.000885,0,0
0:6:42.413,1710.25,96.7817,0,0.000885,0,0
0:6:42.816,1712.55,96.9127,0,0.000885,0,0
0:6:43.216,1714.31,97.0092,0,0.000885,0,0
0:6:43.612,1716.2,97.1196,0,0.000885,0,0
0:6:44.011,1717.32,97.1816,0,0.000885,0,0
0:6:44.408,1715.79,97.092,0,0.000885,0,0
0:6:44.806,1714.49,97.023,0,0.000885,0,0
0:6:45.200,1717.26,97.1747,0,0.000885,0,0
0:6:45.595,1721.08,97.3953,0,0.000885,0,0
0:6:45.995,1724.21,97.5677,0,0.000885,0,0
0:6:46.394,1727.15,97.7401,0,0.000885,0,0
0:6:46.789,1730.15,97.9056,0,0.000885,0,0
0:6:47.195,1732.27,98.0297,0,0.000885,0,0
0:6:47.598,1735.04,98.1813,0,0.000885,0,0
0:6:48.000,1736.69,98.2779,0,0.000885,0,0
0:6:48.404,1738.1,98.3537,0,0.000885,0,0
0:6:48.802,1739.93,98.4571,0,0.000885,0,0
0:6:49.197,1741.4,98.5399,0,0.000885,0,0
0:6:49.596,1742.4,98.6019,0,0.000885,0,0
0:6:49.994,1743.93,98.6847,0,0.000885,0,0
0:6:50.392,1661.91,94.0445,0,0.000885,0,0
0:6:50.785,1642.53,92.9482,0,0.000885,0,0
0:6:51.182,1621.04,91.7347,0,0.000885,0,0
0:6:51.582,1589.89,89.9697,0,0.000885,0,0
0:6:51.986,1578.12,89.3009,0,0.000885,0,0
0:6:52.388,1573.34,89.032,0,0.000885,0,0
0:6:52.789,1571.23,88.9148,0,0.000885,0,0
0:6:53.186,1570.76,88.8872,0,0.000885,0,0
0:6:53.585,1569.52,88.8183,0,0.000885,0,0
0:6:53.978,1567.81,88.7217,0,0.000885,0,0
0:6:54.372,1566.57,88.6528,0,0.000885,0,0
0:6:54.770,1565.87,88.6114,0,0.000885,0,0
0:6:55.168,1565.46,88.5838,0,0.000885,0,0
0:6:55.564,1565.1,88.5701,0,0.000885,0,0
0:6:55.965,1565.22,88.5701,0,0.000885,0,0
0:6:56.360,1564.63,88.5425,0,0.000885,0,0
0:6:56.763,1564.28,88.5218,0,0.000885,0,0
0:6:57.167,1562.28,88.4046,0,0.000885,0,0
0:6:57.568,1504.69,85.1503,0,0.000885,0,0
0:6:57.968,1477.32,83.5989,0,0.000885,0,0
0:6:58.365,1466.11,82.9646,0,0.000885,0,0
0:6:58.765,1450.49,82.0821,0,0.000885,0,0
0:6:59.158,1442.69,81.6408,0,0.000885,0,0
0:6:59.563,1438.46,81.3995,0,0.000885,0,0
0:6:59.969,1435.47,81.234,0,0.000885,0,0
0:7:0.366,1433,81.0892,0,0.000885,0,0
0:7:0.760,1430.01,80.9238,0,0.000885,0,0
0:7:1.156,1427.43,80.779,0,0.000885,0,0
0:7:1.550,1418.74,80.2826,0,0.000885,0,0
0:7:1.953,1401.42,79.3035,0,0.000885,0,0
0:7:2.356,1390.91,78.7105,0,0.000885,0,0
0:7:2.369,1390.91,78.7105,0,0.000885,0,0