File: DataFile2021-06-08_065418.csv
Test ID:,Date Tested:,Time:,Test Type:,Diameter Avg. (mm):,Cyl. Corr. Factor:,Height (mm):,Age (days):,Weight (kN):,Break Type:,Ramp Rate (MPa/s):,Load at Break (kN):,Stress at Break (MPa):
12,6/8/2021,06:47,Cylinder,100,1,200,0,3.6,3,0,0,0
Sample Time,Load (kN),Stress (MPa),Long. Strain,Trans. Strain,Chan1 Deflection (mm),Chan2 Deflection (mm)
0:0:13.170,6.15634,0.786002,0,0.000885,0,0
0:0:13.368,7.91783,1.00663,0,0.000885,0,0
0:0:13.570,9.67933,1.23416,0,0.000885,0,0
0:0:13.764,9.79498,1.24795,0,0.000885,0,0
0:0:13.967,8.85641,1.13074,0,0.000885,0,0
0:0:14.163,8.56283,1.08937,0,0.000885,0,0
0:0:14.363,8.21142,1.048,0,0.000885,0,0
0:0:14.562,8.44717,1.07558,0,0.000885,0,0
0:0:14.757,8.15359,1.04111,0,0.000885,0,0
0:0:14.958,8.505,1.08248,0,0.000885,0,0
0:0:15.157,8.67848,1.10316,0,0.000885,0,0
0:0:15.356,9.26565,1.179,0,0.000885,0,0
0:0:15.555,10.44,1.33069,0,0.000885,0,0
0:0:15.750,10.4978,1.33758,0,0.000885,0,0
0:0:15.951,10.4978,1.33758,0,0.000885,0,0
0:0:16.150,10.6179,1.35137,0,0.000885,0,0
0:0:16.344,10.6757,1.35827,0,0.000885,0,0
0:0:16.546,10.9693,1.39964,0,0.000885,0,0
0:0:16.753,11.2629,1.43411,0,0.000885,0,0
0:0:16.955,12.5529,1.59958,0,0.000885,0,0
0:0:17.153,13.3135,1.69611,0,0.000885,0,0
0:0:17.351,13.3135,1.69611,0,0.000885,0,0
0:0:17.553,13.6071,1.73058,0,0.000885,0,0
0:0:17.759,13.785,1.75816,0,0.000885,0,0
0:0:17.958,13.9007,1.77195,0,0.000885,0,0
0:0:18.157,14.7814,1.88227,0,0.000885,0,0
0:0:18.354,15.2485,1.94432,0,0.000885,0,0
0:0:18.556,15.4843,1.9719,0,0.000885,0,0
0:0:18.758,15.72,1.99948,0,0.000885,0,0
0:0:18.961,16.5963,2.11669,0,0.000885,0,0
0:0:19.164,16.9522,2.15806,0,0.000885,0,0
0:0:19.365,17.5349,2.2339,0,0.000885,0,0
0:0:19.567,17.7128,2.25459,0,0.000885,0,0
0:0:19.769,17.8863,2.27527,0,0.000885,0,0
0:0:19.971,18.4735,2.35111,0,0.000885,0,0
0:0:20.173,19.412,2.47522,0,0.000885,0,0
0:0:20.369,19.5321,2.48901,0,0.000885,0,0
0:0:20.572,20.235,2.57864,0,0.000885,0,0
0:0:20.770,20.5285,2.61311,0,0.000885,0,0
0:0:20.969,20.9378,2.66827,0,0.000885,0,0
0:0:21.169,21.1735,2.69585,0,0.000885,0,0
0:0:21.365,21.4093,2.72343,0,0.000885,0,0
0:0:21.567,21.8764,2.78548,0,0.000885,0,0
0:0:21.766,22.2856,2.84064,0,0.000885,0,0
0:0:21.965,22.3479,2.84753,0,0.000885,0,0
0:0:22.165,22.5213,2.86822,0,0.000885,0,0
0:0:22.360,23.2242,2.95785,0,0.000885,0,0
0:0:22.562,23.2864,2.96475,0,0.000885,0,0
0:0:22.761,24.1627,3.07506,0,0.000885,0,0
0:0:22.960,24.5764,3.13022,0,0.000885,0,0
0:0:23.160,25.1013,3.19917,0,0.000885,0,0
0:0:23.356,25.5728,3.25433,0,0.000885,0,0
0:0:23.557,25.9242,3.30259,0,0.000885,0,0
0:0:23.758,25.9821,3.30948,0,0.000885,0,0
0:0:23.961,26.3335,3.35085,0,0.000885,0,0
0:0:24.165,26.6849,3.39912,0,0.000885,0,0
0:0:24.366,27.3877,3.48875,0,0.000885,0,0
0:0:24.569,27.6813,3.52322,0,0.000885,0,0
0:0:24.770,27.8592,3.54391,0,0.000885,0,0
0:0:24.971,27.917,3.55769,0,0.000885,0,0
0:0:25.173,28.9713,3.6887,0,0.000885,0,0
0:0:25.369,28.7978,3.66801,0,0.000885,0,0
0:0:25.571,29.6207,3.77143,0,0.000885,0,0
0:0:25.771,30.1456,3.84038,0,0.000885,0,0
0:0:25.968,30.2034,3.84727,0,0.000885,0,0
0:0:26.169,30.4392,3.87485,0,0.000885,0,0
0:0:26.365,31.0263,3.9507,0,0.000885,0,0
0:0:26.564,31.6135,4.02654,0,0.000885,0,0
0:0:26.765,32.3742,4.12306,0,0.000885,0,0
0:0:26.962,32.3742,4.12306,0,0.000885,0,0
0:0:27.164,32.9035,4.19201,0,0.000885,0,0
0:0:27.360,33.0191,4.2058,0,0.000885,0,0
0:0:27.560,33.4328,4.25407,0,0.000885,0,0
0:0:27.762,33.8421,4.30922,0,0.000885,0,0
0:0:27.957,34.1935,4.35059,0,0.000885,0,0
0:0:28.159,34.8385,4.43333,0,0.000885,0,0
0:0:28.357,34.9541,4.45401,0,0.000885,0,0
0:0:28.555,35.777,4.55743,0,0.000885,0,0
0:0:28.757,35.955,4.57812,0,0.000885,0,0
0:0:28.960,36.1285,4.5988,0,0.000885,0,0
0:0:29.163,36.5377,4.65396,0,0.000885,0,0
0:0:29.365,36.7734,4.68154,0,0.000885,0,0
0:0:29.567,37.067,4.72291,0,0.000885,0,0
0:0:29.770,37.8277,4.81944,0,0.000885,0,0
0:0:29.971,37.9478,4.83322,0,0.000885,0,0
0:0:30.173,38.8864,4.95044,0,0.000885,0,0
0:0:30.372,39.002,4.96423,0,0.000885,0,0
0:0:30.571,39.7671,5.06075,0,0.000885,0,0
0:0:30.773,39.5892,5.04007,0,0.000885,0,0
0:0:30.969,40.2342,5.1228,0,0.000885,0,0
0:0:31.172,40.5856,5.16417,0,0.000885,0,0
0:0:31.368,40.8213,5.19865,0,0.000885,0,0
0:0:31.566,41.1727,5.24002,0,0.000885,0,0
0:0:31.769,41.7599,5.31586,0,0.000885,0,0
0:0:31.965,42.4049,5.39859,0,0.000885,0,0
0:0:32.166,42.5206,5.41238,0,0.000885,0,0
0:0:32.365,42.9342,5.46754,0,0.000885,0,0
0:0:32.563,43.4591,5.53649,0,0.000885,0,0
0:0:32.764,43.6371,5.55717,0,0.000885,0,0
0:0:32.961,43.9306,5.59165,0,0.000885,0,0
0:0:33.164,44.3399,5.64681,0,0.000885,0,0
0:0:33.361,44.5178,5.66749,0,0.000885,0,0
0:0:33.559,44.7491,5.69507,0,0.000885,0,0
0:0:33.760,45.1005,5.74333,0,0.000885,0,0
0:0:33.963,46.217,5.88123,0,0.000885,0,0
0:0:34.166,46.5106,5.9226,0,0.000885,0,0
0:0:34.369,46.6263,5.93639,0,0.000885,0,0
0:0:34.572,46.6841,5.94328,0,0.000885,0,0
0:0:34.774,47.6227,6.06049,0,0.000885,0,0
0:0:34.974,48.0942,6.12254,0,0.000885,0,0
0:0:35.175,48.5034,6.1777,0,0.000885,0,0
0:0:35.378,48.7392,6.20528,0,0.000885,0,0
0:0:35.573,49.5576,6.3087,0,0.000885,0,0
0:0:35.775,49.4998,6.30181,0,0.000885,0,0
0:0:35.972,50.0291,6.37076,0,0.000885,0,0
0:0:36.171,50.4962,6.43281,0,0.000885,0,0
0:0:36.373,50.732,6.46039,0,0.000885,0,0
0:0:36.567,51.1412,6.50865,0,0.000885,0,0
0:0:36.769,51.2613,6.52934,0,0.000885,0,0
0:0:36.968,51.7862,6.59139,0,0.000885,0,0
0:0:37.165,52.022,6.62586,0,0.000885,0,0
0:0:37.368,52.6669,6.7086,0,0.000885,0,0
0:0:37.564,53.0184,6.74997,0,0.000885,0,0
0:0:37.765,53.6055,6.82581,0,0.000885,0,0
0:0:37.963,54.1349,6.89476,0,0.000885,0,0
0:0:38.162,54.4284,6.92923,0,0.000885,0,0
0:0:38.363,54.6642,6.95681,0,0.000885,0,0
0:0:38.566,54.8377,6.98439,0,0.000885,0,0
0:0:38.769,55.3092,7.03955,0,0.000885,0,0
0:0:38.973,55.5405,7.07402,0,0.000885,0,0
0:0:39.174,55.8919,7.11539,0,0.000885,0,0
0:0:39.376,56.4212,7.18434,0,0.000885,0,0
0:0:39.575,56.9506,7.25328,0,0.000885,0,0
0:0:39.778,57.4176,7.30844,0,0.000885,0,0
0:0:39.979,57.5377,7.32913,0,0.000885,0,0
0:0:40.175,58.414,7.43944,0,0.000885,0,0
0:0:40.376,58.6498,7.46702,0,0.000885,0,0
0:0:40.572,59.0012,7.51529,0,0.000885,0,0
0:0:40.773,59.2948,7.54976,0,0.000885,0,0
0:0:40.973,60.1177,7.65318,0,0.000885,0,0
0:0:41.168,60.1177,7.65318,0,0.000885,0,0
0:0:41.371,60.3535,7.68076,0,0.000885,0,0
0:0:41.570,60.5848,7.71523,0,0.000885,0,0
0:0:41.768,61.0563,7.77039,0,0.000885,0,0
0:0:41.970,61.5812,7.83934,0,0.000885,0,0
0:0:42.166,61.8169,7.87381,0,0.000885,0,0
0:0:42.366,62.6399,7.97723,0,0.000885,0,0
0:0:42.565,62.9334,8.01171,0,0.000885,0,0
0:0:42.762,63.6363,8.10134,0,0.000885,0,0
0:0:42.964,63.9298,8.14271,0,0.000885,0,0
0:0:43.161,64.2813,8.18408,0,0.000885,0,0
0:0:43.362,64.517,8.21166,0,0.000885,0,0
0:0:43.563,65.0419,8.2806,0,0.000885,0,0
0:0:43.766,64.8106,8.25302,0,0.000885,0,0
0:0:43.969,65.3933,8.32887,0,0.000885,0,0
0:0:44.171,65.4556,8.33576,0,0.000885,0,0
0:0:44.374,66.5098,8.46676,0,0.000885,0,0
0:0:44.575,66.5676,8.47366,0,0.000885,0,0
0:0:44.777,67.0391,8.53571,0,0.000885,0,0
0:0:44.980,67.4484,8.59087,0,0.000885,0,0
0:0:45.178,68.3291,8.70118,0,0.000885,0,0
0:0:45.376,68.6805,8.74255,0,0.000885,0,0
0:0:45.578,69.1476,8.80461,0,0.000885,0,0
0:0:45.774,69.4412,8.83908,0,0.000885,0,0
0:0:45.976,70.0862,8.92182,0,0.000885,0,0
0:0:46.173,70.0284,8.91492,0,0.000885,0,0
0:0:46.370,70.4999,8.97697,0,0.000885,0,0
0:0:46.572,70.7312,9.00455,0,0.000885,0,0
0:0:46.769,70.9091,9.02524,0,0.000885,0,0
0:0:46.969,71.2027,9.06661,0,0.000885,0,0
0:0:47.169,71.6119,9.11487,0,0.000885,0,0
0:0:47.366,72.1413,9.18382,0,0.000885,0,0
0:0:47.568,72.1991,9.19071,0,0.000885,0,0
0:0:47.765,72.9019,9.28034,0,0.000885,0,0
0:0:47.966,73.3734,9.3424,0,0.000885,0,0
0:0:48.166,74.0184,9.42513,0,0.000885,0,0
0:0:48.360,74.6056,9.50098,0,0.000885,0,0
0:0:48.563,74.957,9.54234,0,0.000885,0,0
0:0:48.764,75.2506,9.58371,0,0.000885,0,0
0:0:48.967,75.7755,9.64577,0,0.000885,0,0
0:0:49.170,75.9534,9.67334,0,0.000885,0,0
0:0:49.373,76.1891,9.70092,0,0.000885,0,0
0:0:49.574,76.4783,9.7354,0,0.000885,0,0
0:0:49.776,76.9498,9.79745,0,0.000885,0,0
0:0:49.976,77.0076,9.80434,0,0.000885,0,0
0:0:50.180,77.4168,9.8595,0,0.000885,0,0
0:0:50.374,77.4168,9.8595,0,0.000885,0,0
0:0:50.575,78.7691,10.0319,0,0.000885,0,0
0:0:50.775,79.0004,10.0595,0,0.000885,0,0
0:0:50.971,79.5876,10.1353,0,0.000885,0,0
0:0:51.173,79.8812,10.1698,0,0.000885,0,0
0:0:51.371,80.1169,10.1973,0,0.000885,0,0
0:0:51.572,80.8197,10.287,0,0.000885,0,0
0:0:51.772,80.8776,10.3008,0,0.000885,0,0
0:0:51.967,81.4069,10.3628,0,0.000885,0,0
0:0:52.170,81.7005,10.4042,0,0.000885,0,0
0:0:52.369,81.9362,10.4318,0,0.000885,0,0
0:0:52.566,82.3455,10.4869,0,0.000885,0,0
0:0:52.769,82.9905,10.5697,0,0.000885,0,0
0:0:52.963,82.9905,10.5697,0,0.000885,0,0
0:0:53.163,83.4575,10.6248,0,0.000885,0,0
0:0:53.363,84.107,10.7076,0,0.000885,0,0
0:0:53.561,84.4584,10.7558,0,0.000885,0,0
0:0:53.763,84.6897,10.7834,0,0.000885,0,0
0:0:53.965,85.3347,10.8661,0,0.000885,0,0
0:0:54.168,85.5126,10.8868,0,0.000885,0,0
0:0:54.371,86.2154,10.9765,0,0.000885,0,0
0:0:54.573,86.509,11.0178,0,0.000885,0,0
0:0:54.776,87.3898,11.1281,0,0.000885,0,0
0:0:54.975,87.3898,11.1281,0,0.000885,0,0
0:0:55.176,87.799,11.1764,0,0.000885,0,0
0:0:55.379,88.0926,11.2178,0,0.000885,0,0
0:0:55.573,88.6219,11.2867,0,0.000885,0,0
0:0:55.776,89.0312,11.335,0,0.000885,0,0
0:0:55.972,89.3826,11.3832,0,0.000885,0,0
0:0:56.171,90.2055,11.4867,0,0.000885,0,0
0:0:56.373,90.3211,11.5005,0,0.000885,0,0
0:0:56.567,90.3211,11.5005,0,0.000885,0,0
0:0:56.768,90.4412,11.5142,0,0.000885,0,0
0:0:56.966,90.1477,11.4798,0,0.000885,0,0
0:0:57.163,90.2633,11.4936,0,0.000885,0,0
0:0:57.365,91.7312,11.6797,0,0.000885,0,0
0:0:57.562,91.669,11.6728,0,0.000885,0,0
0:0:57.762,92.9011,11.8314,0,0.000885,0,0
0:0:57.962,93.3726,11.8866,0,0.000885,0,0
0:0:58.159,93.8975,11.9555,0,0.000885,0,0
0:0:58.360,94.4847,12.0314,0,0.000885,0,0
0:0:58.562,94.8984,12.0796,0,0.000885,0,0
0:0:58.766,95.014,12.1003,0,0.000885,0,0
0:0:58.968,95.659,12.183,0,0.000885,0,0
0:0:59.171,95.9526,12.2175,0,0.000885,0,0
0:0:59.372,95.8369,12.2037,0,0.000885,0,0
0:0:59.572,96.6554,12.3071,0,0.000885,0,0
0:0:59.775,96.3618,12.2727,0,0.000885,0,0
0:0:59.976,96.2462,12.252,0,0.000885,0,0
0:1:0.170,97.3004,12.3899,0,0.000885,0,0
0:1:0.373,97.4783,12.4106,0,0.000885,0,0
0:1:0.571,97.9454,12.4726,0,0.000885,0,0
0:1:0.769,98.2968,12.514,0,0.000885,0,0
0:1:0.972,98.8261,12.5829,0,0.000885,0,0
0:1:1.167,99.4133,12.6588,0,0.000885,0,0
0:1:1.367,100.232,12.7622,0,0.000885,0,0
0:1:1.567,100.761,12.8311,0,0.000885,0,0
0:1:1.763,100.294,12.7691,0,0.000885,0,0
0:1:1.966,100.819,12.838,0,0.000885,0,0
0:1:2.163,100.939,12.8518,0,0.000885,0,0
0:1:2.362,101.878,12.969,0,0.000885,0,0
0:1:2.562,102.051,12.9966,0,0.000885,0,0
0:1:2.759,102.171,13.0104,0,0.000885,0,0
0:1:2.961,102.754,13.0862,0,0.000885,0,0
0:1:3.159,103.399,13.1621,0,0.000885,0,0
0:1:3.356,103.986,13.2379,0,0.000885,0,0
0:1:3.558,104.573,13.3138,0,0.000885,0,0
0:1:3.760,104.751,13.3345,0,0.000885,0,0
0:1:3.963,105.045,13.3758,0,0.000885,0,0
0:1:4.166,105.512,13.431,0,0.000885,0,0
0:1:4.369,105.748,13.4655,0,0.000885,0,0
0:1:4.571,106.335,13.5413,0,0.000885,0,0
0:1:4.771,106.45,13.5551,0,0.000885,0,0
0:1:4.973,107.273,13.6585,0,0.000885,0,0
0:1:5.174,106.86,13.6034,0,0.000885,0,0
0:1:5.371,107.273,13.6585,0,0.000885,0,0
0:1:5.572,107.74,13.7206,0,0.000885,0,0
0:1:5.770,108.795,13.8516,0,0.000885,0,0
0:1:5.966,109.03,13.8791,0,0.000885,0,0
0:1:6.169,108.915,13.8654,0,0.000885,0,0
0:1:6.364,108.737,13.8447,0,0.000885,0,0
0:1:6.565,109.911,13.9964,0,0.000885,0,0
0:1:6.763,110.263,14.0377,0,0.000885,0,0
0:1:6.960,110.965,14.1274,0,0.000885,0,0
0:1:7.162,110.908,14.1205,0,0.000885,0,0
0:1:7.360,111.553,14.2032,0,0.000885,0,0
0:1:7.559,111.962,14.2584,0,0.000885,0,0
0:1:7.760,112.9,14.3756,0,0.000885,0,0
0:1:7.952,112.963,14.3825,0,0.000885,0,0
0:1:8.156,113.608,14.4652,0,0.000885,0,0
0:1:8.351,114.31,14.5548,0,0.000885,0,0
0:1:8.549,113.959,14.5066,0,0.000885,0,0
0:1:8.751,114.604,14.5893,0,0.000885,0,0
0:1:8.956,113.723,14.479,0,0.000885,0,0
0:1:9.160,114.898,14.6307,0,0.000885,0,0
0:1:9.363,115.129,14.6583,0,0.000885,0,0
0:1:9.565,115.485,14.7065,0,0.000885,0,0
0:1:9.766,115.422,14.6996,0,0.000885,0,0
0:1:9.968,116.481,14.8306,0,0.000885,0,0
0:1:10.169,116.948,14.8927,0,0.000885,0,0
0:1:10.369,117.945,15.0168,0,0.000885,0,0
0:1:10.565,118.532,15.0926,0,0.000885,0,0
0:1:10.767,118.532,15.0926,0,0.000885,0,0
0:1:10.962,118.358,15.0719,0,0.000885,0,0
0:1:11.162,119.061,15.1616,0,0.000885,0,0
0:1:11.363,119.47,15.2098,0,0.000885,0,0
0:1:11.560,120.235,15.3064,0,0.000885,0,0
0:1:11.761,120.115,15.2926,0,0.000885,0,0
0:1:11.959,121.054,15.4098,0,0.000885,0,0
0:1:12.156,121.054,15.4098,0,0.000885,0,0
0:1:12.357,121.174,15.4305,0,0.000885,0,0
0:1:12.551,121.174,15.4305,0,0.000885,0,0
0:1:12.755,122.17,15.5546,0,0.000885,0,0
0:1:12.961,122.17,15.5546,0,0.000885,0,0
0:1:13.160,122.989,15.658,0,0.000885,0,0
0:1:13.362,123.634,15.7407,0,0.000885,0,0
0:1:13.563,123.34,15.7063,0,0.000885,0,0
0:1:13.767,123.87,15.7683,0,0.000885,0,0
0:1:13.970,124.808,15.8924,0,0.000885,0,0
0:1:14.171,124.279,15.8235,0,0.000885,0,0
0:1:14.372,124.457,15.8442,0,0.000885,0,0
0:1:14.575,125.631,15.9958,0,0.000885,0,0
0:1:14.777,126.276,16.0786,0,0.000885,0,0
0:1:14.976,126.979,16.1682,0,0.000885,0,0
0:1:15.172,126.685,16.1268,0,0.000885,0,0
0:1:15.374,127.095,16.182,0,0.000885,0,0
0:1:15.571,127.74,16.2647,0,0.000885,0,0
0:1:15.771,128.385,16.3475,0,0.000885,0,0
0:1:15.972,128.385,16.3475,0,0.000885,0,0
0:1:16.168,128.62,16.375,0,0.000885,0,0
0:1:16.369,128.563,16.3682,0,0.000885,0,0
0:1:16.568,129.737,16.5198,0,0.000885,0,0
0:1:16.767,130.026,16.5543,0,0.000885,0,0
0:1:16.967,130.497,16.6164,0,0.000885,0,0
0:1:17.162,131.085,16.6922,0,0.000885,0,0
0:1:17.364,131.2,16.706,0,0.000885,0,0
0:1:17.562,131.672,16.768,0,0.000885,0,0
0:1:17.760,131.903,16.7956,0,0.000885,0,0
0:1:17.963,132.259,16.837,0,0.000885,0,0
0:1:18.158,132.784,16.9059,0,0.000885,0,0
0:1:18.359,133.193,16.9611,0,0.000885,0,0
0:1:18.559,133.313,16.9749,0,0.000885,0,0
0:1:18.764,133.607,17.0094,0,0.000885,0,0
0:1:18.966,133.78,17.0369,0,0.000885,0,0
0:1:19.169,134.603,17.1404,0,0.000885,0,0
0:1:19.371,135.306,17.23,0,0.000885,0,0
0:1:19.573,135.6,17.2645,0,0.000885,0,0
0:1:19.775,135.778,17.2852,0,0.000885,0,0
0:1:19.977,135.893,17.3058,0,0.000885,0,0
0:1:20.174,136.129,17.3334,0,0.000885,0,0
0:1:20.373,136.947,17.4368,0,0.000885,0,0
0:1:20.574,137.419,17.4989,0,0.000885,0,0
0:1:20.770,137.77,17.5403,0,0.000885,0,0
0:1:20.972,138.18,17.5954,0,0.000885,0,0
0:1:21.170,138.825,17.6782,0,0.000885,0,0
0:1:21.367,139.118,17.7126,0,0.000885,0,0
0:1:21.569,139.59,17.7747,0,0.000885,0,0
0:1:21.765,139.527,17.7678,0,0.000885,0,0
0:1:21.966,140.466,17.885,0,0.000885,0,0
0:1:22.164,141.289,17.9884,0,0.000885,0,0
0:1:22.361,141.934,18.0712,0,0.000885,0,0
0:1:22.563,141.111,17.9677,0,0.000885,0,0
0:1:22.761,141.64,18.0367,0,0.000885,0,0
0:1:22.960,142.405,18.1332,0,0.000885,0,0
0:1:23.161,142.579,18.1539,0,0.000885,0,0
0:1:23.366,142.637,18.1608,0,0.000885,0,0
0:1:23.566,143.05,18.2159,0,0.000885,0,0
0:1:23.770,143.282,18.2435,0,0.000885,0,0
0:1:23.974,144.047,18.3401,0,0.000885,0,0
0:1:24.177,144.398,18.3883,0,0.000885,0,0
0:1:24.376,144.634,18.4159,0,0.000885,0,0
0:1:24.579,145.159,18.4848,0,0.000885,0,0
0:1:24.780,145.746,18.5538,0,0.000885,0,0
0:1:24.982,146.511,18.6572,0,0.000885,0,0
0:1:25.185,146.685,18.6779,0,0.000885,0,0
0:1:25.380,147.036,18.7193,0,0.000885,0,0
0:1:25.580,147.565,18.7882,0,0.000885,0,0
0:1:25.780,147.801,18.8158,0,0.000885,0,0
0:1:25.976,148.384,18.8916,0,0.000885,0,0
0:1:26.179,148.095,18.8572,0,0.000885,0,0
0:1:26.375,148.677,18.933,0,0.000885,0,0
0:1:26.575,149.207,18.9951,0,0.000885,0,0
0:1:26.775,149.852,19.0778,0,0.000885,0,0
0:1:26.970,150.203,19.1261,0,0.000885,0,0
0:1:27.172,150.497,19.1605,0,0.000885,0,0
0:1:27.372,151.084,19.2364,0,0.000885,0,0
0:1:27.569,151.32,19.264,0,0.000885,0,0
0:1:27.771,151.729,19.3191,0,0.000885,0,0
0:1:27.965,151.613,19.3053,0,0.000885,0,0
0:1:28.166,152.432,19.4087,0,0.000885,0,0
0:1:28.366,152.961,19.4777,0,0.000885,0,0
0:1:28.562,152.845,19.4639,0,0.000885,0,0
0:1:28.764,153.779,19.5811,0,0.000885,0,0
0:1:28.967,153.957,19.6018,0,0.000885,0,0
0:1:29.170,153.9,19.5949,0,0.000885,0,0
0:1:29.373,154.718,19.6983,0,0.000885,0,0
0:1:29.575,155.247,19.7673,0,0.000885,0,0
0:1:29.776,155.483,19.7948,0,0.000885,0,0
0:1:29.976,155.657,19.8224,0,0.000885,0,0
0:1:30.178,156.128,19.8776,0,0.000885,0,0
0:1:30.381,157.125,20.0086,0,0.000885,0,0
0:1:30.575,157.009,19.9879,0,0.000885,0,0
0:1:30.778,157.418,20.0431,0,0.000885,0,0
0:1:30.975,157.712,20.0775,0,0.000885,0,0
0:1:31.174,158.472,20.1741,0,0.000885,0,0
0:1:31.375,158.886,20.2292,0,0.000885,0,0
0:1:31.572,159.411,20.2982,0,0.000885,0,0
0:1:31.772,159.762,20.3395,0,0.000885,0,0
0:1:31.971,160.056,20.3809,0,0.000885,0,0
0:1:32.168,159.998,20.374,0,0.000885,0,0
0:1:32.368,160.585,20.443,0,0.000885,0,0
0:1:32.566,161.288,20.5326,0,0.000885,0,0
0:1:32.766,161.524,20.5671,0,0.000885,0,0
0:1:32.965,162.169,20.6498,0,0.000885,0,0
0:1:33.161,162.284,20.6636,0,0.000885,0,0
0:1:33.363,162.227,20.6567,0,0.000885,0,0
0:1:33.564,162.872,20.7394,0,0.000885,0,0
0:1:33.768,163.574,20.8291,0,0.000885,0,0
0:1:33.971,163.695,20.8429,0,0.000885,0,0
0:1:34.174,164.104,20.8911,0,0.000885,0,0
0:1:34.375,164.455,20.9394,0,0.000885,0,0
0:1:34.576,165.1,21.0221,0,0.000885,0,0
0:1:34.777,165.22,21.0359,0,0.000885,0,0
0:1:34.979,165.803,21.1117,0,0.000885,0,0
0:1:35.175,165.803,21.1117,0,0.000885,0,0
0:1:35.376,166.51,21.2014,0,0.000885,0,0
0:1:35.574,166.742,21.229,0,0.000885,0,0
0:1:35.772,167.387,21.3117,0,0.000885,0,0
0:1:35.974,167.507,21.3255,0,0.000885,0,0
0:1:36.170,168.325,21.4289,0,0.000885,0,0
0:1:36.370,168.681,21.4772,0,0.000885,0,0
0:1:36.571,169.442,21.5737,0,0.000885,0,0
0:1:36.768,169.264,21.553,0,0.000885,0,0
0:1:36.969,169.735,21.6082,0,0.000885,0,0
0:1:37.167,170.265,21.6771,0,0.000885,0,0
0:1:37.365,170.322,21.684,0,0.000885,0,0
0:1:37.566,170.967,21.7667,0,0.000885,0,0
0:1:37.762,171.261,21.8081,0,0.000885,0,0
0:1:37.963,171.728,21.8633,0,0.000885,0,0
0:1:38.162,172.022,21.9046,0,0.000885,0,0
0:1:38.360,172.315,21.9391,0,0.000885,0,0
0:1:38.560,172.493,21.9598,0,0.000885,0,0
0:1:38.763,173.721,22.1184,0,0.000885,0,0
0:1:38.967,173.369,22.077,0,0.000885,0,0
0:1:39.170,174.366,22.2011,0,0.000885,0,0
0:1:39.372,174.722,22.2494,0,0.000885,0,0
0:1:39.573,174.25,22.1873,0,0.000885,0,0
0:1:39.775,175.015,22.2839,0,0.000885,0,0
0:1:39.978,175.482,22.3459,0,0.000885,0,0
0:1:40.179,175.598,22.3597,0,0.000885,0,0
0:1:40.374,175.66,22.3666,0,0.000885,0,0
0:1:40.576,176.714,22.4976,0,0.000885,0,0
0:1:40.774,177.769,22.6355,0,0.000885,0,0
0:1:40.972,177.711,22.6286,0,0.000885,0,0
0:1:41.174,178.298,22.7044,0,0.000885,0,0
0:1:41.370,178.414,22.7182,0,0.000885,0,0
0:1:41.570,178.298,22.7044,0,0.000885,0,0
0:1:41.768,179.237,22.8216,0,0.000885,0,0
0:1:41.966,179.939,22.9113,0,0.000885,0,0
0:1:42.168,179.882,22.9044,0,0.000885,0,0
0:1:42.364,179.882,22.9044,0,0.000885,0,0
0:1:42.564,180.349,22.9595,0,0.000885,0,0
0:1:42.764,181.056,23.0492,0,0.000885,0,0
0:1:42.960,181.407,23.0974,0,0.000885,0,0
0:1:43.163,181.759,23.1388,0,0.000885,0,0
0:1:43.360,182.168,23.194,0,0.000885,0,0
0:1:43.556,182.871,23.2836,0,0.000885,0,0
0:1:43.761,183.049,23.3043,0,0.000885,0,0
0:1:43.963,182.933,23.2905,0,0.000885,0,0
0:1:44.166,183.987,23.4284,0,0.000885,0,0
0:1:44.368,183.93,23.4215,0,0.000885,0,0
0:1:44.570,184.223,23.456,0,0.000885,0,0
0:1:44.772,184.748,23.5249,0,0.000885,0,0
0:1:44.973,185.687,23.6421,0,0.000885,0,0
0:1:45.175,186.216,23.7111,0,0.000885,0,0
0:1:45.373,186.332,23.7249,0,0.000885,0,0
0:1:45.571,186.332,23.7249,0,0.000885,0,0
0:1:45.773,187.154,23.8283,0,0.000885,0,0
0:1:45.968,187.154,23.8283,0,0.000885,0,0
0:1:46.170,187.799,23.911,0,0.000885,0,0
0:1:46.370,188.267,23.9731,0,0.000885,0,0
0:1:46.565,188.387,23.9869,0,0.000885,0,0
0:1:46.768,189.147,24.0834,0,0.000885,0,0
0:1:46.965,189.619,24.1454,0,0.000885,0,0
0:1:47.164,190.028,24.1937,0,0.000885,0,0
0:1:47.365,189.85,24.173,0,0.000885,0,0
0:1:47.561,190.673,24.2764,0,0.000885,0,0
0:1:47.763,191.024,24.3247,0,0.000885,0,0
0:1:47.960,191.612,24.3937,0,0.000885,0,0
0:1:48.167,191.612,24.3937,0,0.000885,0,0
0:1:48.370,192.021,24.4488,0,0.000885,0,0
0:1:48.573,192.141,24.4626,0,0.000885,0,0
0:1:48.775,192.786,24.5453,0,0.000885,0,0
0:1:48.974,192.844,24.5522,0,0.000885,0,0
0:1:49.176,193.431,24.6281,0,0.000885,0,0
0:1:49.375,193.898,24.6901,0,0.000885,0,0
0:1:49.576,194.307,24.7384,0,0.000885,0,0
0:1:49.776,194.369,24.7453,0,0.000885,0,0
0:1:49.973,195.366,24.8763,0,0.000885,0,0
0:1:50.170,195.597,24.9039,0,0.000885,0,0
0:1:50.371,196.362,25.0004,0,0.000885,0,0
0:1:50.565,196.069,24.9659,0,0.000885,0,0
0:1:50.765,196.598,25.0349,0,0.000885,0,0
0:1:50.961,197.243,25.1107,0,0.000885,0,0
0:1:51.166,197.181,25.1038,0,0.000885,0,0
0:1:51.366,197.71,25.1728,0,0.000885,0,0
0:1:51.562,198.591,25.2831,0,0.000885,0,0
0:1:51.762,198.764,25.3107,0,0.000885,0,0
0:1:51.959,198.827,25.3175,0,0.000885,0,0
0:1:52.152,199.587,25.4141,0,0.000885,0,0
0:1:52.352,199.996,25.4623,0,0.000885,0,0
0:1:52.549,200.877,25.5795,0,0.000885,0,0
0:1:52.748,200.584,25.5382,0,0.000885,0,0
0:1:52.955,201.229,25.6209,0,0.000885,0,0
0:1:53.160,201.931,25.7105,0,0.000885,0,0
0:1:53.361,202.052,25.7243,0,0.000885,0,0
0:1:53.562,202.519,25.7864,0,0.000885,0,0
0:1:53.764,202.754,25.814,0,0.000885,0,0
0:1:53.965,202.345,25.7657,0,0.000885,0,0
0:1:54.164,202.639,25.8002,0,0.000885,0,0
0:1:54.365,203.399,25.8967,0,0.000885,0,0
0:1:54.566,204.574,26.0484,0,0.000885,0,0
0:1:54.765,204.574,26.0484,0,0.000885,0,0
0:1:54.965,204.983,26.0967,0,0.000885,0,0
0:1:55.160,205.454,26.1587,0,0.000885,0,0
0:1:55.362,205.57,26.1725,0,0.000885,0,0
0:1:55.567,205.979,26.2277,0,0.000885,0,0
0:1:55.764,206.624,26.3104,0,0.000885,0,0
0:1:55.965,207.096,26.3656,0,0.000885,0,0
0:1:56.166,207.038,26.3587,0,0.000885,0,0
0:1:56.367,207.683,26.4414,0,0.000885,0,0
0:1:56.564,208.266,26.5172,0,0.000885,0,0
0:1:56.761,208.622,26.5655,0,0.000885,0,0
0:1:56.962,208.679,26.5724,0,0.000885,0,0
0:1:57.154,209.324,26.6551,0,0.000885,0,0
0:1:57.354,209.912,26.7241,0,0.000885,0,0
0:1:57.551,210.263,26.7723,0,0.000885,0,0
0:1:57.756,210.205,26.7654,0,0.000885,0,0
0:1:57.956,210.499,26.7999,0,0.000885,0,0
0:1:58.151,211.024,26.8689,0,0.000885,0,0
0:1:58.350,211.789,26.9654,0,0.000885,0,0
0:1:58.549,211.553,26.9378,0,0.000885,0,0
0:1:58.753,212.198,27.0206,0,0.000885,0,0
0:1:58.954,212.901,27.1102,0,0.000885,0,0
0:1:59.156,213.252,27.1516,0,0.000885,0,0
0:1:59.356,213.782,27.2205,0,0.000885,0,0
0:1:59.556,214.075,27.255,0,0.000885,0,0
0:1:59.760,214.662,27.3308,0,0.000885,0,0
0:1:59.960,215.187,27.3998,0,0.000885,0,0
0:2:0.155,215.659,27.4618,0,0.000885,0,0
0:2:0.353,215.717,27.4687,0,0.000885,0,0
0:2:0.552,216.419,27.5583,0,0.000885,0,0
0:2:0.745,216.246,27.5308,0,0.000885,0,0
0:2:0.947,216.539,27.5721,0,0.000885,0,0
0:2:1.153,217.242,27.6618,0,0.000885,0,0
0:2:1.351,217.358,27.6756,0,0.000885,0,0
0:2:1.549,217.709,27.7169,0,0.000885,0,0
0:2:1.754,218.354,27.7997,0,0.000885,0,0
0:2:1.954,218.941,27.8755,0,0.000885,0,0
0:2:2.151,219.644,27.9651,0,0.000885,0,0
0:2:2.348,219.351,27.9307,0,0.000885,0,0
0:2:2.548,219.586,27.9582,0,0.000885,0,0
0:2:2.741,220.409,28.0617,0,0.000885,0,0
0:2:2.941,220.583,28.0823,0,0.000885,0,0
0:2:3.139,220.703,28.103,0,0.000885,0,0
0:2:3.344,221.406,28.1927,0,0.000885,0,0
0:2:3.544,221.757,28.234,0,0.000885,0,0
0:2:3.744,221.521,28.2065,0,0.000885,0,0
0:2:3.947,222.58,28.3375,0,0.000885,0,0
0:2:4.149,223.105,28.4064,0,0.000885,0,0
0:2:4.349,223.519,28.4616,0,0.000885,0,0
0:2:4.549,223.519,28.4616,0,0.000885,0,0
0:2:4.750,223.986,28.5167,0,0.000885,0,0
0:2:4.951,224.222,28.5512,0,0.000885,0,0
0:2:5.148,224.866,28.6339,0,0.000885,0,0
0:2:5.346,225.627,28.7305,0,0.000885,0,0
0:2:5.545,226.508,28.8408,0,0.000885,0,0
0:2:5.740,226.272,28.8132,0,0.000885,0,0
0:2:5.937,226.566,28.8477,0,0.000885,0,0
0:2:6.137,226.979,28.9028,0,0.000885,0,0
0:2:6.332,227.037,28.9097,0,0.000885,0,0
0:2:6.533,227.856,29.0131,0,0.000885,0,0
0:2:6.729,228.385,29.0821,0,0.000885,0,0
0:2:6.926,228.563,29.1028,0,0.000885,0,0
0:2:7.125,229.03,29.1579,0,0.000885,0,0
0:2:7.321,229.266,29.1924,0,0.000885,0,0
0:2:7.520,229.911,29.2751,0,0.000885,0,0
0:2:7.717,230.084,29.2958,0,0.000885,0,0
0:2:7.913,230.32,29.3234,0,0.000885,0,0
0:2:8.113,230.671,29.3717,0,0.000885,0,0
0:2:8.306,231.143,29.4268,0,0.000885,0,0
0:2:8.507,231.904,29.5302,0,0.000885,0,0
0:2:8.708,232.139,29.5578,0,0.000885,0,0
0:2:8.911,232.433,29.5923,0,0.000885,0,0
0:2:9.112,232.606,29.6199,0,0.000885,0,0
0:2:9.313,233.251,29.6957,0,0.000885,0,0
0:2:9.513,233.545,29.7371,0,0.000885,0,0
0:2:9.714,233.781,29.7647,0,0.000885,0,0
0:2:9.914,234.252,29.8267,0,0.000885,0,0
0:2:10.115,234.31,29.8336,0,0.000885,0,0
0:2:10.310,235.249,29.9508,0,0.000885,0,0
0:2:10.510,236.009,30.0474,0,0.000885,0,0
0:2:10.709,236.067,30.0542,0,0.000885,0,0
0:2:10.903,235.894,30.0336,0,0.000885,0,0
0:2:11.103,236.187,30.0749,0,0.000885,0,0
0:2:11.297,237.126,30.1921,0,0.000885,0,0
0:2:11.495,237.299,30.2128,0,0.000885,0,0
0:2:11.695,237.593,30.2542,0,0.000885,0,0
0:2:11.889,238.238,30.33,0,0.000885,0,0
0:2:12.091,238.941,30.4197,0,0.000885,0,0
0:2:12.287,239.412,30.4817,0,0.000885,0,0
0:2:12.483,239.412,30.4817,0,0.000885,0,0
0:2:12.684,239.706,30.5231,0,0.000885,0,0
0:2:12.878,240.409,30.6127,0,0.000885,0,0
0:2:13.076,240.702,30.6472,0,0.000885,0,0
0:2:13.273,241.169,30.7092,0,0.000885,0,0
0:2:13.469,241.347,30.7299,0,0.000885,0,0
0:2:13.671,241.583,30.7575,0,0.000885,0,0
0:2:13.872,242.05,30.8196,0,0.000885,0,0
0:2:14.074,242.05,30.8196,0,0.000885,0,0
0:2:14.276,242.228,30.8402,0,0.000885,0,0
0:2:14.476,242.873,30.923,0,0.000885,0,0
0:2:14.676,243.398,30.9919,0,0.000885,0,0
0:2:14.876,244.399,31.116,0,0.000885,0,0
0:2:15.075,244.279,31.1023,0,0.000885,0,0
0:2:15.275,245.217,31.2195,0,0.000885,0,0
0:2:15.469,245.453,31.2539,0,0.000885,0,0
0:2:15.669,245.92,31.3091,0,0.000885,0,0
0:2:15.865,246.801,31.4263,0,0.000885,0,0
0:2:16.059,246.156,31.3436,0,0.000885,0,0
0:2:16.262,246.801,31.4263,0,0.000885,0,0
0:2:16.464,247.681,31.5366,0,0.000885,0,0
0:2:16.664,247.797,31.5504,0,0.000885,0,0
0:2:16.862,247.681,31.5366,0,0.000885,0,0
0:2:17.055,248.384,31.6263,0,0.000885,0,0
0:2:17.255,249.087,31.7159,0,0.000885,0,0
0:2:17.450,249.674,31.7917,0,0.000885,0,0
0:2:17.657,249.852,31.8124,0,0.000885,0,0
0:2:17.857,250.026,31.8331,0,0.000885,0,0
0:2:18.063,250.613,31.9089,0,0.000885,0,0
0:2:18.263,251.316,31.9986,0,0.000885,0,0
0:2:18.463,251.022,31.9641,0,0.000885,0,0
0:2:18.665,251.022,31.9641,0,0.000885,0,0
0:2:18.865,251.671,32.0468,0,0.000885,0,0
0:2:19.067,252.374,32.1365,0,0.000885,0,0
0:2:19.267,252.606,32.164,0,0.000885,0,0
0:2:19.466,252.899,32.1985,0,0.000885,0,0
0:2:19.666,253.019,32.2123,0,0.000885,0,0
0:2:19.867,253.429,32.2675,0,0.000885,0,0
0:2:20.062,254.189,32.364,0,0.000885,0,0
0:2:20.259,253.9,32.3295,0,0.000885,0,0
0:2:20.458,255.012,32.4674,0,0.000885,0,0
0:2:20.652,255.19,32.495,0,0.000885,0,0
0:2:20.853,255.657,32.5501,0,0.000885,0,0
0:2:21.048,256.538,32.6605,0,0.000885,0,0
0:2:21.246,257.005,32.7225,0,0.000885,0,0
0:2:21.447,257.534,32.7915,0,0.000885,0,0
0:2:21.641,258.179,32.8742,0,0.000885,0,0
0:2:21.840,258.415,32.9018,0,0.000885,0,0
0:2:22.037,258.709,32.9363,0,0.000885,0,0
0:2:22.232,259.647,33.0604,0,0.000885,0,0
0:2:22.433,259.118,32.9914,0,0.000885,0,0
0:2:22.629,259.176,32.9983,0,0.000885,0,0
0:2:22.828,259.411,33.0259,0,0.000885,0,0
0:2:23.024,260.292,33.1431,0,0.000885,0,0
0:2:23.219,260.114,33.1155,0,0.000885,0,0
0:2:23.419,260.879,33.2189,0,0.000885,0,0
0:2:23.619,261.524,33.2948,0,0.000885,0,0
0:2:23.822,261.756,33.3293,0,0.000885,0,0
0:2:24.023,261.289,33.2672,0,0.000885,0,0
0:2:24.224,261.991,33.3568,0,0.000885,0,0
0:2:24.424,262.93,33.474,0,0.000885,0,0
0:2:24.623,263.517,33.5499,0,0.000885,0,0
0:2:24.823,263.401,33.5361,0,0.000885,0,0
0:2:25.024,263.984,33.6119,0,0.000885,0,0
0:2:25.217,264.104,33.6257,0,0.000885,0,0
0:2:25.416,264.162,33.6326,0,0.000885,0,0
0:2:25.615,265.043,33.7429,0,0.000885,0,0
0:2:25.809,265.043,33.7429,0,0.000885,0,0
0:2:26.010,265.981,33.867,0,0.000885,0,0
0:2:26.205,265.924,33.8602,0,0.000885,0,0
0:2:26.402,266.742,33.9636,0,0.000885,0,0
0:2:26.603,266.92,33.9843,0,0.000885,0,0
0:2:26.797,267.503,34.0601,0,0.000885,0,0
0:2:26.997,268.21,34.1497,0,0.000885,0,0
0:2:27.194,268.619,34.2049,0,0.000885,0,0
0:2:27.389,268.855,34.2325,0,0.000885,0,0
0:2:27.590,269.149,34.2669,0,0.000885,0,0
0:2:27.784,269.794,34.3497,0,0.000885,0,0
0:2:27.983,269.794,34.3497,0,0.000885,0,0
0:2:28.182,270.554,34.4462,0,0.000885,0,0
0:2:28.375,270.496,34.4393,0,0.000885,0,0
0:2:28.576,270.848,34.4876,0,0.000885,0,0
0:2:28.775,271.608,34.5841,0,0.000885,0,0
0:2:28.978,271.964,34.6255,0,0.000885,0,0
0:2:29.179,271.786,34.6048,0,0.000885,0,0
0:2:29.381,272.316,34.6737,0,0.000885,0,0
0:2:29.581,272.783,34.7289,0,0.000885,0,0
0:2:29.782,273.192,34.7841,0,0.000885,0,0
0:2:29.982,273.37,34.8047,0,0.000885,0,0
0:2:30.183,274.073,34.8944,0,0.000885,0,0
0:2:30.378,273.957,34.8806,0,0.000885,0,0
0:2:30.576,274.838,34.9909,0,0.000885,0,0
0:2:30.774,275.131,35.0323,0,0.000885,0,0
0:2:30.970,275.598,35.0874,0,0.000885,0,0
0:2:31.171,276.243,35.1702,0,0.000885,0,0
0:2:31.367,276.421,35.1977,0,0.000885,0,0
0:2:31.564,276.773,35.2391,0,0.000885,0,0
0:2:31.761,276.773,35.2391,0,0.000885,0,0
0:2:31.957,277.827,35.377,0,0.000885,0,0
0:2:32.156,278.005,35.3977,0,0.000885,0,0
0:2:32.364,278.356,35.4391,0,0.000885,0,0
0:2:32.571,278.823,35.5011,0,0.000885,0,0
0:2:32.772,279.589,35.5976,0,0.000885,0,0
0:2:32.966,280.056,35.6597,0,0.000885,0,0
0:2:33.166,280.585,35.7217,0,0.000885,0,0
0:2:33.366,280.234,35.6804,0,0.000885,0,0
0:2:33.569,280.643,35.7355,0,0.000885,0,0
0:2:33.769,281.172,35.7976,0,0.000885,0,0
0:2:33.970,281.639,35.8596,0,0.000885,0,0
0:2:34.171,282.048,35.9148,0,0.000885,0,0
0:2:34.372,282.636,35.9837,0,0.000885,0,0
0:2:34.571,282.756,36.0044,0,0.000885,0,0
0:2:34.773,283.458,36.0941,0,0.000885,0,0
0:2:34.968,283.107,36.0458,0,0.000885,0,0
0:2:35.166,283.868,36.1423,0,0.000885,0,0
0:2:35.364,284.339,36.2044,0,0.000885,0,0
0:2:35.567,284.219,36.1906,0,0.000885,0,0
0:2:35.769,285.158,36.3078,0,0.000885,0,0
0:2:35.964,285.336,36.3285,0,0.000885,0,0
0:2:36.161,285.861,36.3974,0,0.000885,0,0
0:2:36.364,286.154,36.4319,0,0.000885,0,0
0:2:36.567,286.741,36.5077,0,0.000885,0,0
0:2:36.766,287.328,36.5836,0,0.000885,0,0
0:2:36.961,287.564,36.6112,0,0.000885,0,0
0:2:37.157,287.68,36.6318,0,0.000885,0,0
0:2:37.358,288.089,36.6801,0,0.000885,0,0
0:2:37.553,288.151,36.687,0,0.000885,0,0
0:2:37.752,288.97,36.7904,0,0.000885,0,0
0:2:37.950,289.028,36.7973,0,0.000885,0,0
0:2:38.145,289.673,36.8801,0,0.000885,0,0
0:2:38.346,290.26,36.9559,0,0.000885,0,0
0:2:38.547,290.144,36.9421,0,0.000885,0,0
0:2:38.750,291.256,37.0869,0,0.000885,0,0
0:2:38.951,291.198,37.08,0,0.000885,0,0
0:2:39.152,291.843,37.1558,0,0.000885,0,0
0:2:39.351,292.195,37.2041,0,0.000885,0,0
0:2:39.552,292.257,37.211,0,0.000885,0,0
0:2:39.752,292.666,37.2662,0,0.000885,0,0
0:2:39.952,293.369,37.3558,0,0.000885,0,0
0:2:40.168,294.192,37.4592,0,0.000885,0,0
0:2:40.366,294.134,37.4523,0,0.000885,0,0
0:2:40.565,294.25,37.4661,0,0.000885,0,0
0:2:40.758,294.837,37.542,0,0.000885,0,0
0:2:40.959,295.362,37.604,0,0.000885,0,0
0:2:41.153,295.833,37.6661,0,0.000885,0,0
0:2:41.351,296.421,37.7419,0,0.000885,0,0
0:2:41.552,296.83,37.7902,0,0.000885,0,0
0:2:41.745,296.478,37.7488,0,0.000885,0,0
0:2:41.946,297.417,37.866,0,0.000885,0,0
0:2:42.151,297.123,37.8315,0,0.000885,0,0
0:2:42.349,297.946,37.935,0,0.000885,0,0
0:2:42.549,298.062,37.9487,0,0.000885,0,0
0:2:42.753,298.943,38.0591,0,0.000885,0,0
0:2:42.953,299.236,38.1004,0,0.000885,0,0
0:2:43.150,299.294,38.1073,0,0.000885,0,0
0:2:43.345,299.939,38.1901,0,0.000885,0,0
0:2:43.545,300.406,38.2521,0,0.000885,0,0
0:2:43.746,300.993,38.3211,0,0.000885,0,0
0:2:43.947,301.171,38.3486,0,0.000885,0,0
0:2:44.150,301.816,38.4314,0,0.000885,0,0
0:2:44.350,301.465,38.3831,0,0.000885,0,0
0:2:44.551,302.755,38.5486,0,0.000885,0,0
0:2:44.750,302.577,38.5279,0,0.000885,0,0
0:2:44.951,303.516,38.6451,0,0.000885,0,0
0:2:45.150,303.4,38.6313,0,0.000885,0,0
0:2:45.344,304.16,38.7279,0,0.000885,0,0
0:2:45.545,304.396,38.7554,0,0.000885,0,0
0:2:45.742,304.574,38.7761,0,0.000885,0,0
0:2:45.940,305.041,38.8382,0,0.000885,0,0
0:2:46.139,305.219,38.8589,0,0.000885,0,0
0:2:46.332,305.686,38.9209,0,0.000885,0,0
0:2:46.531,305.922,38.9485,0,0.000885,0,0
0:2:46.730,306.447,39.0174,0,0.000885,0,0
0:2:46.927,307.212,39.114,0,0.000885,0,0
0:2:47.125,307.212,39.114,0,0.000885,0,0
0:2:47.320,307.506,39.1553,0,0.000885,0,0
0:2:47.518,307.741,39.1829,0,0.000885,0,0
0:2:47.717,308.675,39.3001,0,0.000885,0,0
0:2:47.912,308.738,39.307,0,0.000885,0,0
0:2:48.113,309.498,39.4035,0,0.000885,0,0
0:2:48.314,309.85,39.4518,0,0.000885,0,0
0:2:48.516,309.97,39.4656,0,0.000885,0,0
0:2:48.719,310.028,39.4725,0,0.000885,0,0
0:2:48.919,310.437,39.5276,0,0.000885,0,0
0:2:49.120,311.491,39.6586,0,0.000885,0,0
0:2:49.321,311.669,39.6862,0,0.000885,0,0
0:2:49.522,312.256,39.7552,0,0.000885,0,0
0:2:49.719,312.314,39.7621,0,0.000885,0,0
0:2:49.915,313.017,39.8517,0,0.000885,0,0
0:2:50.116,313.426,39.9069,0,0.000885,0,0
0:2:50.310,313.782,39.9551,0,0.000885,0,0
0:2:50.508,313.84,39.962,0,0.000885,0,0
0:2:50.706,313.84,39.962,0,0.000885,0,0
0:2:50.902,314.836,40.0861,0,0.000885,0,0
0:2:51.102,314.836,40.0861,0,0.000885,0,0
0:2:51.298,315.833,40.2102,0,0.000885,0,0
0:2:51.494,315.539,40.1758,0,0.000885,0,0
0:2:51.694,316.304,40.2723,0,0.000885,0,0
0:2:51.888,316.535,40.2999,0,0.000885,0,0
0:2:52.089,316.887,40.3481,0,0.000885,0,0
0:2:52.286,317.474,40.424,0,0.000885,0,0
0:2:52.483,317.474,40.424,0,0.000885,0,0
0:2:52.684,317.71,40.4515,0,0.000885,0,0
0:2:52.877,319.115,40.6308,0,0.000885,0,0
0:2:53.076,319.236,40.6446,0,0.000885,0,0
0:2:53.275,319.409,40.6653,0,0.000885,0,0
0:2:53.477,319.996,40.7411,0,0.000885,0,0
0:2:53.680,320.174,40.7687,0,0.000885,0,0
0:2:53.881,320.699,40.8308,0,0.000885,0,0
0:2:54.082,321.055,40.879,0,0.000885,0,0
0:2:54.283,321.286,40.9066,0,0.000885,0,0
0:2:54.481,321.464,40.9273,0,0.000885,0,0
0:2:54.683,322.051,41.0031,0,0.000885,0,0
0:2:54.880,322.576,41.0721,0,0.000885,0,0
0:2:55.078,322.87,41.1065,0,0.000885,0,0
0:2:55.278,322.99,41.1272,0,0.000885,0,0
0:2:55.473,323.577,41.1962,0,0.000885,0,0
0:2:55.674,324.102,41.2651,0,0.000885,0,0
0:2:55.869,324.28,41.2858,0,0.000885,0,0
0:2:56.066,324.573,41.3272,0,0.000885,0,0
0:2:56.267,325.685,41.4651,0,0.000885,0,0
0:2:56.459,325.743,41.472,0,0.000885,0,0
0:2:56.660,325.979,41.5064,0,0.000885,0,0
0:2:56.857,326.215,41.534,0,0.000885,0,0
0:2:57.063,326.508,41.5754,0,0.000885,0,0
0:2:57.263,326.682,41.5961,0,0.000885,0,0
0:2:57.469,327.153,41.6512,0,0.000885,0,0
0:2:57.668,327.678,41.7202,0,0.000885,0,0
0:2:57.863,328.092,41.7753,0,0.000885,0,0
0:2:58.058,328.559,41.8305,0,0.000885,0,0
0:2:58.259,329.031,41.8925,0,0.000885,0,0
0:2:58.461,329.969,42.0098,0,0.000885,0,0
0:2:58.663,329.791,41.9891,0,0.000885,0,0
0:2:58.867,330.027,42.0235,0,0.000885,0,0
0:2:59.067,330.436,42.0718,0,0.000885,0,0
0:2:59.267,330.908,42.1339,0,0.000885,0,0
0:2:59.466,330.965,42.1408,0,0.000885,0,0
0:2:59.667,331.433,42.2028,0,0.000885,0,0
0:2:59.867,331.904,42.258,0,0.000885,0,0
0:3:0.059,332.198,42.2993,0,0.000885,0,0
0:3:0.260,332.9,42.389,0,0.000885,0,0
0:3:0.457,333.661,42.4855,0,0.000885,0,0
0:3:0.654,334.013,42.5269,0,0.000885,0,0
0:3:0.854,334.484,42.5889,0,0.000885,0,0
0:3:1.048,334.778,42.6234,0,0.000885,0,0
0:3:1.248,334.893,42.6372,0,0.000885,0,0
0:3:1.445,335.365,42.6992,0,0.000885,0,0
0:3:1.642,335.658,42.7337,0,0.000885,0,0
0:3:1.843,336.125,42.7958,0,0.000885,0,0
0:3:2.037,335.89,42.7682,0,0.000885,0,0
0:3:2.236,336.891,42.8923,0,0.000885,0,0
0:3:2.433,337.122,42.9268,0,0.000885,0,0
0:3:2.630,337.358,42.9543,0,0.000885,0,0
0:3:2.831,337.473,42.9681,0,0.000885,0,0
0:3:3.025,337.536,42.975,0,0.000885,0,0
0:3:3.223,337.887,43.0233,0,0.000885,0,0
0:3:3.423,338.238,43.0647,0,0.000885,0,0
0:3:3.626,338.883,43.1474,0,0.000885,0,0
0:3:3.828,339.119,43.175,0,0.000885,0,0
0:3:4.029,339.528,43.2301,0,0.000885,0,0
0:3:4.230,339.702,43.2508,0,0.000885,0,0
0:3:4.431,340.058,43.2991,0,0.000885,0,0
0:3:4.632,340.467,43.3473,0,0.000885,0,0
0:3:4.832,340.64,43.3749,0,0.000885,0,0
0:3:5.030,341.17,43.437,0,0.000885,0,0
0:3:5.227,341.579,43.4921,0,0.000885,0,0
0:3:5.425,341.579,43.4921,0,0.000885,0,0
0:3:5.621,341.579,43.4921,0,0.000885,0,0
0:3:5.820,341.757,43.5128,0,0.000885,0,0
0:3:6.016,341.993,43.5404,0,0.000885,0,0
0:3:6.212,342.166,43.568,0,0.000885,0,0
0:3:6.412,342.05,43.5542,0,0.000885,0,0
0:3:6.605,341.873,43.5266,0,0.000885,0,0
0:3:6.805,341.815,43.5197,0,0.000885,0,0
0:3:7.003,341.579,43.4921,0,0.000885,0,0
0:3:7.198,341.348,43.4645,0,0.000885,0,0
0:3:7.399,340.347,43.3335,0,0.000885,0,0
0:3:7.592,339.586,43.237,0,0.000885,0,0
0:3:7.791,337.18,42.9337,0,0.000885,0,0
0:3:7.990,335.365,42.6992,0,0.000885,0,0
0:3:8.183,330.143,42.0373,0,0.000885,0,0
0:3:8.384,325.57,41.4513,0,0.000885,0,0
0:3:8.584,310.437,39.5276,0,0.000885,0,0
0:3:8.786,298.298,37.9832,0,0.000885,0,0
0:3:8.988,278.236,35.4253,0,0.000885,0,0
0:3:9.187,273.192,34.7841,0,0.000885,0,0
0:3:9.387,266.275,33.9015,0,0.000885,0,0
0:3:9.586,263.517,33.5499,0,0.000885,0,0
0:3:9.785,257.943,32.8397,0,0.000885,0,0
0:3:9.984,254.954,32.4605,0,0.000885,0,0
0:3:10.179,252.374,32.1365,0,0.000885,0,0
0:3:10.380,246.743,31.4194,0,0.000885,0,0
0:3:10.574,243.811,31.0402,0,0.000885,0,0
0:3:10.721,240.76,30.6541,0,0.000885,0,0