File: DataFile2021-06-07_035438.csv
Test ID:,Date Tested:,Time:,Test Type:,Diameter Avg. (mm):,Cyl. Corr. Factor:,Height (mm):,Age (days):,Weight (kN):,Break Type:,Ramp Rate (MPa/s):,Load at Break (kN):,Stress at Break (MPa):
12,6/7/2021,03:54,Cylinder,100,1,200,0,3.6,3,0.25,586.92,74.73
Sample Time,Load (kN),Stress (MPa),Long. Strain,Trans. Strain,Chan1 Deflection (mm),Chan2 Deflection (mm)
0:0:14.971,5.80493,0.737739,0,0.000885,0,0
0:0:15.266,6.92143,0.882529,0,0.000885,0,0
0:0:15.567,8.3849,1.06869,0,0.000885,0,0
0:0:15.863,8.67848,1.10316,0,0.000885,0,0
0:0:16.164,8.91424,1.13763,0,0.000885,0,0
0:0:16.459,8.91424,1.13763,0,0.000885,0,0
0:0:16.756,8.79858,1.11695,0,0.000885,0,0
0:0:17.055,9.09216,1.15832,0,0.000885,0,0
0:0:17.360,10.3243,1.3169,0,0.000885,0,0
0:0:17.662,10.0886,1.28242,0,0.000885,0,0
0:0:17.955,10.44,1.33069,0,0.000885,0,0
0:0:18.256,11.4364,1.45479,0,0.000885,0,0
0:0:18.553,11.7878,1.50306,0,0.000885,0,0
0:0:18.861,12.3171,1.56511,0,0.000885,0,0
0:0:19.160,13.0778,1.66853,0,0.000885,0,0
0:0:19.454,14.43,1.83401,0,0.000885,0,0
0:0:19.756,14.1364,1.79953,0,0.000885,0,0
0:0:20.059,15.075,1.91674,0,0.000885,0,0
0:0:20.362,15.4264,1.96501,0,0.000885,0,0
0:0:20.666,16.0136,2.04085,0,0.000885,0,0
0:0:20.970,16.5963,2.11669,0,0.000885,0,0
0:0:21.272,17.655,2.24769,0,0.000885,0,0
0:0:21.573,17.5972,2.2408,0,0.000885,0,0
0:0:21.875,18.4156,2.34422,0,0.000885,0,0
0:0:22.174,18.7092,2.38559,0,0.000885,0,0
0:0:22.471,19.7056,2.50969,0,0.000885,0,0
0:0:22.770,20.1771,2.57174,0,0.000885,0,0
0:0:23.066,20.702,2.6338,0,0.000885,0,0
0:0:23.368,21.6406,2.7579,0,0.000885,0,0
0:0:23.663,21.6406,2.7579,0,0.000885,0,0
0:0:23.963,22.5213,2.86822,0,0.000885,0,0
0:0:24.263,23.2864,2.96475,0,0.000885,0,0
0:0:24.558,23.9893,3.05438,0,0.000885,0,0
0:0:24.860,24.87,3.16469,0,0.000885,0,0
0:0:25.155,25.3371,3.22675,0,0.000885,0,0
0:0:25.458,26.0977,3.32327,0,0.000885,0,0
0:0:25.762,26.6271,3.39222,0,0.000885,0,0
0:0:26.066,27.3877,3.48875,0,0.000885,0,0
0:0:26.368,28.095,3.57838,0,0.000885,0,0
0:0:26.670,28.7978,3.66801,0,0.000885,0,0
0:0:26.973,29.4428,3.75075,0,0.000885,0,0
0:0:27.271,29.9721,3.8128,0,0.000885,0,0
0:0:27.568,30.6749,3.90243,0,0.000885,0,0
0:0:27.868,31.0263,3.9507,0,0.000885,0,0
0:0:28.165,31.4356,4.00585,0,0.000885,0,0
0:0:28.467,32.6099,4.15064,0,0.000885,0,0
0:0:28.760,33.0191,4.2058,0,0.000885,0,0
0:0:29.062,33.5485,4.27475,0,0.000885,0,0
0:0:29.359,33.7842,4.30233,0,0.000885,0,0
0:0:29.657,34.3091,4.37128,0,0.000885,0,0
0:0:29.957,35.0164,4.46091,0,0.000885,0,0
0:0:30.253,35.4256,4.50917,0,0.000885,0,0
0:0:30.556,35.8349,4.56433,0,0.000885,0,0
0:0:30.860,36.0706,4.59191,0,0.000885,0,0
0:0:31.165,36.9514,4.70222,0,0.000885,0,0
0:0:31.466,37.3606,4.75738,0,0.000885,0,0
0:0:31.768,38.2992,4.87459,0,0.000885,0,0
0:0:32.069,38.5349,4.90907,0,0.000885,0,0
0:0:32.365,39.5892,5.04007,0,0.000885,0,0
0:0:32.667,39.8828,5.07454,0,0.000885,0,0
0:0:32.963,40.5277,5.15728,0,0.000885,0,0
0:0:33.261,41.4085,5.27449,0,0.000885,0,0
0:0:33.562,41.7599,5.31586,0,0.000885,0,0
0:0:33.858,42.5206,5.41238,0,0.000885,0,0
0:0:34.160,43.3435,5.51581,0,0.000885,0,0
0:0:34.456,44.0463,5.60544,0,0.000885,0,0
0:0:34.755,44.5178,5.66749,0,0.000885,0,0
0:0:35.064,44.8692,5.71575,0,0.000885,0,0
0:0:35.366,45.1628,5.75023,0,0.000885,0,0
0:0:35.672,45.3941,5.77781,0,0.000885,0,0
0:0:35.974,46.0391,5.86054,0,0.000885,0,0
0:0:36.277,47.6849,6.07428,0,0.000885,0,0
0:0:36.579,47.8584,6.09497,0,0.000885,0,0
0:0:36.878,48.3299,6.15012,0,0.000885,0,0
0:0:37.179,48.9126,6.22597,0,0.000885,0,0
0:0:37.473,49.0906,6.25354,0,0.000885,0,0
0:0:37.776,49.8512,6.35007,0,0.000885,0,0
0:0:38.071,50.3227,6.40523,0,0.000885,0,0
0:0:38.371,50.9677,6.48797,0,0.000885,0,0
0:0:38.669,51.7284,6.58449,0,0.000885,0,0
0:0:38.965,52.022,6.62586,0,0.000885,0,0
0:0:39.267,53.6055,6.82581,0,0.000885,0,0
0:0:39.560,53.3698,6.79823,0,0.000885,0,0
0:0:39.864,54.0192,6.88097,0,0.000885,0,0
0:0:40.159,54.722,6.9706,0,0.000885,0,0
0:0:40.462,55.367,7.04644,0,0.000885,0,0
0:0:40.768,56.3634,7.17744,0,0.000885,0,0
0:0:41.072,57.3598,7.30155,0,0.000885,0,0
0:0:41.372,57.1863,7.28086,0,0.000885,0,0
0:0:41.675,57.7112,7.34981,0,0.000885,0,0
0:0:41.976,58.7699,7.48081,0,0.000885,0,0
0:0:42.275,59.237,7.54286,0,0.000885,0,0
0:0:42.569,59.7663,7.61181,0,0.000885,0,0
0:0:42.870,59.9398,7.6325,0,0.000885,0,0
0:0:43.166,60.4113,7.69455,0,0.000885,0,0
0:0:43.468,60.8205,7.74281,0,0.000885,0,0
0:0:43.764,61.8169,7.87381,0,0.000885,0,0
0:0:44.065,62.5198,7.96344,0,0.000885,0,0
0:0:44.363,63.0491,8.0255,0,0.000885,0,0
0:0:44.659,63.6363,8.10134,0,0.000885,0,0
0:0:44.962,64.2813,8.18408,0,0.000885,0,0
0:0:45.256,65.1042,8.2875,0,0.000885,0,0
0:0:45.560,65.6869,8.36334,0,0.000885,0,0
0:0:45.865,65.6869,8.36334,0,0.000885,0,0
0:0:46.169,66.7456,8.50124,0,0.000885,0,0
0:0:46.471,66.8612,8.51503,0,0.000885,0,0
0:0:46.771,67.3327,8.57018,0,0.000885,0,0
0:0:47.073,68.3291,8.70118,0,0.000885,0,0
0:0:47.370,68.9163,8.77703,0,0.000885,0,0
0:0:47.669,69.6769,8.87355,0,0.000885,0,0
0:0:47.968,70.2641,8.94939,0,0.000885,0,0
0:0:48.264,70.6155,8.99076,0,0.000885,0,0
0:0:48.567,71.2027,9.06661,0,0.000885,0,0
0:0:48.861,71.8477,9.14934,0,0.000885,0,0
0:0:49.161,72.2569,9.19761,0,0.000885,0,0
0:0:49.460,73.4312,9.34929,0,0.000885,0,0
0:0:49.757,73.3111,9.3355,0,0.000885,0,0
0:0:50.057,74.0184,9.42513,0,0.000885,0,0
0:0:50.364,75.1305,9.56303,0,0.000885,0,0
0:0:50.666,75.6598,9.63198,0,0.000885,0,0
0:0:50.970,76.069,9.68713,0,0.000885,0,0
0:0:51.272,76.4204,9.7285,0,0.000885,0,0
0:0:51.575,77.4791,9.8664,0,0.000885,0,0
0:0:51.872,77.6526,9.88708,0,0.000885,0,0
0:0:52.174,78.9426,10.0526,0,0.000885,0,0
0:0:52.468,79.1783,10.0801,0,0.000885,0,0
0:0:52.768,79.0004,10.0595,0,0.000885,0,0
0:0:53.065,80.4105,10.2387,0,0.000885,0,0
0:0:53.363,80.8776,10.3008,0,0.000885,0,0
0:0:53.663,80.9398,10.3077,0,0.000885,0,0
0:0:53.959,81.7005,10.4042,0,0.000885,0,0
0:0:54.262,82.5234,10.5076,0,0.000885,0,0
0:0:54.557,82.9905,10.5697,0,0.000885,0,0
0:0:54.856,83.5198,10.6317,0,0.000885,0,0
0:0:55.164,84.107,10.7076,0,0.000885,0,0
0:0:55.468,84.9254,10.811,0,0.000885,0,0
0:0:55.775,85.6283,10.9006,0,0.000885,0,0
0:0:56.076,85.9218,10.942,0,0.000885,0,0
0:0:56.379,86.509,11.0178,0,0.000885,0,0
0:0:56.682,87.0384,11.0799,0,0.000885,0,0
0:0:56.980,88.2082,11.2316,0,0.000885,0,0
0:0:57.280,88.8577,11.3143,0,0.000885,0,0
0:0:57.576,88.9733,11.3281,0,0.000885,0,0
0:0:57.878,89.6761,11.4177,0,0.000885,0,0
0:0:58.175,90.0854,11.4729,0,0.000885,0,0
0:0:58.473,91.0862,11.597,0,0.000885,0,0
0:0:58.773,91.669,11.6728,0,0.000885,0,0
0:0:59.069,91.669,11.6728,0,0.000885,0,0
0:0:59.371,92.2561,11.7487,0,0.000885,0,0
0:0:59.665,92.9589,11.8383,0,0.000885,0,0
0:0:59.966,93.6662,11.9279,0,0.000885,0,0
0:1:0.265,94.369,12.0176,0,0.000885,0,0
0:1:0.567,95.4811,12.1555,0,0.000885,0,0
0:1:0.873,95.4232,12.1486,0,0.000885,0,0
0:1:1.176,96.0682,12.2313,0,0.000885,0,0
0:1:1.478,96.7132,12.314,0,0.000885,0,0
0:1:1.780,96.8912,12.3347,0,0.000885,0,0
0:1:2.078,97.8876,12.4657,0,0.000885,0,0
0:1:2.379,98.0655,12.4864,0,0.000885,0,0
0:1:2.674,99.2354,12.6381,0,0.000885,0,0
0:1:2.976,99.529,12.6726,0,0.000885,0,0
0:1:3.272,99.9426,12.7277,0,0.000885,0,0
0:1:3.573,100.41,12.7829,0,0.000885,0,0
0:1:3.871,100.997,12.8587,0,0.000885,0,0
0:1:4.168,102.403,13.038,0,0.000885,0,0
0:1:4.470,102.99,13.1138,0,0.000885,0,0
0:1:4.764,103.283,13.1483,0,0.000885,0,0
0:1:5.066,103.577,13.1897,0,0.000885,0,0
0:1:5.363,103.928,13.231,0,0.000885,0,0
0:1:5.666,104.631,13.3207,0,0.000885,0,0
0:1:5.972,104.925,13.362,0,0.000885,0,0
0:1:6.275,105.69,13.4586,0,0.000885,0,0
0:1:6.577,106.335,13.5413,0,0.000885,0,0
0:1:6.879,106.744,13.5896,0,0.000885,0,0
0:1:7.178,107.976,13.7481,0,0.000885,0,0
0:1:7.476,108.621,13.8309,0,0.000885,0,0
0:1:7.774,109.15,13.8998,0,0.000885,0,0
0:1:8.076,109.733,13.9688,0,0.000885,0,0
0:1:8.370,110.614,14.086,0,0.000885,0,0
0:1:8.673,110.614,14.086,0,0.000885,0,0
0:1:8.968,111.143,14.148,0,0.000885,0,0
0:1:9.267,111.61,14.2101,0,0.000885,0,0
0:1:9.566,112.375,14.3066,0,0.000885,0,0
0:1:9.864,113.02,14.3894,0,0.000885,0,0
0:1:10.165,113.839,14.4928,0,0.000885,0,0
0:1:10.468,113.901,14.4997,0,0.000885,0,0
0:1:10.773,114.955,14.6376,0,0.000885,0,0
0:1:11.075,115.6,14.7203,0,0.000885,0,0
0:1:11.378,116.13,14.7893,0,0.000885,0,0
0:1:11.679,116.948,14.8927,0,0.000885,0,0
0:1:11.975,117.242,14.9271,0,0.000885,0,0
0:1:12.277,118.18,15.0444,0,0.000885,0,0
0:1:12.574,118.532,15.0926,0,0.000885,0,0
0:1:12.873,118.652,15.1064,0,0.000885,0,0
0:1:13.172,119.297,15.1892,0,0.000885,0,0
0:1:13.468,120,15.2788,0,0.000885,0,0
0:1:13.770,120.702,15.3684,0,0.000885,0,0
0:1:14.065,121.347,15.4512,0,0.000885,0,0
0:1:14.365,121.935,15.527,0,0.000885,0,0
0:1:14.662,122.17,15.5546,0,0.000885,0,0
0:1:14.961,122.989,15.658,0,0.000885,0,0
0:1:15.262,123.692,15.7476,0,0.000885,0,0
0:1:15.565,124.457,15.8442,0,0.000885,0,0
0:1:15.870,124.75,15.8855,0,0.000885,0,0
0:1:16.173,125.453,15.9752,0,0.000885,0,0
0:1:16.475,126.628,16.1199,0,0.000885,0,0
0:1:16.778,126.743,16.1406,0,0.000885,0,0
0:1:17.076,127.152,16.1889,0,0.000885,0,0
0:1:17.376,127.388,16.2165,0,0.000885,0,0
0:1:17.669,128.385,16.3475,0,0.000885,0,0
0:1:17.971,129.03,16.4302,0,0.000885,0,0
0:1:18.268,129.323,16.4647,0,0.000885,0,0
0:1:18.567,129.795,16.5267,0,0.000885,0,0
0:1:18.866,130.382,16.6026,0,0.000885,0,0
0:1:19.162,131.258,16.7129,0,0.000885,0,0
0:1:19.466,132.023,16.8094,0,0.000885,0,0
0:1:19.760,132.726,16.8991,0,0.000885,0,0
0:1:20.060,133.193,16.9611,0,0.000885,0,0
0:1:20.359,133.371,16.9818,0,0.000885,0,0
0:1:20.663,134.545,17.1335,0,0.000885,0,0
0:1:20.968,134.897,17.1748,0,0.000885,0,0
0:1:21.271,135.07,17.1955,0,0.000885,0,0
0:1:21.572,136.187,17.3403,0,0.000885,0,0
0:1:21.875,136.302,17.3541,0,0.000885,0,0
0:1:22.173,137.183,17.4644,0,0.000885,0,0
0:1:22.474,137.535,17.5127,0,0.000885,0,0
0:1:22.769,138.3,17.6092,0,0.000885,0,0
0:1:23.072,138.709,17.6575,0,0.000885,0,0
0:1:23.367,139.705,17.7885,0,0.000885,0,0
0:1:23.667,140.177,17.8505,0,0.000885,0,0
0:1:23.966,140.528,17.8919,0,0.000885,0,0
0:1:24.262,141.525,18.016,0,0.000885,0,0
0:1:24.563,142.285,18.1194,0,0.000885,0,0
0:1:24.859,142.343,18.1263,0,0.000885,0,0
0:1:25.160,143.108,18.2228,0,0.000885,0,0
0:1:25.466,143.46,18.2642,0,0.000885,0,0
0:1:25.769,144.22,18.3607,0,0.000885,0,0
0:1:26.072,145.101,18.4779,0,0.000885,0,0
0:1:26.373,145.746,18.5538,0,0.000885,0,0
0:1:26.677,146.217,18.6158,0,0.000885,0,0
0:1:26.972,146.449,18.6434,0,0.000885,0,0
0:1:27.272,146.92,18.7055,0,0.000885,0,0
0:1:27.570,148.095,18.8572,0,0.000885,0,0
0:1:27.867,148.504,18.9054,0,0.000885,0,0
0:1:28.168,148.677,18.933,0,0.000885,0,0
0:1:28.462,149.616,19.0502,0,0.000885,0,0
0:1:28.765,150.261,19.133,0,0.000885,0,0
0:1:29.061,150.732,19.195,0,0.000885,0,0
0:1:29.359,151.2,19.2502,0,0.000885,0,0
0:1:29.656,152.374,19.4018,0,0.000885,0,0
0:1:29.952,152.489,19.4156,0,0.000885,0,0
0:1:30.254,153.077,19.4915,0,0.000885,0,0
0:1:30.562,154.015,19.6087,0,0.000885,0,0
0:1:30.865,154.073,19.6156,0,0.000885,0,0
0:1:31.167,154.66,19.6914,0,0.000885,0,0
0:1:31.468,154.545,19.6776,0,0.000885,0,0
0:1:31.772,156.128,19.8776,0,0.000885,0,0
0:1:32.067,156.537,19.9327,0,0.000885,0,0
0:1:32.370,156.947,19.981,0,0.000885,0,0
0:1:32.665,157.712,20.0775,0,0.000885,0,0
0:1:32.966,158.65,20.2016,0,0.000885,0,0
0:1:33.265,158.766,20.2154,0,0.000885,0,0
0:1:33.560,159.762,20.3395,0,0.000885,0,0
0:1:33.862,160.47,20.4292,0,0.000885,0,0
0:1:34.154,160.585,20.443,0,0.000885,0,0
0:1:34.455,161.172,20.5188,0,0.000885,0,0
0:1:34.765,161.697,20.5877,0,0.000885,0,0
0:1:35.063,162.872,20.7394,0,0.000885,0,0
0:1:35.363,162.814,20.7325,0,0.000885,0,0
0:1:35.669,163.637,20.836,0,0.000885,0,0
0:1:35.972,164.046,20.8842,0,0.000885,0,0
0:1:36.275,165.158,21.029,0,0.000885,0,0
0:1:36.576,165.745,21.1049,0,0.000885,0,0
0:1:36.879,165.572,21.0842,0,0.000885,0,0
0:1:37.174,166.626,21.2152,0,0.000885,0,0
0:1:37.476,167.035,21.2703,0,0.000885,0,0
0:1:37.773,167.974,21.3875,0,0.000885,0,0
0:1:38.072,168.267,21.422,0,0.000885,0,0
0:1:38.370,168.681,21.4772,0,0.000885,0,0
0:1:38.668,170.087,21.6564,0,0.000885,0,0
0:1:38.970,170.438,21.6978,0,0.000885,0,0
0:1:39.263,170.967,21.7667,0,0.000885,0,0
0:1:39.565,171.434,21.8288,0,0.000885,0,0
0:1:39.861,171.492,21.8357,0,0.000885,0,0
0:1:40.170,172.782,22.0012,0,0.000885,0,0
0:1:40.469,173.076,22.0356,0,0.000885,0,0
0:1:40.773,174.014,22.1597,0,0.000885,0,0
0:1:41.077,173.721,22.1184,0,0.000885,0,0
0:1:41.380,175.073,22.2908,0,0.000885,0,0
0:1:41.682,175.304,22.3183,0,0.000885,0,0
0:1:41.983,176.479,22.47,0,0.000885,0,0
0:1:42.281,176.421,22.4631,0,0.000885,0,0
0:1:42.583,177.533,22.6079,0,0.000885,0,0
0:1:42.879,177.827,22.6424,0,0.000885,0,0
0:1:43.179,179.059,22.801,0,0.000885,0,0
0:1:43.475,178.943,22.7803,0,0.000885,0,0
0:1:43.775,180.055,22.9251,0,0.000885,0,0
0:1:44.076,180.584,22.994,0,0.000885,0,0
0:1:44.369,180.411,22.9733,0,0.000885,0,0
0:1:44.671,181.407,23.0974,0,0.000885,0,0
0:1:44.969,181.465,23.1043,0,0.000885,0,0
0:1:45.267,182.64,23.256,0,0.000885,0,0
0:1:45.566,183.4,23.3525,0,0.000885,0,0
0:1:45.870,183.578,23.3732,0,0.000885,0,0
0:1:46.173,184.454,23.4835,0,0.000885,0,0
0:1:46.475,184.045,23.4353,0,0.000885,0,0
0:1:46.777,185.629,23.6352,0,0.000885,0,0
0:1:47.080,186.158,23.7042,0,0.000885,0,0
0:1:47.377,186.452,23.7386,0,0.000885,0,0
0:1:47.679,186.919,23.8007,0,0.000885,0,0
0:1:47.975,187.27,23.8421,0,0.000885,0,0
0:1:48.275,188.502,24.0007,0,0.000885,0,0
0:1:48.573,188.796,24.0351,0,0.000885,0,0
0:1:48.869,190.028,24.1937,0,0.000885,0,0
0:1:49.171,190.322,24.2351,0,0.000885,0,0
0:1:49.467,190.909,24.304,0,0.000885,0,0
0:1:49.767,191.202,24.3454,0,0.000885,0,0
0:1:50.064,192.724,24.5384,0,0.000885,0,0
0:1:50.366,192.666,24.5315,0,0.000885,0,0
0:1:50.669,193.431,24.6281,0,0.000885,0,0
0:1:50.970,194.014,24.7039,0,0.000885,0,0
0:1:51.270,194.485,24.766,0,0.000885,0,0
0:1:51.571,194.721,24.7935,0,0.000885,0,0
0:1:51.866,195.659,24.9108,0,0.000885,0,0
0:1:52.163,195.833,24.9314,0,0.000885,0,0
0:1:52.467,196.949,25.0762,0,0.000885,0,0
0:1:52.766,197.065,25.09,0,0.000885,0,0
0:1:53.060,197.768,25.1797,0,0.000885,0,0
0:1:53.368,198.884,25.3244,0,0.000885,0,0
0:1:53.666,199.351,25.3796,0,0.000885,0,0
0:1:53.968,199.823,25.4417,0,0.000885,0,0
0:1:54.267,200.526,25.5313,0,0.000885,0,0
0:1:54.561,200.232,25.4968,0,0.000885,0,0
0:1:54.857,201.464,25.6485,0,0.000885,0,0
0:1:55.151,201.994,25.7174,0,0.000885,0,0
0:1:55.452,202.581,25.7933,0,0.000885,0,0
0:1:55.755,202.754,25.814,0,0.000885,0,0
0:1:56.055,203.693,25.9381,0,0.000885,0,0
0:1:56.356,203.693,25.9381,0,0.000885,0,0
0:1:56.655,204.747,26.0691,0,0.000885,0,0
0:1:56.953,205.512,26.1656,0,0.000885,0,0
0:1:57.250,205.979,26.2277,0,0.000885,0,0
0:1:57.554,206.86,26.338,0,0.000885,0,0
0:1:57.853,207.332,26.4,0,0.000885,0,0
0:1:58.161,208.15,26.5034,0,0.000885,0,0
0:1:58.465,208.795,26.5862,0,0.000885,0,0
0:1:58.761,208.559,26.5517,0,0.000885,0,0
0:1:59.053,209.44,26.6689,0,0.000885,0,0
0:1:59.353,210.499,26.7999,0,0.000885,0,0
0:1:59.658,210.966,26.862,0,0.000885,0,0
0:1:59.966,211.202,26.8896,0,0.000885,0,0
0:2:0.264,212.434,27.0481,0,0.000885,0,0
0:2:0.565,212.256,27.0274,0,0.000885,0,0
0:2:0.868,213.137,27.1378,0,0.000885,0,0
0:2:1.168,213.724,27.2136,0,0.000885,0,0
0:2:1.468,214.369,27.2963,0,0.000885,0,0
0:2:1.768,214.369,27.2963,0,0.000885,0,0
0:2:2.062,215.481,27.4342,0,0.000885,0,0
0:2:2.362,216.477,27.5652,0,0.000885,0,0
0:2:2.664,216.771,27.5997,0,0.000885,0,0
0:2:2.962,217.006,27.6273,0,0.000885,0,0
0:2:3.257,217.829,27.7376,0,0.000885,0,0
0:2:3.551,218.941,27.8755,0,0.000885,0,0
0:2:3.850,218.999,27.8824,0,0.000885,0,0
0:2:4.144,219.707,27.972,0,0.000885,0,0
0:2:4.451,220.525,28.0755,0,0.000885,0,0
0:2:4.756,220.467,28.0686,0,0.000885,0,0
0:2:5.063,221.054,28.1444,0,0.000885,0,0
0:2:5.370,221.815,28.2409,0,0.000885,0,0
0:2:5.674,222.58,28.3375,0,0.000885,0,0
0:2:5.976,222.989,28.3926,0,0.000885,0,0
0:2:6.276,223.812,28.496,0,0.000885,0,0
0:2:6.575,224.337,28.565,0,0.000885,0,0
0:2:6.876,225.16,28.6684,0,0.000885,0,0
0:2:7.168,225.16,28.6684,0,0.000885,0,0
0:2:7.469,225.454,28.7029,0,0.000885,0,0
0:2:7.770,226.744,28.8683,0,0.000885,0,0
0:2:8.068,226.686,28.8615,0,0.000885,0,0
0:2:8.364,228.207,29.0545,0,0.000885,0,0
0:2:8.669,228.501,29.0959,0,0.000885,0,0
0:2:8.969,228.914,29.1441,0,0.000885,0,0
0:2:9.263,230.026,29.2889,0,0.000885,0,0
0:2:9.559,230.147,29.3027,0,0.000885,0,0
0:2:9.851,231.143,29.4268,0,0.000885,0,0
0:2:10.169,232.019,29.544,0,0.000885,0,0
0:2:10.468,232.433,29.5923,0,0.000885,0,0
0:2:10.768,232.784,29.6406,0,0.000885,0,0
0:2:11.071,233.02,29.6681,0,0.000885,0,0
0:2:11.371,233.603,29.744,0,0.000885,0,0
0:2:11.671,234.31,29.8336,0,0.000885,0,0
0:2:11.972,235.071,29.9301,0,0.000885,0,0
0:2:12.267,234.777,29.8957,0,0.000885,0,0
0:2:12.566,236.419,30.1025,0,0.000885,0,0
0:2:12.868,236.539,30.1163,0,0.000885,0,0
0:2:13.167,237.184,30.199,0,0.000885,0,0
0:2:13.460,238.064,30.3094,0,0.000885,0,0
0:2:13.757,238.531,30.3714,0,0.000885,0,0
0:2:14.054,238.825,30.4059,0,0.000885,0,0
0:2:14.368,239.648,30.5093,0,0.000885,0,0
0:2:14.668,240.644,30.6403,0,0.000885,0,0
0:2:14.971,240.644,30.6403,0,0.000885,0,0
0:2:15.272,241.463,30.7437,0,0.000885,0,0
0:2:15.576,242.05,30.8196,0,0.000885,0,0
0:2:15.876,242.579,30.8885,0,0.000885,0,0
0:2:16.177,243.518,31.0057,0,0.000885,0,0
0:2:16.476,243.691,31.0264,0,0.000885,0,0
0:2:16.776,243.811,31.0402,0,0.000885,0,0
0:2:17.071,245.044,31.1988,0,0.000885,0,0
0:2:17.366,245.804,31.2953,0,0.000885,0,0
0:2:17.673,245.626,31.2746,0,0.000885,0,0
0:2:17.967,246.507,31.3849,0,0.000885,0,0
0:2:18.267,246.627,31.3987,0,0.000885,0,0
0:2:18.570,248.269,31.6125,0,0.000885,0,0
0:2:18.868,248.856,31.6883,0,0.000885,0,0
0:2:19.165,249.794,31.8055,0,0.000885,0,0
0:2:19.468,250.204,31.8538,0,0.000885,0,0
0:2:19.768,250.204,31.8538,0,0.000885,0,0
0:2:20.059,251.2,31.9848,0,0.000885,0,0
0:2:20.359,251.845,32.0675,0,0.000885,0,0
0:2:20.663,251.845,32.0675,0,0.000885,0,0
0:2:20.965,252.374,32.1365,0,0.000885,0,0
0:2:21.265,253.313,32.2537,0,0.000885,0,0
0:2:21.565,253.78,32.3157,0,0.000885,0,0
0:2:21.865,254.545,32.4123,0,0.000885,0,0
0:2:22.168,255.484,32.5295,0,0.000885,0,0
0:2:22.464,255.364,32.5157,0,0.000885,0,0
0:2:22.770,256.129,32.6122,0,0.000885,0,0
0:2:23.066,257.183,32.7432,0,0.000885,0,0
0:2:23.365,257.067,32.7294,0,0.000885,0,0
0:2:23.667,258.006,32.8466,0,0.000885,0,0
0:2:23.965,258.709,32.9363,0,0.000885,0,0
0:2:24.258,259.469,33.0397,0,0.000885,0,0
0:2:24.556,259.118,32.9914,0,0.000885,0,0
0:2:24.853,260.466,33.1638,0,0.000885,0,0
0:2:25.157,260.586,33.1776,0,0.000885,0,0
0:2:25.456,261.289,33.2672,0,0.000885,0,0
0:2:25.759,262.107,33.3706,0,0.000885,0,0
0:2:26.059,263.046,33.4947,0,0.000885,0,0
0:2:26.359,262.988,33.4878,0,0.000885,0,0
0:2:26.659,264.278,33.6464,0,0.000885,0,0
0:2:26.959,264.923,33.7292,0,0.000885,0,0
0:2:27.251,264.749,33.7085,0,0.000885,0,0
0:2:27.550,265.158,33.7636,0,0.000885,0,0
0:2:27.867,266.155,33.8877,0,0.000885,0,0
0:2:28.161,267.271,34.0325,0,0.000885,0,0
0:2:28.471,266.92,33.9843,0,0.000885,0,0
0:2:28.773,268.09,34.1359,0,0.000885,0,0
0:2:29.074,268.504,34.1842,0,0.000885,0,0
0:2:29.366,268.383,34.1704,0,0.000885,0,0
0:2:29.666,269.736,34.3428,0,0.000885,0,0
0:2:29.971,270.439,34.4324,0,0.000885,0,0
0:2:30.266,271.257,34.5358,0,0.000885,0,0
0:2:30.573,271.435,34.5634,0,0.000885,0,0
0:2:30.875,271.964,34.6255,0,0.000885,0,0
0:2:31.177,272.489,34.6944,0,0.000885,0,0
0:2:31.478,273.076,34.7703,0,0.000885,0,0
0:2:31.778,273.312,34.7978,0,0.000885,0,0
0:2:32.079,274.66,34.9702,0,0.000885,0,0
0:2:32.374,275.069,35.0254,0,0.000885,0,0
0:2:32.673,276.301,35.1771,0,0.000885,0,0
0:2:32.967,276.595,35.2184,0,0.000885,0,0
0:2:33.266,276.773,35.2391,0,0.000885,0,0
0:2:33.569,277.711,35.3563,0,0.000885,0,0
0:2:33.866,278.063,35.4046,0,0.000885,0,0
0:2:34.161,278.472,35.4528,0,0.000885,0,0
0:2:34.454,279.175,35.5425,0,0.000885,0,0
0:2:34.753,279.117,35.5356,0,0.000885,0,0
0:2:35.058,279.94,35.6459,0,0.000885,0,0
0:2:35.359,280.879,35.7631,0,0.000885,0,0
0:2:35.661,281.466,35.8389,0,0.000885,0,0
0:2:35.965,282.226,35.9355,0,0.000885,0,0
0:2:36.263,282.52,35.9699,0,0.000885,0,0
0:2:36.565,283.458,36.0941,0,0.000885,0,0
0:2:36.860,283.458,36.0941,0,0.000885,0,0
0:2:37.159,284.513,36.2251,0,0.000885,0,0
0:2:37.473,284.748,36.2526,0,0.000885,0,0
0:2:37.773,285.803,36.3905,0,0.000885,0,0
0:2:38.066,286.683,36.5008,0,0.000885,0,0
0:2:38.366,286.626,36.494,0,0.000885,0,0
0:2:38.668,287.328,36.5836,0,0.000885,0,0
0:2:38.963,287.68,36.6318,0,0.000885,0,0
0:2:39.261,288.089,36.6801,0,0.000885,0,0
0:2:39.565,289.499,36.8594,0,0.000885,0,0
0:2:39.862,289.321,36.8387,0,0.000885,0,0
0:2:40.156,290.553,36.9973,0,0.000885,0,0
0:2:40.457,290.611,37.0042,0,0.000885,0,0
0:2:40.760,291.198,37.08,0,0.000885,0,0
0:2:41.060,292.315,37.2179,0,0.000885,0,0
0:2:41.361,292.666,37.2662,0,0.000885,0,0
0:2:41.661,293.253,37.3351,0,0.000885,0,0
0:2:41.960,293.841,37.411,0,0.000885,0,0
0:2:42.266,294.779,37.5351,0,0.000885,0,0
0:2:42.573,295.073,37.5695,0,0.000885,0,0
0:2:42.871,296.3,37.7281,0,0.000885,0,0
0:2:43.173,296.007,37.6867,0,0.000885,0,0
0:2:43.473,296.888,37.804,0,0.000885,0,0
0:2:43.766,297.59,37.8936,0,0.000885,0,0
0:2:44.063,297.884,37.9281,0,0.000885,0,0
0:2:44.357,298.707,38.0315,0,0.000885,0,0
0:2:44.653,298.413,37.997,0,0.000885,0,0
0:2:44.961,299.703,38.1625,0,0.000885,0,0
0:2:45.254,300.175,38.2176,0,0.000885,0,0
0:2:45.554,300.642,38.2797,0,0.000885,0,0
0:2:45.857,301.345,38.3693,0,0.000885,0,0
0:2:46.159,302.11,38.4659,0,0.000885,0,0
0:2:46.459,302.991,38.5762,0,0.000885,0,0
0:2:46.759,303.222,38.6106,0,0.000885,0,0
0:2:47.059,303.987,38.7072,0,0.000885,0,0
0:2:47.375,304.69,38.7968,0,0.000885,0,0
0:2:47.672,305.219,38.8589,0,0.000885,0,0
0:2:47.969,305.744,38.9278,0,0.000885,0,0
0:2:48.273,305.802,38.9347,0,0.000885,0,0
0:2:48.571,306.861,39.0726,0,0.000885,0,0
0:2:48.863,306.803,39.0657,0,0.000885,0,0
0:2:49.163,308.093,39.2243,0,0.000885,0,0
0:2:49.467,308.324,39.2587,0,0.000885,0,0
0:2:49.763,309.205,39.3691,0,0.000885,0,0
0:2:50.059,309.441,39.3966,0,0.000885,0,0
0:2:50.360,310.553,39.5414,0,0.000885,0,0
0:2:50.667,310.908,39.5828,0,0.000885,0,0
0:2:50.967,311.669,39.6862,0,0.000885,0,0
0:2:51.267,311.963,39.7207,0,0.000885,0,0
0:2:51.568,313.075,39.8655,0,0.000885,0,0
0:2:51.861,313.546,39.9206,0,0.000885,0,0
0:2:52.159,313.72,39.9413,0,0.000885,0,0
0:2:52.473,314.365,40.0241,0,0.000885,0,0
0:2:52.772,315.01,40.1068,0,0.000885,0,0
0:2:53.067,315.89,40.2171,0,0.000885,0,0
0:2:53.374,316.535,40.2999,0,0.000885,0,0
0:2:53.670,316.949,40.355,0,0.000885,0,0
0:2:53.961,317.301,40.3964,0,0.000885,0,0
0:2:54.261,317.71,40.4515,0,0.000885,0,0
0:2:54.554,318.764,40.5894,0,0.000885,0,0
0:2:54.861,319,40.617,0,0.000885,0,0
0:2:55.159,319.703,40.7066,0,0.000885,0,0
0:2:55.460,320.468,40.8032,0,0.000885,0,0
0:2:55.764,321.113,40.8859,0,0.000885,0,0
0:2:56.064,321.228,40.8997,0,0.000885,0,0
0:2:56.365,321.873,40.9824,0,0.000885,0,0
0:2:56.663,322.812,41.0996,0,0.000885,0,0
0:2:56.971,323.048,41.1341,0,0.000885,0,0
0:2:57.268,324.102,41.2651,0,0.000885,0,0
0:2:57.572,324.395,41.3065,0,0.000885,0,0
0:2:57.871,325.218,41.4099,0,0.000885,0,0
0:2:58.161,325.628,41.4582,0,0.000885,0,0
0:2:58.461,326.566,41.5823,0,0.000885,0,0
0:2:58.765,326.566,41.5823,0,0.000885,0,0
0:2:59.060,327.678,41.7202,0,0.000885,0,0
0:2:59.357,327.563,41.7064,0,0.000885,0,0
0:2:59.660,328.501,41.8236,0,0.000885,0,0
0:2:59.960,329.382,41.9408,0,0.000885,0,0
0:3:0.263,329.088,41.8994,0,0.000885,0,0
0:3:0.563,329.969,42.0098,0,0.000885,0,0
0:3:0.869,330.672,42.0994,0,0.000885,0,0
0:3:1.169,331.081,42.1545,0,0.000885,0,0
0:3:1.472,332.255,42.3062,0,0.000885,0,0
0:3:1.769,332.723,42.3614,0,0.000885,0,0
0:3:2.068,333.016,42.4028,0,0.000885,0,0
0:3:2.374,333.839,42.5062,0,0.000885,0,0
0:3:2.670,334.835,42.6303,0,0.000885,0,0
0:3:2.970,335.187,42.6785,0,0.000885,0,0
0:3:3.271,336.068,42.7889,0,0.000885,0,0
0:3:3.571,336.303,42.8164,0,0.000885,0,0
0:3:3.864,336.597,42.8578,0,0.000885,0,0
0:3:4.172,337.651,42.9888,0,0.000885,0,0
0:3:4.468,337.709,42.9957,0,0.000885,0,0
0:3:4.773,338.59,43.1129,0,0.000885,0,0
0:3:5.072,339.057,43.1681,0,0.000885,0,0
0:3:5.362,340.115,43.306,0,0.000885,0,0
0:3:5.664,340.64,43.3749,0,0.000885,0,0
0:3:5.969,340.992,43.4163,0,0.000885,0,0
0:3:6.270,341.815,43.5197,0,0.000885,0,0
0:3:6.571,342.344,43.5887,0,0.000885,0,0
0:3:6.870,342.638,43.6231,0,0.000885,0,0
0:3:7.171,343.928,43.7886,0,0.000885,0,0
0:3:7.474,344.159,43.8231,0,0.000885,0,0
0:3:7.771,344.279,43.8369,0,0.000885,0,0
0:3:8.069,345.218,43.9541,0,0.000885,0,0
0:3:8.361,345.685,44.0161,0,0.000885,0,0
0:3:8.660,346.33,44.0989,0,0.000885,0,0
0:3:8.975,346.45,44.1127,0,0.000885,0,0
0:3:9.272,347.21,44.2092,0,0.000885,0,0
0:3:9.566,347.798,44.285,0,0.000885,0,0
0:3:9.861,348.443,44.3678,0,0.000885,0,0
0:3:10.160,349.145,44.4574,0,0.000885,0,0
0:3:10.461,349.968,44.5608,0,0.000885,0,0
0:3:10.765,350.613,44.6436,0,0.000885,0,0
0:3:11.064,351.143,44.7056,0,0.000885,0,0
0:3:11.365,351.961,44.8159,0,0.000885,0,0
0:3:11.669,352.077,44.8297,0,0.000885,0,0
0:3:11.971,352.548,44.8849,0,0.000885,0,0
0:3:12.271,353.602,45.0228,0,0.000885,0,0
0:3:12.573,353.896,45.0572,0,0.000885,0,0
0:3:12.873,354.483,45.1331,0,0.000885,0,0
0:3:13.165,355.364,45.2434,0,0.000885,0,0
0:3:13.463,355.773,45.2986,0,0.000885,0,0
0:3:13.772,356.948,45.4502,0,0.000885,0,0
0:3:14.062,357.005,45.4571,0,0.000885,0,0
0:3:14.361,357.535,45.5192,0,0.000885,0,0
0:3:14.654,358.06,45.5881,0,0.000885,0,0
0:3:14.961,358.531,45.6502,0,0.000885,0,0
0:3:15.270,359.412,45.7605,0,0.000885,0,0
0:3:15.569,359.528,45.7743,0,0.000885,0,0
0:3:15.873,360.173,45.857,0,0.000885,0,0
0:3:16.172,361.053,45.9673,0,0.000885,0,0
0:3:16.474,361.52,46.0294,0,0.000885,0,0
0:3:16.774,362.401,46.1397,0,0.000885,0,0
0:3:17.071,362.93,46.2087,0,0.000885,0,0
0:3:17.366,363.282,46.2569,0,0.000885,0,0
0:3:17.660,363.985,46.3466,0,0.000885,0,0
0:3:17.961,364.572,46.4155,0,0.000885,0,0
0:3:18.275,364.808,46.45,0,0.000885,0,0
0:3:18.572,365.684,46.5603,0,0.000885,0,0
0:3:18.870,366.271,46.6361,0,0.000885,0,0
0:3:19.173,367.036,46.7327,0,0.000885,0,0
0:3:19.474,367.623,46.8085,0,0.000885,0,0
0:3:19.777,368.442,46.9119,0,0.000885,0,0
0:3:20.075,368.62,46.9326,0,0.000885,0,0
0:3:20.370,369.265,47.0153,0,0.000885,0,0
0:3:20.671,369.967,47.105,0,0.000885,0,0
0:3:20.975,370.025,47.1119,0,0.000885,0,0
0:3:21.275,371.022,47.2429,0,0.000885,0,0
0:3:21.575,371.902,47.3532,0,0.000885,0,0
0:3:21.876,372.254,47.3946,0,0.000885,0,0
0:3:22.175,373.135,47.5118,0,0.000885,0,0
0:3:22.471,373.428,47.5462,0,0.000885,0,0
0:3:22.764,373.486,47.5531,0,0.000885,0,0
0:3:23.063,374.131,47.6359,0,0.000885,0,0
0:3:23.356,375.305,47.7876,0,0.000885,0,0
0:3:23.655,375.479,47.8082,0,0.000885,0,0
0:3:23.972,376.244,47.9048,0,0.000885,0,0
0:3:24.266,377.356,48.0496,0,0.000885,0,0
0:3:24.562,377.65,48.084,0,0.000885,0,0
0:3:24.858,378.179,48.153,0,0.000885,0,0
0:3:25.157,378.824,48.2357,0,0.000885,0,0
0:3:25.461,379.291,48.2909,0,0.000885,0,0
0:3:25.761,379.291,48.2909,0,0.000885,0,0
0:3:26.062,380.875,48.4977,0,0.000885,0,0
0:3:26.363,381.23,48.5391,0,0.000885,0,0
0:3:26.662,381.23,48.5391,0,0.000885,0,0
0:3:26.957,382.227,48.6632,0,0.000885,0,0
0:3:27.257,382.52,48.7046,0,0.000885,0,0
0:3:27.560,383.339,48.808,0,0.000885,0,0
0:3:27.856,384.398,48.9459,0,0.000885,0,0
0:3:28.152,384.398,48.9459,0,0.000885,0,0
0:3:28.465,384.687,48.9804,0,0.000885,0,0
0:3:28.765,385.452,49.0769,0,0.000885,0,0
0:3:29.067,386.506,49.2148,0,0.000885,0,0
0:3:29.367,386.857,49.2561,0,0.000885,0,0
0:3:29.662,387.271,49.3113,0,0.000885,0,0
0:3:29.958,388.09,49.4147,0,0.000885,0,0
0:3:30.256,389.38,49.5802,0,0.000885,0,0
0:3:30.558,389.38,49.5802,0,0.000885,0,0
0:3:30.860,390.202,49.6836,0,0.000885,0,0
0:3:31.163,390.612,49.7319,0,0.000885,0,0
0:3:31.461,391.315,49.8215,0,0.000885,0,0
0:3:31.764,392.08,49.918,0,0.000885,0,0
0:3:32.077,392.195,49.9387,0,0.000885,0,0
0:3:32.377,392.253,49.9456,0,0.000885,0,0
0:3:32.679,393.312,50.0766,0,0.000885,0,0
0:3:32.978,393.899,50.1525,0,0.000885,0,0
0:3:33.272,394.366,50.2145,0,0.000885,0,0
0:3:33.567,394.895,50.2766,0,0.000885,0,0
0:3:33.865,395.54,50.3593,0,0.000885,0,0
0:3:34.167,396.185,50.442,0,0.000885,0,0
0:3:34.468,397.124,50.5661,0,0.000885,0,0
0:3:34.773,397.355,50.5937,0,0.000885,0,0
0:3:35.068,397.942,50.6696,0,0.000885,0,0
0:3:35.365,398.65,50.7592,0,0.000885,0,0
0:3:35.667,399.526,50.8695,0,0.000885,0,0
0:3:35.972,399.997,50.9316,0,0.000885,0,0
0:3:36.273,400.291,50.966,0,0.000885,0,0
0:3:36.572,400.936,51.0488,0,0.000885,0,0
0:3:36.874,401.581,51.1315,0,0.000885,0,0
0:3:37.178,402.462,51.2418,0,0.000885,0,0
0:3:37.476,402.52,51.2487,0,0.000885,0,0
0:3:37.768,403.28,51.3453,0,0.000885,0,0
0:3:38.068,403.458,51.3728,0,0.000885,0,0
0:3:38.362,404.219,51.4694,0,0.000885,0,0
0:3:38.660,405.157,51.5866,0,0.000885,0,0
0:3:38.968,406.096,51.7038,0,0.000885,0,0
0:3:39.272,406.919,51.8072,0,0.000885,0,0
0:3:39.571,407.092,51.8348,0,0.000885,0,0
0:3:39.875,407.973,51.9451,0,0.000885,0,0
0:3:40.173,408.209,51.9727,0,0.000885,0,0
0:3:40.466,408.734,52.0416,0,0.000885,0,0
0:3:40.767,409.147,52.0968,0,0.000885,0,0
0:3:41.074,410.317,52.2416,0,0.000885,0,0
0:3:41.373,410.611,52.2829,0,0.000885,0,0
0:3:41.672,410.847,52.3105,0,0.000885,0,0
0:3:41.974,411.492,52.3933,0,0.000885,0,0
0:3:42.279,412.079,52.4691,0,0.000885,0,0
0:3:42.577,412.724,52.5518,0,0.000885,0,0
0:3:42.872,413.547,52.6553,0,0.000885,0,0
0:3:43.172,414.192,52.738,0,0.000885,0,0
0:3:43.474,414.717,52.8001,0,0.000885,0,0
0:3:43.772,415.362,52.8828,0,0.000885,0,0
0:3:44.067,415.891,52.9517,0,0.000885,0,0
0:3:44.362,416.478,53.0276,0,0.000885,0,0
0:3:44.660,417.003,53.0965,0,0.000885,0,0
0:3:44.955,417.532,53.1586,0,0.000885,0,0
0:3:45.255,417.942,53.2137,0,0.000885,0,0
0:3:45.558,418.587,53.2965,0,0.000885,0,0
0:3:45.861,419.116,53.3654,0,0.000885,0,0
0:3:46.161,419.939,53.4688,0,0.000885,0,0
0:3:46.462,420.348,53.5171,0,0.000885,0,0
0:3:46.762,421.287,53.6412,0,0.000885,0,0
0:3:47.064,421.638,53.6826,0,0.000885,0,0
0:3:47.364,422.167,53.7515,0,0.000885,0,0
0:3:47.659,423.048,53.8618,0,0.000885,0,0
0:3:47.962,423.164,53.8756,0,0.000885,0,0
0:3:48.260,424.102,53.9997,0,0.000885,0,0
0:3:48.554,424.569,54.0549,0,0.000885,0,0
0:3:48.854,425.628,54.1928,0,0.000885,0,0
0:3:49.166,426.037,54.248,0,0.000885,0,0
0:3:49.464,426.153,54.2617,0,0.000885,0,0
0:3:49.760,426.331,54.2824,0,0.000885,0,0
0:3:50.064,427.212,54.3927,0,0.000885,0,0
0:3:50.364,427.799,54.4686,0,0.000885,0,0
0:3:50.665,428.444,54.5513,0,0.000885,0,0
0:3:50.969,428.969,54.6203,0,0.000885,0,0
0:3:51.268,430.259,54.7857,0,0.000885,0,0
0:3:51.570,430.552,54.8202,0,0.000885,0,0
0:3:51.870,431.082,54.8892,0,0.000885,0,0
0:3:52.164,432.194,55.0271,0,0.000885,0,0
0:3:52.465,432.781,55.1029,0,0.000885,0,0
0:3:52.780,432.901,55.1167,0,0.000885,0,0
0:3:53.076,433.195,55.1581,0,0.000885,0,0
0:3:53.374,433.955,55.2546,0,0.000885,0,0
0:3:53.667,434.778,55.358,0,0.000885,0,0
0:3:53.968,435.067,55.3925,0,0.000885,0,0
0:3:54.268,435.597,55.4614,0,0.000885,0,0
0:3:54.568,435.774,55.4821,0,0.000885,0,0
0:3:54.875,436.535,55.5786,0,0.000885,0,0
0:3:55.169,437.416,55.6958,0,0.000885,0,0
0:3:55.467,438.061,55.7786,0,0.000885,0,0
0:3:55.767,438.822,55.8751,0,0.000885,0,0
0:3:56.071,439.467,55.9579,0,0.000885,0,0
0:3:56.373,439.88,56.0061,0,0.000885,0,0
0:3:56.674,440.583,56.0957,0,0.000885,0,0
0:3:56.974,441.344,56.1923,0,0.000885,0,0
0:3:57.278,441.637,56.2336,0,0.000885,0,0
0:3:57.578,442.518,56.344,0,0.000885,0,0
0:3:57.868,442.812,56.3784,0,0.000885,0,0
0:3:58.168,443.514,56.4681,0,0.000885,0,0
0:3:58.462,444.044,56.537,0,0.000885,0,0
0:3:58.759,444.689,56.6197,0,0.000885,0,0
0:3:59.058,445.04,56.6611,0,0.000885,0,0
0:3:59.360,445.743,56.7507,0,0.000885,0,0
0:3:59.661,446.152,56.8059,0,0.000885,0,0
0:3:59.976,446.859,56.8955,0,0.000885,0,0
0:4:0.276,447.327,56.9576,0,0.000885,0,0
0:4:0.579,448.385,57.0886,0,0.000885,0,0
0:4:0.881,448.443,57.0955,0,0.000885,0,0
0:4:1.182,449.088,57.1782,0,0.000885,0,0
0:4:1.482,450.142,57.3161,0,0.000885,0,0
0:4:1.781,450.436,57.3506,0,0.000885,0,0
0:4:2.076,450.903,57.4126,0,0.000885,0,0
0:4:2.369,451.61,57.5023,0,0.000885,0,0
0:4:2.668,451.962,57.5436,0,0.000885,0,0
0:4:2.970,452.958,57.6746,0,0.000885,0,0
0:4:3.274,453.781,57.7781,0,0.000885,0,0
0:4:3.577,454.248,57.8332,0,0.000885,0,0
0:4:3.872,454.364,57.8539,0,0.000885,0,0
0:4:4.168,455.244,57.9642,0,0.000885,0,0
0:4:4.464,455.596,58.0056,0,0.000885,0,0
0:4:4.762,456.303,58.0952,0,0.000885,0,0
0:4:5.055,456.77,58.1573,0,0.000885,0,0
0:4:5.356,457.237,58.2193,0,0.000885,0,0
0:4:5.658,458.238,58.3434,0,0.000885,0,0
0:4:5.960,458.705,58.4055,0,0.000885,0,0
0:4:6.261,459.47,58.502,0,0.000885,0,0
0:4:6.561,459.937,58.5641,0,0.000885,0,0
0:4:6.861,460.582,58.6399,0,0.000885,0,0
0:4:7.176,461.054,58.702,0,0.000885,0,0
0:4:7.475,461.757,58.7916,0,0.000885,0,0
0:4:7.769,462.637,58.9019,0,0.000885,0,0
0:4:8.075,463.34,58.9915,0,0.000885,0,0
0:4:8.371,463.282,58.9846,0,0.000885,0,0
0:4:8.665,463.749,59.0467,0,0.000885,0,0
0:4:8.966,464.572,59.1501,0,0.000885,0,0
0:4:9.268,465.275,59.2398,0,0.000885,0,0
0:4:9.577,466.214,59.357,0,0.000885,0,0
0:4:9.884,466.565,59.4052,0,0.000885,0,0
0:4:10.177,466.974,59.4604,0,0.000885,0,0
0:4:10.478,467.677,59.55,0,0.000885,0,0
0:4:10.781,468.091,59.5983,0,0.000885,0,0
0:4:11.083,468.794,59.6879,0,0.000885,0,0
0:4:11.384,469.261,59.75,0,0.000885,0,0
0:4:11.684,470.026,59.8465,0,0.000885,0,0
0:4:11.985,470.786,59.943,0,0.000885,0,0
0:4:12.278,471.022,59.9706,0,0.000885,0,0
0:4:12.577,471.845,60.074,0,0.000885,0,0
0:4:12.869,472.019,60.1016,0,0.000885,0,0
0:4:13.178,472.957,60.2188,0,0.000885,0,0
0:4:13.472,473.309,60.2671,0,0.000885,0,0
0:4:13.778,473.896,60.336,0,0.000885,0,0
0:4:14.079,474.367,60.3981,0,0.000885,0,0
0:4:14.371,476.009,60.6049,0,0.000885,0,0
0:4:14.667,476.36,60.6532,0,0.000885,0,0
0:4:14.964,476.302,60.6463,0,0.000885,0,0
0:4:15.266,476.947,60.729,0,0.000885,0,0
0:4:15.566,477.472,60.7911,0,0.000885,0,0
0:4:15.867,478.589,60.9359,0,0.000885,0,0
0:4:16.170,478.882,60.9703,0,0.000885,0,0
0:4:16.469,479.234,61.0186,0,0.000885,0,0
0:4:16.771,479.763,61.0875,0,0.000885,0,0
0:4:17.071,480.288,61.1496,0,0.000885,0,0
0:4:17.377,480.991,61.2392,0,0.000885,0,0
0:4:17.676,481.636,61.322,0,0.000885,0,0
0:4:17.967,482.049,61.3771,0,0.000885,0,0
0:4:18.265,482.752,61.4668,0,0.000885,0,0
0:4:18.562,483.281,61.5357,0,0.000885,0,0
0:4:18.866,484.042,61.6322,0,0.000885,0,0
0:4:19.165,484.514,61.6874,0,0.000885,0,0
0:4:19.480,485.452,61.8115,0,0.000885,0,0
0:4:19.778,486.097,61.8942,0,0.000885,0,0
0:4:20.085,486.858,61.9908,0,0.000885,0,0
0:4:20.385,487.445,62.0666,0,0.000885,0,0
0:4:20.688,487.619,62.0873,0,0.000885,0,0
0:4:20.988,488.263,62.17,0,0.000885,0,0
0:4:21.290,488.619,62.2114,0,0.000885,0,0
0:4:21.590,489.438,62.3148,0,0.000885,0,0
0:4:21.884,490.083,62.3976,0,0.000885,0,0
0:4:22.184,490.612,62.4665,0,0.000885,0,0
0:4:22.478,491.079,62.5286,0,0.000885,0,0
0:4:22.777,491.551,62.5837,0,0.000885,0,0
0:4:23.081,491.96,62.6389,0,0.000885,0,0
0:4:23.378,492.489,62.7078,0,0.000885,0,0
0:4:23.674,493.486,62.8319,0,0.000885,0,0
0:4:23.979,494.189,62.9216,0,0.000885,0,0
0:4:24.278,495.305,63.0663,0,0.000885,0,0
0:4:24.571,495.83,63.1284,0,0.000885,0,0
0:4:24.868,496.359,63.1973,0,0.000885,0,0
0:4:25.164,496.595,63.2249,0,0.000885,0,0
0:4:25.464,497.298,63.3146,0,0.000885,0,0
0:4:25.767,497.707,63.3697,0,0.000885,0,0
0:4:26.068,498.179,63.4318,0,0.000885,0,0
0:4:26.368,498.53,63.4731,0,0.000885,0,0
0:4:26.669,499.291,63.5697,0,0.000885,0,0
0:4:26.964,500.171,63.6869,0,0.000885,0,0
0:4:27.264,500.287,63.7007,0,0.000885,0,0
0:4:27.566,500.932,63.7834,0,0.000885,0,0
0:4:27.866,501.639,63.873,0,0.000885,0,0
0:4:28.170,502.4,63.9696,0,0.000885,0,0
0:4:28.466,503.161,64.0661,0,0.000885,0,0
0:4:28.764,503.748,64.1419,0,0.000885,0,0
0:4:29.057,504.335,64.2109,0,0.000885,0,0
0:4:29.357,504.571,64.2453,0,0.000885,0,0
0:4:29.652,505.389,64.3488,0,0.000885,0,0
0:4:29.948,505.683,64.3832,0,0.000885,0,0
0:4:30.245,506.39,64.4729,0,0.000885,0,0
0:4:30.547,506.741,64.5211,0,0.000885,0,0
0:4:30.851,507.266,64.5901,0,0.000885,0,0
0:4:31.150,508.441,64.7349,0,0.000885,0,0
0:4:31.451,508.97,64.8038,0,0.000885,0,0
0:4:31.751,509.731,64.9004,0,0.000885,0,0
0:4:32.046,510.14,64.9555,0,0.000885,0,0
0:4:32.345,510.433,64.99,0,0.000885,0,0
0:4:32.637,510.789,65.0382,0,0.000885,0,0
0:4:32.937,511.434,65.121,0,0.000885,0,0
0:4:33.233,512.017,65.1899,0,0.000885,0,0
0:4:33.529,513.018,65.3209,0,0.000885,0,0
0:4:33.829,513.778,65.4175,0,0.000885,0,0
0:4:34.123,514.366,65.4933,0,0.000885,0,0
0:4:34.421,514.833,65.5485,0,0.000885,0,0
0:4:34.715,515.068,65.5829,0,0.000885,0,0
0:4:35.012,516.065,65.707,0,0.000885,0,0
0:4:35.310,516.185,65.7208,0,0.000885,0,0
0:4:35.612,517.003,65.8242,0,0.000885,0,0
0:4:35.915,517.061,65.8311,0,0.000885,0,0
0:4:36.214,517.769,65.9208,0,0.000885,0,0
0:4:36.514,518.529,66.0242,0,0.000885,0,0
0:4:36.817,519.29,66.1207,0,0.000885,0,0
0:4:37.110,519.761,66.1759,0,0.000885,0,0
0:4:37.410,520.406,66.2586,0,0.000885,0,0
0:4:37.703,520.758,66.3069,0,0.000885,0,0
0:4:38.002,521.812,66.4379,0,0.000885,0,0
0:4:38.297,522.399,66.5137,0,0.000885,0,0
0:4:38.594,522.928,66.5827,0,0.000885,0,0
0:4:38.891,523.458,66.6516,0,0.000885,0,0
0:4:39.184,523.573,66.6654,0,0.000885,0,0
0:4:39.484,524.218,66.7481,0,0.000885,0,0
0:4:39.779,525.451,66.8998,0,0.000885,0,0
0:4:40.073,526.153,66.9895,0,0.000885,0,0
0:4:40.382,526.914,67.086,0,0.000885,0,0
0:4:40.683,526.683,67.0584,0,0.000885,0,0
0:4:40.985,527.501,67.1618,0,0.000885,0,0
0:4:41.286,528.382,67.279,0,0.000885,0,0
0:4:41.586,528.56,67.2997,0,0.000885,0,0
0:4:41.887,529.378,67.4031,0,0.000885,0,0
0:4:42.181,529.556,67.4238,0,0.000885,0,0
0:4:42.480,530.375,67.5273,0,0.000885,0,0
0:4:42.782,530.846,67.5893,0,0.000885,0,0
0:4:43.082,531.491,67.672,0,0.000885,0,0
0:4:43.374,531.843,67.7134,0,0.000885,0,0
0:4:43.672,532.488,67.7961,0,0.000885,0,0
0:4:43.971,533.72,67.9547,0,0.000885,0,0
0:4:44.272,533.893,67.9754,0,0.000885,0,0
0:4:44.571,534.481,68.0513,0,0.000885,0,0
0:4:44.865,534.894,68.1064,0,0.000885,0,0
0:4:45.166,535.539,68.1891,0,0.000885,0,0
0:4:45.470,536.242,68.2788,0,0.000885,0,0
0:4:45.771,537.123,68.3891,0,0.000885,0,0
0:4:46.072,537.71,68.4649,0,0.000885,0,0
0:4:46.370,538.061,68.5063,0,0.000885,0,0
0:4:46.682,538.644,68.5822,0,0.000885,0,0
0:4:46.986,538.88,68.6097,0,0.000885,0,0
0:4:47.282,539.645,68.7063,0,0.000885,0,0
0:4:47.580,540.583,68.8304,0,0.000885,0,0
0:4:47.871,540.877,68.8648,0,0.000885,0,0
0:4:48.172,541.46,68.9407,0,0.000885,0,0
0:4:48.464,542.518,69.0786,0,0.000885,0,0
0:4:48.771,542.928,69.1268,0,0.000885,0,0
0:4:49.076,543.688,69.2234,0,0.000885,0,0
0:4:49.371,543.688,69.2234,0,0.000885,0,0
0:4:49.669,544.689,69.3544,0,0.000885,0,0
0:4:49.962,545.334,69.4371,0,0.000885,0,0
0:4:50.263,545.801,69.4923,0,0.000885,0,0
0:4:50.565,546.331,69.5612,0,0.000885,0,0
0:4:50.867,546.918,69.637,0,0.000885,0,0
0:4:51.169,547.678,69.7336,0,0.000885,0,0
0:4:51.468,548.088,69.7818,0,0.000885,0,0
0:4:51.769,548.559,69.8439,0,0.000885,0,0
0:4:52.083,549.262,69.9335,0,0.000885,0,0
0:4:52.382,550.023,70.03,0,0.000885,0,0
0:4:52.688,550.73,70.1197,0,0.000885,0,0
0:4:52.983,550.961,70.1542,0,0.000885,0,0
0:4:53.282,551.726,70.2507,0,0.000885,0,0
0:4:53.584,552.136,70.2989,0,0.000885,0,0
0:4:53.882,552.723,70.3748,0,0.000885,0,0
0:4:54.174,553.661,70.492,0,0.000885,0,0
0:4:54.471,554.013,70.5403,0,0.000885,0,0
0:4:54.768,554.422,70.5885,0,0.000885,0,0
0:4:55.071,554.893,70.6506,0,0.000885,0,0
0:4:55.372,555.125,70.6782,0,0.000885,0,0
0:4:55.672,556.241,70.8229,0,0.000885,0,0
0:4:55.974,556.944,70.9126,0,0.000885,0,0
0:4:56.274,557.122,70.9333,0,0.000885,0,0
0:4:56.574,558.118,71.0643,0,0.000885,0,0
0:4:56.875,558.941,71.1677,0,0.000885,0,0
0:4:57.167,559.173,71.1953,0,0.000885,0,0
0:4:57.468,559.996,71.2987,0,0.000885,0,0
0:4:57.772,560.698,71.3883,0,0.000885,0,0
0:4:58.068,561.108,71.4435,0,0.000885,0,0
0:4:58.365,561.93,71.5469,0,0.000885,0,0
0:4:58.669,562.46,71.6158,0,0.000885,0,0
0:4:58.969,562.985,71.6848,0,0.000885,0,0
0:4:59.282,563.336,71.7262,0,0.000885,0,0
0:4:59.581,563.923,71.802,0,0.000885,0,0
0:4:59.876,564.395,71.8641,0,0.000885,0,0
0:5:0.171,564.982,71.933,0,0.000885,0,0
0:5:0.470,565.565,72.0088,0,0.000885,0,0
0:5:0.772,565.978,72.064,0,0.000885,0,0
0:5:1.073,566.859,72.1743,0,0.000885,0,0
0:5:1.374,567.504,72.2571,0,0.000885,0,0
0:5:1.673,568.265,72.3536,0,0.000885,0,0
0:5:1.974,569.088,72.457,0,0.000885,0,0
0:5:2.277,569.497,72.5122,0,0.000885,0,0
0:5:2.580,570.378,72.6225,0,0.000885,0,0
0:5:2.884,571.023,72.7052,0,0.000885,0,0
0:5:3.190,570.845,72.6845,0,0.000885,0,0
0:5:3.485,571.668,72.788,0,0.000885,0,0
0:5:3.778,568.207,72.3467,0,0.000885,0,0
0:5:4.076,567.62,72.2708,0,0.000885,0,0
0:5:4.378,567.856,72.2984,0,0.000885,0,0
0:5:4.677,569.964,72.5673,0,0.000885,0,0
0:5:4.982,571.725,72.7948,0,0.000885,0,0
0:5:5.284,573.073,72.9672,0,0.000885,0,0
0:5:5.586,574.363,73.1327,0,0.000885,0,0
0:5:5.888,575.302,73.2499,0,0.000885,0,0
0:5:6.186,577.121,73.4843,0,0.000885,0,0
0:5:6.487,577.882,73.5808,0,0.000885,0,0
0:5:6.786,578.94,73.7119,0,0.000885,0,0
0:5:7.082,579.879,73.8291,0,0.000885,0,0
0:5:7.375,580.875,73.9601,0,0.000885,0,0
0:5:7.674,581.93,74.0911,0,0.000885,0,0
0:5:7.975,582.045,74.1117,0,0.000885,0,0
0:5:8.276,582.695,74.1876,0,0.000885,0,0
0:5:8.578,582.517,74.1669,0,0.000885,0,0
0:5:8.875,583.749,74.3255,0,0.000885,0,0
0:5:9.184,583.749,74.3255,0,0.000885,0,0
0:5:9.476,584.1,74.3669,0,0.000885,0,0
0:5:9.774,584.567,74.4289,0,0.000885,0,0
0:5:10.067,585.742,74.5806,0,0.000885,0,0
0:5:10.369,585.978,74.6082,0,0.000885,0,0
0:5:10.671,586.271,74.6495,0,0.000885,0,0
0:5:10.973,586.974,74.7392,0,0.000885,0,0
0:5:11.272,586.916,74.7254,0,0.000885,0,0
0:5:11.573,553.016,70.4093,0,0.000885,0,0
0:5:11.872,538.119,68.5132,0,0.000885,0,0
0:5:12.186,536.829,68.3477,0,0.000885,0,0
0:5:12.484,536.415,68.2995,0,0.000885,0,0
0:5:12.789,535.539,68.1891,0,0.000885,0,0
0:5:13.082,533.72,67.9547,0,0.000885,0,0
0:5:13.378,532.252,67.7686,0,0.000885,0,0
0:5:13.682,531.371,67.6583,0,0.000885,0,0
0:5:13.979,530.023,67.4859,0,0.000885,0,0
0:5:14.284,529.436,67.41,0,0.000885,0,0
0:5:14.589,528.733,67.3204,0,0.000885,0,0
0:5:14.888,528.382,67.279,0,0.000885,0,0
0:5:15.176,522.986,66.5896,0,0.000885,0,0
0:5:15.476,514.481,65.5071,0,0.000885,0,0
0:5:15.779,509.437,64.8659,0,0.000885,0,0
0:5:16.078,508.031,64.6866,0,0.000885,0,0
0:5:16.382,507.266,64.5901,0,0.000885,0,0
0:5:16.679,506.506,64.4936,0,0.000885,0,0
0:5:16.979,504.686,64.2591,0,0.000885,0,0
0:5:17.283,503.868,64.1557,0,0.000885,0,0
0:5:17.591,504.041,64.1764,0,0.000885,0,0
0:5:17.886,504.219,64.1971,0,0.000885,0,0
0:5:18.189,503.748,64.1419,0,0.000885,0,0
0:5:18.487,503.868,64.1557,0,0.000885,0,0
0:5:18.778,504.455,64.2316,0,0.000885,0,0
0:5:19.078,504.686,64.2591,0,0.000885,0,0
0:5:19.380,504.864,64.2798,0,0.000885,0,0
0:5:19.676,505.158,64.3212,0,0.000885,0,0
0:5:19.984,484.803,61.7288,0,0.000885,0,0
0:5:20.286,478.059,60.8669,0,0.000885,0,0
0:5:20.588,475.479,60.5429,0,0.000885,0,0
0:5:20.888,474.247,60.3843,0,0.000885,0,0
0:5:21.188,473.073,60.2326,0,0.000885,0,0
0:5:21.487,472.784,60.1981,0,0.000885,0,0
0:5:21.791,471.961,60.0947,0,0.000885,0,0
0:5:22.089,471.138,59.9844,0,0.000885,0,0
0:5:22.379,471.022,59.9706,0,0.000885,0,0
0:5:22.679,470.786,59.943,0,0.000885,0,0
0:5:22.983,470.435,59.8948,0,0.000885,0,0
0:5:23.279,470.729,59.9361,0,0.000885,0,0
0:5:23.586,470.377,59.8879,0,0.000885,0,0
0:5:23.877,470.141,59.8603,0,0.000885,0,0
0:5:24.175,469.617,59.7913,0,0.000885,0,0
0:5:24.478,464.394,59.1294,0,0.000885,0,0
0:5:24.776,462.869,58.9364,0,0.000885,0,0
0:5:25.079,462.344,58.8674,0,0.000885,0,0
0:5:25.380,461.872,58.8054,0,0.000885,0,0
0:5:25.683,461.636,58.7778,0,0.000885,0,0
0:5:25.985,461.169,58.7158,0,0.000885,0,0
0:5:26.280,460.934,58.6882,0,0.000885,0,0
0:5:26.583,460.698,58.6606,0,0.000885,0,0
0:5:26.888,460.467,58.6261,0,0.000885,0,0
0:5:27.185,460.582,58.6399,0,0.000885,0,0
0:5:27.477,460.231,58.5985,0,0.000885,0,0
0:5:27.775,460.173,58.5916,0,0.000885,0,0
0:5:28.077,459.995,58.571,0,0.000885,0,0
0:5:28.377,459.35,58.4882,0,0.000885,0,0
0:5:28.680,458.883,58.4262,0,0.000885,0,0
0:5:28.986,458.821,58.4193,0,0.000885,0,0
0:5:29.292,458.296,58.3503,0,0.000885,0,0
0:5:29.586,457.824,58.2952,0,0.000885,0,0
0:5:29.884,457.944,58.309,0,0.000885,0,0
0:5:30.188,458.002,58.3159,0,0.000885,0,0
0:5:30.489,450.32,57.3368,0,0.000885,0,0
0:5:30.790,444.982,56.6542,0,0.000885,0,0
0:5:31.090,443.105,56.4198,0,0.000885,0,0
0:5:31.389,423.164,53.8756,0,0.000885,0,0
0:5:31.449,423.164,53.8756,0,0.000885,0,0