File: DataFile2021-06-08_055033.csv
Test ID:,Date Tested:,Time:,Test Type:,Diameter Avg. (mm):,Cyl. Corr. Factor:,Height (mm):,Age (days):,Weight (kN):,Break Type:,Ramp Rate (MPa/s):,Load at Break (kN):,Stress at Break (MPa):
12,6/8/2021,05:50,Cylinder,150,1,300,0,3.6,6,0.24,769.17,43.53
Sample Time,Load (kN),Stress (MPa),Long. Strain,Trans. Strain,Chan1 Deflection (mm),Chan2 Deflection (mm)
0:0:8.999,9.09216,0.517107,0,0.000885,0,0
0:0:9.193,13.8429,0.786002,0,0.000885,0,0
0:0:9.393,15.9513,0.903213,0,0.000885,0,0
0:0:9.602,15.9513,0.903213,0,0.000885,0,0
0:0:9.800,15.6577,0.889424,0,0.000885,0,0
0:0:10.000,15.4264,0.875634,0,0.000885,0,0
0:0:10.206,14.8971,0.84116,0,0.000885,0,0
0:0:10.407,14.8393,0.84116,0,0.000885,0,0
0:0:10.604,14.7192,0.834266,0,0.000885,0,0
0:0:10.801,14.6613,0.827371,0,0.000885,0,0
0:0:11.003,14.6613,0.827371,0,0.000885,0,0
0:0:11.196,15.075,0.85495,0,0.000885,0,0
0:0:11.396,15.4843,0.875634,0,0.000885,0,0
0:0:11.606,15.72,0.889424,0,0.000885,0,0
0:0:11.802,16.4228,0.930792,0,0.000885,0,0
0:0:12.003,17.1835,0.972161,0,0.000885,0,0
0:0:12.200,18.2422,1.03421,0,0.000885,0,0
0:0:12.401,19.0028,1.07558,0,0.000885,0,0
0:0:12.601,20.9378,1.1859,0,0.000885,0,0
0:0:12.794,21.4671,1.21348,0,0.000885,0,0
0:0:12.995,23.2242,1.3169,0,0.000885,0,0
0:0:13.193,24.2828,1.37206,0,0.000885,0,0
0:0:13.394,25.7463,1.45479,0,0.000885,0,0
0:0:13.594,26.805,1.51685,0,0.000885,0,0
0:0:13.802,27.917,1.5789,0,0.000885,0,0
0:0:14.003,28.5042,1.61337,0,0.000885,0,0
0:0:14.201,28.8556,1.63406,0,0.000885,0,0
0:0:14.400,29.6207,1.67543,0,0.000885,0,0
0:0:14.602,29.9098,1.68922,0,0.000885,0,0
0:0:14.805,30.6749,1.73748,0,0.000885,0,0
0:0:15.008,31.6135,1.78574,0,0.000885,0,0
0:0:15.211,32.6099,1.84779,0,0.000885,0,0
0:0:15.414,33.1393,1.87537,0,0.000885,0,0
0:0:15.616,34.4292,1.95122,0,0.000885,0,0
0:0:15.817,35.3055,1.99948,0,0.000885,0,0
0:0:16.020,36.6578,2.07532,0,0.000885,0,0
0:0:16.220,37.1249,2.1029,0,0.000885,0,0
0:0:16.417,38.1213,2.15806,0,0.000885,0,0
0:0:16.619,38.4727,2.17874,0,0.000885,0,0
0:0:16.817,40.2342,2.27527,0,0.000885,0,0
0:0:17.016,40.9948,2.31664,0,0.000885,0,0
0:0:17.218,42.3471,2.39938,0,0.000885,0,0
0:0:17.412,42.6985,2.41317,0,0.000885,0,0
0:0:17.614,44.1041,2.4959,0,0.000885,0,0
0:0:17.812,43.9306,2.48901,0,0.000885,0,0
0:0:18.009,44.5756,2.52348,0,0.000885,0,0
0:0:18.212,45.572,2.57864,0,0.000885,0,0
0:0:18.407,46.7464,2.64759,0,0.000885,0,0
0:0:18.608,47.5648,2.68896,0,0.000885,0,0
0:0:18.807,48.5612,2.75101,0,0.000885,0,0
0:0:19.004,49.2685,2.78548,0,0.000885,0,0
0:0:19.207,50.3227,2.84753,0,0.000885,0,0
0:0:19.409,51.6127,2.92338,0,0.000885,0,0
0:0:19.613,52.3155,2.95785,0,0.000885,0,0
0:0:19.815,53.432,3.0268,0,0.000885,0,0
0:0:20.017,53.6633,3.03369,0,0.000885,0,0
0:0:20.220,55.1313,3.11643,0,0.000885,0,0
0:0:20.420,55.9542,3.16469,0,0.000885,0,0
0:0:20.623,56.7727,3.21296,0,0.000885,0,0
0:0:20.826,57.1863,3.23364,0,0.000885,0,0
0:0:21.020,58.2984,3.29569,0,0.000885,0,0
0:0:21.222,59.1213,3.34396,0,0.000885,0,0
0:0:21.421,60.0599,3.39912,0,0.000885,0,0
0:0:21.617,60.7627,3.44048,0,0.000885,0,0
0:0:21.820,61.7013,3.48875,0,0.000885,0,0
0:0:22.016,62.582,3.54391,0,0.000885,0,0
0:0:22.217,64.0455,3.62664,0,0.000885,0,0
0:0:22.417,64.6327,3.65422,0,0.000885,0,0
0:0:22.613,65.8648,3.73006,0,0.000885,0,0
0:0:22.815,66.2162,3.74385,0,0.000885,0,0
0:0:23.013,67.3906,3.8128,0,0.000885,0,0
0:0:23.213,68.0355,3.84727,0,0.000885,0,0
0:0:23.414,69.6191,3.93691,0,0.000885,0,0
0:0:23.609,69.9705,3.95759,0,0.000885,0,0
0:0:23.812,70.9091,4.01275,0,0.000885,0,0
0:0:24.010,71.6119,4.05412,0,0.000885,0,0
0:0:24.208,72.1413,4.0817,0,0.000885,0,0
0:0:24.410,72.9597,4.12996,0,0.000885,0,0
0:0:24.613,73.5469,4.16443,0,0.000885,0,0
0:0:24.817,74.8947,4.24028,0,0.000885,0,0
0:0:25.020,76.1269,4.30922,0,0.000885,0,0
0:0:25.222,77.2434,4.37128,0,0.000885,0,0
0:0:25.423,77.7104,4.39886,0,0.000885,0,0
0:0:25.627,78.8269,4.46091,0,0.000885,0,0
0:0:25.829,79.294,4.48849,0,0.000885,0,0
0:0:26.027,80.5262,4.55743,0,0.000885,0,0
0:0:26.226,81.5226,4.61259,0,0.000885,0,0
0:0:26.428,82.5812,4.67465,0,0.000885,0,0
0:0:26.624,83.0483,4.70222,0,0.000885,0,0
0:0:26.823,84.0447,4.75738,0,0.000885,0,0
0:0:27.023,84.8098,4.79875,0,0.000885,0,0
0:0:27.221,86.509,4.89528,0,0.000885,0,0
0:0:27.423,86.9183,4.91596,0,0.000885,0,0
0:0:27.621,87.6833,4.96423,0,0.000885,0,0
0:0:27.818,88.2705,4.9918,0,0.000885,0,0
0:0:28.020,88.7954,5.02628,0,0.000885,0,0
0:0:28.217,89.3826,5.06075,0,0.000885,0,0
0:0:28.419,91.0862,5.15728,0,0.000885,0,0
0:0:28.616,91.7891,5.19175,0,0.000885,0,0
0:0:28.813,93.1369,5.26759,0,0.000885,0,0
0:0:29.016,93.5461,5.29517,0,0.000885,0,0
0:0:29.212,94.369,5.34344,0,0.000885,0,0
0:0:29.414,96.0104,5.43307,0,0.000885,0,0
0:0:29.616,97.0646,5.49512,0,0.000885,0,0
0:0:29.820,97.7096,5.5296,0,0.000885,0,0
0:0:30.021,97.7096,5.5296,0,0.000885,0,0
0:0:30.225,99.0041,5.60544,0,0.000885,0,0
0:0:30.427,99.5868,5.63302,0,0.000885,0,0
0:0:30.629,100.761,5.70196,0,0.000885,0,0
0:0:30.829,101.348,5.73644,0,0.000885,0,0
0:0:31.031,102.874,5.81918,0,0.000885,0,0
0:0:31.228,103.519,5.86054,0,0.000885,0,0
0:0:31.427,104.4,5.90881,0,0.000885,0,0
0:0:31.629,105.57,5.97086,0,0.000885,0,0
0:0:31.825,106.566,6.03291,0,0.000885,0,0
0:0:32.026,106.98,6.0536,0,0.000885,0,0
0:0:32.224,108.328,6.12944,0,0.000885,0,0
0:0:32.421,108.621,6.15012,0,0.000885,0,0
0:0:32.622,109.733,6.21218,0,0.000885,0,0
0:0:32.819,109.969,6.22597,0,0.000885,0,0
0:0:33.020,111.317,6.30181,0,0.000885,0,0
0:0:33.220,111.788,6.32249,0,0.000885,0,0
0:0:33.416,113.487,6.41902,0,0.000885,0,0
0:0:33.618,113.901,6.4466,0,0.000885,0,0
0:0:33.816,114.84,6.50176,0,0.000885,0,0
0:0:34.015,116.361,6.58449,0,0.000885,0,0
0:0:34.217,116.833,6.61207,0,0.000885,0,0
0:0:34.421,117.651,6.66034,0,0.000885,0,0
0:0:34.624,118.416,6.7017,0,0.000885,0,0
0:0:34.827,119.119,6.74307,0,0.000885,0,0
0:0:35.029,120.293,6.80513,0,0.000885,0,0
0:0:35.231,120.587,6.82581,0,0.000885,0,0
0:0:35.433,121.525,6.87407,0,0.000885,0,0
0:0:35.635,122.402,6.92923,0,0.000885,0,0
0:0:35.833,123.403,6.98439,0,0.000885,0,0
0:0:36.031,124.75,7.06023,0,0.000885,0,0
0:0:36.234,125.217,7.08781,0,0.000885,0,0
0:0:36.428,126.685,7.17055,0,0.000885,0,0
0:0:36.629,127.095,7.19123,0,0.000885,0,0
0:0:36.830,128.033,7.24639,0,0.000885,0,0
0:0:37.026,128.972,7.30155,0,0.000885,0,0
0:0:37.229,130.204,7.3705,0,0.000885,0,0
0:0:37.424,130.613,7.39118,0,0.000885,0,0
0:0:37.625,132.139,7.48081,0,0.000885,0,0
0:0:37.826,132.375,7.48771,0,0.000885,0,0
0:0:38.021,133.78,7.57044,0,0.000885,0,0
0:0:38.224,134.31,7.59802,0,0.000885,0,0
0:0:38.421,135.306,7.66008,0,0.000885,0,0
0:0:38.620,136.302,7.71523,0,0.000885,0,0
0:0:38.821,136.832,7.74281,0,0.000885,0,0
0:0:39.017,137.77,7.79797,0,0.000885,0,0
0:0:39.219,138.531,7.83934,0,0.000885,0,0
0:0:39.421,139.763,7.90829,0,0.000885,0,0
0:0:39.626,140.528,7.94966,0,0.000885,0,0
0:0:39.828,141.405,8.00481,0,0.000885,0,0
0:0:40.030,142.579,8.06687,0,0.000885,0,0
0:0:40.233,143.869,8.14271,0,0.000885,0,0
0:0:40.435,144.572,8.18408,0,0.000885,0,0
0:0:40.636,145.804,8.25302,0,0.000885,0,0
0:0:40.838,146.275,8.2806,0,0.000885,0,0
0:0:41.035,147.445,8.34266,0,0.000885,0,0
0:0:41.236,147.739,8.36334,0,0.000885,0,0
0:0:41.435,148.913,8.42539,0,0.000885,0,0
0:0:41.633,149.029,8.43229,0,0.000885,0,0
0:0:41.834,149.852,8.48055,0,0.000885,0,0
0:0:42.029,150.497,8.51503,0,0.000885,0,0
0:0:42.231,152.258,8.61845,0,0.000885,0,0
0:0:42.430,152.845,8.64603,0,0.000885,0,0
0:0:42.628,153.664,8.69429,0,0.000885,0,0
0:0:42.830,154.545,8.74255,0,0.000885,0,0
0:0:43.025,155.95,8.82529,0,0.000885,0,0
0:0:43.226,156.302,8.84597,0,0.000885,0,0
0:0:43.428,157.654,8.92182,0,0.000885,0,0
0:0:43.623,158.415,8.96318,0,0.000885,0,0
0:0:43.826,158.472,8.97008,0,0.000885,0,0
0:0:44.019,160.292,9.0735,0,0.000885,0,0
0:0:44.220,160.701,9.09418,0,0.000885,0,0
0:0:44.422,162.462,9.19071,0,0.000885,0,0
0:0:44.627,163.165,9.23208,0,0.000885,0,0
0:0:44.830,163.695,9.26655,0,0.000885,0,0
0:0:45.032,164.046,9.28034,0,0.000885,0,0
0:0:45.235,165.278,9.35619,0,0.000885,0,0
0:0:45.437,165.803,9.38376,0,0.000885,0,0
0:0:45.638,167.097,9.45271,0,0.000885,0,0
0:0:45.840,167.68,9.48719,0,0.000885,0,0
0:0:46.039,168.619,9.54234,0,0.000885,0,0
0:0:46.240,169.677,9.6044,0,0.000885,0,0
0:0:46.441,170.789,9.66645,0,0.000885,0,0
0:0:46.637,171.141,9.68713,0,0.000885,0,0
0:0:46.839,172.609,9.76987,0,0.000885,0,0
0:0:47.036,173.369,9.81124,0,0.000885,0,0
0:0:47.235,174.659,9.88708,0,0.000885,0,0
0:0:47.436,175.54,9.93535,0,0.000885,0,0
0:0:47.633,176.305,9.97671,0,0.000885,0,0
0:0:47.835,177.302,10.0319,0,0.000885,0,0
0:0:48.032,178.062,10.0732,0,0.000885,0,0
0:0:48.231,179.117,10.1353,0,0.000885,0,0
0:0:48.432,179.53,10.156,0,0.000885,0,0
0:0:48.628,180.469,10.2111,0,0.000885,0,0
0:0:48.829,180.936,10.2387,0,0.000885,0,0
0:0:49.028,182.226,10.3146,0,0.000885,0,0
0:0:49.226,182.577,10.3352,0,0.000885,0,0
0:0:49.427,184.223,10.4249,0,0.000885,0,0
0:0:49.629,184.868,10.4593,0,0.000885,0,0
0:0:49.833,185.744,10.5145,0,0.000885,0,0
0:0:50.036,186.567,10.5559,0,0.000885,0,0
0:0:50.238,187.27,10.5972,0,0.000885,0,0
0:0:50.439,188.502,10.6662,0,0.000885,0,0
0:0:50.641,189.032,10.6938,0,0.000885,0,0
0:0:50.843,190.144,10.7627,0,0.000885,0,0
0:0:51.045,190.731,10.7903,0,0.000885,0,0
0:0:51.241,191.612,10.8455,0,0.000885,0,0
0:0:51.443,192.43,10.8868,0,0.000885,0,0
0:0:51.639,193.431,10.9489,0,0.000885,0,0
0:0:51.838,194.543,11.0109,0,0.000885,0,0
0:0:52.037,194.952,11.0316,0,0.000885,0,0
0:0:52.231,196.069,11.0937,0,0.000885,0,0
0:0:52.432,196.829,11.135,0,0.000885,0,0
0:0:52.629,198.297,11.2247,0,0.000885,0,0
0:0:52.828,199.236,11.2729,0,0.000885,0,0
0:0:53.027,199.823,11.3074,0,0.000885,0,0
0:0:53.219,201.055,11.3763,0,0.000885,0,0
0:0:53.420,201.7,11.4108,0,0.000885,0,0
0:0:53.615,202.87,11.4798,0,0.000885,0,0
0:0:53.815,203.577,11.5211,0,0.000885,0,0
0:0:54.015,204.338,11.5625,0,0.000885,0,0
0:0:54.208,205.041,11.6039,0,0.000885,0,0
0:0:54.408,206.215,11.6728,0,0.000885,0,0
0:0:54.608,207.096,11.7211,0,0.000885,0,0
0:0:54.810,208.034,11.7694,0,0.000885,0,0
0:0:55.012,208.737,11.8107,0,0.000885,0,0
0:0:55.214,209.56,11.859,0,0.000885,0,0
0:0:55.413,210.379,11.9072,0,0.000885,0,0
0:0:55.613,211.553,11.9693,0,0.000885,0,0
0:0:55.814,212.198,12.0107,0,0.000885,0,0
0:0:56.013,213.137,12.0589,0,0.000885,0,0
0:0:56.211,214.191,12.121,0,0.000885,0,0
0:0:56.409,214.956,12.1624,0,0.000885,0,0
0:0:56.606,215.539,12.1968,0,0.000885,0,0
0:0:56.801,216.126,12.2313,0,0.000885,0,0
0:0:57.000,217.358,12.3002,0,0.000885,0,0
0:0:57.197,218.123,12.3416,0,0.000885,0,0
0:0:57.396,219.293,12.4106,0,0.000885,0,0
0:0:57.594,220.174,12.4588,0,0.000885,0,0
0:0:57.788,221.348,12.5278,0,0.000885,0,0
0:0:57.989,222.166,12.5691,0,0.000885,0,0
0:0:58.187,223.105,12.6243,0,0.000885,0,0
0:0:58.385,223.812,12.6657,0,0.000885,0,0
0:0:58.583,224.689,12.7139,0,0.000885,0,0
0:0:58.796,225.334,12.7484,0,0.000885,0,0
0:0:58.998,226.508,12.8174,0,0.000885,0,0
0:0:59.195,227.037,12.8449,0,0.000885,0,0
0:0:59.391,227.331,12.8656,0,0.000885,0,0
0:0:59.592,228.443,12.9277,0,0.000885,0,0
0:0:59.794,229.088,12.9621,0,0.000885,0,0
0:0:59.996,230.498,13.0449,0,0.000885,0,0
0:1:0.196,230.498,13.0449,0,0.000885,0,0
0:1:0.397,232.375,13.1483,0,0.000885,0,0
0:1:0.597,232.727,13.169,0,0.000885,0,0
0:1:0.798,234.19,13.2517,0,0.000885,0,0
0:1:0.999,234.426,13.2655,0,0.000885,0,0
0:1:1.198,236.067,13.362,0,0.000885,0,0
0:1:1.395,236.481,13.3827,0,0.000885,0,0
0:1:1.595,238.238,13.4793,0,0.000885,0,0
0:1:1.789,238.709,13.5068,0,0.000885,0,0
0:1:1.989,239.706,13.562,0,0.000885,0,0
0:1:2.195,240.409,13.6034,0,0.000885,0,0
0:1:2.393,241.289,13.6516,0,0.000885,0,0
0:1:2.593,242.228,13.7068,0,0.000885,0,0
0:1:2.788,243.398,13.7757,0,0.000885,0,0
0:1:2.986,244.163,13.8171,0,0.000885,0,0
0:1:3.185,244.981,13.8654,0,0.000885,0,0
0:1:3.379,246.04,13.9205,0,0.000885,0,0
0:1:3.580,246.04,13.9205,0,0.000885,0,0
0:1:3.794,247.739,14.017,0,0.000885,0,0
0:1:3.994,248.678,14.0722,0,0.000885,0,0
0:1:4.192,249.852,14.1411,0,0.000885,0,0
0:1:4.388,249.674,14.1274,0,0.000885,0,0
0:1:4.588,251.2,14.217,0,0.000885,0,0
0:1:4.789,251.142,14.2101,0,0.000885,0,0
0:1:4.992,252.196,14.2721,0,0.000885,0,0
0:1:5.192,253.019,14.3204,0,0.000885,0,0
0:1:5.394,254.074,14.3756,0,0.000885,0,0
0:1:5.594,254.896,14.4238,0,0.000885,0,0
0:1:5.793,255.835,14.479,0,0.000885,0,0
0:1:5.994,256.422,14.5135,0,0.000885,0,0
0:1:6.194,257.65,14.5824,0,0.000885,0,0
0:1:6.409,258.473,14.6238,0,0.000885,0,0
0:1:6.609,259.411,14.6789,0,0.000885,0,0
0:1:6.807,260.114,14.7203,0,0.000885,0,0
0:1:7.004,261.289,14.7893,0,0.000885,0,0
0:1:7.201,262.169,14.8375,0,0.000885,0,0
0:1:7.396,263.459,14.9065,0,0.000885,0,0
0:1:7.594,263.691,14.9203,0,0.000885,0,0
0:1:7.793,265.101,15.003,0,0.000885,0,0
0:1:7.988,265.336,15.0168,0,0.000885,0,0
0:1:8.189,267.271,15.1271,0,0.000885,0,0
0:1:8.383,267.916,15.1616,0,0.000885,0,0
0:1:8.581,268.441,15.1892,0,0.000885,0,0
0:1:8.782,269.5,15.2512,0,0.000885,0,0
0:1:8.976,270.145,15.2857,0,0.000885,0,0
0:1:9.176,271.257,15.3477,0,0.000885,0,0
0:1:9.377,271.608,15.3684,0,0.000885,0,0
0:1:9.581,272.725,15.4305,0,0.000885,0,0
0:1:9.782,273.192,15.458,0,0.000885,0,0
0:1:9.981,274.251,15.5201,0,0.000885,0,0
0:1:10.182,275.247,15.5753,0,0.000885,0,0
0:1:10.382,276.301,15.6373,0,0.000885,0,0
0:1:10.580,276.888,15.6718,0,0.000885,0,0
0:1:10.781,278.65,15.7683,0,0.000885,0,0
0:1:10.977,278.881,15.7821,0,0.000885,0,0
0:1:11.176,280.585,15.8786,0,0.000885,0,0
0:1:11.374,281.11,15.9062,0,0.000885,0,0
0:1:11.569,281.697,15.9407,0,0.000885,0,0
0:1:11.769,282.342,15.9752,0,0.000885,0,0
0:1:11.966,283.338,16.0372,0,0.000885,0,0
0:1:12.164,284.103,16.0786,0,0.000885,0,0
0:1:12.364,284.922,16.1268,0,0.000885,0,0
0:1:12.557,286.038,16.1889,0,0.000885,0,0
0:1:12.756,287.035,16.244,0,0.000885,0,0
0:1:12.955,288.031,16.2992,0,0.000885,0,0
0:1:13.152,288.561,16.3268,0,0.000885,0,0
0:1:13.352,289.851,16.4026,0,0.000885,0,0
0:1:13.547,290.26,16.4233,0,0.000885,0,0
0:1:13.746,291.141,16.4785,0,0.000885,0,0
0:1:13.943,291.963,16.5198,0,0.000885,0,0
0:1:14.140,292.666,16.5612,0,0.000885,0,0
0:1:14.341,293.778,16.6233,0,0.000885,0,0
0:1:14.541,294.366,16.6577,0,0.000885,0,0
0:1:14.744,295.776,16.7405,0,0.000885,0,0
0:1:14.946,296.421,16.7749,0,0.000885,0,0
0:1:15.147,297.533,16.837,0,0.000885,0,0
0:1:15.347,298.24,16.8784,0,0.000885,0,0
0:1:15.548,299.236,16.9335,0,0.000885,0,0
0:1:15.747,300.291,16.9956,0,0.000885,0,0
0:1:15.948,301.051,17.0369,0,0.000885,0,0
0:1:16.143,301.932,17.0852,0,0.000885,0,0
0:1:16.343,303.516,17.1748,0,0.000885,0,0
0:1:16.540,304.103,17.2093,0,0.000885,0,0
0:1:16.734,304.805,17.2507,0,0.000885,0,0
0:1:16.936,305.571,17.2921,0,0.000885,0,0
0:1:17.130,306.158,17.3265,0,0.000885,0,0
0:1:17.329,307.092,17.3748,0,0.000885,0,0
0:1:17.529,308.208,17.4437,0,0.000885,0,0
0:1:17.721,309.031,17.4851,0,0.000885,0,0
0:1:17.923,309.325,17.5058,0,0.000885,0,0
0:1:18.118,310.846,17.5885,0,0.000885,0,0
0:1:18.317,310.908,17.5954,0,0.000885,0,0
0:1:18.517,312.723,17.6988,0,0.000885,0,0
0:1:18.710,313.253,17.7264,0,0.000885,0,0
0:1:18.911,314.721,17.8092,0,0.000885,0,0
0:1:19.107,314.836,17.8161,0,0.000885,0,0
0:1:19.314,316.304,17.8988,0,0.000885,0,0
0:1:19.514,316.535,17.9126,0,0.000885,0,0
0:1:19.716,317.825,17.9884,0,0.000885,0,0
0:1:19.917,318.119,18.0022,0,0.000885,0,0
0:1:20.119,319.76,18.0918,0,0.000885,0,0
0:1:20.320,320.054,18.1125,0,0.000885,0,0
0:1:20.521,321.464,18.1884,0,0.000885,0,0
0:1:20.720,321.815,18.2091,0,0.000885,0,0
0:1:20.920,323.283,18.2918,0,0.000885,0,0
0:1:21.120,323.457,18.3056,0,0.000885,0,0
0:1:21.314,324.747,18.3745,0,0.000885,0,0
0:1:21.514,325.512,18.4228,0,0.000885,0,0
0:1:21.711,326.215,18.4573,0,0.000885,0,0
0:1:21.907,327.153,18.5124,0,0.000885,0,0
0:1:22.107,328.15,18.5676,0,0.000885,0,0
0:1:22.310,328.973,18.6158,0,0.000885,0,0
0:1:22.510,329.675,18.6572,0,0.000885,0,0
0:1:22.707,330.965,18.7262,0,0.000885,0,0
0:1:22.911,331.61,18.7675,0,0.000885,0,0
0:1:23.112,332.549,18.8158,0,0.000885,0,0
0:1:23.307,333.252,18.8572,0,0.000885,0,0
0:1:23.516,334.72,18.9399,0,0.000885,0,0
0:1:23.715,335.187,18.9675,0,0.000885,0,0
0:1:23.909,336.655,19.0502,0,0.000885,0,0
0:1:24.110,337.006,19.0709,0,0.000885,0,0
0:1:24.310,337.887,19.1192,0,0.000885,0,0
0:1:24.513,338.59,19.1605,0,0.000885,0,0
0:1:24.715,339.88,19.2364,0,0.000885,0,0
0:1:24.914,340.231,19.2502,0,0.000885,0,0
0:1:25.115,341.93,19.3467,0,0.000885,0,0
0:1:25.315,342.402,19.3743,0,0.000885,0,0
0:1:25.516,343.34,19.4294,0,0.000885,0,0
0:1:25.717,344.043,19.4708,0,0.000885,0,0
0:1:25.911,344.808,19.5122,0,0.000885,0,0
0:1:26.111,345.511,19.5535,0,0.000885,0,0
0:1:26.309,346.743,19.6225,0,0.000885,0,0
0:1:26.513,347.446,19.6638,0,0.000885,0,0
0:1:26.714,348.265,19.7052,0,0.000885,0,0
0:1:26.910,349.203,19.7604,0,0.000885,0,0
0:1:27.108,350.378,19.8293,0,0.000885,0,0
0:1:27.307,351.432,19.8845,0,0.000885,0,0
0:1:27.510,352.019,19.919,0,0.000885,0,0
0:1:27.712,353.309,19.9948,0,0.000885,0,0
0:1:27.909,353.838,20.0224,0,0.000885,0,0
0:1:28.115,354.835,20.0775,0,0.000885,0,0
0:1:28.315,355.537,20.1189,0,0.000885,0,0
0:1:28.508,356.712,20.1878,0,0.000885,0,0
0:1:28.708,357.183,20.2154,0,0.000885,0,0
0:1:28.903,358.06,20.2637,0,0.000885,0,0
0:1:29.111,359.118,20.3188,0,0.000885,0,0
0:1:29.313,360.408,20.3947,0,0.000885,0,0
0:1:29.513,361.111,20.4361,0,0.000885,0,0
0:1:29.716,362.637,20.5188,0,0.000885,0,0
0:1:29.917,362.93,20.5395,0,0.000885,0,0
0:1:30.118,364.1,20.6015,0,0.000885,0,0
0:1:30.318,364.981,20.6567,0,0.000885,0,0
0:1:30.518,364.923,20.6498,0,0.000885,0,0
0:1:30.718,366.213,20.7256,0,0.000885,0,0
0:1:30.918,367.267,20.7808,0,0.000885,0,0
0:1:31.113,367.912,20.8222,0,0.000885,0,0
0:1:31.314,368.268,20.8429,0,0.000885,0,0
0:1:31.510,369.732,20.9256,0,0.000885,0,0
0:1:31.704,370.555,20.967,0,0.000885,0,0
0:1:31.908,371.729,21.0359,0,0.000885,0,0
0:1:32.111,372.374,21.0704,0,0.000885,0,0
0:1:32.312,373.544,21.1393,0,0.000885,0,0
0:1:32.509,374.247,21.1807,0,0.000885,0,0
0:1:32.714,375.363,21.2427,0,0.000885,0,0
0:1:32.914,376.124,21.2841,0,0.000885,0,0
0:1:33.110,377.125,21.3393,0,0.000885,0,0
0:1:33.309,377.592,21.3669,0,0.000885,0,0
0:1:33.508,378.882,21.4427,0,0.000885,0,0
0:1:33.712,379.353,21.4703,0,0.000885,0,0
0:1:33.913,380.643,21.5392,0,0.000885,0,0
0:1:34.108,381.582,21.5944,0,0.000885,0,0
0:1:34.305,382.458,21.6426,0,0.000885,0,0
0:1:34.504,382.752,21.6564,0,0.000885,0,0
0:1:34.708,383.459,21.6978,0,0.000885,0,0
0:1:34.911,384.277,21.7461,0,0.000885,0,0
0:1:35.112,386.097,21.8495,0,0.000885,0,0
0:1:35.314,386.857,21.8909,0,0.000885,0,0
0:1:35.512,387.796,21.946,0,0.000885,0,0
0:1:35.713,388.561,21.9874,0,0.000885,0,0
0:1:35.914,389.148,22.0219,0,0.000885,0,0
0:1:36.113,390.496,22.0977,0,0.000885,0,0
0:1:36.308,390.963,22.1253,0,0.000885,0,0
0:1:36.509,392.08,22.1873,0,0.000885,0,0
0:1:36.703,392.96,22.2356,0,0.000885,0,0
0:1:36.900,394.072,22.2976,0,0.000885,0,0
0:1:37.099,394.717,22.339,0,0.000885,0,0
0:1:37.292,395.656,22.3873,0,0.000885,0,0
0:1:37.493,396.185,22.4218,0,0.000885,0,0
0:1:37.690,397.417,22.4907,0,0.000885,0,0
0:1:37.896,398.236,22.539,0,0.000885,0,0
0:1:38.095,398.823,22.5665,0,0.000885,0,0
0:1:38.298,399.41,22.601,0,0.000885,0,0
0:1:38.500,400.464,22.6631,0,0.000885,0,0
0:1:38.697,401.754,22.732,0,0.000885,0,0
0:1:38.893,402.929,22.801,0,0.000885,0,0
0:1:39.093,403.516,22.8354,0,0.000885,0,0
0:1:39.294,404.219,22.8768,0,0.000885,0,0
0:1:39.496,405.273,22.932,0,0.000885,0,0
0:1:39.696,405.567,22.9526,0,0.000885,0,0
0:1:39.897,406.857,23.0216,0,0.000885,0,0
0:1:40.098,407.795,23.0768,0,0.000885,0,0
0:1:40.297,408.676,23.125,0,0.000885,0,0
0:1:40.498,409.85,23.194,0,0.000885,0,0
0:1:40.697,410.38,23.2215,0,0.000885,0,0
0:1:40.891,411.376,23.2767,0,0.000885,0,0
0:1:41.092,412.315,23.3319,0,0.000885,0,0
0:1:41.287,412.839,23.3594,0,0.000885,0,0
0:1:41.483,413.956,23.4284,0,0.000885,0,0
0:1:41.683,415.01,23.4835,0,0.000885,0,0
0:1:41.878,416.007,23.5387,0,0.000885,0,0
0:1:42.078,416.772,23.587,0,0.000885,0,0
0:1:42.276,417.474,23.6214,0,0.000885,0,0
0:1:42.470,417.826,23.6421,0,0.000885,0,0
0:1:42.671,418.413,23.6766,0,0.000885,0,0
0:1:42.868,420.112,23.7731,0,0.000885,0,0
0:1:43.065,420.232,23.78,0,0.000885,0,0
0:1:43.266,421.638,23.8628,0,0.000885,0,0
0:1:43.459,422.047,23.8834,0,0.000885,0,0
0:1:43.659,423.751,23.98,0,0.000885,0,0
0:1:43.858,424.16,24.0007,0,0.000885,0,0
0:1:44.054,425.802,24.0972,0,0.000885,0,0
0:1:44.254,425.686,24.0903,0,0.000885,0,0
0:1:44.456,427.269,24.1799,0,0.000885,0,0
0:1:44.658,427.563,24.1937,0,0.000885,0,0
0:1:44.860,429.147,24.2833,0,0.000885,0,0
0:1:45.061,429.32,24.2971,0,0.000885,0,0
0:1:45.261,430.672,24.373,0,0.000885,0,0
0:1:45.461,430.904,24.3868,0,0.000885,0,0
0:1:45.662,432.487,24.4764,0,0.000885,0,0
0:1:45.861,432.959,24.4971,0,0.000885,0,0
0:1:46.057,433.546,24.5315,0,0.000885,0,0
0:1:46.257,435.129,24.6212,0,0.000885,0,0
0:1:46.453,435.654,24.6557,0,0.000885,0,0
0:1:46.651,436.771,24.7177,0,0.000885,0,0
0:1:46.850,437.416,24.7522,0,0.000885,0,0
0:1:47.046,438.648,24.8211,0,0.000885,0,0
0:1:47.245,439.587,24.8763,0,0.000885,0,0
0:1:47.443,440.347,24.9177,0,0.000885,0,0
0:1:47.638,441.579,24.9866,0,0.000885,0,0
0:1:47.839,442.518,25.0418,0,0.000885,0,0
0:1:48.032,443.279,25.0831,0,0.000885,0,0
0:1:48.233,444.279,25.1383,0,0.000885,0,0
0:1:48.432,444.862,25.1728,0,0.000885,0,0
0:1:48.625,445.334,25.2003,0,0.000885,0,0
0:1:48.827,446.388,25.2624,0,0.000885,0,0
0:1:49.021,446.624,25.2762,0,0.000885,0,0
0:1:49.220,448.092,25.3589,0,0.000885,0,0
0:1:49.421,448.559,25.3865,0,0.000885,0,0
0:1:49.623,450.142,25.4761,0,0.000885,0,0
0:1:49.826,450.436,25.4899,0,0.000885,0,0
0:1:50.028,451.49,25.552,0,0.000885,0,0
0:1:50.229,451.668,25.5589,0,0.000885,0,0
0:1:50.427,453.545,25.6623,0,0.000885,0,0
0:1:50.628,453.839,25.683,0,0.000885,0,0
0:1:50.828,455.302,25.7657,0,0.000885,0,0
0:1:51.026,455.538,25.7795,0,0.000885,0,0
0:1:51.220,456.654,25.8416,0,0.000885,0,0
0:1:51.421,457.709,25.9036,0,0.000885,0,0
0:1:51.617,458.763,25.9588,0,0.000885,0,0
0:1:51.815,459.466,26.0001,0,0.000885,0,0
0:1:52.014,460.991,26.0898,0,0.000885,0,0
0:1:52.217,461.169,26.0967,0,0.000885,0,0
0:1:52.417,462.108,26.1518,0,0.000885,0,0
0:1:52.614,462.753,26.1863,0,0.000885,0,0
0:1:52.812,463.749,26.2414,0,0.000885,0,0
0:1:53.012,464.63,26.2897,0,0.000885,0,0
0:1:53.214,465.742,26.3587,0,0.000885,0,0
0:1:53.415,466.387,26.3931,0,0.000885,0,0
0:1:53.612,467.326,26.4483,0,0.000885,0,0
0:1:53.807,468.206,26.4966,0,0.000885,0,0
0:1:54.007,468.909,26.5379,0,0.000885,0,0
0:1:54.209,470.377,26.6207,0,0.000885,0,0
0:1:54.411,470.377,26.6207,0,0.000885,0,0
0:1:54.612,472.134,26.7172,0,0.000885,0,0
0:1:54.813,472.312,26.7241,0,0.000885,0,0
0:1:55.013,473.78,26.8137,0,0.000885,0,0
0:1:55.213,474.011,26.8206,0,0.000885,0,0
0:1:55.413,475.889,26.9309,0,0.000885,0,0
0:1:55.614,476.124,26.9447,0,0.000885,0,0
0:1:55.817,477.824,27.0412,0,0.000885,0,0
0:1:56.019,478.117,27.055,0,0.000885,0,0
0:1:56.215,479.291,27.124,0,0.000885,0,0
0:1:56.412,479.763,27.1516,0,0.000885,0,0
0:1:56.612,480.114,27.1722,0,0.000885,0,0
0:1:56.816,481.347,27.2412,0,0.000885,0,0
0:1:57.016,481.698,27.2619,0,0.000885,0,0
0:1:57.214,483.281,27.3515,0,0.000885,0,0
0:1:57.407,483.513,27.3584,0,0.000885,0,0
0:1:57.610,485.274,27.4618,0,0.000885,0,0
0:1:57.815,485.804,27.4894,0,0.000885,0,0
0:1:58.014,487.036,27.5583,0,0.000885,0,0
0:1:58.213,487.739,27.5997,0,0.000885,0,0
0:1:58.417,488.619,27.648,0,0.000885,0,0
0:1:58.618,489.553,27.7031,0,0.000885,0,0
0:1:58.814,490.964,27.7859,0,0.000885,0,0
0:1:59.012,491.373,27.8066,0,0.000885,0,0
0:1:59.213,491.96,27.841,0,0.000885,0,0
0:1:59.414,492.841,27.8893,0,0.000885,0,0
0:1:59.617,493.779,27.9445,0,0.000885,0,0
0:1:59.818,494.015,27.9582,0,0.000885,0,0
0:2:0.018,496.123,28.0755,0,0.000885,0,0
0:2:0.218,496.475,28.0961,0,0.000885,0,0
0:2:0.419,497.707,28.1651,0,0.000885,0,0
0:2:0.618,498.646,28.2202,0,0.000885,0,0
0:2:0.816,499.762,28.2823,0,0.000885,0,0
0:2:1.013,500.581,28.3306,0,0.000885,0,0
0:2:1.214,501.639,28.3857,0,0.000885,0,0
0:2:1.417,502.458,28.434,0,0.000885,0,0
0:2:1.617,502.809,28.4547,0,0.000885,0,0
0:2:1.814,503.868,28.5098,0,0.000885,0,0
0:2:2.010,503.868,28.5098,0,0.000885,0,0
0:2:2.212,505.389,28.5995,0,0.000885,0,0
0:2:2.416,505.861,28.627,0,0.000885,0,0
0:2:2.614,507.093,28.696,0,0.000885,0,0
0:2:2.813,507.911,28.7442,0,0.000885,0,0
0:2:3.017,508.619,28.7787,0,0.000885,0,0
0:2:3.219,509.557,28.8339,0,0.000885,0,0
0:2:3.413,510.611,28.8959,0,0.000885,0,0
0:2:3.611,511.141,28.9235,0,0.000885,0,0
0:2:3.811,512.956,29.0269,0,0.000885,0,0
0:2:4.014,513.133,29.0407,0,0.000885,0,0
0:2:4.214,514.659,29.1235,0,0.000885,0,0
0:2:4.414,515.304,29.1579,0,0.000885,0,0
0:2:4.617,516.243,29.2131,0,0.000885,0,0
0:2:4.818,517.061,29.2613,0,0.000885,0,0
0:2:5.018,518.351,29.3303,0,0.000885,0,0
0:2:5.219,519.41,29.3924,0,0.000885,0,0
0:2:5.420,520.055,29.4268,0,0.000885,0,0
0:2:5.620,520.349,29.4475,0,0.000885,0,0
0:2:5.821,521.638,29.5165,0,0.000885,0,0
0:2:6.017,522.226,29.5509,0,0.000885,0,0
0:2:6.214,523.102,29.5992,0,0.000885,0,0
0:2:6.415,523.925,29.6475,0,0.000885,0,0
0:2:6.618,524.806,29.6957,0,0.000885,0,0
0:2:6.818,525.508,29.7371,0,0.000885,0,0
0:2:7.016,526.447,29.7922,0,0.000885,0,0
0:2:7.212,526.976,29.8198,0,0.000885,0,0
0:2:7.412,527.443,29.8474,0,0.000885,0,0
0:2:7.616,528.791,29.9232,0,0.000885,0,0
0:2:7.815,529.263,29.9508,0,0.000885,0,0
0:2:8.014,531.082,30.0542,0,0.000885,0,0
0:2:8.206,531.958,30.1025,0,0.000885,0,0
0:2:8.407,533.311,30.1784,0,0.000885,0,0
0:2:8.615,533.72,30.199,0,0.000885,0,0
0:2:8.814,535.361,30.2956,0,0.000885,0,0
0:2:9.014,535.77,30.3162,0,0.000885,0,0
0:2:9.218,537.648,30.4266,0,0.000885,0,0
0:2:9.418,537.71,30.4266,0,0.000885,0,0
0:2:9.618,538.644,30.4817,0,0.000885,0,0
0:2:9.818,538.764,30.4886,0,0.000885,0,0
0:2:10.018,540.228,30.5714,0,0.000885,0,0
0:2:10.218,540.583,30.592,0,0.000885,0,0
0:2:10.420,541.873,30.661,0,0.000885,0,0
0:2:10.617,542.341,30.6886,0,0.000885,0,0
0:2:10.813,542.812,30.7161,0,0.000885,0,0
0:2:11.013,544.396,30.8058,0,0.000885,0,0
0:2:11.217,544.627,30.8196,0,0.000885,0,0
0:2:11.416,546.095,30.9023,0,0.000885,0,0
0:2:11.614,546.74,30.9368,0,0.000885,0,0
0:2:11.811,547.678,30.9919,0,0.000885,0,0
0:2:12.011,547.972,31.0057,0,0.000885,0,0
0:2:12.215,549.262,31.0816,0,0.000885,0,0
0:2:12.415,549.907,31.116,0,0.000885,0,0
0:2:12.612,551.139,31.185,0,0.000885,0,0
0:2:12.818,551.9,31.2333,0,0.000885,0,0
0:2:13.020,553.31,31.3091,0,0.000885,0,0
0:2:13.213,553.661,31.3298,0,0.000885,0,0
0:2:13.413,554.893,31.3987,0,0.000885,0,0
0:2:13.620,555.948,31.4608,0,0.000885,0,0
0:2:13.816,557.064,31.5228,0,0.000885,0,0
0:2:14.017,557.767,31.5642,0,0.000885,0,0
0:2:14.218,559.466,31.6607,0,0.000885,0,0
0:2:14.420,559.586,31.6676,0,0.000885,0,0
0:2:14.622,560.876,31.7366,0,0.000885,0,0
0:2:14.823,561.815,31.7917,0,0.000885,0,0
0:2:15.024,562.46,31.8262,0,0.000885,0,0
0:2:15.223,563.456,31.8883,0,0.000885,0,0
0:2:15.424,564.217,31.9296,0,0.000885,0,0
0:2:15.622,564.982,31.971,0,0.000885,0,0
0:2:15.816,565.507,31.9986,0,0.000885,0,0
0:2:16.016,566.388,32.0537,0,0.000885,0,0
0:2:16.213,567.211,32.0951,0,0.000885,0,0
0:2:16.420,568.029,32.1434,0,0.000885,0,0
0:2:16.620,568.794,32.1847,0,0.000885,0,0
0:2:16.813,569.67,32.2399,0,0.000885,0,0
0:2:17.013,570.435,32.2813,0,0.000885,0,0
0:2:17.213,571.254,32.3295,0,0.000885,0,0
0:2:17.419,572.019,32.3709,0,0.000885,0,0
0:2:17.619,573.545,32.4536,0,0.000885,0,0
0:2:17.813,574.07,32.4881,0,0.000885,0,0
0:2:18.013,575.36,32.557,0,0.000885,0,0
0:2:18.220,576.183,32.6053,0,0.000885,0,0
0:2:18.417,577.063,32.6536,0,0.000885,0,0
0:2:18.617,577.708,32.6949,0,0.000885,0,0
0:2:18.819,578.878,32.757,0,0.000885,0,0
0:2:19.020,579.759,32.8053,0,0.000885,0,0
0:2:19.220,581.169,32.888,0,0.000885,0,0
0:2:19.422,581.814,32.9225,0,0.000885,0,0
0:2:19.623,582.753,32.9776,0,0.000885,0,0
0:2:19.823,583.571,33.0259,0,0.000885,0,0
0:2:20.025,584.336,33.0673,0,0.000885,0,0
0:2:20.225,584.861,33.0948,0,0.000885,0,0
0:2:20.427,586.387,33.1845,0,0.000885,0,0
0:2:20.628,586.565,33.1914,0,0.000885,0,0
0:2:20.823,588.322,33.2948,0,0.000885,0,0
0:2:21.022,588.851,33.3224,0,0.000885,0,0
0:2:21.220,588.967,33.3293,0,0.000885,0,0
0:2:21.416,590.613,33.4189,0,0.000885,0,0
0:2:21.617,590.902,33.4396,0,0.000885,0,0
0:2:21.812,591.783,33.4878,0,0.000885,0,0
0:2:22.009,592.957,33.5568,0,0.000885,0,0
0:2:22.209,593.78,33.5982,0,0.000885,0,0
0:2:22.406,594.309,33.6326,0,0.000885,0,0
0:2:22.608,595.599,33.7016,0,0.000885,0,0
0:2:22.815,596.422,33.7498,0,0.000885,0,0
0:2:23.014,597.303,33.7981,0,0.000885,0,0
0:2:23.214,598.126,33.8464,0,0.000885,0,0
0:2:23.409,598.828,33.8877,0,0.000885,0,0
0:2:23.613,599.651,33.936,0,0.000885,0,0
0:2:23.819,601.119,34.0187,0,0.000885,0,0
0:2:24.017,601.702,34.0463,0,0.000885,0,0
0:2:24.218,603.232,34.1359,0,0.000885,0,0
0:2:24.420,603.699,34.1635,0,0.000885,0,0
0:2:24.623,604.407,34.2049,0,0.000885,0,0
0:2:24.824,605.519,34.2669,0,0.000885,0,0
0:2:25.027,606.342,34.3152,0,0.000885,0,0
0:2:25.229,606.399,34.3152,0,0.000885,0,0
0:2:25.430,608.339,34.4255,0,0.000885,0,0
0:2:25.631,608.748,34.4462,0,0.000885,0,0
0:2:25.832,610.1,34.522,0,0.000885,0,0
0:2:26.028,610.745,34.5634,0,0.000885,0,0
0:2:26.229,610.861,34.5703,0,0.000885,0,0
0:2:26.423,612.035,34.6324,0,0.000885,0,0
0:2:26.624,612.974,34.6875,0,0.000885,0,0
0:2:26.824,614.148,34.7565,0,0.000885,0,0
0:2:27.020,614.5,34.7703,0,0.000885,0,0
0:2:27.222,616.261,34.8737,0,0.000885,0,0
0:2:27.416,616.675,34.8944,0,0.000885,0,0
0:2:27.617,618.138,34.9771,0,0.000885,0,0
0:2:27.817,618.725,35.0116,0,0.000885,0,0
0:2:28.014,620.135,35.0943,0,0.000885,0,0
0:2:28.216,620.665,35.1219,0,0.000885,0,0
0:2:28.419,621.368,35.1633,0,0.000885,0,0
0:2:28.619,622.075,35.2046,0,0.000885,0,0
0:2:28.819,623.071,35.2598,0,0.000885,0,0
0:2:29.014,623.365,35.2736,0,0.000885,0,0
0:2:29.216,625.242,35.3839,0,0.000885,0,0
0:2:29.418,625.3,35.3839,0,0.000885,0,0
0:2:29.620,626.532,35.4528,0,0.000885,0,0
0:2:29.822,627.413,35.5011,0,0.000885,0,0
0:2:30.024,628.707,35.5769,0,0.000885,0,0
0:2:30.226,628.881,35.5907,0,0.000885,0,0
0:2:30.427,629.588,35.6252,0,0.000885,0,0
0:2:30.628,631.172,35.7148,0,0.000885,0,0
0:2:30.829,631.407,35.7286,0,0.000885,0,0
0:2:31.025,632.639,35.7976,0,0.000885,0,0
0:2:31.228,633.4,35.8458,0,0.000885,0,0
0:2:31.422,634.459,35.901,0,0.000885,0,0
0:2:31.621,634.752,35.9217,0,0.000885,0,0
0:2:31.823,636.514,36.0182,0,0.000885,0,0
0:2:32.018,637.159,36.0527,0,0.000885,0,0
0:2:32.220,637.862,36.0941,0,0.000885,0,0
0:2:32.418,638.391,36.1285,0,0.000885,0,0
0:2:32.615,640.152,36.2251,0,0.000885,0,0
0:2:32.816,640.975,36.2733,0,0.000885,0,0
0:2:33.009,641.736,36.3147,0,0.000885,0,0
0:2:33.211,642.617,36.3629,0,0.000885,0,0
0:2:33.420,643.498,36.4112,0,0.000885,0,0
0:2:33.616,644.263,36.4595,0,0.000885,0,0
0:2:33.818,645.375,36.5215,0,0.000885,0,0
0:2:34.013,645.731,36.5422,0,0.000885,0,0
0:2:34.216,646.433,36.5836,0,0.000885,0,0
0:2:34.417,647.372,36.6318,0,0.000885,0,0
0:2:34.621,648.782,36.7146,0,0.000885,0,0
0:2:34.823,649.249,36.7422,0,0.000885,0,0
0:2:35.027,650.188,36.7904,0,0.000885,0,0
0:2:35.225,651.304,36.8594,0,0.000885,0,0
0:2:35.427,651.891,36.887,0,0.000885,0,0
0:2:35.629,652.892,36.949,0,0.000885,0,0
0:2:35.831,653.301,36.9697,0,0.000885,0,0
0:2:36.025,655.121,37.0731,0,0.000885,0,0
0:2:36.225,656.059,37.1283,0,0.000885,0,0
0:2:36.427,656.589,37.1558,0,0.000885,0,0
0:2:36.622,657.234,37.1903,0,0.000885,0,0
0:2:36.824,658.644,37.2731,0,0.000885,0,0
0:2:37.019,659.404,37.3144,0,0.000885,0,0
0:2:37.217,660.169,37.3558,0,0.000885,0,0
0:2:37.419,660.579,37.3834,0,0.000885,0,0
0:2:37.611,661.637,37.4385,0,0.000885,0,0
0:2:37.815,662.104,37.4661,0,0.000885,0,0
0:2:38.021,663.163,37.5282,0,0.000885,0,0
0:2:38.221,663.924,37.5695,0,0.000885,0,0
0:2:38.422,665.627,37.6661,0,0.000885,0,0
0:2:38.617,666.157,37.6936,0,0.000885,0,0
0:2:38.819,667.505,37.7764,0,0.000885,0,0
0:2:39.015,668.212,37.8108,0,0.000885,0,0
0:2:39.223,669.853,37.9074,0,0.000885,0,0
0:2:39.424,670.205,37.9281,0,0.000885,0,0
0:2:39.629,671.437,37.997,0,0.000885,0,0
0:2:39.831,671.499,37.997,0,0.000885,0,0
0:2:40.033,672.495,38.0522,0,0.000885,0,0
0:2:40.234,672.731,38.066,0,0.000885,0,0
0:2:40.436,673.848,38.1349,0,0.000885,0,0
0:2:40.636,674.43,38.1625,0,0.000885,0,0
0:2:40.838,675.783,38.2383,0,0.000885,0,0
0:2:41.038,676.721,38.2935,0,0.000885,0,0
0:2:41.234,677.193,38.3211,0,0.000885,0,0
0:2:41.437,678.541,38.3969,0,0.000885,0,0
0:2:41.632,679.186,38.4314,0,0.000885,0,0
0:2:41.832,680.066,38.4865,0,0.000885,0,0
0:2:42.031,680.889,38.5279,0,0.000885,0,0
0:2:42.226,682.299,38.6106,0,0.000885,0,0
0:2:42.428,683.18,38.6589,0,0.000885,0,0
0:2:42.626,684.47,38.7347,0,0.000885,0,0
0:2:42.823,685.235,38.7761,0,0.000885,0,0
0:2:43.024,686.405,38.8451,0,0.000885,0,0
0:2:43.218,686.583,38.852,0,0.000885,0,0
0:2:43.420,688.051,38.9347,0,0.000885,0,0
0:2:43.618,688.874,38.983,0,0.000885,0,0
0:2:43.816,689.461,39.0174,0,0.000885,0,0
0:2:44.017,689.755,39.0312,0,0.000885,0,0
0:2:44.220,690.457,39.0726,0,0.000885,0,0
0:2:44.424,691.454,39.1277,0,0.000885,0,0
0:2:44.627,692.748,39.2036,0,0.000885,0,0
0:2:44.827,693.1,39.2243,0,0.000885,0,0
0:2:45.028,694.038,39.2725,0,0.000885,0,0
0:2:45.230,695.035,39.3277,0,0.000885,0,0
0:2:45.431,695.973,39.3829,0,0.000885,0,0
0:2:45.631,697.21,39.4518,0,0.000885,0,0
0:2:45.827,697.677,39.4794,0,0.000885,0,0
0:2:46.029,699.145,39.5621,0,0.000885,0,0
0:2:46.224,699.496,39.5828,0,0.000885,0,0
0:2:46.423,700.497,39.638,0,0.000885,0,0
0:2:46.623,701.2,39.6793,0,0.000885,0,0
0:2:46.819,702.548,39.7552,0,0.000885,0,0
0:2:47.020,703.255,39.7965,0,0.000885,0,0
0:2:47.217,704.896,39.8862,0,0.000885,0,0
0:2:47.423,705.604,39.9275,0,0.000885,0,0
0:2:47.625,706.422,39.9758,0,0.000885,0,0
0:2:47.820,706.951,40.0034,0,0.000885,0,0
0:2:48.021,708.01,40.0654,0,0.000885,0,0
0:2:48.221,708.535,40.093,0,0.000885,0,0
0:2:48.416,709.536,40.1482,0,0.000885,0,0
0:2:48.618,710.354,40.1964,0,0.000885,0,0
0:2:48.823,711.297,40.2516,0,0.000885,0,0
0:2:49.024,712.058,40.293,0,0.000885,0,0
0:2:49.227,712.703,40.3274,0,0.000885,0,0
0:2:49.430,713.41,40.3688,0,0.000885,0,0
0:2:49.633,715.172,40.4722,0,0.000885,0,0
0:2:49.834,716.11,40.5205,0,0.000885,0,0
0:2:50.035,717.285,40.5894,0,0.000885,0,0
0:2:50.237,717.752,40.617,0,0.000885,0,0
0:2:50.438,718.81,40.6791,0,0.000885,0,0
0:2:50.639,719.277,40.6998,0,0.000885,0,0
0:2:50.835,720.336,40.7618,0,0.000885,0,0
0:2:51.034,721.453,40.8239,0,0.000885,0,0
0:2:51.235,722.213,40.8721,0,0.000885,0,0
0:2:51.430,722.507,40.8859,0,0.000885,0,0
0:2:51.631,723.21,40.9273,0,0.000885,0,0
0:2:51.829,724.211,40.9824,0,0.000885,0,0
0:2:52.024,724.798,41.0169,0,0.000885,0,0
0:2:52.225,726.203,41.0928,0,0.000885,0,0
0:2:52.423,726.853,41.1341,0,0.000885,0,0
0:2:52.623,728.258,41.21,0,0.000885,0,0
0:2:52.822,728.672,41.2375,0,0.000885,0,0
0:2:53.017,729.962,41.3065,0,0.000885,0,0
0:2:53.219,730.549,41.341,0,0.000885,0,0
0:2:53.417,731.603,41.403,0,0.000885,0,0
0:2:53.624,731.897,41.4168,0,0.000885,0,0
0:2:53.825,733.836,41.5271,0,0.000885,0,0
0:2:54.019,734.188,41.5478,0,0.000885,0,0
0:2:54.220,734.833,41.5823,0,0.000885,0,0
0:2:54.421,735.478,41.6168,0,0.000885,0,0
0:2:54.625,736.065,41.6512,0,0.000885,0,0
0:2:54.829,737.359,41.7271,0,0.000885,0,0
0:2:55.029,738.298,41.7822,0,0.000885,0,0
0:2:55.231,739.237,41.8305,0,0.000885,0,0
0:2:55.432,739.646,41.8581,0,0.000885,0,0
0:2:55.634,740.878,41.927,0,0.000885,0,0
0:2:55.836,741.701,41.9684,0,0.000885,0,0
0:2:56.033,742.933,42.0442,0,0.000885,0,0
0:2:56.232,743.756,42.0856,0,0.000885,0,0
0:2:56.433,744.695,42.1408,0,0.000885,0,0
0:2:56.628,745.108,42.1614,0,0.000885,0,0
0:2:56.830,746.514,42.2442,0,0.000885,0,0
0:2:57.025,747.337,42.2924,0,0.000885,0,0
0:2:57.224,748.102,42.3338,0,0.000885,0,0
0:2:57.423,748.92,42.3821,0,0.000885,0,0
0:2:57.619,750.037,42.4441,0,0.000885,0,0
0:2:57.820,750.86,42.4924,0,0.000885,0,0
0:2:58.018,752.092,42.5613,0,0.000885,0,0
0:2:58.224,752.853,42.6027,0,0.000885,0,0
0:2:58.427,753.733,42.651,0,0.000885,0,0
0:2:58.623,754.263,42.6854,0,0.000885,0,0
0:2:58.823,755.201,42.7337,0,0.000885,0,0
0:2:59.022,755.788,42.7682,0,0.000885,0,0
0:2:59.217,756.318,42.7958,0,0.000885,0,0
0:2:59.419,757.376,42.8578,0,0.000885,0,0
0:2:59.620,758.195,42.9061,0,0.000885,0,0
0:2:59.824,759.605,42.9819,0,0.000885,0,0
0:3:0.027,759.899,43.0026,0,0.000885,0,0
0:3:0.228,761.131,43.0715,0,0.000885,0,0
0:3:0.430,761.776,43.106,0,0.000885,0,0
0:3:0.630,762.892,43.1681,0,0.000885,0,0
0:3:0.832,763.07,43.1819,0,0.000885,0,0
0:3:1.033,763.715,43.2163,0,0.000885,0,0
0:3:1.228,764.124,43.2439,0,0.000885,0,0
0:3:1.429,765.241,43.306,0,0.000885,0,0
0:3:1.627,765.592,43.3267,0,0.000885,0,0
0:3:1.824,766.295,43.3611,0,0.000885,0,0
0:3:2.027,767.296,43.4232,0,0.000885,0,0
0:3:2.221,767.999,43.4577,0,0.000885,0,0
0:3:2.421,768.644,43.499,0,0.000885,0,0
0:3:2.619,768.822,43.5059,0,0.000885,0,0
0:3:2.816,768.995,43.5197,0,0.000885,0,0
0:3:3.018,769.173,43.5266,0,0.000885,0,0
0:3:3.223,769.582,43.5473,0,0.000885,0,0
0:3:3.422,769.525,43.5473,0,0.000885,0,0
0:3:3.622,769.289,43.5335,0,0.000885,0,0
0:3:3.817,768.995,43.5197,0,0.000885,0,0
0:3:4.018,767.821,43.4508,0,0.000885,0,0
0:3:4.218,766.237,43.3611,0,0.000885,0,0
0:3:4.421,761.66,43.0991,0,0.000885,0,0
0:3:4.623,756.847,42.8302,0,0.000885,0,0
0:3:4.824,737.297,41.7202,0,0.000885,0,0
0:3:5.024,722.8,40.8997,0,0.000885,0,0
0:3:5.224,678.541,38.3969,0,0.000885,0,0
0:3:5.425,631.465,35.7355,0,0.000885,0,0
0:3:5.447,631.465,35.7355,0,0.000885,0,0