File: DataFile2021-06-08_054227.csv
Test ID:,Date Tested:,Time:,Test Type:,Diameter Avg. (mm):,Cyl. Corr. Factor:,Height (mm):,Age (days):,Weight (kN):,Break Type:,Ramp Rate (MPa/s):,Load at Break (kN):,Stress at Break (MPa):
12,6/8/2021,05:42,Cylinder,150,1,300,0,3.6,1,0.24,751.79,42.54
Sample Time,Load (kN),Stress (MPa),Long. Strain,Trans. Strain,Chan1 Deflection (mm),Chan2 Deflection (mm)
0:0:15.412,6.80133,0.386106,0,0.000885,0,0
0:0:15.611,11.9079,0.675686,0,0.000885,0,0
0:0:15.805,16.7742,0.951477,0,0.000885,0,0
0:0:16.005,16.6586,0.944582,0,0.000885,0,0
0:0:16.204,16.0136,0.903213,0,0.000885,0,0
0:0:16.402,15.4843,0.875634,0,0.000885,0,0
0:0:16.602,15.1907,0.861845,0,0.000885,0,0
0:0:16.796,15.1328,0.85495,0,0.000885,0,0
0:0:16.997,15.3063,0.868739,0,0.000885,0,0
0:0:17.195,15.1907,0.861845,0,0.000885,0,0
0:0:17.391,15.1907,0.861845,0,0.000885,0,0
0:0:17.592,15.075,0.85495,0,0.000885,0,0
0:0:17.787,15.4843,0.875634,0,0.000885,0,0
0:0:17.986,16.1293,0.910108,0,0.000885,0,0
0:0:18.186,16.365,0.923897,0,0.000885,0,0
0:0:18.381,16.7164,0.944582,0,0.000885,0,0
0:0:18.582,17.1257,0.972161,0,0.000885,0,0
0:0:18.780,18.4156,1.04111,0,0.000885,0,0
0:0:18.979,19.1807,1.08248,0,0.000885,0,0
0:0:19.180,20.8221,1.179,0,0.000885,0,0
0:0:19.375,21.5249,1.22037,0,0.000885,0,0
0:0:19.577,23.6378,1.33758,0,0.000885,0,0
0:0:19.775,23.9314,1.35137,0,0.000885,0,0
0:0:19.972,25.9242,1.46858,0,0.000885,0,0
0:0:20.174,25.9242,1.46858,0,0.000885,0,0
0:0:20.371,28.0371,1.58579,0,0.000885,0,0
0:0:20.570,28.6199,1.62027,0,0.000885,0,0
0:0:20.772,30.3235,1.71679,0,0.000885,0,0
0:0:20.975,30.9685,1.75127,0,0.000885,0,0
0:0:21.179,32.432,1.83401,0,0.000885,0,0
0:0:21.381,32.8457,1.86158,0,0.000885,0,0
0:0:21.583,33.722,1.90985,0,0.000885,0,0
0:0:21.785,33.8999,1.91674,0,0.000885,0,0
0:0:21.985,34.6027,1.95811,0,0.000885,0,0
0:0:22.188,35.1321,1.98569,0,0.000885,0,0
0:0:22.388,35.5413,2.01327,0,0.000885,0,0
0:0:22.585,36.1863,2.04774,0,0.000885,0,0
0:0:22.787,37.8277,2.13737,0,0.000885,0,0
0:0:22.982,39.002,2.20632,0,0.000885,0,0
0:0:23.183,39.8828,2.25459,0,0.000885,0,0
0:0:23.382,40.1185,2.26838,0,0.000885,0,0
0:0:23.578,40.5277,2.29595,0,0.000885,0,0
0:0:23.781,41.8177,2.3649,0,0.000885,0,0
0:0:23.976,42.4627,2.40627,0,0.000885,0,0
0:0:24.176,44.3977,2.50969,0,0.000885,0,0
0:0:24.376,45.1628,2.55795,0,0.000885,0,0
0:0:24.574,46.1014,2.60622,0,0.000885,0,0
0:0:24.775,46.862,2.65448,0,0.000885,0,0
0:0:24.971,47.8006,2.70274,0,0.000885,0,0
0:0:25.171,48.2677,2.73032,0,0.000885,0,0
0:0:25.371,49.6777,2.81306,0,0.000885,0,0
0:0:25.568,50.087,2.83375,0,0.000885,0,0
0:0:25.771,51.3191,2.90269,0,0.000885,0,0
0:0:25.972,51.6127,2.92338,0,0.000885,0,0
0:0:26.176,53.3119,3.0199,0,0.000885,0,0
0:0:26.380,53.6055,3.03369,0,0.000885,0,0
0:0:26.581,55.367,3.13022,0,0.000885,0,0
0:0:26.784,56.012,3.17159,0,0.000885,0,0
0:0:26.984,56.7727,3.21296,0,0.000885,0,0
0:0:27.184,57.5377,3.25433,0,0.000885,0,0
0:0:27.387,58.7076,3.32327,0,0.000885,0,0
0:0:27.583,59.059,3.34396,0,0.000885,0,0
0:0:27.786,60.1755,3.40601,0,0.000885,0,0
0:0:27.983,60.527,3.42669,0,0.000885,0,0
0:0:28.180,61.5812,3.48185,0,0.000885,0,0
0:0:28.383,63.1069,3.57148,0,0.000885,0,0
0:0:28.578,63.5206,3.59217,0,0.000885,0,0
0:0:28.778,64.4547,3.64733,0,0.000885,0,0
0:0:28.978,64.2813,3.64043,0,0.000885,0,0
0:0:29.173,65.9226,3.73006,0,0.000885,0,0
0:0:29.375,66.8034,3.77833,0,0.000885,0,0
0:0:29.572,67.6219,3.82659,0,0.000885,0,0
0:0:29.770,68.3291,3.86796,0,0.000885,0,0
0:0:29.973,69.5613,3.93691,0,0.000885,0,0
0:0:30.168,70.6733,3.99896,0,0.000885,0,0
0:0:30.369,72.1413,4.0817,0,0.000885,0,0
0:0:30.567,72.3147,4.09549,0,0.000885,0,0
0:0:30.764,73.3734,4.15064,0,0.000885,0,0
0:0:30.965,74.0762,4.19201,0,0.000885,0,0
0:0:31.166,75.3084,4.26096,0,0.000885,0,0
0:0:31.370,75.4819,4.27475,0,0.000885,0,0
0:0:31.573,76.5984,4.3368,0,0.000885,0,0
0:0:31.775,77.2434,4.37128,0,0.000885,0,0
0:0:31.977,78.7068,4.45401,0,0.000885,0,0
0:0:32.178,79.2362,4.48159,0,0.000885,0,0
0:0:32.381,80.4683,4.55054,0,0.000885,0,0
0:0:32.582,80.9398,4.57812,0,0.000885,0,0
0:0:32.776,81.4069,4.6057,0,0.000885,0,0
0:0:32.980,82.9905,4.69533,0,0.000885,0,0
0:0:33.177,83.5776,4.7298,0,0.000885,0,0
0:0:33.376,84.752,4.79875,0,0.000885,0,0
0:0:33.578,85.4548,4.83322,0,0.000885,0,0
0:0:33.772,86.4512,4.89528,0,0.000885,0,0
0:0:33.973,86.9183,4.91596,0,0.000885,0,0
0:0:34.172,88.3283,4.9987,0,0.000885,0,0
0:0:34.369,88.9733,5.03317,0,0.000885,0,0
0:0:34.571,90.379,5.11591,0,0.000885,0,0
0:0:34.766,91.0862,5.15728,0,0.000885,0,0
0:0:34.966,92.3139,5.22623,0,0.000885,0,0
0:0:35.168,92.9011,5.25381,0,0.000885,0,0
0:0:35.364,93.6084,5.29517,0,0.000885,0,0
0:0:35.566,94.1333,5.32965,0,0.000885,0,0
0:0:35.768,94.8361,5.36412,0,0.000885,0,0
0:0:35.972,95.659,5.41238,0,0.000885,0,0
0:0:36.175,97.3582,5.50891,0,0.000885,0,0
0:0:36.375,98.1811,5.55717,0,0.000885,0,0
0:0:36.577,99.4711,5.62612,0,0.000885,0,0
0:0:36.779,99.7069,5.63991,0,0.000885,0,0
0:0:36.981,100.761,5.70196,0,0.000885,0,0
0:0:37.183,101.406,5.73644,0,0.000885,0,0
0:0:37.379,102.345,5.7916,0,0.000885,0,0
0:0:37.582,103.755,5.87433,0,0.000885,0,0
0:0:37.779,104.337,5.90191,0,0.000885,0,0
0:0:37.976,105.512,5.97086,0,0.000885,0,0
0:0:38.178,105.921,5.99154,0,0.000885,0,0
0:0:38.376,106.628,6.03291,0,0.000885,0,0
0:0:38.575,107.153,6.06049,0,0.000885,0,0
0:0:38.775,108.092,6.11565,0,0.000885,0,0
0:0:38.969,108.795,6.15702,0,0.000885,0,0
0:0:39.172,109.853,6.21907,0,0.000885,0,0
0:0:39.370,110.498,6.25354,0,0.000885,0,0
0:0:39.569,112.197,6.35007,0,0.000885,0,0
0:0:39.770,112.842,6.38455,0,0.000885,0,0
0:0:39.965,114.72,6.49486,0,0.000885,0,0
0:0:40.166,115.191,6.51555,0,0.000885,0,0
0:0:40.364,116.067,6.5707,0,0.000885,0,0
0:0:40.563,116.361,6.58449,0,0.000885,0,0
0:0:40.764,116.948,6.61897,0,0.000885,0,0
0:0:40.965,117.887,6.67413,0,0.000885,0,0
0:0:41.169,118.768,6.72239,0,0.000885,0,0
0:0:41.372,119.297,6.74997,0,0.000885,0,0
0:0:41.572,119.706,6.77065,0,0.000885,0,0
0:0:41.774,121.525,6.87407,0,0.000885,0,0
0:0:41.975,122.402,6.92923,0,0.000885,0,0
0:0:42.178,123.692,6.99818,0,0.000885,0,0
0:0:42.378,124.221,7.03265,0,0.000885,0,0
0:0:42.574,124.986,7.07402,0,0.000885,0,0
0:0:42.776,126.45,7.15676,0,0.000885,0,0
0:0:42.974,127.095,7.19123,0,0.000885,0,0
0:0:43.172,127.682,7.22571,0,0.000885,0,0
0:0:43.374,129.443,7.32223,0,0.000885,0,0
0:0:43.569,129.795,7.34292,0,0.000885,0,0
0:0:43.772,130.675,7.39118,0,0.000885,0,0
0:0:43.970,131.258,7.42565,0,0.000885,0,0
0:0:44.167,132.784,7.51529,0,0.000885,0,0
0:0:44.369,133.193,7.53597,0,0.000885,0,0
0:0:44.565,134.194,7.59113,0,0.000885,0,0
0:0:44.766,134.603,7.61871,0,0.000885,0,0
0:0:44.966,135.542,7.66697,0,0.000885,0,0
0:0:45.161,136.302,7.71523,0,0.000885,0,0
0:0:45.364,137.535,7.78418,0,0.000885,0,0
0:0:45.560,138.473,7.83934,0,0.000885,0,0
0:0:45.760,138.531,7.83934,0,0.000885,0,0
0:0:45.962,139.705,7.90829,0,0.000885,0,0
0:0:46.165,140.644,7.95655,0,0.000885,0,0
0:0:46.368,142.637,8.07376,0,0.000885,0,0
0:0:46.570,143.108,8.10134,0,0.000885,0,0
0:0:46.772,144.278,8.16339,0,0.000885,0,0
0:0:46.973,144.456,8.17718,0,0.000885,0,0
0:0:47.175,145.51,8.23234,0,0.000885,0,0
0:0:47.377,146.155,8.27371,0,0.000885,0,0
0:0:47.576,147.507,8.34955,0,0.000885,0,0
0:0:47.773,147.917,8.37024,0,0.000885,0,0
0:0:47.975,149.207,8.44608,0,0.000885,0,0
0:0:48.171,149.616,8.46676,0,0.000885,0,0
0:0:48.372,150.906,8.5426,0,0.000885,0,0
0:0:48.572,151.493,8.57018,0,0.000885,0,0
0:0:48.768,152.725,8.63913,0,0.000885,0,0
0:0:48.971,153.255,8.6736,0,0.000885,0,0
0:0:49.168,154.309,8.72876,0,0.000885,0,0
0:0:49.368,155.483,8.79771,0,0.000885,0,0
0:0:49.569,157.009,8.88734,0,0.000885,0,0
0:0:49.763,157.24,8.90113,0,0.000885,0,0
0:0:49.966,158.121,8.94939,0,0.000885,0,0
0:0:50.164,158.357,8.96318,0,0.000885,0,0
0:0:50.362,159.002,8.99766,0,0.000885,0,0
0:0:50.564,160.292,9.0735,0,0.000885,0,0
0:0:50.766,160.821,9.10108,0,0.000885,0,0
0:0:50.969,162.111,9.17692,0,0.000885,0,0
0:0:51.173,162.814,9.2114,0,0.000885,0,0
0:0:51.374,163.81,9.26655,0,0.000885,0,0
0:0:51.576,164.749,9.32171,0,0.000885,0,0
0:0:51.778,165.745,9.37687,0,0.000885,0,0
0:0:51.981,166.159,9.40445,0,0.000885,0,0
0:0:52.180,168.152,9.51477,0,0.000885,0,0
0:0:52.377,168.739,9.54924,0,0.000885,0,0
0:0:52.580,169.851,9.61129,0,0.000885,0,0
0:0:52.775,170.732,9.65955,0,0.000885,0,0
0:0:52.975,171.555,9.70782,0,0.000885,0,0
0:0:53.177,172.431,9.75608,0,0.000885,0,0
0:0:53.372,173.312,9.80434,0,0.000885,0,0
0:0:53.575,174.014,9.84571,0,0.000885,0,0
0:0:53.772,174.25,9.8595,0,0.000885,0,0
0:0:53.969,175.425,9.92845,0,0.000885,0,0
0:0:54.171,176.127,9.96982,0,0.000885,0,0
0:0:54.368,176.599,9.9905,0,0.000885,0,0
0:0:54.570,178.24,10.087,0,0.000885,0,0
0:0:54.768,178.649,10.1077,0,0.000885,0,0
0:0:54.965,180.175,10.1973,0,0.000885,0,0
0:0:55.167,181.114,10.2456,0,0.000885,0,0
0:0:55.364,181.581,10.2732,0,0.000885,0,0
0:0:55.565,182.697,10.3352,0,0.000885,0,0
0:0:55.766,183.752,10.3973,0,0.000885,0,0
0:0:55.971,184.748,10.4525,0,0.000885,0,0
0:0:56.173,185.451,10.4938,0,0.000885,0,0
0:0:56.375,186.452,10.549,0,0.000885,0,0
0:0:56.578,186.919,10.5766,0,0.000885,0,0
0:0:56.780,187.915,10.6317,0,0.000885,0,0
0:0:56.982,188.854,10.6869,0,0.000885,0,0
0:0:57.184,189.792,10.742,0,0.000885,0,0
0:0:57.382,190.495,10.7765,0,0.000885,0,0
0:0:57.581,191.376,10.8317,0,0.000885,0,0
0:0:57.783,191.669,10.8455,0,0.000885,0,0
0:0:57.978,193.137,10.9282,0,0.000885,0,0
0:0:58.177,193.724,10.9627,0,0.000885,0,0
0:0:58.374,194.779,11.0247,0,0.000885,0,0
0:0:58.572,195.482,11.0592,0,0.000885,0,0
0:0:58.774,197.007,11.1488,0,0.000885,0,0
0:0:58.967,198.062,11.2109,0,0.000885,0,0
0:0:59.167,199,11.2591,0,0.000885,0,0
0:0:59.364,199.414,11.2867,0,0.000885,0,0
0:0:59.562,200.704,11.3557,0,0.000885,0,0
0:0:59.763,201.349,11.397,0,0.000885,0,0
0:0:59.957,201.994,11.4315,0,0.000885,0,0
0:1:0.155,202.754,11.4729,0,0.000885,0,0
0:1:0.353,203.284,11.5005,0,0.000885,0,0
0:1:0.549,204.809,11.5901,0,0.000885,0,0
0:1:0.750,205.161,11.6108,0,0.000885,0,0
0:1:0.951,206.744,11.7004,0,0.000885,0,0
0:1:1.153,207.212,11.728,0,0.000885,0,0
0:1:1.355,208.559,11.8038,0,0.000885,0,0
0:1:1.555,209.031,11.8314,0,0.000885,0,0
0:1:1.755,210.143,11.8935,0,0.000885,0,0
0:1:1.955,211.375,11.9624,0,0.000885,0,0
0:1:2.155,212.314,12.0176,0,0.000885,0,0
0:1:2.356,213.137,12.0589,0,0.000885,0,0
0:1:2.550,214.075,12.1141,0,0.000885,0,0
0:1:2.749,214.662,12.1486,0,0.000885,0,0
0:1:2.948,215.423,12.1899,0,0.000885,0,0
0:1:3.143,216.184,12.2313,0,0.000885,0,0
0:1:3.344,216.539,12.252,0,0.000885,0,0
0:1:3.536,217.594,12.314,0,0.000885,0,0
0:1:3.734,218.123,12.3416,0,0.000885,0,0
0:1:3.934,219.471,12.4175,0,0.000885,0,0
0:1:4.128,220,12.4519,0,0.000885,0,0
0:1:4.329,220.997,12.5071,0,0.000885,0,0
0:1:4.534,221.757,12.5485,0,0.000885,0,0
0:1:4.742,223.105,12.6243,0,0.000885,0,0
0:1:4.943,223.692,12.6588,0,0.000885,0,0
0:1:5.135,225.334,12.7484,0,0.000885,0,0
0:1:5.336,225.921,12.7829,0,0.000885,0,0
0:1:5.543,226.859,12.838,0,0.000885,0,0
0:1:5.740,227.389,12.8656,0,0.000885,0,0
0:1:5.941,228.563,12.9346,0,0.000885,0,0
0:1:6.143,228.972,12.9552,0,0.000885,0,0
0:1:6.345,229.969,13.0104,0,0.000885,0,0
0:1:6.546,231.374,13.0931,0,0.000885,0,0
0:1:6.746,232.669,13.169,0,0.000885,0,0
0:1:6.947,233.078,13.1897,0,0.000885,0,0
0:1:7.146,234.426,13.2655,0,0.000885,0,0
0:1:7.348,234.484,13.2724,0,0.000885,0,0
0:1:7.547,236.187,13.362,0,0.000885,0,0
0:1:7.742,236.89,13.4034,0,0.000885,0,0
0:1:7.942,237.241,13.4241,0,0.000885,0,0
0:1:8.148,238.647,13.5068,0,0.000885,0,0
0:1:8.347,238.941,13.5206,0,0.000885,0,0
0:1:8.544,240.466,13.6103,0,0.000885,0,0
0:1:8.737,240.466,13.6103,0,0.000885,0,0
0:1:8.940,241.641,13.6723,0,0.000885,0,0
0:1:9.134,241.934,13.693,0,0.000885,0,0
0:1:9.333,243.46,13.7757,0,0.000885,0,0
0:1:9.531,243.927,13.8033,0,0.000885,0,0
0:1:9.733,245.511,13.8929,0,0.000885,0,0
0:1:9.934,245.626,13.8998,0,0.000885,0,0
0:1:10.131,247.094,13.9826,0,0.000885,0,0
0:1:10.330,247.446,14.0033,0,0.000885,0,0
0:1:10.529,249.029,14.0929,0,0.000885,0,0
0:1:10.732,249.732,14.1343,0,0.000885,0,0
0:1:10.933,250.964,14.2032,0,0.000885,0,0
0:1:11.133,251.609,14.2377,0,0.000885,0,0
0:1:11.336,252.668,14.2997,0,0.000885,0,0
0:1:11.540,253.722,14.3549,0,0.000885,0,0
0:1:11.740,254.189,14.3825,0,0.000885,0,0
0:1:11.941,255.128,14.4376,0,0.000885,0,0
0:1:12.142,256.244,14.4997,0,0.000885,0,0
0:1:12.343,257.125,14.5479,0,0.000885,0,0
0:1:12.542,257.828,14.5893,0,0.000885,0,0
0:1:12.735,258.651,14.6376,0,0.000885,0,0
0:1:12.934,259.705,14.6996,0,0.000885,0,0
0:1:13.143,260.172,14.7203,0,0.000885,0,0
0:1:13.338,260.937,14.7686,0,0.000885,0,0
0:1:13.540,261.64,14.803,0,0.000885,0,0
0:1:13.744,262.636,14.8651,0,0.000885,0,0
0:1:13.945,263.691,14.9203,0,0.000885,0,0
0:1:14.142,264.278,14.9547,0,0.000885,0,0
0:1:14.337,265.216,15.0099,0,0.000885,0,0
0:1:14.537,266.391,15.0719,0,0.000885,0,0
0:1:14.744,266.858,15.0995,0,0.000885,0,0
0:1:14.942,267.681,15.1478,0,0.000885,0,0
0:1:15.141,269.264,15.2374,0,0.000885,0,0
0:1:15.333,270.025,15.2788,0,0.000885,0,0
0:1:15.534,271.435,15.3615,0,0.000885,0,0
0:1:15.735,271.844,15.3822,0,0.000885,0,0
0:1:15.937,273.018,15.4512,0,0.000885,0,0
0:1:16.138,273.606,15.4856,0,0.000885,0,0
0:1:16.341,274.66,15.5408,0,0.000885,0,0
0:1:16.542,275.598,15.5959,0,0.000885,0,0
0:1:16.742,276.301,15.6373,0,0.000885,0,0
0:1:16.943,277.124,15.6787,0,0.000885,0,0
0:1:17.143,277.36,15.6925,0,0.000885,0,0
0:1:17.335,279.001,15.789,0,0.000885,0,0
0:1:17.537,279.646,15.8235,0,0.000885,0,0
0:1:17.734,281.172,15.9131,0,0.000885,0,0
0:1:17.930,281.755,15.9476,0,0.000885,0,0
0:1:18.131,282.871,16.0096,0,0.000885,0,0
0:1:18.334,283.401,16.0372,0,0.000885,0,0
0:1:18.535,284.219,16.0855,0,0.000885,0,0
0:1:18.731,285.042,16.1268,0,0.000885,0,0
0:1:18.937,285.687,16.1682,0,0.000885,0,0
0:1:19.137,286.626,16.2165,0,0.000885,0,0
0:1:19.331,287.8,16.2854,0,0.000885,0,0
0:1:19.531,288.618,16.3337,0,0.000885,0,0
0:1:19.729,289.557,16.3888,0,0.000885,0,0
0:1:19.935,290.028,16.4095,0,0.000885,0,0
0:1:20.135,291.025,16.4716,0,0.000885,0,0
0:1:20.328,292.021,16.5267,0,0.000885,0,0
0:1:20.529,292.902,16.575,0,0.000885,0,0
0:1:20.730,293.841,16.6302,0,0.000885,0,0
0:1:20.933,294.072,16.6439,0,0.000885,0,0
0:1:21.134,295.54,16.7267,0,0.000885,0,0
0:1:21.334,296.478,16.7749,0,0.000885,0,0
0:1:21.534,297.008,16.8094,0,0.000885,0,0
0:1:21.733,298.004,16.8646,0,0.000885,0,0
0:1:21.933,299.41,16.9404,0,0.000885,0,0
0:1:22.133,299.761,16.9611,0,0.000885,0,0
0:1:22.329,300.878,17.0232,0,0.000885,0,0
0:1:22.528,301.345,17.0507,0,0.000885,0,0
0:1:22.727,303.164,17.1542,0,0.000885,0,0
0:1:22.922,303.809,17.1955,0,0.000885,0,0
0:1:23.123,304.69,17.2438,0,0.000885,0,0
0:1:23.318,305.508,17.2852,0,0.000885,0,0
0:1:23.517,306.74,17.361,0,0.000885,0,0
0:1:23.716,307.27,17.3886,0,0.000885,0,0
0:1:23.911,307.915,17.4231,0,0.000885,0,0
0:1:24.112,308.853,17.4782,0,0.000885,0,0
0:1:24.308,309.263,17.4989,0,0.000885,0,0
0:1:24.503,310.673,17.5816,0,0.000885,0,0
0:1:24.703,311.14,17.6092,0,0.000885,0,0
0:1:24.898,312.665,17.6919,0,0.000885,0,0
0:1:25.098,313.137,17.7195,0,0.000885,0,0
0:1:25.295,314.543,17.8023,0,0.000885,0,0
0:1:25.491,315.072,17.8298,0,0.000885,0,0
0:1:25.692,315.948,17.8781,0,0.000885,0,0
0:1:25.893,316.478,17.9057,0,0.000885,0,0
0:1:26.095,317.888,17.9884,0,0.000885,0,0
0:1:26.297,318.533,18.0229,0,0.000885,0,0
0:1:26.498,319.645,18.0849,0,0.000885,0,0
0:1:26.699,320.583,18.1401,0,0.000885,0,0
0:1:26.899,321.464,18.1884,0,0.000885,0,0
0:1:27.100,322.283,18.2366,0,0.000885,0,0
0:1:27.300,322.576,18.2573,0,0.000885,0,0
0:1:27.496,323.693,18.3194,0,0.000885,0,0
0:1:27.696,324.395,18.3538,0,0.000885,0,0
0:1:27.891,325.57,18.4228,0,0.000885,0,0
0:1:28.089,326.095,18.4504,0,0.000885,0,0
0:1:28.290,327.096,18.5124,0,0.000885,0,0
0:1:28.484,327.505,18.5331,0,0.000885,0,0
0:1:28.686,328.795,18.6089,0,0.000885,0,0
0:1:28.880,329.382,18.6365,0,0.000885,0,0
0:1:29.076,329.969,18.671,0,0.000885,0,0
0:1:29.277,330.73,18.7124,0,0.000885,0,0
0:1:29.472,332.198,18.7951,0,0.000885,0,0
0:1:29.672,333.078,18.8503,0,0.000885,0,0
0:1:29.870,334.484,18.9261,0,0.000885,0,0
0:1:30.065,335.423,18.9813,0,0.000885,0,0
0:1:30.266,335.716,18.9951,0,0.000885,0,0
0:1:30.462,337.473,19.0985,0,0.000885,0,0
0:1:30.659,338.06,19.133,0,0.000885,0,0
0:1:30.861,338.999,19.1812,0,0.000885,0,0
0:1:31.064,339.408,19.2088,0,0.000885,0,0
0:1:31.265,340.876,19.2915,0,0.000885,0,0
0:1:31.465,341.17,19.3053,0,0.000885,0,0
0:1:31.665,343.163,19.4225,0,0.000885,0,0
0:1:31.864,343.163,19.4225,0,0.000885,0,0
0:1:32.064,344.221,19.4777,0,0.000885,0,0
0:1:32.264,344.452,19.4915,0,0.000885,0,0
0:1:32.462,345.805,19.5673,0,0.000885,0,0
0:1:32.659,346.036,19.5811,0,0.000885,0,0
0:1:32.859,347.21,19.6501,0,0.000885,0,0
0:1:33.054,347.855,19.6845,0,0.000885,0,0
0:1:33.252,349.203,19.7604,0,0.000885,0,0
0:1:33.452,349.323,19.7673,0,0.000885,0,0
0:1:33.646,350.378,19.8293,0,0.000885,0,0
0:1:33.848,351.2,19.8707,0,0.000885,0,0
0:1:34.043,351.961,19.919,0,0.000885,0,0
0:1:34.239,352.9,19.9672,0,0.000885,0,0
0:1:34.439,353.723,20.0155,0,0.000885,0,0
0:1:34.634,355.831,20.1327,0,0.000885,0,0
0:1:34.834,356.009,20.1465,0,0.000885,0,0
0:1:35.040,357.299,20.2223,0,0.000885,0,0
0:1:35.246,358.18,20.2706,0,0.000885,0,0
0:1:35.448,358.767,20.3051,0,0.000885,0,0
0:1:35.649,359.763,20.3602,0,0.000885,0,0
0:1:35.852,360.702,20.4085,0,0.000885,0,0
0:1:36.052,361.698,20.4705,0,0.000885,0,0
0:1:36.253,362.228,20.4981,0,0.000885,0,0
0:1:36.454,362.93,20.5395,0,0.000885,0,0
0:1:36.654,363.985,20.5946,0,0.000885,0,0
0:1:36.854,364.63,20.636,0,0.000885,0,0
0:1:37.054,365.862,20.705,0,0.000885,0,0
0:1:37.249,366.329,20.7325,0,0.000885,0,0
0:1:37.449,368.033,20.8291,0,0.000885,0,0
0:1:37.645,368.326,20.8429,0,0.000885,0,0
0:1:37.843,369.852,20.9325,0,0.000885,0,0
0:1:38.044,370.319,20.9532,0,0.000885,0,0
0:1:38.235,370.906,20.9876,0,0.000885,0,0
0:1:38.435,372.547,21.0842,0,0.000885,0,0
0:1:38.632,372.605,21.0842,0,0.000885,0,0
0:1:38.829,373.664,21.1462,0,0.000885,0,0
0:1:39.030,374.131,21.1738,0,0.000885,0,0
0:1:39.233,375.715,21.2634,0,0.000885,0,0
0:1:39.433,376.066,21.2841,0,0.000885,0,0
0:1:39.632,377.77,21.3806,0,0.000885,0,0
0:1:39.826,377.592,21.3669,0,0.000885,0,0
0:1:40.028,379.291,21.4634,0,0.000885,0,0
0:1:40.233,379.82,21.491,0,0.000885,0,0
0:1:40.430,381.168,21.5668,0,0.000885,0,0
0:1:40.631,382.107,21.622,0,0.000885,0,0
0:1:40.831,382.987,21.6702,0,0.000885,0,0
0:1:41.033,383.575,21.7047,0,0.000885,0,0
0:1:41.234,383.984,21.7323,0,0.000885,0,0
0:1:41.434,385.332,21.8081,0,0.000885,0,0
0:1:41.636,386.332,21.8633,0,0.000885,0,0
0:1:41.835,386.8,21.8909,0,0.000885,0,0
0:1:42.036,388.032,21.9598,0,0.000885,0,0
0:1:42.235,388.677,21.9943,0,0.000885,0,0
0:1:42.439,389.322,22.0287,0,0.000885,0,0
0:1:42.641,390.082,22.077,0,0.000885,0,0
0:1:42.835,391.315,22.146,0,0.000885,0,0
0:1:43.036,392.315,22.2011,0,0.000885,0,0
0:1:43.234,392.96,22.2356,0,0.000885,0,0
0:1:43.439,394.13,22.3045,0,0.000885,0,0
0:1:43.640,394.66,22.3321,0,0.000885,0,0
0:1:43.835,396.417,22.4355,0,0.000885,0,0
0:1:44.034,397.24,22.4769,0,0.000885,0,0
0:1:44.234,398.356,22.539,0,0.000885,0,0
0:1:44.448,398.823,22.5665,0,0.000885,0,0
0:1:44.649,399.468,22.6079,0,0.000885,0,0
0:1:44.845,400.291,22.6493,0,0.000885,0,0
0:1:45.040,401.23,22.7044,0,0.000885,0,0
0:1:45.243,402.399,22.7734,0,0.000885,0,0
0:1:45.447,402.813,22.7941,0,0.000885,0,0
0:1:45.648,403.632,22.8423,0,0.000885,0,0
0:1:45.847,404.57,22.8975,0,0.000885,0,0
0:1:46.050,405.335,22.9389,0,0.000885,0,0
0:1:46.252,406.274,22.9871,0,0.000885,0,0
0:1:46.453,407.092,23.0354,0,0.000885,0,0
0:1:46.654,408.147,23.0974,0,0.000885,0,0
0:1:46.853,408.969,23.1457,0,0.000885,0,0
0:1:47.054,410.611,23.2353,0,0.000885,0,0
0:1:47.254,411.025,23.256,0,0.000885,0,0
0:1:47.451,412.724,23.3525,0,0.000885,0,0
0:1:47.648,413.311,23.387,0,0.000885,0,0
0:1:47.848,413.662,23.4077,0,0.000885,0,0
0:1:48.050,414.895,23.4766,0,0.000885,0,0
0:1:48.252,415.188,23.4973,0,0.000885,0,0
0:1:48.449,416.652,23.5801,0,0.000885,0,0
0:1:48.646,417.181,23.6076,0,0.000885,0,0
0:1:48.845,418.707,23.6973,0,0.000885,0,0
0:1:49.037,418.942,23.7042,0,0.000885,0,0
0:1:49.238,419.819,23.7593,0,0.000885,0,0
0:1:49.435,420.348,23.7869,0,0.000885,0,0
0:1:49.640,421.522,23.8559,0,0.000885,0,0
0:1:49.841,422.283,23.8972,0,0.000885,0,0
0:1:50.046,423.222,23.9524,0,0.000885,0,0
0:1:50.245,423.982,23.9938,0,0.000885,0,0
0:1:50.445,424.805,24.042,0,0.000885,0,0
0:1:50.638,425.922,24.1041,0,0.000885,0,0
0:1:50.839,426.86,24.1523,0,0.000885,0,0
0:1:51.040,427.799,24.2075,0,0.000885,0,0
0:1:51.245,429.147,24.2833,0,0.000885,0,0
0:1:51.445,429.204,24.2902,0,0.000885,0,0
0:1:51.646,430.552,24.3661,0,0.000885,0,0
0:1:51.846,430.966,24.3868,0,0.000885,0,0
0:1:52.045,431.611,24.4212,0,0.000885,0,0
0:1:52.246,433.074,24.504,0,0.000885,0,0
0:1:52.446,433.546,24.5315,0,0.000885,0,0
0:1:52.649,435.067,24.6212,0,0.000885,0,0
0:1:52.850,435.129,24.6212,0,0.000885,0,0
0:1:53.046,436.944,24.7246,0,0.000885,0,0
0:1:53.241,437.652,24.766,0,0.000885,0,0
0:1:53.442,438.354,24.8073,0,0.000885,0,0
0:1:53.648,439.173,24.8556,0,0.000885,0,0
0:1:53.848,440.232,24.9108,0,0.000885,0,0
0:1:54.046,440.992,24.9521,0,0.000885,0,0
0:1:54.239,441.873,25.0073,0,0.000885,0,0
0:1:54.440,442.927,25.0624,0,0.000885,0,0
0:1:54.636,443.866,25.1176,0,0.000885,0,0
0:1:54.846,444.631,25.159,0,0.000885,0,0
0:1:55.046,445.156,25.1934,0,0.000885,0,0
0:1:55.248,445.801,25.2279,0,0.000885,0,0
0:1:55.449,447.153,25.3038,0,0.000885,0,0
0:1:55.650,447.504,25.3244,0,0.000885,0,0
0:1:55.853,448.794,25.3934,0,0.000885,0,0
0:1:56.054,449.439,25.4348,0,0.000885,0,0
0:1:56.255,450.845,25.5106,0,0.000885,0,0
0:1:56.455,451.196,25.5313,0,0.000885,0,0
0:1:56.655,452.722,25.6209,0,0.000885,0,0
0:1:56.855,453.074,25.6416,0,0.000885,0,0
0:1:57.055,454.426,25.7174,0,0.000885,0,0
0:1:57.251,455.187,25.7588,0,0.000885,0,0
0:1:57.449,455.774,25.7933,0,0.000885,0,0
0:1:57.648,456.828,25.8484,0,0.000885,0,0
0:1:57.841,457.237,25.876,0,0.000885,0,0
0:1:58.045,458.118,25.9243,0,0.000885,0,0
0:1:58.239,459.234,25.9863,0,0.000885,0,0
0:1:58.447,460.876,26.0829,0,0.000885,0,0
0:1:58.645,460.934,26.0829,0,0.000885,0,0
0:1:58.839,462.637,26.1794,0,0.000885,0,0
0:1:59.039,463.047,26.2001,0,0.000885,0,0
0:1:59.237,464.159,26.269,0,0.000885,0,0
0:1:59.432,464.572,26.2897,0,0.000885,0,0
0:1:59.633,465.511,26.3449,0,0.000885,0,0
0:1:59.830,466.681,26.4069,0,0.000885,0,0
0:2:0.029,467.21,26.4414,0,0.000885,0,0
0:2:0.226,468.033,26.4828,0,0.000885,0,0
0:2:0.430,468.909,26.5379,0,0.000885,0,0
0:2:0.632,470.319,26.6138,0,0.000885,0,0
0:2:0.832,470.671,26.6344,0,0.000885,0,0
0:2:1.034,471.783,26.6965,0,0.000885,0,0
0:2:1.235,472.254,26.7241,0,0.000885,0,0
0:2:1.437,473.954,26.8206,0,0.000885,0,0
0:2:1.638,474.367,26.8413,0,0.000885,0,0
0:2:1.839,475.951,26.9309,0,0.000885,0,0
0:2:2.038,476.596,26.9723,0,0.000885,0,0
0:2:2.240,477.299,27.0068,0,0.000885,0,0
0:2:2.435,478.411,27.0757,0,0.000885,0,0
0:2:2.635,479.176,27.1171,0,0.000885,0,0
0:2:2.831,480.23,27.1722,0,0.000885,0,0
0:2:3.029,480.875,27.2136,0,0.000885,0,0
0:2:3.229,481.929,27.2688,0,0.000885,0,0
0:2:3.442,482.223,27.2894,0,0.000885,0,0
0:2:3.641,483.339,27.3515,0,0.000885,0,0
0:2:3.840,484.042,27.3929,0,0.000885,0,0
0:2:4.046,484.745,27.4342,0,0.000885,0,0
0:2:4.248,485.216,27.4549,0,0.000885,0,0
0:2:4.442,486.035,27.5032,0,0.000885,0,0
0:2:4.639,487.619,27.5928,0,0.000885,0,0
0:2:4.839,488.206,27.6273,0,0.000885,0,0
0:2:5.033,490.141,27.7376,0,0.000885,0,0
0:2:5.234,490.612,27.7652,0,0.000885,0,0
0:2:5.441,491.551,27.8135,0,0.000885,0,0
0:2:5.649,492.311,27.8617,0,0.000885,0,0
0:2:5.850,493.25,27.91,0,0.000885,0,0
0:2:6.052,493.895,27.9513,0,0.000885,0,0
0:2:6.253,494.54,27.9858,0,0.000885,0,0
0:2:6.455,495.599,28.0479,0,0.000885,0,0
0:2:6.654,496.653,28.103,0,0.000885,0,0
0:2:6.853,497.885,28.172,0,0.000885,0,0
0:2:7.054,498.058,28.1858,0,0.000885,0,0
0:2:7.254,499.055,28.2409,0,0.000885,0,0
0:2:7.453,499.291,28.2547,0,0.000885,0,0
0:2:7.649,501.11,28.3581,0,0.000885,0,0
0:2:7.849,501.461,28.3788,0,0.000885,0,0
0:2:8.043,502.929,28.4616,0,0.000885,0,0
0:2:8.240,503.926,28.5167,0,0.000885,0,0
0:2:8.441,504.393,28.5443,0,0.000885,0,0
0:2:8.643,505.216,28.5926,0,0.000885,0,0
0:2:8.847,506.799,28.6822,0,0.000885,0,0
0:2:9.041,507.502,28.7167,0,0.000885,0,0
0:2:9.249,508.792,28.7925,0,0.000885,0,0
0:2:9.450,509.264,28.8201,0,0.000885,0,0
0:2:9.643,510.496,28.889,0,0.000885,0,0
0:2:9.842,511.199,28.9304,0,0.000885,0,0
0:2:10.040,511.786,28.958,0,0.000885,0,0
0:2:10.235,512.662,29.0131,0,0.000885,0,0
0:2:10.435,513.249,29.0407,0,0.000885,0,0
0:2:10.637,514.246,29.1028,0,0.000885,0,0
0:2:10.840,515.246,29.1579,0,0.000885,0,0
0:2:11.042,516.007,29.1993,0,0.000885,0,0
0:2:11.241,516.768,29.2407,0,0.000885,0,0
0:2:11.443,517.355,29.2751,0,0.000885,0,0
0:2:11.643,518.529,29.3441,0,0.000885,0,0
0:2:11.844,519.641,29.4061,0,0.000885,0,0
0:2:12.044,519.877,29.4199,0,0.000885,0,0
0:2:12.238,521.403,29.5027,0,0.000885,0,0
0:2:12.438,521.932,29.5371,0,0.000885,0,0
0:2:12.636,523.164,29.6061,0,0.000885,0,0
0:2:12.841,523.925,29.6475,0,0.000885,0,0
0:2:13.042,525.215,29.7233,0,0.000885,0,0
0:2:13.236,525.451,29.7371,0,0.000885,0,0
0:2:13.436,526.741,29.806,0,0.000885,0,0
0:2:13.635,527.501,29.8474,0,0.000885,0,0
0:2:13.830,528.911,29.9301,0,0.000885,0,0
0:2:14.031,529.556,29.9646,0,0.000885,0,0
0:2:14.226,529.614,29.9715,0,0.000885,0,0
0:2:14.424,531.256,30.0611,0,0.000885,0,0
0:2:14.623,531.785,30.0956,0,0.000885,0,0
0:2:14.818,533.017,30.1646,0,0.000885,0,0
0:2:15.019,533.778,30.2059,0,0.000885,0,0
0:2:15.215,534.543,30.2473,0,0.000885,0,0
0:2:15.413,535.188,30.2887,0,0.000885,0,0
0:2:15.613,536.122,30.3369,0,0.000885,0,0
0:2:15.814,536.651,30.3714,0,0.000885,0,0
0:2:16.017,537.999,30.4472,0,0.000885,0,0
0:2:16.219,538.235,30.461,0,0.000885,0,0
0:2:16.420,539.467,30.53,0,0.000885,0,0
0:2:16.620,540.29,30.5714,0,0.000885,0,0
0:2:16.822,541.228,30.6265,0,0.000885,0,0
0:2:17.022,542.225,30.6817,0,0.000885,0,0
0:2:17.221,543.573,30.7575,0,0.000885,0,0
0:2:17.416,544.044,30.7851,0,0.000885,0,0
0:2:17.617,545.392,30.8609,0,0.000885,0,0
0:2:17.813,546.331,30.9161,0,0.000885,0,0
0:2:18.011,546.918,30.9506,0,0.000885,0,0
0:2:18.210,547.794,30.9988,0,0.000885,0,0
0:2:18.403,548.733,31.054,0,0.000885,0,0
0:2:18.603,549.791,31.1091,0,0.000885,0,0
0:2:18.800,550.374,31.1436,0,0.000885,0,0
0:2:18.997,551.784,31.2264,0,0.000885,0,0
0:2:19.197,551.784,31.2264,0,0.000885,0,0
0:2:19.393,552.838,31.2815,0,0.000885,0,0
0:2:19.590,553.483,31.3229,0,0.000885,0,0
0:2:19.789,554.893,31.3987,0,0.000885,0,0
0:2:19.984,555.538,31.4401,0,0.000885,0,0
0:2:20.185,556.593,31.4953,0,0.000885,0,0
0:2:20.381,557.18,31.5297,0,0.000885,0,0
0:2:20.577,558.061,31.578,0,0.000885,0,0
0:2:20.779,559.466,31.6607,0,0.000885,0,0
0:2:20.980,559.702,31.6745,0,0.000885,0,0
0:2:21.183,561.228,31.7573,0,0.000885,0,0
0:2:21.384,562.108,31.8055,0,0.000885,0,0
0:2:21.584,562.633,31.84,0,0.000885,0,0
0:2:21.784,563.572,31.8883,0,0.000885,0,0
0:2:21.985,564.395,31.9365,0,0.000885,0,0
0:2:22.184,564.746,31.9572,0,0.000885,0,0
0:2:22.383,566.445,32.0537,0,0.000885,0,0
0:2:22.579,566.445,32.0537,0,0.000885,0,0
0:2:22.780,567.504,32.1158,0,0.000885,0,0
0:2:22.973,568.149,32.1503,0,0.000885,0,0
0:2:23.174,569.377,32.2192,0,0.000885,0,0
0:2:23.373,570.2,32.2675,0,0.000885,0,0
0:2:23.567,572.255,32.3847,0,0.000885,0,0
0:2:23.768,572.313,32.3847,0,0.000885,0,0
0:2:23.963,572.606,32.4054,0,0.000885,0,0
0:2:24.161,573.954,32.4812,0,0.000885,0,0
0:2:24.362,574.657,32.5157,0,0.000885,0,0
0:2:24.556,575.889,32.5915,0,0.000885,0,0
0:2:24.756,576.592,32.626,0,0.000885,0,0
0:2:24.952,577.708,32.6949,0,0.000885,0,0
0:2:25.148,578.233,32.7225,0,0.000885,0,0
0:2:25.349,579.817,32.8121,0,0.000885,0,0
0:2:25.550,580.11,32.8259,0,0.000885,0,0
0:2:25.753,581.463,32.9018,0,0.000885,0,0
0:2:25.954,582.165,32.9432,0,0.000885,0,0
0:2:26.155,583.22,33.0052,0,0.000885,0,0
0:2:26.354,583.398,33.0121,0,0.000885,0,0
0:2:26.555,585.039,33.1086,0,0.000885,0,0
0:2:26.756,585.448,33.1293,0,0.000885,0,0
0:2:26.955,586.093,33.1638,0,0.000885,0,0
0:2:27.149,587.21,33.2258,0,0.000885,0,0
0:2:27.349,587.913,33.2672,0,0.000885,0,0
0:2:27.545,588.673,33.3155,0,0.000885,0,0
0:2:27.753,589.26,33.343,0,0.000885,0,0
0:2:27.953,590.786,33.4327,0,0.000885,0,0
0:2:28.156,591.489,33.474,0,0.000885,0,0
0:2:28.356,592.548,33.5292,0,0.000885,0,0
0:2:28.554,593.072,33.5637,0,0.000885,0,0
0:2:28.751,594.661,33.6533,0,0.000885,0,0
0:2:28.953,595.07,33.674,0,0.000885,0,0
0:2:29.145,596.124,33.736,0,0.000885,0,0
0:2:29.344,596.831,33.7705,0,0.000885,0,0
0:2:29.544,597.943,33.8395,0,0.000885,0,0
0:2:29.751,598.824,33.8877,0,0.000885,0,0
0:2:29.953,600.176,33.9636,0,0.000885,0,0
0:2:30.150,600.648,33.9912,0,0.000885,0,0
0:2:30.346,601.644,34.0463,0,0.000885,0,0
0:2:30.549,602.289,34.0808,0,0.000885,0,0
0:2:30.752,603.406,34.1428,0,0.000885,0,0
0:2:30.955,603.993,34.1773,0,0.000885,0,0
0:2:31.158,605.105,34.2394,0,0.000885,0,0
0:2:31.358,605.519,34.2669,0,0.000885,0,0
0:2:31.560,606.515,34.3221,0,0.000885,0,0
0:2:31.761,607.28,34.3635,0,0.000885,0,0
0:2:31.963,608.57,34.4393,0,0.000885,0,0
0:2:32.163,609.215,34.4738,0,0.000885,0,0
0:2:32.358,609.802,34.5083,0,0.000885,0,0
0:2:32.560,610.567,34.5496,0,0.000885,0,0
0:2:32.758,611.328,34.591,0,0.000885,0,0
0:2:32.955,613.089,34.6944,0,0.000885,0,0
0:2:33.155,613.441,34.7151,0,0.000885,0,0
0:2:33.350,614.264,34.7634,0,0.000885,0,0
0:2:33.551,615.087,34.8047,0,0.000885,0,0
0:2:33.751,616.377,34.8806,0,0.000885,0,0
0:2:33.950,617.08,34.9219,0,0.000885,0,0
0:2:34.150,618.432,34.9978,0,0.000885,0,0
0:2:34.355,619.135,35.0392,0,0.000885,0,0
0:2:34.556,620.135,35.0943,0,0.000885,0,0
0:2:34.754,621.074,35.1426,0,0.000885,0,0
0:2:34.952,622.48,35.2253,0,0.000885,0,0
0:2:35.154,623.303,35.2736,0,0.000885,0,0
0:2:35.357,624.126,35.3149,0,0.000885,0,0
0:2:35.557,624.655,35.3494,0,0.000885,0,0
0:2:35.758,625.064,35.3701,0,0.000885,0,0
0:2:35.962,625.473,35.3977,0,0.000885,0,0
0:2:36.164,627.004,35.4804,0,0.000885,0,0
0:2:36.366,627.235,35.4942,0,0.000885,0,0
0:2:36.568,628.467,35.5632,0,0.000885,0,0
0:2:36.768,629.116,35.5976,0,0.000885,0,0
0:2:36.970,630.7,35.6873,0,0.000885,0,0
0:2:37.172,631.051,35.7079,0,0.000885,0,0
0:2:37.370,632.284,35.7769,0,0.000885,0,0
0:2:37.569,633.164,35.8321,0,0.000885,0,0
0:2:37.769,633.458,35.8458,0,0.000885,0,0
0:2:37.965,634.632,35.9148,0,0.000885,0,0
0:2:38.166,635.571,35.9631,0,0.000885,0,0
0:2:38.363,637.039,36.0458,0,0.000885,0,0
0:2:38.562,637.332,36.0665,0,0.000885,0,0
0:2:38.763,638.564,36.1354,0,0.000885,0,0
0:2:38.956,639.094,36.163,0,0.000885,0,0
0:2:39.158,640.677,36.2526,0,0.000885,0,0
0:2:39.357,641.385,36.294,0,0.000885,0,0
0:2:39.553,642.087,36.3354,0,0.000885,0,0
0:2:39.754,642.853,36.3767,0,0.000885,0,0
0:2:39.947,644.494,36.4733,0,0.000885,0,0
0:2:40.151,645.197,36.5077,0,0.000885,0,0
0:2:40.351,645.668,36.5353,0,0.000885,0,0
0:2:40.545,646.198,36.5698,0,0.000885,0,0
0:2:40.750,646.958,36.6112,0,0.000885,0,0
0:2:40.951,648.19,36.6801,0,0.000885,0,0
0:2:41.155,649.071,36.7284,0,0.000885,0,0
0:2:41.357,650.072,36.7835,0,0.000885,0,0
0:2:41.559,650.659,36.818,0,0.000885,0,0
0:2:41.760,652.185,36.9076,0,0.000885,0,0
0:2:41.960,652.71,36.9352,0,0.000885,0,0
0:2:42.162,653.946,37.0042,0,0.000885,0,0
0:2:42.363,654.413,37.0317,0,0.000885,0,0
0:2:42.560,655.001,37.0662,0,0.000885,0,0
0:2:42.761,655.824,37.1145,0,0.000885,0,0
0:2:42.958,657.407,37.2041,0,0.000885,0,0
0:2:43.157,657.585,37.211,0,0.000885,0,0
0:2:43.358,658.404,37.2593,0,0.000885,0,0
0:2:43.552,658.933,37.2868,0,0.000885,0,0
0:2:43.754,660.752,37.3903,0,0.000885,0,0
0:2:43.951,661.517,37.4316,0,0.000885,0,0
0:2:44.147,663.159,37.5282,0,0.000885,0,0
0:2:44.351,663.63,37.5557,0,0.000885,0,0
0:2:44.543,664.391,37.5971,0,0.000885,0,0
0:2:44.744,664.978,37.6316,0,0.000885,0,0
0:2:44.942,666.508,37.7143,0,0.000885,0,0
0:2:45.141,666.975,37.7419,0,0.000885,0,0
0:2:45.341,667.269,37.7626,0,0.000885,0,0
0:2:45.544,668.443,37.8246,0,0.000885,0,0
0:2:45.747,668.385,37.8246,0,0.000885,0,0
0:2:45.951,669.675,37.8936,0,0.000885,0,0
0:2:46.153,670.498,37.9418,0,0.000885,0,0
0:2:46.356,671.788,38.0177,0,0.000885,0,0
0:2:46.555,672.26,38.0453,0,0.000885,0,0
0:2:46.758,673.55,38.1142,0,0.000885,0,0
0:2:46.956,674.315,38.1556,0,0.000885,0,0
0:2:47.153,675.547,38.2314,0,0.000885,0,0
0:2:47.355,676.192,38.2659,0,0.000885,0,0
0:2:47.551,677.602,38.3417,0,0.000885,0,0
0:2:47.751,678.541,38.3969,0,0.000885,0,0
0:2:47.948,679.479,38.4521,0,0.000885,0,0
0:2:48.155,680.182,38.4934,0,0.000885,0,0
0:2:48.357,680.947,38.5348,0,0.000885,0,0
0:2:48.554,681.534,38.5693,0,0.000885,0,0
0:2:48.753,682.766,38.6382,0,0.000885,0,0
0:2:48.953,683.233,38.6658,0,0.000885,0,0
0:2:49.146,684.701,38.7485,0,0.000885,0,0
0:2:49.351,685.524,38.7899,0,0.000885,0,0
0:2:49.546,686.583,38.852,0,0.000885,0,0
0:2:49.746,686.814,38.8657,0,0.000885,0,0
0:2:49.945,687.815,38.9209,0,0.000885,0,0
0:2:50.141,688.576,38.9623,0,0.000885,0,0
0:2:50.343,689.341,39.0105,0,0.000885,0,0
0:2:50.543,690.044,39.0519,0,0.000885,0,0
0:2:50.746,690.809,39.0933,0,0.000885,0,0
0:2:50.952,691.983,39.1553,0,0.000885,0,0
0:2:51.152,692.57,39.1898,0,0.000885,0,0
0:2:51.354,694.327,39.2932,0,0.000885,0,0
0:2:51.555,694.621,39.307,0,0.000885,0,0
0:2:51.756,695.795,39.376,0,0.000885,0,0
0:2:51.957,696.325,39.4035,0,0.000885,0,0
0:2:52.153,697.615,39.4794,0,0.000885,0,0
0:2:52.355,698.264,39.5139,0,0.000885,0,0
0:2:52.551,699.025,39.5552,0,0.000885,0,0
0:2:52.747,699.67,39.5966,0,0.000885,0,0
0:2:52.952,701.551,39.7,0,0.000885,0,0
0:2:53.144,701.961,39.7207,0,0.000885,0,0
0:2:53.346,703.077,39.7827,0,0.000885,0,0
0:2:53.544,703.602,39.8172,0,0.000885,0,0
0:2:53.740,705.07,39.9,0,0.000885,0,0
0:2:53.942,705.599,39.9275,0,0.000885,0,0
0:2:54.148,706.716,39.9896,0,0.000885,0,0
0:2:54.348,707.303,40.0241,0,0.000885,0,0
0:2:54.557,708.771,40.1068,0,0.000885,0,0
0:2:54.754,709.296,40.1413,0,0.000885,0,0
0:2:54.956,710.239,40.1895,0,0.000885,0,0
0:2:55.152,711.057,40.2378,0,0.000885,0,0
0:2:55.353,711.293,40.2516,0,0.000885,0,0
0:2:55.555,712.289,40.3068,0,0.000885,0,0
0:2:55.758,712.876,40.3412,0,0.000885,0,0
0:2:55.961,714.051,40.4102,0,0.000885,0,0
0:2:56.163,714.464,40.4309,0,0.000885,0,0
0:2:56.365,716.342,40.5343,0,0.000885,0,0
0:2:56.566,716.52,40.5481,0,0.000885,0,0
0:2:56.768,717.867,40.6239,0,0.000885,0,0
0:2:56.969,718.632,40.6653,0,0.000885,0,0
0:2:57.165,719.513,40.7135,0,0.000885,0,0
0:2:57.365,720.394,40.7687,0,0.000885,0,0
0:2:57.564,721.448,40.8239,0,0.000885,0,0
0:2:57.759,722.213,40.8721,0,0.000885,0,0
0:2:57.961,723.094,40.9204,0,0.000885,0,0
0:2:58.159,723.797,40.9618,0,0.000885,0,0
0:2:58.359,724.678,41.01,0,0.000885,0,0
0:2:58.557,725.732,41.0652,0,0.000885,0,0
0:2:58.753,727.378,41.1617,0,0.000885,0,0
0:2:58.954,727.142,41.1479,0,0.000885,0,0
0:2:59.152,728.725,41.2375,0,0.000885,0,0
0:2:59.352,728.903,41.2444,0,0.000885,0,0
0:2:59.553,730.078,41.3134,0,0.000885,0,0
0:2:59.745,730.665,41.3479,0,0.000885,0,0
0:2:59.946,731.31,41.3823,0,0.000885,0,0
0:3:0.145,732.778,41.4651,0,0.000885,0,0
0:3:0.344,733.245,41.4926,0,0.000885,0,0
0:3:0.546,734.481,41.5616,0,0.000885,0,0
0:3:0.747,735.242,41.603,0,0.000885,0,0
0:3:0.953,736.301,41.665,0,0.000885,0,0
0:3:1.155,736.888,41.6995,0,0.000885,0,0
0:3:1.356,738.414,41.7822,0,0.000885,0,0
0:3:1.556,738.587,41.796,0,0.000885,0,0
0:3:1.757,739.704,41.8581,0,0.000885,0,0
0:3:1.959,739.819,41.865,0,0.000885,0,0
0:3:2.156,740.878,41.927,0,0.000885,0,0
0:3:2.355,741.35,41.9546,0,0.000885,0,0
0:3:2.555,742.462,42.0167,0,0.000885,0,0
0:3:2.749,743.284,42.058,0,0.000885,0,0
0:3:2.949,744.05,42.1063,0,0.000885,0,0
0:3:3.149,744.517,42.1339,0,0.000885,0,0
0:3:3.344,745.749,42.2028,0,0.000885,0,0
0:3:3.545,746.042,42.2166,0,0.000885,0,0
0:3:3.744,747.337,42.2924,0,0.000885,0,0
0:3:3.942,747.924,42.3269,0,0.000885,0,0
0:3:4.142,748.507,42.3545,0,0.000885,0,0
0:3:4.347,749.508,42.4165,0,0.000885,0,0
0:3:4.548,749.975,42.4372,0,0.000885,0,0
0:3:4.747,750.975,42.4993,0,0.000885,0,0
0:3:4.955,751.443,42.52,0,0.000885,0,0
0:3:5.155,751.678,42.5338,0,0.000885,0,0
0:3:5.348,751.794,42.5407,0,0.000885,0,0
0:3:5.547,752.381,42.5751,0,0.000885,0,0
0:3:5.749,752.323,42.5751,0,0.000885,0,0
0:3:5.955,751.443,42.52,0,0.000885,0,0
0:3:6.157,750.095,42.4441,0,0.000885,0,0
0:3:6.358,745.575,42.189,0,0.000885,0,0
0:3:6.558,742.582,42.0235,0,0.000885,0,0
0:3:6.758,733.423,41.5064,0,0.000885,0,0
0:3:6.959,726.613,41.1203,0,0.000885,0,0
0:3:7.161,705.363,39.9137,0,0.000885,0,0
0:3:7.357,689.87,39.0381,0,0.000885,0,0
0:3:7.555,637.919,36.1009,0,0.000885,0,0
0:3:7.755,588.148,33.281,0,0.000885,0,0
0:3:7.784,588.148,33.281,0,0.000885,0,0