File: DataFile2021-06-09_054242.csv
Test ID:,Date Tested:,Time:,Test Type:,Diameter Avg. (mm):,Cyl. Corr. Factor:,Height (mm):,Age (days):,Weight (kN):,Break Type:,Ramp Rate (MPa/s):,Load at Break (kN):,Stress at Break (MPa):
12,6/9/2021,05:42,Cylinder,100,1,200,0,3.6,3,0.24,281.35,35.83
Sample Time,Load (kN),Stress (MPa),Long. Strain,Trans. Strain,Chan1 Deflection (mm),Chan2 Deflection (mm)
0:0:19.110,6.62785,0.84116,0,0.000885,0,0
0:0:19.313,15.1907,1.93743,0,0.000885,0,0
0:0:19.508,15.8935,2.02706,0,0.000885,0,0
0:0:19.709,16.2449,2.06843,0,0.000885,0,0
0:0:19.907,15.5999,1.98569,0,0.000885,0,0
0:0:20.104,15.4843,1.9719,0,0.000885,0,0
0:0:20.305,15.1907,1.93743,0,0.000885,0,0
0:0:20.499,14.8393,1.88916,0,0.000885,0,0
0:0:20.698,14.8971,1.89606,0,0.000885,0,0
0:0:20.899,14.5457,1.85469,0,0.000885,0,0
0:0:21.093,14.4879,1.84779,0,0.000885,0,0
0:0:21.294,14.4879,1.84779,0,0.000885,0,0
0:0:21.491,14.3678,1.82711,0,0.000885,0,0
0:0:21.688,14.4879,1.84779,0,0.000885,0,0
0:0:21.889,14.1943,1.80643,0,0.000885,0,0
0:0:22.084,14.7192,1.87537,0,0.000885,0,0
0:0:22.285,14.4879,1.84779,0,0.000885,0,0
0:0:22.482,14.3099,1.82022,0,0.000885,0,0
0:0:22.678,14.5457,1.85469,0,0.000885,0,0
0:0:22.879,14.2521,1.81332,0,0.000885,0,0
0:0:23.085,13.9585,1.77885,0,0.000885,0,0
0:0:23.284,14.2521,1.81332,0,0.000885,0,0
0:0:23.483,14.5457,1.85469,0,0.000885,0,0
0:0:23.678,14.5457,1.85469,0,0.000885,0,0
0:0:23.879,14.5457,1.85469,0,0.000885,0,0
0:0:24.077,14.7192,1.87537,0,0.000885,0,0
0:0:24.272,14.2521,1.81332,0,0.000885,0,0
0:0:24.477,15.075,1.91674,0,0.000885,0,0
0:0:24.678,14.7814,1.88227,0,0.000885,0,0
0:0:24.880,15.5999,1.98569,0,0.000885,0,0
0:0:25.082,16.0136,2.04085,0,0.000885,0,0
0:0:25.283,16.1871,2.06153,0,0.000885,0,0
0:0:25.484,16.7742,2.13737,0,0.000885,0,0
0:0:25.685,17.4771,2.22701,0,0.000885,0,0
0:0:25.885,17.3614,2.21322,0,0.000885,0,0
0:0:26.087,18.1799,2.31664,0,0.000885,0,0
0:0:26.286,18.3,2.33043,0,0.000885,0,0
0:0:26.487,19.6478,2.5028,0,0.000885,0,0
0:0:26.683,19.9992,2.54417,0,0.000885,0,0
0:0:26.882,20.5285,2.61311,0,0.000885,0,0
0:0:27.082,20.9378,2.66827,0,0.000885,0,0
0:0:27.280,21.347,2.71653,0,0.000885,0,0
0:0:27.481,22.1699,2.81996,0,0.000885,0,0
0:0:27.679,22.4057,2.85443,0,0.000885,0,0
0:0:27.874,23.0507,2.93717,0,0.000885,0,0
0:0:28.078,23.1085,2.94406,0,0.000885,0,0
0:0:28.272,23.7535,3.0268,0,0.000885,0,0
0:0:28.474,24.2206,3.08196,0,0.000885,0,0
0:0:28.671,24.9857,3.17848,0,0.000885,0,0
0:0:28.868,24.5141,3.12333,0,0.000885,0,0
0:0:29.070,25.3371,3.22675,0,0.000885,0,0
0:0:29.266,25.3949,3.23364,0,0.000885,0,0
0:0:29.467,26.0399,3.31638,0,0.000885,0,0
0:0:29.668,26.3335,3.35085,0,0.000885,0,0
0:0:29.873,26.7427,3.40601,0,0.000885,0,0
0:0:30.074,26.8628,3.4198,0,0.000885,0,0
0:0:30.280,27.272,3.47496,0,0.000885,0,0
0:0:30.481,27.3299,3.48185,0,0.000885,0,0
0:0:30.682,27.917,3.55769,0,0.000885,0,0
0:0:30.883,27.6813,3.52322,0,0.000885,0,0
0:0:31.085,28.4464,3.61975,0,0.000885,0,0
0:0:31.282,28.7978,3.66801,0,0.000885,0,0
0:0:31.481,29.207,3.71627,0,0.000885,0,0
0:0:31.683,29.5584,3.76454,0,0.000885,0,0
0:0:31.878,29.9721,3.8128,0,0.000885,0,0
0:0:32.081,30.6749,3.90243,0,0.000885,0,0
0:0:32.287,30.9685,3.9438,0,0.000885,0,0
0:0:32.485,31.4934,4.01275,0,0.000885,0,0
0:0:32.686,31.6713,4.03343,0,0.000885,0,0
0:0:32.882,32.7834,4.17133,0,0.000885,0,0
0:0:33.083,32.6677,4.15754,0,0.000885,0,0
0:0:33.282,33.1971,4.22649,0,0.000885,0,0
0:0:33.478,33.1393,4.21959,0,0.000885,0,0
0:0:33.680,34.367,4.37817,0,0.000885,0,0
0:0:33.886,34.7806,4.42643,0,0.000885,0,0
0:0:34.086,35.2477,4.48849,0,0.000885,0,0
0:0:34.285,35.7192,4.55054,0,0.000885,0,0
0:0:34.480,36.0706,4.59191,0,0.000885,0,0
0:0:34.682,36.3064,4.61949,0,0.000885,0,0
0:0:34.884,36.1863,4.6057,0,0.000885,0,0
0:0:35.086,36.6,4.66086,0,0.000885,0,0
0:0:35.290,37.1249,4.7298,0,0.000885,0,0
0:0:35.492,37.245,4.74359,0,0.000885,0,0
0:0:35.694,37.5341,4.77807,0,0.000885,0,0
0:0:35.894,37.5341,4.77807,0,0.000885,0,0
0:0:36.096,38.0634,4.84701,0,0.000885,0,0
0:0:36.299,38.1835,4.8608,0,0.000885,0,0
0:0:36.493,38.8864,4.95044,0,0.000885,0,0
0:0:36.696,39.3534,5.01249,0,0.000885,0,0
0:0:36.895,39.9984,5.09523,0,0.000885,0,0
0:0:37.093,40.4699,5.15038,0,0.000885,0,0
0:0:37.294,40.8213,5.19865,0,0.000885,0,0
0:0:37.490,41.3507,5.26759,0,0.000885,0,0
0:0:37.689,41.8177,5.32275,0,0.000885,0,0
0:0:37.890,42.227,5.37791,0,0.000885,0,0
0:0:38.087,42.6985,5.43307,0,0.000885,0,0
0:0:38.289,43.2856,5.50891,0,0.000885,0,0
0:0:38.485,43.3435,5.51581,0,0.000885,0,0
0:0:38.685,44.3399,5.64681,0,0.000885,0,0
0:0:38.885,44.8692,5.71575,0,0.000885,0,0
0:0:39.081,45.2206,5.75712,0,0.000885,0,0
0:0:39.283,45.3363,5.77091,0,0.000885,0,0
0:0:39.486,45.9234,5.84675,0,0.000885,0,0
0:0:39.689,46.0391,5.86054,0,0.000885,0,0
0:0:39.891,46.2748,5.89502,0,0.000885,0,0
0:0:40.093,46.3327,5.90191,0,0.000885,0,0
0:0:40.295,46.5106,5.9226,0,0.000885,0,0
0:0:40.495,46.8042,5.95707,0,0.000885,0,0
0:0:40.698,47.1556,6.00533,0,0.000885,0,0
0:0:40.899,47.507,6.0467,0,0.000885,0,0
0:0:41.095,47.8006,6.08807,0,0.000885,0,0
0:0:41.296,48.3299,6.15012,0,0.000885,0,0
0:0:41.494,48.2677,6.14323,0,0.000885,0,0
0:0:41.690,49.3263,6.28112,0,0.000885,0,0
0:0:41.893,49.5576,6.3087,0,0.000885,0,0
0:0:42.091,50.4962,6.43281,0,0.000885,0,0
0:0:42.290,50.5585,6.4397,0,0.000885,0,0
0:0:42.491,51.377,6.54312,0,0.000885,0,0
0:0:42.686,51.7284,6.58449,0,0.000885,0,0
0:0:42.888,52.4356,6.67413,0,0.000885,0,0
0:0:43.086,52.9605,6.74307,0,0.000885,0,0
0:0:43.285,52.9605,6.74307,0,0.000885,0,0
0:0:43.486,53.6055,6.82581,0,0.000885,0,0
0:0:43.680,53.8413,6.85339,0,0.000885,0,0
0:0:43.882,54.0192,6.88097,0,0.000885,0,0
0:0:44.080,54.0192,6.88097,0,0.000885,0,0
0:0:44.275,54.2505,6.90855,0,0.000885,0,0
0:0:44.480,55.0734,7.01197,0,0.000885,0,0
0:0:44.683,55.3092,7.03955,0,0.000885,0,0
0:0:44.886,56.0698,7.13607,0,0.000885,0,0
0:0:45.088,56.0698,7.13607,0,0.000885,0,0
0:0:45.291,56.5369,7.19813,0,0.000885,0,0
0:0:45.492,56.8928,7.24639,0,0.000885,0,0
0:0:45.694,57.4755,7.31534,0,0.000885,0,0
0:0:45.896,57.6534,7.34292,0,0.000885,0,0
0:0:46.096,58.1827,7.40497,0,0.000885,0,0
0:0:46.291,58.414,7.43944,0,0.000885,0,0
0:0:46.493,58.7699,7.48081,0,0.000885,0,0
0:0:46.693,59.2948,7.54976,0,0.000885,0,0
0:0:46.890,59.9976,7.63939,0,0.000885,0,0
0:0:47.091,60.2334,7.66697,0,0.000885,0,0
0:0:47.286,60.5848,7.71523,0,0.000885,0,0
0:0:47.488,61.0563,7.77039,0,0.000885,0,0
0:0:47.687,60.9985,7.7635,0,0.000885,0,0
0:0:47.883,61.8169,7.87381,0,0.000885,0,0
0:0:48.085,62.2262,7.92208,0,0.000885,0,0
0:0:48.282,62.8133,7.99792,0,0.000885,0,0
0:0:48.482,62.9334,8.01171,0,0.000885,0,0
0:0:48.683,63.4005,8.07376,0,0.000885,0,0
0:0:48.875,63.6941,8.10823,0,0.000885,0,0
0:0:49.081,64.3969,8.19787,0,0.000885,0,0
0:0:49.275,64.6327,8.23234,0,0.000885,0,0
0:0:49.473,65.1042,8.2875,0,0.000885,0,0
0:0:49.675,65.162,8.29439,0,0.000885,0,0
0:0:49.880,65.2198,8.30129,0,0.000885,0,0
0:0:50.083,66.2162,8.43229,0,0.000885,0,0
0:0:50.286,66.5676,8.47366,0,0.000885,0,0
0:0:50.486,66.5098,8.46676,0,0.000885,0,0
0:0:50.688,66.6255,8.48055,0,0.000885,0,0
0:0:50.889,67.4484,8.59087,0,0.000885,0,0
0:0:51.091,67.9154,8.64603,0,0.000885,0,0
0:0:51.292,68.9163,8.77703,0,0.000885,0,0
0:0:51.488,69.1476,8.80461,0,0.000885,0,0
0:0:51.691,69.6769,8.87355,0,0.000885,0,0
0:0:51.886,69.7926,8.88734,0,0.000885,0,0
0:0:52.087,69.9705,8.90803,0,0.000885,0,0
0:0:52.287,70.3798,8.96318,0,0.000885,0,0
0:0:52.482,70.7312,9.00455,0,0.000885,0,0
0:0:52.684,71.1449,9.05971,0,0.000885,0,0
0:0:52.883,71.3762,9.08729,0,0.000885,0,0
0:0:53.081,71.8477,9.14934,0,0.000885,0,0
0:0:53.282,72.0212,9.17003,0,0.000885,0,0
0:0:53.487,72.3726,9.21829,0,0.000885,0,0
0:0:53.687,73.3111,9.3355,0,0.000885,0,0
0:0:53.887,73.7827,9.39755,0,0.000885,0,0
0:0:54.084,74.0184,9.42513,0,0.000885,0,0
0:0:54.285,74.0184,9.42513,0,0.000885,0,0
0:0:54.488,74.8369,9.52855,0,0.000885,0,0
0:0:54.691,75.0726,9.55613,0,0.000885,0,0
0:0:54.894,75.424,9.6044,0,0.000885,0,0
0:0:55.095,75.8956,9.66645,0,0.000885,0,0
0:0:55.298,76.3048,9.71471,0,0.000885,0,0
0:0:55.499,76.3626,9.72161,0,0.000885,0,0
0:0:55.700,77.1233,9.81813,0,0.000885,0,0
0:0:55.900,77.6526,9.88708,0,0.000885,0,0
0:0:56.098,77.5948,9.88019,0,0.000885,0,0
0:0:56.300,78.2398,9.96292,0,0.000885,0,0
0:0:56.496,78.649,10.0112,0,0.000885,0,0
0:0:56.695,79.0004,10.0595,0,0.000885,0,0
0:0:56.895,79.2362,10.087,0,0.000885,0,0
0:0:57.092,80.0591,10.1905,0,0.000885,0,0
0:0:57.294,80.4683,10.2456,0,0.000885,0,0
0:0:57.492,80.9398,10.3077,0,0.000885,0,0
0:0:57.689,81.2912,10.349,0,0.000885,0,0
0:0:57.890,81.3491,10.3559,0,0.000885,0,0
0:0:58.086,81.2912,10.349,0,0.000885,0,0
0:0:58.288,82.1675,10.4593,0,0.000885,0,0
0:0:58.485,82.2877,10.48,0,0.000885,0,0
0:0:58.683,82.9905,10.5697,0,0.000885,0,0
0:0:58.885,82.9326,10.5559,0,0.000885,0,0
0:0:59.081,83.8134,10.6731,0,0.000885,0,0
0:0:59.282,84.1648,10.7145,0,0.000885,0,0
0:0:59.484,84.107,10.7076,0,0.000885,0,0
0:0:59.687,84.9254,10.811,0,0.000885,0,0
0:0:59.890,85.4548,10.8799,0,0.000885,0,0
0:1:0.092,85.6905,10.9075,0,0.000885,0,0
0:1:0.294,85.864,10.9351,0,0.000885,0,0
0:1:0.494,86.4512,11.004,0,0.000885,0,0
0:1:0.696,87.0384,11.0799,0,0.000885,0,0
0:1:0.898,87.4476,11.135,0,0.000885,0,0
0:1:1.094,87.799,11.1764,0,0.000885,0,0
0:1:1.293,88.1504,11.2247,0,0.000885,0,0
0:1:1.496,88.5018,11.266,0,0.000885,0,0
0:1:1.690,88.6797,11.2936,0,0.000885,0,0
0:1:1.892,88.9155,11.3212,0,0.000885,0,0
0:1:2.089,89.734,11.4246,0,0.000885,0,0
0:1:2.288,89.8541,11.4384,0,0.000885,0,0
0:1:2.490,90.5569,11.528,0,0.000885,0,0
0:1:2.687,90.6725,11.5418,0,0.000885,0,0
0:1:2.885,91.0862,11.597,0,0.000885,0,0
0:1:3.085,91.3754,11.6315,0,0.000885,0,0
0:1:3.281,91.8469,11.6935,0,0.000885,0,0
0:1:3.483,92.4919,11.7762,0,0.000885,0,0
0:1:3.682,92.9589,11.8383,0,0.000885,0,0
0:1:3.889,93.3148,11.8797,0,0.000885,0,0
0:1:4.089,93.8975,11.9555,0,0.000885,0,0
0:1:4.285,94.1333,11.9831,0,0.000885,0,0
0:1:4.486,94.5425,12.0382,0,0.000885,0,0
0:1:4.688,94.5425,12.0382,0,0.000885,0,0
0:1:4.890,95.1297,12.1141,0,0.000885,0,0
0:1:5.094,95.3654,12.1417,0,0.000885,0,0
0:1:5.296,95.6012,12.1692,0,0.000885,0,0
0:1:5.497,96.2462,12.252,0,0.000885,0,0
0:1:5.699,96.5398,12.2934,0,0.000885,0,0
0:1:5.899,97.0646,12.3623,0,0.000885,0,0
0:1:6.102,97.4783,12.4106,0,0.000885,0,0
0:1:6.297,97.3004,12.3899,0,0.000885,0,0
0:1:6.497,97.9454,12.4726,0,0.000885,0,0
0:1:6.698,98.5904,12.5554,0,0.000885,0,0
0:1:6.896,98.6482,12.5622,0,0.000885,0,0
0:1:7.096,99.8225,12.707,0,0.000885,0,0
0:1:7.294,100.174,12.7553,0,0.000885,0,0
0:1:7.493,100.703,12.8242,0,0.000885,0,0
0:1:7.693,100.645,12.8174,0,0.000885,0,0
0:1:7.890,100.997,12.8587,0,0.000885,0,0
0:1:8.090,100.997,12.8587,0,0.000885,0,0
0:1:8.288,101.7,12.9484,0,0.000885,0,0
0:1:8.486,102.171,13.0104,0,0.000885,0,0
0:1:8.688,102.46,13.0449,0,0.000885,0,0
0:1:8.884,102.58,13.0587,0,0.000885,0,0
0:1:9.085,103.105,13.1276,0,0.000885,0,0
0:1:9.284,103.577,13.1897,0,0.000885,0,0
0:1:9.477,103.755,13.2104,0,0.000885,0,0
0:1:9.682,104.867,13.3551,0,0.000885,0,0
0:1:9.883,104.867,13.3551,0,0.000885,0,0
0:1:10.086,105.276,13.4034,0,0.000885,0,0
0:1:10.289,105.805,13.4724,0,0.000885,0,0
0:1:10.491,106.099,13.5068,0,0.000885,0,0
0:1:10.691,106.272,13.5344,0,0.000885,0,0
0:1:10.893,106.686,13.5827,0,0.000885,0,0
0:1:11.095,107.273,13.6585,0,0.000885,0,0
0:1:11.297,107.331,13.6654,0,0.000885,0,0
0:1:11.492,107.683,13.7137,0,0.000885,0,0
0:1:11.694,108.621,13.8309,0,0.000885,0,0
0:1:11.892,108.679,13.8378,0,0.000885,0,0
0:1:12.093,109.266,13.9136,0,0.000885,0,0
0:1:12.293,110.027,14.0101,0,0.000885,0,0
0:1:12.487,110.263,14.0377,0,0.000885,0,0
0:1:12.690,110.44,14.0584,0,0.000885,0,0
0:1:12.886,110.908,14.1205,0,0.000885,0,0
0:1:13.085,111.143,14.148,0,0.000885,0,0
0:1:13.287,111.61,14.2101,0,0.000885,0,0
0:1:13.482,112.197,14.2859,0,0.000885,0,0
0:1:13.683,112.433,14.3135,0,0.000885,0,0
0:1:13.882,112.669,14.348,0,0.000885,0,0
0:1:14.076,112.963,14.3825,0,0.000885,0,0
0:1:14.279,113.839,14.4928,0,0.000885,0,0
0:1:14.484,114.368,14.5617,0,0.000885,0,0
0:1:14.688,114.426,14.5686,0,0.000885,0,0
0:1:14.889,115.307,14.6789,0,0.000885,0,0
0:1:15.091,115.422,14.6996,0,0.000885,0,0
0:1:15.292,115.422,14.6996,0,0.000885,0,0
0:1:15.494,116.067,14.7755,0,0.000885,0,0
0:1:15.695,116.067,14.7755,0,0.000885,0,0
0:1:15.895,116.539,14.8375,0,0.000885,0,0
0:1:16.090,117.006,14.8996,0,0.000885,0,0
0:1:16.293,116.948,14.8927,0,0.000885,0,0
0:1:16.491,117.242,14.9271,0,0.000885,0,0
0:1:16.689,118.18,15.0444,0,0.000885,0,0
0:1:16.890,118.296,15.065,0,0.000885,0,0
0:1:17.085,119.177,15.1754,0,0.000885,0,0
0:1:17.286,119.355,15.196,0,0.000885,0,0
0:1:17.486,119.942,15.2719,0,0.000885,0,0
0:1:17.683,120.409,15.3339,0,0.000885,0,0
0:1:17.885,120.525,15.3477,0,0.000885,0,0
0:1:18.079,121.112,15.4236,0,0.000885,0,0
0:1:18.277,121.232,15.4374,0,0.000885,0,0
0:1:18.482,122.05,15.5408,0,0.000885,0,0
0:1:18.675,122.344,15.5753,0,0.000885,0,0
0:1:18.876,122.931,15.6511,0,0.000885,0,0
0:1:19.085,123.403,15.7132,0,0.000885,0,0
0:1:19.285,123.692,15.7476,0,0.000885,0,0
0:1:19.485,123.576,15.7338,0,0.000885,0,0
0:1:19.688,124.048,15.7959,0,0.000885,0,0
0:1:19.891,124.515,15.851,0,0.000885,0,0
0:1:20.092,124.75,15.8855,0,0.000885,0,0
0:1:20.294,125.217,15.9407,0,0.000885,0,0
0:1:20.496,125.631,15.9958,0,0.000885,0,0
0:1:20.696,125.511,15.982,0,0.000885,0,0
0:1:20.897,126.214,16.0717,0,0.000885,0,0
0:1:21.097,126.45,16.0993,0,0.000885,0,0
0:1:21.296,127.33,16.2096,0,0.000885,0,0
0:1:21.499,127.624,16.2509,0,0.000885,0,0
0:1:21.694,128.211,16.3268,0,0.000885,0,0
0:1:21.895,128.091,16.3061,0,0.000885,0,0
0:1:22.094,129.265,16.4578,0,0.000885,0,0
0:1:22.291,129.559,16.4992,0,0.000885,0,0
0:1:22.493,130.026,16.5543,0,0.000885,0,0
0:1:22.689,129.852,16.5336,0,0.000885,0,0
0:1:22.889,130.146,16.5681,0,0.000885,0,0
0:1:23.089,130.849,16.6577,0,0.000885,0,0
0:1:23.284,131.32,16.7198,0,0.000885,0,0
0:1:23.486,132.023,16.8094,0,0.000885,0,0
0:1:23.684,132.139,16.8232,0,0.000885,0,0
0:1:23.883,132.668,16.8922,0,0.000885,0,0
0:1:24.084,132.61,16.8853,0,0.000885,0,0
0:1:24.289,133.02,16.9335,0,0.000885,0,0
0:1:24.489,133.313,16.9749,0,0.000885,0,0
0:1:24.690,133.607,17.0094,0,0.000885,0,0
0:1:24.894,134.31,17.099,0,0.000885,0,0
0:1:25.096,134.897,17.1748,0,0.000885,0,0
0:1:25.298,135.133,17.2024,0,0.000885,0,0
0:1:25.501,135.542,17.2576,0,0.000885,0,0
0:1:25.701,136.245,17.3472,0,0.000885,0,0
0:1:25.903,136.538,17.3817,0,0.000885,0,0
0:1:26.104,136.832,17.4231,0,0.000885,0,0
0:1:26.301,137.241,17.4713,0,0.000885,0,0
0:1:26.501,137.241,17.4713,0,0.000885,0,0
0:1:26.700,137.592,17.5196,0,0.000885,0,0
0:1:26.897,138.006,17.5747,0,0.000885,0,0
0:1:27.100,138.237,17.6023,0,0.000885,0,0
0:1:27.296,138.651,17.6506,0,0.000885,0,0
0:1:27.495,139.118,17.7126,0,0.000885,0,0
0:1:27.697,139.59,17.7747,0,0.000885,0,0
0:1:27.893,140.235,17.8574,0,0.000885,0,0
0:1:28.095,140.937,17.9471,0,0.000885,0,0
0:1:28.291,141.231,17.9815,0,0.000885,0,0
0:1:28.489,141.64,18.0367,0,0.000885,0,0
0:1:28.691,141.818,18.0574,0,0.000885,0,0
0:1:28.887,142.757,18.1746,0,0.000885,0,0
0:1:29.088,143.05,18.2159,0,0.000885,0,0
0:1:29.288,143.46,18.2642,0,0.000885,0,0
0:1:29.484,143.575,18.278,0,0.000885,0,0
0:1:29.686,143.989,18.3332,0,0.000885,0,0
0:1:29.888,144.047,18.3401,0,0.000885,0,0
0:1:30.091,144.572,18.409,0,0.000885,0,0
0:1:30.295,145.101,18.4779,0,0.000885,0,0
0:1:30.497,145.688,18.5469,0,0.000885,0,0
0:1:30.697,145.924,18.5814,0,0.000885,0,0
0:1:30.897,146.275,18.6227,0,0.000885,0,0
0:1:31.099,146.155,18.6089,0,0.000885,0,0
0:1:31.302,146.862,18.6986,0,0.000885,0,0
0:1:31.496,147.094,18.7262,0,0.000885,0,0
0:1:31.697,148.032,18.8503,0,0.000885,0,0
0:1:31.893,148.032,18.8503,0,0.000885,0,0
0:1:32.092,148.446,18.8985,0,0.000885,0,0
0:1:32.295,148.971,18.9675,0,0.000885,0,0
0:1:32.489,148.971,18.9675,0,0.000885,0,0
0:1:32.689,149.558,19.0433,0,0.000885,0,0
0:1:32.889,149.852,19.0778,0,0.000885,0,0
0:1:33.086,150.323,19.1398,0,0.000885,0,0
0:1:33.288,150.732,19.195,0,0.000885,0,0
0:1:33.485,151.32,19.264,0,0.000885,0,0
0:1:33.686,151.729,19.3191,0,0.000885,0,0
0:1:33.886,152.08,19.3605,0,0.000885,0,0
0:1:34.092,152.432,19.4087,0,0.000885,0,0
0:1:34.292,153.019,19.4846,0,0.000885,0,0
0:1:34.494,153.197,19.5053,0,0.000885,0,0
0:1:34.698,153.779,19.5811,0,0.000885,0,0
0:1:34.900,153.9,19.5949,0,0.000885,0,0
0:1:35.102,154.367,19.657,0,0.000885,0,0
0:1:35.304,154.66,19.6914,0,0.000885,0,0
0:1:35.504,155.074,19.7466,0,0.000885,0,0
0:1:35.706,155.425,19.788,0,0.000885,0,0
0:1:35.907,155.777,19.8362,0,0.000885,0,0
0:1:36.102,156.186,19.8845,0,0.000885,0,0
0:1:36.304,156.537,19.9327,0,0.000885,0,0
0:1:36.503,156.947,19.981,0,0.000885,0,0
0:1:36.701,157.885,20.1051,0,0.000885,0,0
0:1:36.902,157.885,20.1051,0,0.000885,0,0
0:1:37.097,158.824,20.2223,0,0.000885,0,0
0:1:37.297,158.53,20.1878,0,0.000885,0,0
0:1:37.497,159.002,20.243,0,0.000885,0,0
0:1:37.694,159.469,20.3051,0,0.000885,0,0
0:1:37.895,159.531,20.312,0,0.000885,0,0
0:1:38.093,160.234,20.4016,0,0.000885,0,0
0:1:38.291,160.292,20.4085,0,0.000885,0,0
0:1:38.492,160.701,20.4636,0,0.000885,0,0
0:1:38.687,161.23,20.5257,0,0.000885,0,0
0:1:38.889,161.991,20.6222,0,0.000885,0,0
0:1:39.087,162.756,20.7256,0,0.000885,0,0
0:1:39.285,162.756,20.7256,0,0.000885,0,0
0:1:39.487,163.165,20.7739,0,0.000885,0,0
0:1:39.687,163.81,20.8566,0,0.000885,0,0
0:1:39.891,163.988,20.8773,0,0.000885,0,0
0:1:40.094,164.34,20.9256,0,0.000885,0,0
0:1:40.296,164.691,20.967,0,0.000885,0,0
0:1:40.496,164.691,20.967,0,0.000885,0,0
0:1:40.697,165.042,21.0152,0,0.000885,0,0
0:1:40.900,165.745,21.1049,0,0.000885,0,0
0:1:41.100,165.981,21.1324,0,0.000885,0,0
0:1:41.296,166.804,21.2359,0,0.000885,0,0
0:1:41.497,166.977,21.2634,0,0.000885,0,0
0:1:41.696,168.032,21.3944,0,0.000885,0,0
0:1:41.894,167.974,21.3875,0,0.000885,0,0
0:1:42.094,168.677,21.4772,0,0.000885,0,0
0:1:42.290,168.97,21.5116,0,0.000885,0,0
0:1:42.492,168.677,21.4772,0,0.000885,0,0
0:1:42.689,169.851,21.6289,0,0.000885,0,0
0:1:42.888,169.677,21.6013,0,0.000885,0,0
0:1:43.089,169.909,21.6357,0,0.000885,0,0
0:1:43.281,170.674,21.7323,0,0.000885,0,0
0:1:43.486,171.199,21.8012,0,0.000885,0,0
0:1:43.693,171.199,21.8012,0,0.000885,0,0
0:1:43.893,172.022,21.9046,0,0.000885,0,0
0:1:44.094,171.964,21.8977,0,0.000885,0,0
0:1:44.288,172.431,21.9529,0,0.000885,0,0
0:1:44.489,172.782,22.0012,0,0.000885,0,0
0:1:44.691,173.254,22.0563,0,0.000885,0,0
0:1:44.895,173.605,22.1046,0,0.000885,0,0
0:1:45.099,173.899,22.1391,0,0.000885,0,0
0:1:45.301,174.014,22.1597,0,0.000885,0,0
0:1:45.501,174.366,22.2011,0,0.000885,0,0
0:1:45.703,174.602,22.2287,0,0.000885,0,0
0:1:45.905,175.131,22.2976,0,0.000885,0,0
0:1:46.107,175.776,22.3804,0,0.000885,0,0
0:1:46.303,176.07,22.4149,0,0.000885,0,0
0:1:46.505,176.95,22.5321,0,0.000885,0,0
0:1:46.703,177.066,22.5459,0,0.000885,0,0
0:1:46.900,177.595,22.6148,0,0.000885,0,0
0:1:47.102,178.004,22.6631,0,0.000885,0,0
0:1:47.300,178.414,22.7182,0,0.000885,0,0
0:1:47.499,178.943,22.7803,0,0.000885,0,0
0:1:47.697,179.646,22.8699,0,0.000885,0,0
0:1:47.894,180.117,22.932,0,0.000885,0,0
0:1:48.096,180.469,22.9802,0,0.000885,0,0
0:1:48.293,180.349,22.9595,0,0.000885,0,0
0:1:48.492,180.7,23.0078,0,0.000885,0,0
0:1:48.692,181.114,23.063,0,0.000885,0,0
0:1:48.888,181.581,23.1181,0,0.000885,0,0
0:1:49.090,181.874,23.1595,0,0.000885,0,0
0:1:49.289,182.697,23.2629,0,0.000885,0,0
0:1:49.487,182.462,23.2284,0,0.000885,0,0
0:1:49.689,183.164,23.3181,0,0.000885,0,0
0:1:49.892,183.049,23.3043,0,0.000885,0,0
0:1:50.096,183.516,23.3663,0,0.000885,0,0
0:1:50.296,183.809,23.4008,0,0.000885,0,0
0:1:50.497,184.339,23.4698,0,0.000885,0,0
0:1:50.699,184.748,23.5249,0,0.000885,0,0
0:1:50.899,185.162,23.5732,0,0.000885,0,0
0:1:51.101,185.807,23.6559,0,0.000885,0,0
0:1:51.300,186.096,23.6973,0,0.000885,0,0
0:1:51.497,186.625,23.7593,0,0.000885,0,0
0:1:51.698,187.39,23.8559,0,0.000885,0,0
0:1:51.894,187.857,23.9179,0,0.000885,0,0
0:1:52.094,187.742,23.9041,0,0.000885,0,0
0:1:52.294,188.267,23.9731,0,0.000885,0,0
0:1:52.492,187.973,23.9317,0,0.000885,0,0
0:1:52.694,188.738,24.0282,0,0.000885,0,0
0:1:52.889,188.912,24.0558,0,0.000885,0,0
0:1:53.090,189.792,24.1661,0,0.000885,0,0
0:1:53.289,190.028,24.1937,0,0.000885,0,0
0:1:53.486,190.731,24.2833,0,0.000885,0,0
0:1:53.688,190.731,24.2833,0,0.000885,0,0
0:1:53.881,191.434,24.373,0,0.000885,0,0
0:1:54.081,191.612,24.3937,0,0.000885,0,0
0:1:54.281,192.372,24.4971,0,0.000885,0,0
0:1:54.478,192.666,24.5315,0,0.000885,0,0
0:1:54.679,193.08,24.5867,0,0.000885,0,0
0:1:54.881,193.724,24.6625,0,0.000885,0,0
0:1:55.086,193.84,24.6832,0,0.000885,0,0
0:1:55.286,194.076,24.7108,0,0.000885,0,0
0:1:55.487,194.485,24.766,0,0.000885,0,0
0:1:55.687,195.308,24.8694,0,0.000885,0,0
0:1:55.887,195.539,24.897,0,0.000885,0,0
0:1:56.086,196.184,24.9797,0,0.000885,0,0
0:1:56.286,196.127,24.9728,0,0.000885,0,0
0:1:56.490,196.656,25.0418,0,0.000885,0,0
0:1:56.689,197.007,25.0831,0,0.000885,0,0
0:1:56.886,197.301,25.1176,0,0.000885,0,0
0:1:57.080,197.888,25.1934,0,0.000885,0,0
0:1:57.281,198.182,25.2348,0,0.000885,0,0
0:1:57.483,198.239,25.2417,0,0.000885,0,0
0:1:57.686,198.533,25.2762,0,0.000885,0,0
0:1:57.882,198.591,25.2831,0,0.000885,0,0
0:1:58.088,199.294,25.3727,0,0.000885,0,0
0:1:58.289,199.472,25.4003,0,0.000885,0,0
0:1:58.493,200.059,25.4692,0,0.000885,0,0
0:1:58.690,200.174,25.4899,0,0.000885,0,0
0:1:58.890,200.762,25.5589,0,0.000885,0,0
0:1:59.083,201.229,25.6209,0,0.000885,0,0
0:1:59.283,201.874,25.7037,0,0.000885,0,0
0:1:59.487,202.403,25.7726,0,0.000885,0,0
0:1:59.689,202.754,25.814,0,0.000885,0,0
0:1:59.889,203.342,25.8898,0,0.000885,0,0
0:2:0.090,203.457,25.9036,0,0.000885,0,0
0:2:0.289,204.102,25.9863,0,0.000885,0,0
0:2:0.489,204.222,26.0001,0,0.000885,0,0
0:2:0.690,204.983,26.0967,0,0.000885,0,0
0:2:0.888,204.983,26.0967,0,0.000885,0,0
0:2:1.082,205.748,26.1932,0,0.000885,0,0
0:2:1.282,205.334,26.1449,0,0.000885,0,0
0:2:1.489,206.331,26.269,0,0.000885,0,0
0:2:1.686,206.509,26.2966,0,0.000885,0,0
0:2:1.887,207.212,26.3862,0,0.000885,0,0
0:2:2.079,207.389,26.4069,0,0.000885,0,0
0:2:2.279,208.092,26.4966,0,0.000885,0,0
0:2:2.484,208.15,26.5034,0,0.000885,0,0
0:2:2.692,208.679,26.5724,0,0.000885,0,0
0:2:2.893,208.915,26.6,0,0.000885,0,0
0:2:3.088,209.498,26.6758,0,0.000885,0,0
0:2:3.287,209.734,26.7034,0,0.000885,0,0
0:2:3.482,209.791,26.7103,0,0.000885,0,0
0:2:3.677,210.321,26.7792,0,0.000885,0,0
0:2:3.879,210.499,26.7999,0,0.000885,0,0
0:2:4.073,211.144,26.8827,0,0.000885,0,0
0:2:4.273,211.553,26.9378,0,0.000885,0,0
0:2:4.473,212.082,26.9999,0,0.000885,0,0
0:2:4.675,212.371,27.0412,0,0.000885,0,0
0:2:4.877,213.137,27.1378,0,0.000885,0,0
0:2:5.078,213.488,27.1791,0,0.000885,0,0
0:2:5.278,214.075,27.255,0,0.000885,0,0
0:2:5.478,214.133,27.2619,0,0.000885,0,0
0:2:5.677,214.778,27.3446,0,0.000885,0,0
0:2:5.877,214.6,27.3239,0,0.000885,0,0
0:2:6.073,215.481,27.4342,0,0.000885,0,0
0:2:6.272,215.601,27.448,0,0.000885,0,0
0:2:6.472,216.419,27.5583,0,0.000885,0,0
0:2:6.674,216.304,27.5377,0,0.000885,0,0
0:2:6.875,216.539,27.5721,0,0.000885,0,0
0:2:7.080,217.3,27.6687,0,0.000885,0,0
0:2:7.281,217.767,27.7238,0,0.000885,0,0
0:2:7.491,218.003,27.7583,0,0.000885,0,0
0:2:7.693,218.474,27.8135,0,0.000885,0,0
0:2:7.894,218.999,27.8824,0,0.000885,0,0
0:2:8.090,219.062,27.8893,0,0.000885,0,0
0:2:8.289,219.471,27.9445,0,0.000885,0,0
0:2:8.488,220,28.0134,0,0.000885,0,0
0:2:8.691,219.88,27.9927,0,0.000885,0,0
0:2:8.893,220.703,28.103,0,0.000885,0,0
0:2:9.087,220.645,28.0961,0,0.000885,0,0
0:2:9.283,221.699,28.2271,0,0.000885,0,0
0:2:9.483,221.348,28.1858,0,0.000885,0,0
0:2:9.687,222.229,28.2961,0,0.000885,0,0
0:2:9.888,222.287,28.303,0,0.000885,0,0
0:2:10.089,222.932,28.3857,0,0.000885,0,0
0:2:10.290,223.341,28.434,0,0.000885,0,0
0:2:10.490,223.399,28.4409,0,0.000885,0,0
0:2:10.689,224.573,28.5926,0,0.000885,0,0
0:2:10.890,224.631,28.5995,0,0.000885,0,0
0:2:11.087,225.218,28.6753,0,0.000885,0,0
0:2:11.292,225.396,28.696,0,0.000885,0,0
0:2:11.493,226.508,28.8408,0,0.000885,0,0
0:2:11.688,226.099,28.7856,0,0.000885,0,0
0:2:11.888,227.037,28.9097,0,0.000885,0,0
0:2:12.084,226.979,28.9028,0,0.000885,0,0
0:2:12.278,227.624,28.9787,0,0.000885,0,0
0:2:12.479,227.976,29.0269,0,0.000885,0,0
0:2:12.684,228.794,29.1303,0,0.000885,0,0
0:2:12.881,228.794,29.1303,0,0.000885,0,0
0:2:13.081,229.03,29.1579,0,0.000885,0,0
0:2:13.296,229.791,29.2613,0,0.000885,0,0
0:2:13.495,229.791,29.2613,0,0.000885,0,0
0:2:13.692,230.729,29.3786,0,0.000885,0,0
0:2:13.889,230.849,29.3924,0,0.000885,0,0
0:2:14.088,230.965,29.4061,0,0.000885,0,0
0:2:14.292,231.316,29.4544,0,0.000885,0,0
0:2:14.491,231.552,29.482,0,0.000885,0,0
0:2:14.691,231.668,29.4958,0,0.000885,0,0
0:2:14.893,232.139,29.5578,0,0.000885,0,0
0:2:15.096,232.606,29.6199,0,0.000885,0,0
0:2:15.297,233.078,29.675,0,0.000885,0,0
0:2:15.497,233.545,29.7371,0,0.000885,0,0
0:2:15.698,234.31,29.8336,0,0.000885,0,0
0:2:15.896,234.19,29.8198,0,0.000885,0,0
0:2:16.098,235.129,29.937,0,0.000885,0,0
0:2:16.294,235.306,29.9577,0,0.000885,0,0
0:2:16.491,235.836,30.0267,0,0.000885,0,0
0:2:16.691,235.951,30.0405,0,0.000885,0,0
0:2:16.883,236.481,30.1094,0,0.000885,0,0
0:2:17.084,236.77,30.1439,0,0.000885,0,0
0:2:17.282,237.241,30.2059,0,0.000885,0,0
0:2:17.489,237.709,30.268,0,0.000885,0,0
0:2:17.688,237.709,30.268,0,0.000885,0,0
0:2:17.881,238.589,30.3783,0,0.000885,0,0
0:2:18.081,238.883,30.4128,0,0.000885,0,0
0:2:18.279,239.176,30.4541,0,0.000885,0,0
0:2:18.473,239.412,30.4817,0,0.000885,0,0
0:2:18.674,240.057,30.5645,0,0.000885,0,0
0:2:18.869,240.524,30.6265,0,0.000885,0,0
0:2:19.069,241.054,30.6886,0,0.000885,0,0
0:2:19.268,241.289,30.723,0,0.000885,0,0
0:2:19.471,241.699,30.7713,0,0.000885,0,0
0:2:19.672,241.992,30.8127,0,0.000885,0,0
0:2:19.874,242.459,30.8678,0,0.000885,0,0
0:2:20.073,242.873,30.923,0,0.000885,0,0
0:2:20.274,243.46,30.9988,0,0.000885,0,0
0:2:20.473,243.576,31.0126,0,0.000885,0,0
0:2:20.673,244.043,31.0747,0,0.000885,0,0
0:2:20.879,244.336,31.1091,0,0.000885,0,0
0:2:21.088,244.808,31.1712,0,0.000885,0,0
0:2:21.288,245.217,31.2195,0,0.000885,0,0
0:2:21.480,245.511,31.2608,0,0.000885,0,0
0:2:21.680,245.453,31.2539,0,0.000885,0,0
0:2:21.878,246.04,31.3298,0,0.000885,0,0
0:2:22.073,246.507,31.3849,0,0.000885,0,0
0:2:22.274,247.152,31.4677,0,0.000885,0,0
0:2:22.479,247.503,31.5159,0,0.000885,0,0
0:2:22.689,247.855,31.5573,0,0.000885,0,0
0:2:22.885,248.269,31.6125,0,0.000885,0,0
0:2:23.090,248.562,31.6469,0,0.000885,0,0
0:2:23.291,249.029,31.709,0,0.000885,0,0
0:2:23.486,249.029,31.709,0,0.000885,0,0
0:2:23.683,249.91,31.8193,0,0.000885,0,0
0:2:23.883,250.088,31.84,0,0.000885,0,0
0:2:24.085,250.613,31.9089,0,0.000885,0,0
0:2:24.289,251.378,32.0055,0,0.000885,0,0
0:2:24.489,251.258,31.9917,0,0.000885,0,0
0:2:24.691,251.729,32.0537,0,0.000885,0,0
0:2:24.892,251.787,32.0606,0,0.000885,0,0
0:2:25.093,252.139,32.102,0,0.000885,0,0
0:2:25.294,252.668,32.1709,0,0.000885,0,0
0:2:25.492,252.784,32.1847,0,0.000885,0,0
0:2:25.693,253.722,32.3019,0,0.000885,0,0
0:2:25.894,254.016,32.3433,0,0.000885,0,0
0:2:26.097,254.834,32.4467,0,0.000885,0,0
0:2:26.296,254.661,32.426,0,0.000885,0,0
0:2:26.496,255.364,32.5157,0,0.000885,0,0
0:2:26.689,255.657,32.5501,0,0.000885,0,0
0:2:26.890,255.951,32.5915,0,0.000885,0,0
0:2:27.084,256.302,32.6329,0,0.000885,0,0
0:2:27.281,257.005,32.7225,0,0.000885,0,0
0:2:27.482,256.889,32.7087,0,0.000885,0,0
0:2:27.686,257.828,32.8259,0,0.000885,0,0
0:2:27.885,258.121,32.8673,0,0.000885,0,0
0:2:28.094,258.473,32.9087,0,0.000885,0,0
0:2:28.290,259.296,33.0121,0,0.000885,0,0
0:2:28.490,259.354,33.019,0,0.000885,0,0
0:2:28.683,259.705,33.0673,0,0.000885,0,0
0:2:28.882,260.172,33.1293,0,0.000885,0,0
0:2:29.090,260.056,33.1086,0,0.000885,0,0
0:2:29.295,260.644,33.1845,0,0.000885,0,0
0:2:29.496,261.053,33.2396,0,0.000885,0,0
0:2:29.696,260.937,33.2258,0,0.000885,0,0
0:2:29.900,261.818,33.3362,0,0.000885,0,0
0:2:30.100,261.756,33.3293,0,0.000885,0,0
0:2:30.300,262.521,33.4258,0,0.000885,0,0
0:2:30.501,262.694,33.4465,0,0.000885,0,0
0:2:30.700,263.517,33.5499,0,0.000885,0,0
0:2:30.901,263.753,33.5844,0,0.000885,0,0
0:2:31.101,264.22,33.6395,0,0.000885,0,0
0:2:31.293,264.456,33.674,0,0.000885,0,0
0:2:31.494,264.923,33.7292,0,0.000885,0,0
0:2:31.691,265.216,33.7705,0,0.000885,0,0
0:2:31.898,265.568,33.8119,0,0.000885,0,0
0:2:32.098,266.097,33.8808,0,0.000885,0,0
0:2:32.291,267.036,33.998,0,0.000885,0,0
0:2:32.491,267.093,34.0049,0,0.000885,0,0
0:2:32.698,267.623,34.0739,0,0.000885,0,0
0:2:32.895,267.738,34.0877,0,0.000885,0,0
0:2:33.095,268.032,34.129,0,0.000885,0,0
0:2:33.290,268.504,34.1842,0,0.000885,0,0
0:2:33.485,268.504,34.1842,0,0.000885,0,0
0:2:33.685,269.264,34.2807,0,0.000885,0,0
0:2:33.891,269.736,34.3428,0,0.000885,0,0
0:2:34.093,270.381,34.4255,0,0.000885,0,0
0:2:34.297,270.67,34.46,0,0.000885,0,0
0:2:34.495,271.084,34.5152,0,0.000885,0,0
0:2:34.695,271.199,34.5289,0,0.000885,0,0
0:2:34.897,271.844,34.6117,0,0.000885,0,0
0:2:35.099,272.022,34.6324,0,0.000885,0,0
0:2:35.300,272.609,34.7082,0,0.000885,0,0
0:2:35.500,272.547,34.7013,0,0.000885,0,0
0:2:35.701,272.961,34.7565,0,0.000885,0,0
0:2:35.900,272.961,34.7565,0,0.000885,0,0
0:2:36.100,273.548,34.8323,0,0.000885,0,0
0:2:36.299,274.015,34.8875,0,0.000885,0,0
0:2:36.492,274.131,34.9013,0,0.000885,0,0
0:2:36.693,274.308,34.9288,0,0.000885,0,0
0:2:36.886,274.544,34.9564,0,0.000885,0,0
0:2:37.085,274.718,34.9771,0,0.000885,0,0
0:2:37.284,274.718,34.9771,0,0.000885,0,0
0:2:37.499,274.718,34.9771,0,0.000885,0,0
0:2:37.698,274.424,34.9426,0,0.000885,0,0
0:2:37.894,273.779,34.8599,0,0.000885,0,0
0:2:38.087,272.783,34.7289,0,0.000885,0,0
0:2:38.288,269.909,34.3635,0,0.000885,0,0
0:2:38.493,267.859,34.1015,0,0.000885,0,0
0:2:38.692,265.688,33.8257,0,0.000885,0,0
0:2:38.887,265.981,33.867,0,0.000885,0,0
0:2:39.081,267.271,34.0325,0,0.000885,0,0
0:2:39.282,267.974,34.1222,0,0.000885,0,0
0:2:39.483,270.203,34.4048,0,0.000885,0,0
0:2:39.684,271.493,34.5703,0,0.000885,0,0
0:2:39.885,274.015,34.8875,0,0.000885,0,0
0:2:40.086,274.953,35.0116,0,0.000885,0,0
0:2:40.286,277.36,35.3149,0,0.000885,0,0
0:2:40.485,278.65,35.4804,0,0.000885,0,0
0:2:40.686,280.171,35.6735,0,0.000885,0,0
0:2:40.886,280.234,35.6804,0,0.000885,0,0
0:2:41.079,280.994,35.7769,0,0.000885,0,0
0:2:41.280,281.403,35.8321,0,0.000885,0,0
0:2:41.486,281.466,35.8389,0,0.000885,0,0
0:2:41.694,281.288,35.8114,0,0.000885,0,0
0:2:41.893,281.052,35.7838,0,0.000885,0,0
0:2:42.096,280.936,35.77,0,0.000885,0,0
0:2:42.296,279.882,35.6321,0,0.000885,0,0
0:2:42.494,279.589,35.5976,0,0.000885,0,0
0:2:42.697,278.063,35.4046,0,0.000885,0,0
0:2:42.898,276.773,35.2391,0,0.000885,0,0
0:2:43.091,275.247,35.0461,0,0.000885,0,0
0:2:43.288,270.381,34.4255,0,0.000885,0,0
0:2:43.486,267.271,34.0325,0,0.000885,0,0
0:2:43.692,260.817,33.2052,0,0.000885,0,0
0:2:43.892,257.356,32.7708,0,0.000885,0,0
0:2:44.096,250.613,31.9089,0,0.000885,0,0
0:2:44.294,247.566,31.5228,0,0.000885,0,0
0:2:44.494,240.582,30.6334,0,0.000885,0,0
0:2:44.696,236.712,30.137,0,0.000885,0,0
0:2:44.896,227.798,29.0062,0,0.000885,0,0
0:2:45.097,222.874,28.3788,0,0.000885,0,0
0:2:45.297,211.962,26.9861,0,0.000885,0,0
0:2:45.497,205.922,26.2208,0,0.000885,0,0
0:2:45.664,198.827,25.3175,0,0.000885,0,0