File: DataFile2021-07-03_085419.csv
Test ID:,Date Tested:,Time:,Test Type:,Diameter Avg. (mm):,Cyl. Corr. Factor:,Height (mm):,Age (days):,Weight (kN):,Break Type:,Ramp Rate (MPa/s):,Load at Break (kN):,Stress at Break (MPa):
12,7/3/2021,08:54,Cylinder,100,1,200,0,3.6,3,0.25,491.72,62.61
Sample Time,Load (kN),Stress (MPa),Long. Strain,Trans. Strain,Chan1 Deflection (mm),Chan2 Deflection (mm)
0:0:5.643,6.15634,0.786002,0,0.000885,0,0
0:0:5.943,5.8672,0.744634,0,0.000885,0,0
0:0:6.239,5.98286,0.758423,0,0.000885,0,0
0:0:6.538,7.15719,0.910108,0,0.000885,0,0
0:0:6.837,7.5086,0.958371,0,0.000885,0,0
0:0:7.132,8.09576,1.02732,0,0.000885,0,0
0:0:7.435,8.26924,1.0549,0,0.000885,0,0
0:0:7.732,9.20782,1.17211,0,0.000885,0,0
0:0:8.030,9.03434,1.15142,0,0.000885,0,0
0:0:8.328,10.0307,1.27553,0,0.000885,0,0
0:0:8.625,10.9693,1.39964,0,0.000885,0,0
0:0:8.926,10.907,1.38585,0,0.000885,0,0
0:0:9.220,11.6721,1.48927,0,0.000885,0,0
0:0:9.520,12.4906,1.59269,0,0.000885,0,0
0:0:9.818,12.6685,1.61337,0,0.000885,0,0
0:0:10.116,13.2557,1.68922,0,0.000885,0,0
0:0:10.412,13.9007,1.77195,0,0.000885,0,0
0:0:10.710,14.7192,1.87537,0,0.000885,0,0
0:0:11.011,15.72,1.99948,0,0.000885,0,0
0:0:11.316,15.7778,2.00637,0,0.000885,0,0
0:0:11.620,16.365,2.08222,0,0.000885,0,0
0:0:11.924,17.01,2.16495,0,0.000885,0,0
0:0:12.225,17.8285,2.26838,0,0.000885,0,0
0:0:12.528,18.6514,2.3718,0,0.000885,0,0
0:0:12.823,19.1185,2.43385,0,0.000885,0,0
0:0:13.125,19.4699,2.48211,0,0.000885,0,0
0:0:13.423,20.4084,2.59932,0,0.000885,0,0
0:0:13.720,21.4093,2.72343,0,0.000885,0,0
0:0:14.020,21.6406,2.7579,0,0.000885,0,0
0:0:14.315,22.1699,2.81996,0,0.000885,0,0
0:0:14.617,23.1085,2.94406,0,0.000885,0,0
0:0:14.913,23.8113,3.03369,0,0.000885,0,0
0:0:15.214,24.7499,3.1509,0,0.000885,0,0
0:0:15.512,24.87,3.16469,0,0.000885,0,0
0:0:15.808,25.9242,3.30259,0,0.000885,0,0
0:0:16.109,26.2178,3.33706,0,0.000885,0,0
0:0:16.412,26.6849,3.39912,0,0.000885,0,0
0:0:16.717,27.272,3.47496,0,0.000885,0,0
0:0:17.020,27.6813,3.52322,0,0.000885,0,0
0:0:17.323,28.2106,3.59217,0,0.000885,0,0
0:0:17.624,28.74,3.66112,0,0.000885,0,0
0:0:17.922,29.207,3.71627,0,0.000885,0,0
0:0:18.224,29.7364,3.78522,0,0.000885,0,0
0:0:18.521,30.5548,3.88864,0,0.000885,0,0
0:0:18.820,31.0263,3.9507,0,0.000885,0,0
0:0:19.119,31.9649,4.06791,0,0.000885,0,0
0:0:19.417,32.3163,4.11617,0,0.000885,0,0
0:0:19.717,32.1384,4.09549,0,0.000885,0,0
0:0:20.011,33.077,4.2127,0,0.000885,0,0
0:0:20.313,33.8999,4.31612,0,0.000885,0,0
0:0:20.612,34.6605,4.41264,0,0.000885,0,0
0:0:20.909,35.2477,4.48849,0,0.000885,0,0
0:0:21.210,35.777,4.55743,0,0.000885,0,0
0:0:21.514,36.1285,4.5988,0,0.000885,0,0
0:0:21.819,37.1827,4.7367,0,0.000885,0,0
0:0:22.122,37.6542,4.79186,0,0.000885,0,0
0:0:22.426,38.2414,4.8677,0,0.000885,0,0
0:0:22.727,38.7084,4.92975,0,0.000885,0,0
0:0:23.026,39.7671,5.06075,0,0.000885,0,0
0:0:23.326,40.0562,5.10212,0,0.000885,0,0
0:0:23.624,40.292,5.1297,0,0.000885,0,0
0:0:23.920,40.7057,5.18486,0,0.000885,0,0
0:0:24.222,41.5241,5.28828,0,0.000885,0,0
0:0:24.519,42.4627,5.40549,0,0.000885,0,0
0:0:24.820,42.872,5.46065,0,0.000885,0,0
0:0:25.116,43.2234,5.50202,0,0.000885,0,0
0:0:25.414,43.7527,5.57096,0,0.000885,0,0
0:0:25.714,44.6335,5.68128,0,0.000885,0,0
0:0:26.018,45.5142,5.7916,0,0.000885,0,0
0:0:26.323,45.9813,5.85365,0,0.000885,0,0
0:0:26.627,46.0391,5.86054,0,0.000885,0,0
0:0:26.928,46.862,5.96397,0,0.000885,0,0
0:0:27.231,47.2134,6.01223,0,0.000885,0,0
0:0:27.528,47.8584,6.09497,0,0.000885,0,0
0:0:27.831,48.4456,6.17081,0,0.000885,0,0
0:0:28.126,49.0906,6.25354,0,0.000885,0,0
0:0:28.427,49.6777,6.32249,0,0.000885,0,0
0:0:28.726,50.6741,6.45349,0,0.000885,0,0
0:0:29.024,51.4971,6.55691,0,0.000885,0,0
0:0:29.324,51.5549,6.56381,0,0.000885,0,0
0:0:29.619,52.2577,6.65344,0,0.000885,0,0
0:0:29.920,52.7248,6.71549,0,0.000885,0,0
0:0:30.219,53.6055,6.82581,0,0.000885,0,0
0:0:30.516,53.8991,6.86028,0,0.000885,0,0
0:0:30.817,54.6642,6.95681,0,0.000885,0,0
0:0:31.120,54.722,6.9706,0,0.000885,0,0
0:0:31.425,55.367,7.04644,0,0.000885,0,0
0:0:31.728,56.4791,7.19123,0,0.000885,0,0
0:0:32.031,57.0084,7.26018,0,0.000885,0,0
0:0:32.333,57.302,7.29465,0,0.000885,0,0
0:0:32.629,57.7691,7.35671,0,0.000885,0,0
0:0:32.931,58.7076,7.47392,0,0.000885,0,0
0:0:33.227,58.9434,7.50839,0,0.000885,0,0
0:0:33.526,59.6462,7.59113,0,0.000885,0,0
0:0:33.825,60.3535,7.68076,0,0.000885,0,0
0:0:34.122,61.1719,7.79108,0,0.000885,0,0
0:0:34.424,61.937,7.8876,0,0.000885,0,0
0:0:34.721,62.4041,7.94276,0,0.000885,0,0
0:0:35.019,62.8133,7.99792,0,0.000885,0,0
0:0:35.318,63.227,8.05308,0,0.000885,0,0
0:0:35.614,63.8097,8.12202,0,0.000885,0,0
0:0:35.915,64.517,8.21166,0,0.000885,0,0
0:0:36.220,65.162,8.29439,0,0.000885,0,0
0:0:36.523,66.0383,8.4116,0,0.000885,0,0
0:0:36.826,66.7456,8.50124,0,0.000885,0,0
0:0:37.129,67.0391,8.53571,0,0.000885,0,0
0:0:37.432,67.3906,8.57708,0,0.000885,0,0
0:0:37.727,67.9154,8.64603,0,0.000885,0,0
0:0:38.030,68.7962,8.75634,0,0.000885,0,0
0:0:38.325,69.7348,8.88045,0,0.000885,0,0
0:0:38.625,70.3219,8.95629,0,0.000885,0,0
0:0:38.924,70.0862,8.92182,0,0.000885,0,0
0:0:39.219,71.2027,9.06661,0,0.000885,0,0
0:0:39.520,71.2605,9.0735,0,0.000885,0,0
0:0:39.816,71.8477,9.14934,0,0.000885,0,0
0:0:40.118,72.4348,9.22519,0,0.000885,0,0
0:0:40.415,73.4312,9.34929,0,0.000885,0,0
0:0:40.715,73.7248,9.38376,0,0.000885,0,0
0:0:41.015,74.6634,9.50787,0,0.000885,0,0
0:0:41.318,75.0148,9.54924,0,0.000885,0,0
0:0:41.623,75.5397,9.61819,0,0.000885,0,0
0:0:41.926,76.3048,9.71471,0,0.000885,0,0
0:0:42.229,76.5984,9.75608,0,0.000885,0,0
0:0:42.533,77.7727,9.90087,0,0.000885,0,0
0:0:42.828,78.3554,9.97671,0,0.000885,0,0
0:0:43.131,79.2362,10.087,0,0.000885,0,0
0:0:43.425,79.3563,10.1008,0,0.000885,0,0
0:0:43.725,80.1169,10.1973,0,0.000885,0,0
0:0:44.024,81.1133,10.3283,0,0.000885,0,0
0:0:44.322,80.8197,10.287,0,0.000885,0,0
0:0:44.622,81.7583,10.4111,0,0.000885,0,0
0:0:44.918,81.7005,10.4042,0,0.000885,0,0
0:0:45.219,82.6969,10.5283,0,0.000885,0,0
0:0:45.515,83.4575,10.6248,0,0.000885,0,0
0:0:45.814,84.107,10.7076,0,0.000885,0,0
0:0:46.113,83.8712,10.68,0,0.000885,0,0
0:0:46.416,85.4548,10.8799,0,0.000885,0,0
0:0:46.721,86.042,10.9558,0,0.000885,0,0
0:0:47.025,87.0962,11.0868,0,0.000885,0,0
0:0:47.327,86.8026,11.0523,0,0.000885,0,0
0:0:47.629,87.8568,11.1833,0,0.000885,0,0
0:0:47.927,88.3283,11.2453,0,0.000885,0,0
0:0:48.227,88.3283,11.2453,0,0.000885,0,0
0:0:48.523,89.089,11.3419,0,0.000885,0,0
0:0:48.826,89.6761,11.4177,0,0.000885,0,0
0:0:49.121,89.9119,11.4453,0,0.000885,0,0
0:0:49.422,91.2597,11.6177,0,0.000885,0,0
0:0:49.720,91.7312,11.6797,0,0.000885,0,0
0:0:50.017,93.079,11.8521,0,0.000885,0,0
0:0:50.319,92.434,11.7694,0,0.000885,0,0
0:0:50.613,93.8975,11.9555,0,0.000885,0,0
0:0:50.917,94.1911,11.99,0,0.000885,0,0
0:0:51.221,94.7204,12.0589,0,0.000885,0,0
0:0:51.525,95.014,12.1003,0,0.000885,0,0
0:0:51.828,95.7747,12.1968,0,0.000885,0,0
0:0:52.131,96.7755,12.3209,0,0.000885,0,0
0:0:52.432,96.4819,12.2865,0,0.000885,0,0
0:0:52.728,97.4783,12.4106,0,0.000885,0,0
0:0:53.027,97.5362,12.4175,0,0.000885,0,0
0:0:53.325,99.0619,12.6105,0,0.000885,0,0
0:0:53.623,99.3555,12.6519,0,0.000885,0,0
0:0:53.925,100.232,12.7622,0,0.000885,0,0
0:0:54.219,100.939,12.8518,0,0.000885,0,0
0:0:54.522,100.997,12.8587,0,0.000885,0,0
0:0:54.819,102.051,12.9966,0,0.000885,0,0
0:0:55.117,101.993,12.9828,0,0.000885,0,0
0:0:55.416,103.283,13.1483,0,0.000885,0,0
0:0:55.712,103.692,13.2035,0,0.000885,0,0
0:0:56.015,104.573,13.3138,0,0.000885,0,0
0:0:56.320,104.631,13.3207,0,0.000885,0,0
0:0:56.623,105.512,13.431,0,0.000885,0,0
0:0:56.925,105.57,13.4448,0,0.000885,0,0
0:0:57.227,106.335,13.5413,0,0.000885,0,0
0:0:57.531,106.86,13.6034,0,0.000885,0,0
0:0:57.827,107.273,13.6585,0,0.000885,0,0
0:0:58.128,108.443,13.8102,0,0.000885,0,0
0:0:58.424,108.212,13.7757,0,0.000885,0,0
0:0:58.722,109.444,13.9343,0,0.000885,0,0
0:0:59.021,109.56,13.9481,0,0.000885,0,0
0:0:59.317,110.614,14.086,0,0.000885,0,0
0:0:59.618,111.085,14.1411,0,0.000885,0,0
0:0:59.914,111.379,14.1825,0,0.000885,0,0
0:1:0.216,111.962,14.2584,0,0.000885,0,0
0:1:0.515,113.545,14.4583,0,0.000885,0,0
0:1:0.811,114.017,14.5204,0,0.000885,0,0
0:1:1.113,114.84,14.6238,0,0.000885,0,0
0:1:1.415,114.426,14.5686,0,0.000885,0,0
0:1:1.719,114.955,14.6376,0,0.000885,0,0
0:1:2.021,115.365,14.6858,0,0.000885,0,0
0:1:2.323,116.245,14.803,0,0.000885,0,0
0:1:2.626,116.655,14.8513,0,0.000885,0,0
0:1:2.923,117.357,14.9409,0,0.000885,0,0
0:1:3.224,118.007,15.0237,0,0.000885,0,0
0:1:3.521,118.238,15.0581,0,0.000885,0,0
0:1:3.821,119.355,15.196,0,0.000885,0,0
0:1:4.120,120.173,15.2995,0,0.000885,0,0
0:1:4.417,121.29,15.4443,0,0.000885,0,0
0:1:4.716,121.583,15.4787,0,0.000885,0,0
0:1:5.011,121.935,15.527,0,0.000885,0,0
0:1:5.313,121.757,15.4994,0,0.000885,0,0
0:1:5.610,122.931,15.6511,0,0.000885,0,0
0:1:5.912,123.225,15.6925,0,0.000885,0,0
0:1:6.218,123.692,15.7476,0,0.000885,0,0
0:1:6.522,124.808,15.8924,0,0.000885,0,0
0:1:6.823,125.044,15.92,0,0.000885,0,0
0:1:7.126,126.57,16.113,0,0.000885,0,0
0:1:7.426,126.45,16.0993,0,0.000885,0,0
0:1:7.725,127.273,16.2027,0,0.000885,0,0
0:1:8.021,127.446,16.2303,0,0.000885,0,0
0:1:8.320,128.327,16.3406,0,0.000885,0,0
0:1:8.617,129.207,16.4509,0,0.000885,0,0
0:1:8.918,129.092,16.4371,0,0.000885,0,0
0:1:9.214,130.088,16.5612,0,0.000885,0,0
0:1:9.513,130.613,16.6302,0,0.000885,0,0
0:1:9.811,130.733,16.6439,0,0.000885,0,0
0:1:10.108,132.081,16.8163,0,0.000885,0,0
0:1:10.409,132.259,16.837,0,0.000885,0,0
0:1:10.704,132.375,16.8577,0,0.000885,0,0
0:1:11.005,133.135,16.9542,0,0.000885,0,0
0:1:11.310,133.9,17.0507,0,0.000885,0,0
0:1:11.615,135.133,17.2024,0,0.000885,0,0
0:1:11.917,134.955,17.1817,0,0.000885,0,0
0:1:12.219,135.951,17.3127,0,0.000885,0,0
0:1:12.521,135.6,17.2645,0,0.000885,0,0
0:1:12.819,137.299,17.4851,0,0.000885,0,0
0:1:13.118,137.535,17.5127,0,0.000885,0,0
0:1:13.416,138.473,17.6299,0,0.000885,0,0
0:1:13.714,139.296,17.7333,0,0.000885,0,0
0:1:14.015,139.354,17.7402,0,0.000885,0,0
0:1:14.310,139.763,17.7954,0,0.000885,0,0
0:1:14.611,140.88,17.9402,0,0.000885,0,0
0:1:14.908,141.582,18.0298,0,0.000885,0,0
0:1:15.206,141.173,17.9746,0,0.000885,0,0
0:1:15.505,142.05,18.0849,0,0.000885,0,0
0:1:15.801,142.757,18.1746,0,0.000885,0,0
0:1:16.103,143.05,18.2159,0,0.000885,0,0
0:1:16.408,144.572,18.409,0,0.000885,0,0
0:1:16.712,144.456,18.3952,0,0.000885,0,0
0:1:17.014,145.51,18.5262,0,0.000885,0,0
0:1:17.316,146.275,18.6227,0,0.000885,0,0
0:1:17.618,146.449,18.6434,0,0.000885,0,0
0:1:17.913,146.8,18.6917,0,0.000885,0,0
0:1:18.215,147.565,18.7882,0,0.000885,0,0
0:1:18.510,147.445,18.7744,0,0.000885,0,0
0:1:18.809,148.032,18.8503,0,0.000885,0,0
0:1:19.109,149.029,18.9744,0,0.000885,0,0
0:1:19.406,150.145,19.1192,0,0.000885,0,0
0:1:19.708,150.555,19.1674,0,0.000885,0,0
0:1:20.002,151.32,19.264,0,0.000885,0,0
0:1:20.304,152.258,19.3881,0,0.000885,0,0
0:1:20.599,152.196,19.3812,0,0.000885,0,0
0:1:20.897,152.725,19.4432,0,0.000885,0,0
0:1:21.197,152.961,19.4777,0,0.000885,0,0
0:1:21.502,154.015,19.6087,0,0.000885,0,0
0:1:21.805,154.545,19.6776,0,0.000885,0,0
0:1:22.109,155.074,19.7466,0,0.000885,0,0
0:1:22.410,155.892,19.85,0,0.000885,0,0
0:1:22.713,156.244,19.8914,0,0.000885,0,0
0:1:23.011,157.009,19.9879,0,0.000885,0,0
0:1:23.313,157.418,20.0431,0,0.000885,0,0
0:1:23.609,158.121,20.1327,0,0.000885,0,0
0:1:23.909,159.18,20.2637,0,0.000885,0,0
0:1:24.206,159.469,20.3051,0,0.000885,0,0
0:1:24.504,159.762,20.3395,0,0.000885,0,0
0:1:24.803,160.994,20.4981,0,0.000885,0,0
0:1:25.097,160.994,20.4981,0,0.000885,0,0
0:1:25.400,161.639,20.5809,0,0.000885,0,0
0:1:25.694,162.169,20.6498,0,0.000885,0,0
0:1:25.998,163.107,20.767,0,0.000885,0,0
0:1:26.303,162.872,20.7394,0,0.000885,0,0
0:1:26.606,163.868,20.8635,0,0.000885,0,0
0:1:26.910,164.749,20.9739,0,0.000885,0,0
0:1:27.211,165.336,21.0497,0,0.000885,0,0
0:1:27.511,165.394,21.0566,0,0.000885,0,0
0:1:27.810,166.742,21.229,0,0.000885,0,0
0:1:28.107,167.329,21.3048,0,0.000885,0,0
0:1:28.407,167.507,21.3255,0,0.000885,0,0
0:1:28.702,168.739,21.4841,0,0.000885,0,0
0:1:29.003,168.681,21.4772,0,0.000885,0,0
0:1:29.298,169.384,21.5668,0,0.000885,0,0
0:1:29.597,170.438,21.6978,0,0.000885,0,0
0:1:29.894,171.025,21.7736,0,0.000885,0,0
0:1:30.190,171.555,21.8426,0,0.000885,0,0
0:1:30.492,171.492,21.8357,0,0.000885,0,0
0:1:30.787,172.257,21.9322,0,0.000885,0,0
0:1:31.090,172.724,21.9943,0,0.000885,0,0
0:1:31.397,173.841,22.1322,0,0.000885,0,0
0:1:31.699,174.135,22.1735,0,0.000885,0,0
0:1:32.002,174.602,22.2287,0,0.000885,0,0
0:1:32.303,175.131,22.2976,0,0.000885,0,0
0:1:32.604,175.892,22.3942,0,0.000885,0,0
0:1:32.900,177.182,22.5596,0,0.000885,0,0
0:1:33.200,176.888,22.5252,0,0.000885,0,0
0:1:33.496,177.124,22.5528,0,0.000885,0,0
0:1:33.791,177.769,22.6355,0,0.000885,0,0
0:1:34.093,178.356,22.7113,0,0.000885,0,0
0:1:34.389,179.294,22.8285,0,0.000885,0,0
0:1:34.689,179.588,22.863,0,0.000885,0,0
0:1:34.985,180.7,23.0078,0,0.000885,0,0
0:1:35.284,181.465,23.1043,0,0.000885,0,0
0:1:35.594,181.932,23.1664,0,0.000885,0,0
0:1:35.888,181.874,23.1595,0,0.000885,0,0
0:1:36.191,182.871,23.2836,0,0.000885,0,0
0:1:36.496,183.636,23.3801,0,0.000885,0,0
0:1:36.800,184.161,23.4491,0,0.000885,0,0
0:1:37.103,184.223,23.456,0,0.000885,0,0
0:1:37.404,185.042,23.5594,0,0.000885,0,0
0:1:37.706,185.98,23.6766,0,0.000885,0,0
0:1:38.000,187.034,23.8145,0,0.000885,0,0
0:1:38.302,186.625,23.7593,0,0.000885,0,0
0:1:38.598,187.27,23.8421,0,0.000885,0,0
0:1:38.896,188.151,23.9593,0,0.000885,0,0
0:1:39.198,189.325,24.1041,0,0.000885,0,0
0:1:39.491,189.089,24.0765,0,0.000885,0,0
0:1:39.793,189.499,24.1248,0,0.000885,0,0
0:1:40.088,190.909,24.304,0,0.000885,0,0
0:1:40.389,190.846,24.2971,0,0.000885,0,0
0:1:40.686,191.554,24.3868,0,0.000885,0,0
0:1:40.989,192.199,24.4695,0,0.000885,0,0
0:1:41.294,193.662,24.6557,0,0.000885,0,0
0:1:41.596,193.08,24.5867,0,0.000885,0,0
0:1:41.897,193.956,24.697,0,0.000885,0,0
0:1:42.197,194.837,24.8073,0,0.000885,0,0
0:1:42.493,195.597,24.9039,0,0.000885,0,0
0:1:42.791,195.366,24.8763,0,0.000885,0,0
0:1:43.084,196.714,25.0487,0,0.000885,0,0
0:1:43.382,197.537,25.1521,0,0.000885,0,0
0:1:43.686,198.239,25.2417,0,0.000885,0,0
0:1:43.984,198.413,25.2624,0,0.000885,0,0
0:1:44.290,198.533,25.2762,0,0.000885,0,0
0:1:44.584,199.294,25.3727,0,0.000885,0,0
0:1:44.884,199.351,25.3796,0,0.000885,0,0
0:1:45.186,200.348,25.5106,0,0.000885,0,0
0:1:45.483,201.171,25.614,0,0.000885,0,0
0:1:45.788,200.935,25.5864,0,0.000885,0,0
0:1:46.088,201.816,25.6968,0,0.000885,0,0
0:1:46.392,203.226,25.876,0,0.000885,0,0
0:1:46.692,203.284,25.8829,0,0.000885,0,0
0:1:46.992,204.28,26.007,0,0.000885,0,0
0:1:47.293,205.041,26.1036,0,0.000885,0,0
0:1:47.588,205.628,26.1794,0,0.000885,0,0
0:1:47.886,205.512,26.1656,0,0.000885,0,0
0:1:48.188,205.922,26.2208,0,0.000885,0,0
0:1:48.488,207.269,26.3931,0,0.000885,0,0
0:1:48.791,207.914,26.4759,0,0.000885,0,0
0:1:49.088,208.328,26.5241,0,0.000885,0,0
0:1:49.386,208.208,26.5103,0,0.000885,0,0
0:1:49.688,209.44,26.6689,0,0.000885,0,0
0:1:49.989,209.498,26.6758,0,0.000885,0,0
0:1:50.283,210.614,26.8137,0,0.000885,0,0
0:1:50.589,211.202,26.8896,0,0.000885,0,0
0:1:50.885,211.904,26.9792,0,0.000885,0,0
0:1:51.186,212.14,27.0137,0,0.000885,0,0
0:1:51.489,213.31,27.1584,0,0.000885,0,0
0:1:51.789,214.249,27.2826,0,0.000885,0,0
0:1:52.090,214.249,27.2826,0,0.000885,0,0
0:1:52.389,214.311,27.2894,0,0.000885,0,0
0:1:52.686,215.539,27.4411,0,0.000885,0,0
0:1:52.983,215.832,27.4825,0,0.000885,0,0
0:1:53.289,216.655,27.5859,0,0.000885,0,0
0:1:53.586,217.358,27.6756,0,0.000885,0,0
0:1:53.890,216.713,27.5928,0,0.000885,0,0
0:1:54.186,217.829,27.7376,0,0.000885,0,0
0:1:54.485,218.884,27.8686,0,0.000885,0,0
0:1:54.786,219.586,27.9582,0,0.000885,0,0
0:1:55.086,219.293,27.9238,0,0.000885,0,0
0:1:55.390,220.467,28.0686,0,0.000885,0,0
0:1:55.686,221.348,28.1858,0,0.000885,0,0
0:1:55.993,221.757,28.234,0,0.000885,0,0
0:1:56.294,221.699,28.2271,0,0.000885,0,0
0:1:56.598,222.874,28.3788,0,0.000885,0,0
0:1:56.897,223.225,28.4202,0,0.000885,0,0
0:1:57.198,223.692,28.4822,0,0.000885,0,0
0:1:57.499,224.809,28.6201,0,0.000885,0,0
0:1:57.792,225.16,28.6684,0,0.000885,0,0
0:1:58.093,226.099,28.7856,0,0.000885,0,0
0:1:58.386,226.624,28.8546,0,0.000885,0,0
0:1:58.685,227.562,28.9718,0,0.000885,0,0
0:1:58.989,227.389,28.9511,0,0.000885,0,0
0:1:59.284,228.679,29.1166,0,0.000885,0,0
0:1:59.580,228.852,29.1372,0,0.000885,0,0
0:1:59.886,229.853,29.2682,0,0.000885,0,0
0:2:0.193,229.502,29.22,0,0.000885,0,0
0:2:0.489,230.792,29.3855,0,0.000885,0,0
0:2:0.785,231.73,29.5027,0,0.000885,0,0
0:2:1.092,231.374,29.4613,0,0.000885,0,0
0:2:1.394,232.255,29.5716,0,0.000885,0,0
0:2:1.696,233.136,29.6819,0,0.000885,0,0
0:2:1.997,233.839,29.7716,0,0.000885,0,0
0:2:2.296,233.545,29.7371,0,0.000885,0,0
0:2:2.598,234.426,29.8474,0,0.000885,0,0
0:2:2.891,235.716,30.0129,0,0.000885,0,0
0:2:3.190,235.836,30.0267,0,0.000885,0,0
0:2:3.493,236.009,30.0474,0,0.000885,0,0
0:2:3.790,237.299,30.2128,0,0.000885,0,0
0:2:4.088,238.122,30.3162,0,0.000885,0,0
0:2:4.389,237.771,30.2749,0,0.000885,0,0
0:2:4.690,238.825,30.4059,0,0.000885,0,0
0:2:4.992,239.47,30.4886,0,0.000885,0,0
0:2:5.290,240.115,30.5714,0,0.000885,0,0
0:2:5.586,240.582,30.6334,0,0.000885,0,0
0:2:5.889,241.583,30.7575,0,0.000885,0,0
0:2:6.188,241.054,30.6886,0,0.000885,0,0
0:2:6.491,241.992,30.8127,0,0.000885,0,0
0:2:6.793,243.691,31.0264,0,0.000885,0,0
0:2:7.094,243.634,31.0195,0,0.000885,0,0
0:2:7.393,244.456,31.1229,0,0.000885,0,0
0:2:7.694,245.217,31.2195,0,0.000885,0,0
0:2:7.987,245.217,31.2195,0,0.000885,0,0
0:2:8.286,246.04,31.3298,0,0.000885,0,0
0:2:8.591,245.626,31.2746,0,0.000885,0,0
0:2:8.885,247.21,31.4746,0,0.000885,0,0
0:2:9.182,247.388,31.4953,0,0.000885,0,0
0:2:9.486,248.033,31.578,0,0.000885,0,0
0:2:9.786,248.856,31.6883,0,0.000885,0,0
0:2:10.090,249.559,31.7779,0,0.000885,0,0
0:2:10.387,249.438,31.7573,0,0.000885,0,0
0:2:10.694,250.964,31.9572,0,0.000885,0,0
0:2:10.996,251.671,32.0468,0,0.000885,0,0
0:2:11.298,251.2,31.9848,0,0.000885,0,0
0:2:11.599,252.606,32.164,0,0.000885,0,0
0:2:11.898,252.668,32.1709,0,0.000885,0,0
0:2:12.199,253.958,32.3364,0,0.000885,0,0
0:2:12.493,254.603,32.4191,0,0.000885,0,0
0:2:12.792,254.719,32.4329,0,0.000885,0,0
0:2:13.093,255.484,32.5295,0,0.000885,0,0
0:2:13.394,255.657,32.5501,0,0.000885,0,0
0:2:13.687,256.36,32.6398,0,0.000885,0,0
0:2:13.982,257.534,32.7915,0,0.000885,0,0
0:2:14.290,257.886,32.8328,0,0.000885,0,0
0:2:14.583,257.828,32.8259,0,0.000885,0,0
0:2:14.882,258.94,32.9707,0,0.000885,0,0
0:2:15.186,260.172,33.1293,0,0.000885,0,0
0:2:15.483,259.821,33.081,0,0.000885,0,0
0:2:15.789,260.523,33.1707,0,0.000885,0,0
0:2:16.088,261.289,33.2672,0,0.000885,0,0
0:2:16.393,261.876,33.343,0,0.000885,0,0
0:2:16.693,261.698,33.3224,0,0.000885,0,0
0:2:16.993,263.108,33.5016,0,0.000885,0,0
0:2:17.293,262.988,33.4878,0,0.000885,0,0
0:2:17.590,264.046,33.6188,0,0.000885,0,0
0:2:17.888,265.101,33.7567,0,0.000885,0,0
0:2:18.191,264.865,33.7223,0,0.000885,0,0
0:2:18.491,266.097,33.8808,0,0.000885,0,0
0:2:18.793,266.155,33.8877,0,0.000885,0,0
0:2:19.092,266.684,33.9567,0,0.000885,0,0
0:2:19.397,267.796,34.0946,0,0.000885,0,0
0:2:19.692,267.623,34.0739,0,0.000885,0,0
0:2:19.991,268.971,34.2463,0,0.000885,0,0
0:2:20.293,268.855,34.2325,0,0.000885,0,0
0:2:20.592,269.967,34.3704,0,0.000885,0,0
0:2:20.886,271.026,34.5083,0,0.000885,0,0
0:2:21.196,270.906,34.4945,0,0.000885,0,0
0:2:21.500,271.964,34.6255,0,0.000885,0,0
0:2:21.802,272.783,34.7289,0,0.000885,0,0
0:2:22.103,273.018,34.7634,0,0.000885,0,0
0:2:22.402,274.073,34.8944,0,0.000885,0,0
0:2:22.699,273.663,34.8461,0,0.000885,0,0
0:2:22.994,274.486,34.9495,0,0.000885,0,0
0:2:23.291,275.714,35.1081,0,0.000885,0,0
0:2:23.590,275.892,35.1288,0,0.000885,0,0
0:2:23.892,276.715,35.2322,0,0.000885,0,0
0:2:24.192,276.186,35.1633,0,0.000885,0,0
0:2:24.493,277.654,35.3494,0,0.000885,0,0
0:2:24.792,278.65,35.4804,0,0.000885,0,0
0:2:25.089,278.708,35.4873,0,0.000885,0,0
0:2:25.393,279.295,35.5632,0,0.000885,0,0
0:2:25.692,279.882,35.6321,0,0.000885,0,0
0:2:25.994,280.879,35.7631,0,0.000885,0,0
0:2:26.295,281.346,35.8252,0,0.000885,0,0
0:2:26.598,281.875,35.8872,0,0.000885,0,0
0:2:26.901,282.693,35.9906,0,0.000885,0,0
0:2:27.201,283.516,36.1009,0,0.000885,0,0
0:2:27.502,283.752,36.1285,0,0.000885,0,0
0:2:27.803,284.513,36.2251,0,0.000885,0,0
0:2:28.094,284.984,36.2871,0,0.000885,0,0
0:2:28.392,285.336,36.3285,0,0.000885,0,0
0:2:28.688,285.861,36.3974,0,0.000885,0,0
0:2:28.991,286.919,36.5284,0,0.000885,0,0
0:2:29.290,286.741,36.5077,0,0.000885,0,0
0:2:29.592,287.444,36.5974,0,0.000885,0,0
0:2:29.891,287.858,36.6525,0,0.000885,0,0
0:2:30.197,289.148,36.818,0,0.000885,0,0
0:2:30.493,289.851,36.9076,0,0.000885,0,0
0:2:30.790,289.966,36.9214,0,0.000885,0,0
0:2:31.091,291.083,37.0593,0,0.000885,0,0
0:2:31.393,291.198,37.08,0,0.000885,0,0
0:2:31.694,292.195,37.2041,0,0.000885,0,0
0:2:31.994,292.137,37.1972,0,0.000885,0,0
0:2:32.294,292.902,37.2937,0,0.000885,0,0
0:2:32.589,292.902,37.2937,0,0.000885,0,0
0:2:32.889,294.308,37.473,0,0.000885,0,0
0:2:33.191,294.192,37.4592,0,0.000885,0,0
0:2:33.490,295.776,37.6592,0,0.000885,0,0
0:2:33.782,295.424,37.6178,0,0.000885,0,0
0:2:34.090,296.594,37.7626,0,0.000885,0,0
0:2:34.397,297.181,37.8384,0,0.000885,0,0
0:2:34.691,297.826,37.9212,0,0.000885,0,0
0:2:34.991,298.24,37.9694,0,0.000885,0,0
0:2:35.293,298.356,37.9901,0,0.000885,0,0
0:2:35.593,299.352,38.1142,0,0.000885,0,0
0:2:35.889,299.939,38.1901,0,0.000885,0,0
0:2:36.190,300.993,38.3211,0,0.000885,0,0
0:2:36.493,301.287,38.3624,0,0.000885,0,0
0:2:36.794,301.345,38.3693,0,0.000885,0,0
0:2:37.094,302.871,38.5624,0,0.000885,0,0
0:2:37.393,302.635,38.5348,0,0.000885,0,0
0:2:37.690,304.045,38.7141,0,0.000885,0,0
0:2:37.988,304.218,38.7347,0,0.000885,0,0
0:2:38.291,305.157,38.852,0,0.000885,0,0
0:2:38.591,306.038,38.9692,0,0.000885,0,0
0:2:38.892,305.686,38.9209,0,0.000885,0,0
0:2:39.191,306.509,39.0243,0,0.000885,0,0
0:2:39.484,306.861,39.0726,0,0.000885,0,0
0:2:39.791,307.973,39.2105,0,0.000885,0,0
0:2:40.091,308.618,39.2932,0,0.000885,0,0
0:2:40.393,308.502,39.2794,0,0.000885,0,0
0:2:40.693,309.263,39.376,0,0.000885,0,0
0:2:40.985,309.85,39.4518,0,0.000885,0,0
0:2:41.284,310.321,39.5139,0,0.000885,0,0
0:2:41.590,311.669,39.6862,0,0.000885,0,0
0:2:41.892,311.433,39.6517,0,0.000885,0,0
0:2:42.191,312.198,39.7483,0,0.000885,0,0
0:2:42.493,313.137,39.8724,0,0.000885,0,0
0:2:42.790,313.782,39.9551,0,0.000885,0,0
0:2:43.097,314.133,39.9965,0,0.000885,0,0
0:2:43.391,315.303,40.1482,0,0.000885,0,0
0:2:43.690,315.13,40.1206,0,0.000885,0,0
0:2:43.992,316.304,40.2723,0,0.000885,0,0
0:2:44.292,316.771,40.3343,0,0.000885,0,0
0:2:44.585,316.535,40.2999,0,0.000885,0,0
0:2:44.891,317.007,40.3619,0,0.000885,0,0
0:2:45.190,318.239,40.5205,0,0.000885,0,0
0:2:45.494,319.115,40.6308,0,0.000885,0,0
0:2:45.792,319.529,40.686,0,0.000885,0,0
0:2:46.098,319.938,40.7342,0,0.000885,0,0
0:2:46.397,320.174,40.7687,0,0.000885,0,0
0:2:46.702,322.109,41.01,0,0.000885,0,0
0:2:47.003,322.109,41.01,0,0.000885,0,0
0:2:47.302,322.403,41.0514,0,0.000885,0,0
0:2:47.603,322.638,41.079,0,0.000885,0,0
0:2:47.899,323.75,41.2238,0,0.000885,0,0
0:2:48.197,324.453,41.3134,0,0.000885,0,0
0:2:48.491,324.983,41.3754,0,0.000885,0,0
0:2:48.791,325.098,41.3961,0,0.000885,0,0
0:2:49.092,325.218,41.4099,0,0.000885,0,0
0:2:49.390,326.624,41.5892,0,0.000885,0,0
0:2:49.686,327.327,41.6788,0,0.000885,0,0
0:2:49.991,327.798,41.734,0,0.000885,0,0
0:2:50.290,328.328,41.8029,0,0.000885,0,0
0:2:50.594,329.088,41.8994,0,0.000885,0,0
0:2:50.897,329.675,41.9753,0,0.000885,0,0
0:2:51.200,329.907,42.0029,0,0.000885,0,0
0:2:51.501,330.32,42.058,0,0.000885,0,0
0:2:51.800,331.081,42.1545,0,0.000885,0,0
0:2:52.102,331.784,42.2442,0,0.000885,0,0
0:2:52.401,332.723,42.3614,0,0.000885,0,0
0:2:52.694,333.31,42.4372,0,0.000885,0,0
0:2:52.992,333.488,42.4579,0,0.000885,0,0
0:2:53.298,334.306,42.5682,0,0.000885,0,0
0:2:53.591,334.951,42.651,0,0.000885,0,0
0:2:53.891,335.245,42.6854,0,0.000885,0,0
0:2:54.194,335.952,42.7751,0,0.000885,0,0
0:2:54.492,336.713,42.8716,0,0.000885,0,0
0:2:54.798,337.064,42.913,0,0.000885,0,0
0:2:55.094,337.825,43.0164,0,0.000885,0,0
0:2:55.393,338.883,43.1474,0,0.000885,0,0
0:2:55.694,338.999,43.1612,0,0.000885,0,0
0:2:55.997,339.408,43.2163,0,0.000885,0,0
0:2:56.299,340.115,43.306,0,0.000885,0,0
0:2:56.601,340.289,43.3267,0,0.000885,0,0
0:2:56.900,341.112,43.4301,0,0.000885,0,0
0:2:57.201,341.993,43.5404,0,0.000885,0,0
0:2:57.502,342.344,43.5887,0,0.000885,0,0
0:2:57.794,342.753,43.6438,0,0.000885,0,0
0:2:58.093,343.634,43.7541,0,0.000885,0,0
0:2:58.390,344.337,43.8438,0,0.000885,0,0
0:2:58.694,344.515,43.8644,0,0.000885,0,0
0:2:58.993,345.511,43.9886,0,0.000885,0,0
0:2:59.298,345.92,44.0437,0,0.000885,0,0
0:2:59.595,346.508,44.1196,0,0.000885,0,0
0:2:59.891,346.743,44.1471,0,0.000885,0,0
0:3:0.197,348.327,44.3471,0,0.000885,0,0
0:3:0.495,348.385,44.3609,0,0.000885,0,0
0:3:0.798,349.088,44.4505,0,0.000885,0,0
0:3:1.099,349.497,44.4988,0,0.000885,0,0
0:3:1.400,349.733,44.5263,0,0.000885,0,0
0:3:1.703,350.378,44.6091,0,0.000885,0,0
0:3:2.005,351.2,44.7194,0,0.000885,0,0
0:3:2.304,351.61,44.7677,0,0.000885,0,0
0:3:2.604,351.725,44.7814,0,0.000885,0,0
0:3:2.897,352.842,44.9262,0,0.000885,0,0
0:3:3.194,353.723,45.0366,0,0.000885,0,0
0:3:3.492,354.31,45.1124,0,0.000885,0,0
0:3:3.795,354.599,45.1469,0,0.000885,0,0
0:3:4.094,355.244,45.2296,0,0.000885,0,0
0:3:4.398,356.125,45.3399,0,0.000885,0,0
0:3:4.698,356.654,45.4089,0,0.000885,0,0
0:3:5.001,357.183,45.4778,0,0.000885,0,0
0:3:5.297,357.944,45.5743,0,0.000885,0,0
0:3:5.593,358.122,45.595,0,0.000885,0,0
0:3:5.898,358.883,45.6916,0,0.000885,0,0
0:3:6.199,359.35,45.7536,0,0.000885,0,0
0:3:6.501,360.408,45.8915,0,0.000885,0,0
0:3:6.803,360.524,45.9053,0,0.000885,0,0
0:3:7.102,361.111,45.9811,0,0.000885,0,0
0:3:7.403,362.165,46.1121,0,0.000885,0,0
0:3:7.703,362.285,46.1259,0,0.000885,0,0
0:3:7.995,363.575,46.2914,0,0.000885,0,0
0:3:8.294,363.691,46.3052,0,0.000885,0,0
0:3:8.600,364.687,46.4362,0,0.000885,0,0
0:3:8.895,364.923,46.4638,0,0.000885,0,0
0:3:9.193,365.453,46.5327,0,0.000885,0,0
0:3:9.497,366.098,46.6155,0,0.000885,0,0
0:3:9.797,366.271,46.6361,0,0.000885,0,0
0:3:10.100,367.21,46.7533,0,0.000885,0,0
0:3:10.397,367.912,46.843,0,0.000885,0,0
0:3:10.691,368.442,46.9119,0,0.000885,0,0
0:3:10.993,368.735,46.9464,0,0.000885,0,0
0:3:11.295,369.496,47.0429,0,0.000885,0,0
0:3:11.598,369.967,47.105,0,0.000885,0,0
0:3:11.898,370.435,47.167,0,0.000885,0,0
0:3:12.199,370.497,47.1739,0,0.000885,0,0
0:3:12.494,371.729,47.3325,0,0.000885,0,0
0:3:12.802,372.08,47.3739,0,0.000885,0,0
0:3:13.097,373.019,47.4911,0,0.000885,0,0
0:3:13.395,373.837,47.6014,0,0.000885,0,0
0:3:13.697,373.958,47.6152,0,0.000885,0,0
0:3:13.995,374.54,47.691,0,0.000885,0,0
0:3:14.292,375.127,47.76,0,0.000885,0,0
0:3:14.597,375.83,47.8496,0,0.000885,0,0
0:3:14.897,376.653,47.9599,0,0.000885,0,0
0:3:15.198,377.356,48.0496,0,0.000885,0,0
0:3:15.498,377.356,48.0496,0,0.000885,0,0
0:3:15.802,378.001,48.1254,0,0.000885,0,0
0:3:16.104,378.824,48.2357,0,0.000885,0,0
0:3:16.407,379.527,48.3254,0,0.000885,0,0
0:3:16.708,379.469,48.3185,0,0.000885,0,0
0:3:17.008,380.35,48.4288,0,0.000885,0,0
0:3:17.308,381.11,48.5253,0,0.000885,0,0
0:3:17.605,381.697,48.6011,0,0.000885,0,0
0:3:17.902,382.342,48.6839,0,0.000885,0,0
0:3:18.195,383.459,48.8218,0,0.000885,0,0
0:3:18.497,383.926,48.8838,0,0.000885,0,0
0:3:18.797,384.335,48.9321,0,0.000885,0,0
0:3:19.096,384.749,48.9873,0,0.000885,0,0
0:3:19.402,384.98,49.0148,0,0.000885,0,0
0:3:19.698,386.626,49.2286,0,0.000885,0,0
0:3:19.994,386.742,49.2424,0,0.000885,0,0
0:3:20.298,387.151,49.2906,0,0.000885,0,0
0:3:20.599,387.622,49.3527,0,0.000885,0,0
0:3:20.902,388.912,49.5181,0,0.000885,0,0
0:3:21.203,388.97,49.525,0,0.000885,0,0
0:3:21.505,389.206,49.5526,0,0.000885,0,0
0:3:21.806,389.851,49.6354,0,0.000885,0,0
0:3:22.107,390.905,49.7733,0,0.000885,0,0
0:3:22.406,391.199,49.8077,0,0.000885,0,0
0:3:22.706,391.608,49.8629,0,0.000885,0,0
0:3:22.999,392.373,49.9594,0,0.000885,0,0
0:3:23.295,393.134,50.0559,0,0.000885,0,0
0:3:23.601,393.37,50.0835,0,0.000885,0,0
0:3:23.895,394.072,50.1731,0,0.000885,0,0
0:3:24.195,395.069,50.3041,0,0.000885,0,0
0:3:24.498,395.834,50.4007,0,0.000885,0,0
0:3:24.795,395.714,50.3869,0,0.000885,0,0
0:3:25.089,396.479,50.4834,0,0.000885,0,0
0:3:25.395,396.946,50.5386,0,0.000885,0,0
0:3:25.703,397.649,50.6282,0,0.000885,0,0
0:3:25.997,398.65,50.7592,0,0.000885,0,0
0:3:26.297,398.53,50.7454,0,0.000885,0,0
0:3:26.599,399.468,50.8626,0,0.000885,0,0
0:3:26.900,399.94,50.9247,0,0.000885,0,0
0:3:27.201,400.936,51.0488,0,0.000885,0,0
0:3:27.501,401.461,51.1177,0,0.000885,0,0
0:3:27.802,402.284,51.2212,0,0.000885,0,0
0:3:28.094,402.693,51.2694,0,0.000885,0,0
0:3:28.390,403.044,51.3177,0,0.000885,0,0
0:3:28.697,403.867,51.4211,0,0.000885,0,0
0:3:28.993,404.628,51.5176,0,0.000885,0,0
0:3:29.289,404.864,51.5521,0,0.000885,0,0
0:3:29.591,405.393,51.6142,0,0.000885,0,0
0:3:29.890,405.567,51.6417,0,0.000885,0,0
0:3:30.185,406.799,51.7934,0,0.000885,0,0
0:3:30.491,407.212,51.8486,0,0.000885,0,0
0:3:30.788,408.382,52.0003,0,0.000885,0,0
0:3:31.087,407.737,51.9175,0,0.000885,0,0
0:3:31.390,408.854,52.0554,0,0.000885,0,0
0:3:31.690,409.499,52.1382,0,0.000885,0,0
0:3:31.991,410.317,52.2416,0,0.000885,0,0
0:3:32.290,411.14,52.345,0,0.000885,0,0
0:3:32.587,411.785,52.4277,0,0.000885,0,0
0:3:32.884,411.549,52.4002,0,0.000885,0,0
0:3:33.178,411.901,52.4484,0,0.000885,0,0
0:3:33.478,413.369,52.6346,0,0.000885,0,0
0:3:33.790,413.133,52.6001,0,0.000885,0,0
0:3:34.100,414.365,52.7587,0,0.000885,0,0
0:3:34.395,414.365,52.7587,0,0.000885,0,0
0:3:34.701,416.007,52.9655,0,0.000885,0,0
0:3:34.999,415.833,52.9448,0,0.000885,0,0
0:3:35.290,417.123,53.1103,0,0.000885,0,0
0:3:35.589,416.83,53.0689,0,0.000885,0,0
0:3:35.894,417.532,53.1586,0,0.000885,0,0
0:3:36.197,417.942,53.2137,0,0.000885,0,0
0:3:36.498,418.88,53.3309,0,0.000885,0,0
0:3:36.800,420.054,53.4826,0,0.000885,0,0
0:3:37.099,419.881,53.4619,0,0.000885,0,0
0:3:37.401,421.287,53.6412,0,0.000885,0,0
0:3:37.696,420.935,53.5929,0,0.000885,0,0
0:3:38.004,421.932,53.7239,0,0.000885,0,0
0:3:38.297,423.164,53.8756,0,0.000885,0,0
0:3:38.597,423.222,53.8894,0,0.000885,0,0
0:3:38.898,423.809,53.9584,0,0.000885,0,0
0:3:39.198,424.69,54.0756,0,0.000885,0,0
0:3:39.503,424.396,54.0342,0,0.000885,0,0
0:3:39.798,425.277,54.1445,0,0.000885,0,0
0:3:40.097,426.389,54.2893,0,0.000885,0,0
0:3:40.399,426.095,54.2548,0,0.000885,0,0
0:3:40.699,426.798,54.3445,0,0.000885,0,0
0:3:41.002,427.563,54.441,0,0.000885,0,0
0:3:41.302,428.208,54.5237,0,0.000885,0,0
0:3:41.606,429.204,54.6478,0,0.000885,0,0
0:3:41.908,429.672,54.7099,0,0.000885,0,0
0:3:42.208,429.965,54.7444,0,0.000885,0,0
0:3:42.508,430.552,54.8202,0,0.000885,0,0
0:3:42.806,431.139,54.8961,0,0.000885,0,0
0:3:43.103,431.842,54.9857,0,0.000885,0,0
0:3:43.397,432.607,55.0822,0,0.000885,0,0
0:3:43.704,432.723,55.096,0,0.000885,0,0
0:3:43.998,433.252,55.165,0,0.000885,0,0
0:3:44.297,434.013,55.2615,0,0.000885,0,0
0:3:44.600,434.658,55.3442,0,0.000885,0,0
0:3:44.899,435.597,55.4614,0,0.000885,0,0
0:3:45.193,436.242,55.5442,0,0.000885,0,0
0:3:45.499,436.771,55.6131,0,0.000885,0,0
0:3:45.798,437.3,55.6752,0,0.000885,0,0
0:3:46.101,437.825,55.7441,0,0.000885,0,0
0:3:46.402,438.234,55.7993,0,0.000885,0,0
0:3:46.703,438.884,55.882,0,0.000885,0,0
0:3:47.002,439.293,55.9303,0,0.000885,0,0
0:3:47.304,440.111,56.0337,0,0.000885,0,0
0:3:47.595,440.877,56.1371,0,0.000885,0,0
0:3:47.897,441.344,56.1923,0,0.000885,0,0
0:3:48.201,441.695,56.2405,0,0.000885,0,0
0:3:48.498,442.869,56.3853,0,0.000885,0,0
0:3:48.792,443.341,56.4474,0,0.000885,0,0
0:3:49.099,443.457,56.4612,0,0.000885,0,0
0:3:49.398,443.75,56.5025,0,0.000885,0,0
0:3:49.701,445.218,56.6887,0,0.000885,0,0
0:3:49.999,445.507,56.7232,0,0.000885,0,0
0:3:50.305,446.33,56.8266,0,0.000885,0,0
0:3:50.600,446.682,56.8749,0,0.000885,0,0
0:3:50.898,447.091,56.9231,0,0.000885,0,0
0:3:51.199,448.029,57.0472,0,0.000885,0,0
0:3:51.502,448.616,57.1231,0,0.000885,0,0
0:3:51.802,448.91,57.1575,0,0.000885,0,0
0:3:52.103,449.849,57.2747,0,0.000885,0,0
0:3:52.403,450.2,57.323,0,0.000885,0,0
0:3:52.698,451.259,57.454,0,0.000885,0,0
0:3:52.998,451.784,57.523,0,0.000885,0,0
0:3:53.300,452.135,57.5712,0,0.000885,0,0
0:3:53.600,452.486,57.6126,0,0.000885,0,0
0:3:53.904,453.719,57.7712,0,0.000885,0,0
0:3:54.200,453.603,57.7574,0,0.000885,0,0
0:3:54.499,454.657,57.8884,0,0.000885,0,0
0:3:54.799,455.48,57.9918,0,0.000885,0,0
0:3:55.099,455.48,57.9918,0,0.000885,0,0
0:3:55.390,456.009,58.0608,0,0.000885,0,0
0:3:55.689,457.121,58.2055,0,0.000885,0,0
0:3:55.997,457.357,58.2331,0,0.000885,0,0
0:3:56.299,457.593,58.2607,0,0.000885,0,0
0:3:56.600,458.469,58.371,0,0.000885,0,0
0:3:56.902,459.292,58.4813,0,0.000885,0,0
0:3:57.202,459.759,58.5365,0,0.000885,0,0
0:3:57.503,460.934,58.6882,0,0.000885,0,0
0:3:57.798,460.818,58.6744,0,0.000885,0,0
0:3:58.106,461.405,58.7502,0,0.000885,0,0
0:3:58.399,462.108,58.8399,0,0.000885,0,0
0:3:58.700,462.869,58.9364,0,0.000885,0,0
0:3:59.002,463.162,58.9709,0,0.000885,0,0
0:3:59.300,463.398,58.9984,0,0.000885,0,0
0:3:59.605,464.63,59.157,0,0.000885,0,0
0:3:59.901,465.449,59.2604,0,0.000885,0,0
0:4:0.199,465.684,59.2949,0,0.000885,0,0
0:4:0.501,465.978,59.3294,0,0.000885,0,0
0:4:0.801,466.916,59.4466,0,0.000885,0,0
0:4:1.106,467.446,59.5155,0,0.000885,0,0
0:4:1.407,467.971,59.5845,0,0.000885,0,0
0:4:1.707,468.616,59.6672,0,0.000885,0,0
0:4:2.008,469.087,59.7293,0,0.000885,0,0
0:4:2.308,469.848,59.8258,0,0.000885,0,0
0:4:2.602,470.377,59.8879,0,0.000885,0,0
0:4:2.900,470.493,59.9085,0,0.000885,0,0
0:4:3.206,471.138,59.9844,0,0.000885,0,0
0:4:3.499,471.489,60.0327,0,0.000885,0,0
0:4:3.807,471.2,59.9982,0,0.000885,0,0
0:4:4.100,470.786,59.943,0,0.000885,0,0
0:4:4.400,471.783,60.0671,0,0.000885,0,0
0:4:4.703,472.548,60.1637,0,0.000885,0,0
0:4:5.001,473.718,60.3153,0,0.000885,0,0
0:4:5.307,474.367,60.3981,0,0.000885,0,0
0:4:5.599,475.657,60.5635,0,0.000885,0,0
0:4:5.900,476.124,60.6187,0,0.000885,0,0
0:4:6.201,477.121,60.7497,0,0.000885,0,0
0:4:6.504,477.824,60.8393,0,0.000885,0,0
0:4:6.804,478.646,60.9428,0,0.000885,0,0
0:4:7.104,478.882,60.9703,0,0.000885,0,0
0:4:7.403,479.701,61.0807,0,0.000885,0,0
0:4:7.706,479.936,61.1082,0,0.000885,0,0
0:4:8.004,480.639,61.1979,0,0.000885,0,0
0:4:8.301,481.226,61.2737,0,0.000885,0,0
0:4:8.606,481.636,61.322,0,0.000885,0,0
0:4:8.904,482.343,61.4116,0,0.000885,0,0
0:4:9.207,483.046,61.5012,0,0.000885,0,0
0:4:9.507,483.455,61.5564,0,0.000885,0,0
0:4:9.799,484.042,61.6322,0,0.000885,0,0
0:4:10.095,483.984,61.6253,0,0.000885,0,0
0:4:10.404,483.046,61.5012,0,0.000885,0,0
0:4:10.707,483.046,61.5012,0,0.000885,0,0
0:4:11.003,483.926,61.6184,0,0.000885,0,0
0:4:11.305,484.687,61.715,0,0.000885,0,0
0:4:11.607,485.51,61.8184,0,0.000885,0,0
0:4:11.908,485.568,61.8253,0,0.000885,0,0
0:4:12.207,486.742,61.977,0,0.000885,0,0
0:4:12.508,487.681,62.0942,0,0.000885,0,0
0:4:12.801,488.441,62.1907,0,0.000885,0,0
0:4:13.100,488.032,62.1356,0,0.000885,0,0
0:4:13.403,488.557,62.2045,0,0.000885,0,0
0:4:13.700,489.438,62.3148,0,0.000885,0,0
0:4:14.005,486.916,61.9977,0,0.000885,0,0
0:4:14.299,484.981,61.7494,0,0.000885,0,0
0:4:14.600,485.741,61.846,0,0.000885,0,0
0:4:14.902,486.858,61.9908,0,0.000885,0,0
0:4:15.200,487.387,62.0528,0,0.000885,0,0
0:4:15.503,488.032,62.1356,0,0.000885,0,0
0:4:15.799,489.086,62.2734,0,0.000885,0,0
0:4:16.106,489.909,62.3769,0,0.000885,0,0
0:4:16.407,491.137,62.5354,0,0.000885,0,0
0:4:16.710,491.844,62.6251,0,0.000885,0,0
0:4:17.008,488.384,62.1838,0,0.000885,0,0
0:4:17.308,486.916,61.9977,0,0.000885,0,0
0:4:17.607,477.766,60.8324,0,0.000885,0,0
0:4:17.902,476.066,60.6118,0,0.000885,0,0
0:4:18.201,475.657,60.5635,0,0.000885,0,0
0:4:18.501,474.247,60.3843,0,0.000885,0,0
0:4:18.801,473.251,60.2533,0,0.000885,0,0
0:4:19.105,473.015,60.2257,0,0.000885,0,0
0:4:19.331,445.627,56.737,0,0.000885,0,0