File: DataFile2021-07-03_084454.csv
Test ID:,Date Tested:,Time:,Test Type:,Diameter Avg. (mm):,Cyl. Corr. Factor:,Height (mm):,Age (days):,Weight (kN):,Break Type:,Ramp Rate (MPa/s):,Load at Break (kN):,Stress at Break (MPa):
12,7/3/2021,08:44,Cylinder,100,1,200,0,3.6,3,0.25,615.44,78.36
Sample Time,Load (kN),Stress (MPa),Long. Strain,Trans. Strain,Chan1 Deflection (mm),Chan2 Deflection (mm)
0:0:19.590,6.15634,0.786002,0,0.000885,0,0
0:0:19.887,5.04428,0.641212,0,0.000885,0,0
0:0:20.185,10.2042,1.29621,0,0.000885,0,0
0:0:20.483,13.785,1.75816,0,0.000885,0,0
0:0:20.783,13.1356,1.67543,0,0.000885,0,0
0:0:21.079,12.6107,1.60648,0,0.000885,0,0
0:0:21.377,12.2593,1.55822,0,0.000885,0,0
0:0:21.675,11.73,1.49616,0,0.000885,0,0
0:0:21.970,12.0814,1.53753,0,0.000885,0,0
0:0:22.271,11.9079,1.51685,0,0.000885,0,0
0:0:22.566,11.6721,1.48927,0,0.000885,0,0
0:0:22.865,11.6721,1.48927,0,0.000885,0,0
0:0:23.162,12.2015,1.55132,0,0.000885,0,0
0:0:23.458,11.9079,1.51685,0,0.000885,0,0
0:0:23.758,12.6685,1.61337,0,0.000885,0,0
0:0:24.053,12.7264,1.62027,0,0.000885,0,0
0:0:24.352,12.6685,1.61337,0,0.000885,0,0
0:0:24.649,13.3714,1.70301,0,0.000885,0,0
0:0:24.950,14.3678,1.82711,0,0.000885,0,0
0:0:25.256,15.1328,1.92364,0,0.000885,0,0
0:0:25.560,16.0714,2.04774,0,0.000885,0,0
0:0:25.862,16.8899,2.15116,0,0.000885,0,0
0:0:26.163,17.3614,2.21322,0,0.000885,0,0
0:0:26.465,17.8863,2.27527,0,0.000885,0,0
0:0:26.764,18.767,2.39248,0,0.000885,0,0
0:0:27.060,19.9992,2.54417,0,0.000885,0,0
0:0:27.361,20.702,2.6338,0,0.000885,0,0
0:0:27.658,21.2314,2.70274,0,0.000885,0,0
0:0:27.958,22.2856,2.84064,0,0.000885,0,0
0:0:28.256,22.9929,2.93027,0,0.000885,0,0
0:0:28.553,23.6378,3.00611,0,0.000885,0,0
0:0:28.854,23.9314,3.04748,0,0.000885,0,0
0:0:29.150,24.7499,3.1509,0,0.000885,0,0
0:0:29.451,24.7499,3.1509,0,0.000885,0,0
0:0:29.748,25.4527,3.24054,0,0.000885,0,0
0:0:30.050,25.6885,3.26811,0,0.000885,0,0
0:0:30.355,26.4536,3.36464,0,0.000885,0,0
0:0:30.658,26.7427,3.40601,0,0.000885,0,0
0:0:30.961,27.2142,3.46806,0,0.000885,0,0
0:0:31.262,27.8592,3.54391,0,0.000885,0,0
0:0:31.563,28.3886,3.61285,0,0.000885,0,0
0:0:31.860,28.9134,3.6818,0,0.000885,0,0
0:0:32.160,29.5006,3.75764,0,0.000885,0,0
0:0:32.459,29.7942,3.79212,0,0.000885,0,0
0:0:32.755,30.7328,3.91622,0,0.000885,0,0
0:0:33.057,31.7292,4.04033,0,0.000885,0,0
0:0:33.354,32.3163,4.11617,0,0.000885,0,0
0:0:33.652,32.6677,4.15754,0,0.000885,0,0
0:0:33.952,33.1393,4.21959,0,0.000885,0,0
0:0:34.249,34.0778,4.3368,0,0.000885,0,0
0:0:34.552,35.0742,4.4678,0,0.000885,0,0
0:0:34.854,35.5991,4.52986,0,0.000885,0,0
0:0:35.157,36.1863,4.6057,0,0.000885,0,0
0:0:35.460,36.3064,4.61949,0,0.000885,0,0
0:0:35.765,37.245,4.74359,0,0.000885,0,0
0:0:36.067,37.3028,4.75049,0,0.000885,0,0
0:0:36.370,38.0634,4.84701,0,0.000885,0,0
0:0:36.673,38.8285,4.94354,0,0.000885,0,0
0:0:36.969,39.5313,5.03317,0,0.000885,0,0
0:0:37.269,39.8828,5.07454,0,0.000885,0,0
0:0:37.569,40.4121,5.14349,0,0.000885,0,0
0:0:37.865,40.8792,5.20554,0,0.000885,0,0
0:0:38.166,41.1727,5.24002,0,0.000885,0,0
0:0:38.463,42.5784,5.41928,0,0.000885,0,0
0:0:38.763,42.9342,5.46754,0,0.000885,0,0
0:0:39.060,43.5792,5.55028,0,0.000885,0,0
0:0:39.358,43.8105,5.57786,0,0.000885,0,0
0:0:39.659,44.1041,5.61233,0,0.000885,0,0
0:0:39.962,45.0427,5.73644,0,0.000885,0,0
0:0:40.268,45.3941,5.77781,0,0.000885,0,0
0:0:40.571,46.1592,5.87433,0,0.000885,0,0
0:0:40.873,46.9198,5.97086,0,0.000885,0,0
0:0:41.175,47.6849,6.07428,0,0.000885,0,0
0:0:41.472,48.4456,6.17081,0,0.000885,0,0
0:0:41.773,48.9126,6.22597,0,0.000885,0,0
0:0:42.067,49.1484,6.26044,0,0.000885,0,0
0:0:42.368,50.087,6.37765,0,0.000885,0,0
0:0:42.667,50.7898,6.46728,0,0.000885,0,0
0:0:42.964,50.6163,6.4466,0,0.000885,0,0
0:0:43.265,51.3191,6.53623,0,0.000885,0,0
0:0:43.560,51.8485,6.59828,0,0.000885,0,0
0:0:43.863,52.6669,6.7086,0,0.000885,0,0
0:0:44.158,53.5477,6.81891,0,0.000885,0,0
0:0:44.458,53.8991,6.86028,0,0.000885,0,0
0:0:44.758,54.4863,6.93613,0,0.000885,0,0
0:0:45.061,55.367,7.04644,0,0.000885,0,0
0:0:45.366,56.012,7.12918,0,0.000885,0,0
0:0:45.669,56.4791,7.19123,0,0.000885,0,0
0:0:45.970,56.8928,7.24639,0,0.000885,0,0
0:0:46.274,57.4755,7.31534,0,0.000885,0,0
0:0:46.569,58.1827,7.40497,0,0.000885,0,0
0:0:46.872,58.6498,7.46702,0,0.000885,0,0
0:0:47.166,59.0012,7.51529,0,0.000885,0,0
0:0:47.469,59.4149,7.56355,0,0.000885,0,0
0:0:47.765,60.3535,7.68076,0,0.000885,0,0
0:0:48.066,61.1141,7.78418,0,0.000885,0,0
0:0:48.364,61.8169,7.87381,0,0.000885,0,0
0:0:48.660,62.4041,7.94276,0,0.000885,0,0
0:0:48.961,62.7555,7.99102,0,0.000885,0,0
0:0:49.257,63.5206,8.08755,0,0.000885,0,0
0:0:49.558,63.872,8.12892,0,0.000885,0,0
0:0:49.857,64.4547,8.20476,0,0.000885,0,0
0:0:50.161,65.2777,8.30818,0,0.000885,0,0
0:0:50.464,65.5134,8.34266,0,0.000885,0,0
0:0:50.769,66.1584,8.42539,0,0.000885,0,0
0:0:51.070,67.1548,8.5495,0,0.000885,0,0
0:0:51.371,67.9154,8.64603,0,0.000885,0,0
0:0:51.671,68.3291,8.70118,0,0.000885,0,0
0:0:51.968,68.1512,8.6805,0,0.000885,0,0
0:0:52.266,69.4412,8.83908,0,0.000885,0,0
0:0:52.567,69.499,8.84597,0,0.000885,0,0
0:0:52.861,70.6733,8.99766,0,0.000885,0,0
0:0:53.163,71.2605,9.0735,0,0.000885,0,0
0:0:53.460,71.8477,9.14934,0,0.000885,0,0
0:0:53.760,72.4927,9.23208,0,0.000885,0,0
0:0:54.059,72.9019,9.28034,0,0.000885,0,0
0:0:54.356,73.5469,9.36308,0,0.000885,0,0
0:0:54.657,74.1919,9.44582,0,0.000885,0,0
0:0:54.951,74.4855,9.48719,0,0.000885,0,0
0:0:55.254,75.4819,9.61129,0,0.000885,0,0
0:0:55.559,75.8333,9.65266,0,0.000885,0,0
0:0:55.863,76.3626,9.72161,0,0.000885,0,0
0:0:56.166,76.7719,9.77677,0,0.000885,0,0
0:0:56.468,77.1233,9.81813,0,0.000885,0,0
0:0:56.769,77.7727,9.90087,0,0.000885,0,0
0:0:57.067,78.7691,10.0319,0,0.000885,0,0
0:0:57.366,78.9426,10.0526,0,0.000885,0,0
0:0:57.666,79.7077,10.1491,0,0.000885,0,0
0:0:57.961,80.584,10.2594,0,0.000885,0,0
0:0:58.262,81.3491,10.3559,0,0.000885,0,0
0:0:58.559,81.8161,10.418,0,0.000885,0,0
0:0:58.858,82.2298,10.4662,0,0.000885,0,0
0:0:59.157,82.7547,10.5352,0,0.000885,0,0
0:0:59.455,83.1684,10.5903,0,0.000885,0,0
0:0:59.756,83.8134,10.6731,0,0.000885,0,0
0:1:0.060,84.5162,10.7627,0,0.000885,0,0
0:1:0.363,85.3347,10.8661,0,0.000885,0,0
0:1:0.666,85.8062,10.9282,0,0.000885,0,0
0:1:0.968,86.6247,11.0316,0,0.000885,0,0
0:1:1.271,87.0384,11.0799,0,0.000885,0,0
0:1:1.567,87.154,11.0937,0,0.000885,0,0
0:1:1.869,87.799,11.1764,0,0.000885,0,0
0:1:2.164,89.2091,11.3557,0,0.000885,0,0
0:1:2.464,89.2669,11.3626,0,0.000885,0,0
0:1:2.762,90.1477,11.4798,0,0.000885,0,0
0:1:3.059,90.4412,11.5142,0,0.000885,0,0
0:1:3.360,91.3175,11.6246,0,0.000885,0,0
0:1:3.657,91.7891,11.6866,0,0.000885,0,0
0:1:3.957,92.2561,11.7487,0,0.000885,0,0
0:1:4.252,92.9589,11.8383,0,0.000885,0,0
0:1:4.550,93.7819,11.9417,0,0.000885,0,0
0:1:4.851,94.2534,12.0038,0,0.000885,0,0
0:1:5.154,94.6626,12.052,0,0.000885,0,0
0:1:5.460,95.014,12.1003,0,0.000885,0,0
0:1:5.762,95.7168,12.1899,0,0.000885,0,0
0:1:6.065,96.6554,12.3071,0,0.000885,0,0
0:1:6.368,96.949,12.3416,0,0.000885,0,0
0:1:6.665,97.3582,12.3968,0,0.000885,0,0
0:1:6.966,97.594,12.4244,0,0.000885,0,0
0:1:7.262,98.8261,12.5829,0,0.000885,0,0
0:1:7.563,99.3555,12.6519,0,0.000885,0,0
0:1:7.859,99.5868,12.6795,0,0.000885,0,0
0:1:8.158,100.525,12.7967,0,0.000885,0,0
0:1:8.457,101.17,12.8794,0,0.000885,0,0
0:1:8.753,101.7,12.9484,0,0.000885,0,0
0:1:9.055,102.403,13.038,0,0.000885,0,0
0:1:9.347,102.816,13.0931,0,0.000885,0,0
0:1:9.651,103.577,13.1897,0,0.000885,0,0
0:1:9.956,103.461,13.1759,0,0.000885,0,0
0:1:10.259,104.573,13.3138,0,0.000885,0,0
0:1:10.565,105.454,13.4241,0,0.000885,0,0
0:1:10.867,106.041,13.4999,0,0.000885,0,0
0:1:11.171,106.566,13.5689,0,0.000885,0,0
0:1:11.472,107.153,13.6447,0,0.000885,0,0
0:1:11.771,107.095,13.6378,0,0.000885,0,0
0:1:12.069,108.212,13.7757,0,0.000885,0,0
0:1:12.366,108.737,13.8447,0,0.000885,0,0
0:1:12.668,108.795,13.8516,0,0.000885,0,0
0:1:12.963,110.147,14.0239,0,0.000885,0,0
0:1:13.265,110.556,14.0791,0,0.000885,0,0
0:1:13.562,111.085,14.1411,0,0.000885,0,0
0:1:13.860,111.962,14.2584,0,0.000885,0,0
0:1:14.160,112.491,14.3204,0,0.000885,0,0
0:1:14.456,113.487,14.4514,0,0.000885,0,0
0:1:14.759,113.839,14.4928,0,0.000885,0,0
0:1:15.063,114.075,14.5273,0,0.000885,0,0
0:1:15.368,114.19,14.541,0,0.000885,0,0
0:1:15.671,114.955,14.6376,0,0.000885,0,0
0:1:15.972,115.952,14.7617,0,0.000885,0,0
0:1:16.274,116.303,14.8099,0,0.000885,0,0
0:1:16.570,116.245,14.803,0,0.000885,0,0
0:1:16.871,116.89,14.8858,0,0.000885,0,0
0:1:17.167,118.358,15.0719,0,0.000885,0,0
0:1:17.466,119.061,15.1616,0,0.000885,0,0
0:1:17.766,119.59,15.2236,0,0.000885,0,0
0:1:18.060,119.822,15.2581,0,0.000885,0,0
0:1:18.362,120.467,15.3408,0,0.000885,0,0
0:1:18.659,121.232,15.4374,0,0.000885,0,0
0:1:18.959,121.819,15.5132,0,0.000885,0,0
0:1:19.257,122.58,15.6097,0,0.000885,0,0
0:1:19.553,122.815,15.6373,0,0.000885,0,0
0:1:19.856,123.167,15.6787,0,0.000885,0,0
0:1:20.161,123.927,15.7821,0,0.000885,0,0
0:1:20.463,124.808,15.8924,0,0.000885,0,0
0:1:20.767,125.631,15.9958,0,0.000885,0,0
0:1:21.069,125.689,16.0027,0,0.000885,0,0
0:1:21.372,126.507,16.1062,0,0.000885,0,0
0:1:21.667,127.152,16.1889,0,0.000885,0,0
0:1:21.969,127.446,16.2303,0,0.000885,0,0
0:1:22.266,128.563,16.3682,0,0.000885,0,0
0:1:22.565,128.798,16.3957,0,0.000885,0,0
0:1:22.862,129.381,16.4716,0,0.000885,0,0
0:1:23.160,129.617,16.506,0,0.000885,0,0
0:1:23.460,130.32,16.5957,0,0.000885,0,0
0:1:23.756,130.965,16.6784,0,0.000885,0,0
0:1:24.058,131.552,16.7474,0,0.000885,0,0
0:1:24.354,132.081,16.8163,0,0.000885,0,0
0:1:24.649,133.02,16.9335,0,0.000885,0,0
0:1:24.953,133.549,17.0025,0,0.000885,0,0
0:1:25.254,133.429,16.9887,0,0.000885,0,0
0:1:25.560,134.661,17.1473,0,0.000885,0,0
0:1:25.862,135.364,17.2369,0,0.000885,0,0
0:1:26.164,136.009,17.3196,0,0.000885,0,0
0:1:26.466,136.48,17.3748,0,0.000885,0,0
0:1:26.763,137.068,17.4506,0,0.000885,0,0
0:1:27.063,137.535,17.5127,0,0.000885,0,0
0:1:27.359,138.237,17.6023,0,0.000885,0,0
0:1:27.661,138.709,17.6575,0,0.000885,0,0
0:1:27.957,139.118,17.7126,0,0.000885,0,0
0:1:28.258,139.999,17.8229,0,0.000885,0,0
0:1:28.558,140.528,17.8919,0,0.000885,0,0
0:1:28.854,141.231,17.9815,0,0.000885,0,0
0:1:29.155,141.582,18.0298,0,0.000885,0,0
0:1:29.460,142.285,18.1194,0,0.000885,0,0
0:1:29.760,143.108,18.2228,0,0.000885,0,0
0:1:30.058,143.575,18.278,0,0.000885,0,0
0:1:30.363,143.927,18.3263,0,0.000885,0,0
0:1:30.666,144.75,18.4297,0,0.000885,0,0
0:1:30.970,145.337,18.5055,0,0.000885,0,0
0:1:31.272,145.982,18.5883,0,0.000885,0,0
0:1:31.573,146.155,18.6089,0,0.000885,0,0
0:1:31.872,146.685,18.6779,0,0.000885,0,0
0:1:32.171,147.214,18.7468,0,0.000885,0,0
0:1:32.468,148.384,18.8916,0,0.000885,0,0
0:1:32.769,148.797,18.9468,0,0.000885,0,0
0:1:33.067,149.736,19.064,0,0.000885,0,0
0:1:33.364,149.322,19.0157,0,0.000885,0,0
0:1:33.664,150.439,19.1536,0,0.000885,0,0
0:1:33.960,151.262,19.2571,0,0.000885,0,0
0:1:34.263,151.965,19.3467,0,0.000885,0,0
0:1:34.558,152.432,19.4087,0,0.000885,0,0
0:1:34.860,153.255,19.5122,0,0.000885,0,0
0:1:35.165,153.779,19.5811,0,0.000885,0,0
0:1:35.468,154.309,19.6501,0,0.000885,0,0
0:1:35.771,154.545,19.6776,0,0.000885,0,0
0:1:36.073,154.954,19.7328,0,0.000885,0,0
0:1:36.375,155.777,19.8362,0,0.000885,0,0
0:1:36.672,156.595,19.9396,0,0.000885,0,0
0:1:36.971,156.773,19.9603,0,0.000885,0,0
0:1:37.270,157.418,20.0431,0,0.000885,0,0
0:1:37.566,158.121,20.1327,0,0.000885,0,0
0:1:37.869,158.944,20.2361,0,0.000885,0,0
0:1:38.163,159.353,20.2913,0,0.000885,0,0
0:1:38.465,159.998,20.374,0,0.000885,0,0
0:1:38.761,160.47,20.4292,0,0.000885,0,0
0:1:39.061,160.937,20.4912,0,0.000885,0,0
0:1:39.361,161.991,20.6222,0,0.000885,0,0
0:1:39.655,162.405,20.6774,0,0.000885,0,0
0:1:39.958,162.992,20.7532,0,0.000885,0,0
0:1:40.261,163.343,20.7946,0,0.000885,0,0
0:1:40.566,164.513,20.9463,0,0.000885,0,0
0:1:40.867,164.219,20.9118,0,0.000885,0,0
0:1:41.170,164.985,21.0083,0,0.000885,0,0
0:1:41.473,166.039,21.1393,0,0.000885,0,0
0:1:41.768,166.097,21.1462,0,0.000885,0,0
0:1:42.070,167.097,21.2772,0,0.000885,0,0
0:1:42.367,167.329,21.3048,0,0.000885,0,0
0:1:42.665,168.267,21.422,0,0.000885,0,0
0:1:42.966,168.681,21.4772,0,0.000885,0,0
0:1:43.261,169.442,21.5737,0,0.000885,0,0
0:1:43.563,170.144,21.6633,0,0.000885,0,0
0:1:43.858,170.847,21.753,0,0.000885,0,0
0:1:44.159,170.967,21.7667,0,0.000885,0,0
0:1:44.458,171.786,21.8702,0,0.000885,0,0
0:1:44.763,172.373,21.946,0,0.000885,0,0
0:1:45.064,173.076,22.0356,0,0.000885,0,0
0:1:45.369,173.605,22.1046,0,0.000885,0,0
0:1:45.673,173.841,22.1322,0,0.000885,0,0
0:1:45.977,174.837,22.2632,0,0.000885,0,0
0:1:46.279,175.073,22.2908,0,0.000885,0,0
0:1:46.582,175.425,22.339,0,0.000885,0,0
0:1:46.878,175.834,22.3873,0,0.000885,0,0
0:1:47.178,176.714,22.4976,0,0.000885,0,0
0:1:47.476,177.595,22.6148,0,0.000885,0,0
0:1:47.774,177.889,22.6493,0,0.000885,0,0
0:1:48.074,179.179,22.8148,0,0.000885,0,0
0:1:48.368,179.646,22.8699,0,0.000885,0,0
0:1:48.672,180.291,22.9526,0,0.000885,0,0
0:1:48.968,181.056,23.0492,0,0.000885,0,0
0:1:49.267,181.523,23.1112,0,0.000885,0,0
0:1:49.569,182.346,23.2146,0,0.000885,0,0
0:1:49.864,182.284,23.2078,0,0.000885,0,0
0:1:50.166,182.64,23.256,0,0.000885,0,0
0:1:50.471,183.694,23.387,0,0.000885,0,0
0:1:50.775,183.987,23.4284,0,0.000885,0,0
0:1:51.077,184.281,23.4629,0,0.000885,0,0
0:1:51.379,185.335,23.6008,0,0.000885,0,0
0:1:51.683,185.451,23.6145,0,0.000885,0,0
0:1:51.978,186.216,23.7111,0,0.000885,0,0
0:1:52.278,186.803,23.7869,0,0.000885,0,0
0:1:52.577,187.27,23.8421,0,0.000885,0,0
0:1:52.875,188.267,23.9731,0,0.000885,0,0
0:1:53.176,188.68,24.0213,0,0.000885,0,0
0:1:53.471,189.383,24.111,0,0.000885,0,0
0:1:53.771,189.619,24.1454,0,0.000885,0,0
0:1:54.069,190.615,24.2695,0,0.000885,0,0
0:1:54.367,191.14,24.3385,0,0.000885,0,0
0:1:54.669,192.021,24.4488,0,0.000885,0,0
0:1:54.965,192.314,24.4833,0,0.000885,0,0
0:1:55.266,192.902,24.5591,0,0.000885,0,0
0:1:55.568,193.724,24.6625,0,0.000885,0,0
0:1:55.871,194.307,24.7384,0,0.000885,0,0
0:1:56.170,194.952,24.8211,0,0.000885,0,0
0:1:56.470,195.308,24.8694,0,0.000885,0,0
0:1:56.771,196.184,24.9797,0,0.000885,0,0
0:1:57.064,196.362,25.0004,0,0.000885,0,0
0:1:57.363,197.359,25.1314,0,0.000885,0,0
0:1:57.660,198.062,25.221,0,0.000885,0,0
0:1:57.952,198.884,25.3244,0,0.000885,0,0
0:1:58.250,198.707,25.2969,0,0.000885,0,0
0:1:58.543,199.529,25.4072,0,0.000885,0,0
0:1:58.842,200.174,25.4899,0,0.000885,0,0
0:1:59.145,200.174,25.4899,0,0.000885,0,0
0:1:59.452,200.641,25.5451,0,0.000885,0,0
0:1:59.750,201.522,25.6554,0,0.000885,0,0
0:2:0.052,202.461,25.7795,0,0.000885,0,0
0:2:0.357,203.399,25.8967,0,0.000885,0,0
0:2:0.656,203.457,25.9036,0,0.000885,0,0
0:2:0.957,203.987,25.9726,0,0.000885,0,0
0:2:1.256,204.925,26.0898,0,0.000885,0,0
0:2:1.549,205.219,26.1311,0,0.000885,0,0
0:2:1.849,205.806,26.207,0,0.000885,0,0
0:2:2.150,206.451,26.2828,0,0.000885,0,0
0:2:2.449,207.154,26.3724,0,0.000885,0,0
0:2:2.765,207.563,26.4276,0,0.000885,0,0
0:2:3.061,208.501,26.5448,0,0.000885,0,0
0:2:3.360,208.915,26.6,0,0.000885,0,0
0:2:3.663,209.382,26.662,0,0.000885,0,0
0:2:3.963,209.849,26.7172,0,0.000885,0,0
0:2:4.253,210.436,26.793,0,0.000885,0,0
0:2:4.553,211.317,26.9033,0,0.000885,0,0
0:2:4.849,211.847,26.9723,0,0.000885,0,0
0:2:5.150,211.962,26.9861,0,0.000885,0,0
0:2:5.453,213.488,27.1791,0,0.000885,0,0
0:2:5.753,213.546,27.1929,0,0.000885,0,0
0:2:6.053,213.724,27.2136,0,0.000885,0,0
0:2:6.353,214.72,27.3377,0,0.000885,0,0
0:2:6.649,214.956,27.3722,0,0.000885,0,0
0:2:6.948,216.01,27.5032,0,0.000885,0,0
0:2:7.249,216.891,27.6135,0,0.000885,0,0
0:2:7.550,217.064,27.6411,0,0.000885,0,0
0:2:7.853,217.767,27.7238,0,0.000885,0,0
0:2:8.150,218.003,27.7583,0,0.000885,0,0
0:2:8.446,218.884,27.8686,0,0.000885,0,0
0:2:8.743,219.586,27.9582,0,0.000885,0,0
0:2:9.041,220.116,28.0272,0,0.000885,0,0
0:2:9.352,220.876,28.1237,0,0.000885,0,0
0:2:9.652,221.584,28.2133,0,0.000885,0,0
0:2:9.947,221.757,28.234,0,0.000885,0,0
0:2:10.250,222.402,28.3168,0,0.000885,0,0
0:2:10.551,222.811,28.3719,0,0.000885,0,0
0:2:10.854,223.692,28.4822,0,0.000885,0,0
0:2:11.152,224.631,28.5995,0,0.000885,0,0
0:2:11.452,224.631,28.5995,0,0.000885,0,0
0:2:11.749,225.627,28.7305,0,0.000885,0,0
0:2:12.054,226.099,28.7856,0,0.000885,0,0
0:2:12.361,226.686,28.8615,0,0.000885,0,0
0:2:12.661,227.211,28.9304,0,0.000885,0,0
0:2:12.962,227.74,28.9993,0,0.000885,0,0
0:2:13.262,227.918,29.02,0,0.000885,0,0
0:2:13.557,228.443,29.089,0,0.000885,0,0
0:2:13.862,229.208,29.1855,0,0.000885,0,0
0:2:14.160,229.853,29.2682,0,0.000885,0,0
0:2:14.464,230.084,29.2958,0,0.000885,0,0
0:2:14.763,230.792,29.3855,0,0.000885,0,0
0:2:15.067,231.73,29.5027,0,0.000885,0,0
0:2:15.368,232.491,29.5992,0,0.000885,0,0
0:2:15.669,233.136,29.6819,0,0.000885,0,0
0:2:15.969,233.545,29.7371,0,0.000885,0,0
0:2:16.269,234.31,29.8336,0,0.000885,0,0
0:2:16.563,234.955,29.9164,0,0.000885,0,0
0:2:16.862,235.364,29.9646,0,0.000885,0,0
0:2:17.154,235.894,30.0336,0,0.000885,0,0
0:2:17.463,237.064,30.1852,0,0.000885,0,0
0:2:17.762,237.709,30.268,0,0.000885,0,0
0:2:18.062,237.829,30.2818,0,0.000885,0,0
0:2:18.363,238.709,30.3921,0,0.000885,0,0
0:2:18.654,238.825,30.4059,0,0.000885,0,0
0:2:18.952,239.586,30.5024,0,0.000885,0,0
0:2:19.260,240.351,30.5989,0,0.000885,0,0
0:2:19.552,240.938,30.6748,0,0.000885,0,0
0:2:19.852,241.521,30.7506,0,0.000885,0,0
0:2:20.153,241.641,30.7644,0,0.000885,0,0
0:2:20.458,242.05,30.8196,0,0.000885,0,0
0:2:20.758,242.873,30.923,0,0.000885,0,0
0:2:21.053,242.753,30.9092,0,0.000885,0,0
0:2:21.353,244.043,31.0747,0,0.000885,0,0
0:2:21.648,244.63,31.1505,0,0.000885,0,0
0:2:21.949,245.862,31.3022,0,0.000885,0,0
0:2:22.250,245.862,31.3022,0,0.000885,0,0
0:2:22.547,246.685,31.4056,0,0.000885,0,0
0:2:22.844,246.801,31.4263,0,0.000885,0,0
0:2:23.149,247.739,31.5435,0,0.000885,0,0
0:2:23.448,248.269,31.6125,0,0.000885,0,0
0:2:23.750,248.971,31.7021,0,0.000885,0,0
0:2:24.049,249.438,31.7573,0,0.000885,0,0
0:2:24.351,250.204,31.8538,0,0.000885,0,0
0:2:24.648,250.671,31.9158,0,0.000885,0,0
0:2:24.948,251.729,32.0537,0,0.000885,0,0
0:2:25.249,252.023,32.0882,0,0.000885,0,0
0:2:25.552,252.254,32.1158,0,0.000885,0,0
0:2:25.851,252.49,32.1503,0,0.000885,0,0
0:2:26.153,253.9,32.3295,0,0.000885,0,0
0:2:26.451,254.251,32.3709,0,0.000885,0,0
0:2:26.754,254.483,32.4054,0,0.000885,0,0
0:2:27.052,255.012,32.4674,0,0.000885,0,0
0:2:27.346,256.066,32.6053,0,0.000885,0,0
0:2:27.646,256.418,32.6467,0,0.000885,0,0
0:2:27.949,257.183,32.7432,0,0.000885,0,0
0:2:28.247,257.476,32.7846,0,0.000885,0,0
0:2:28.543,258.415,32.9018,0,0.000885,0,0
0:2:28.846,259.06,32.9845,0,0.000885,0,0
0:2:29.146,259.878,33.0879,0,0.000885,0,0
0:2:29.459,259.941,33.0948,0,0.000885,0,0
0:2:29.767,261.053,33.2396,0,0.000885,0,0
0:2:30.063,261.173,33.2534,0,0.000885,0,0
0:2:30.363,261.991,33.3568,0,0.000885,0,0
0:2:30.666,262.579,33.4327,0,0.000885,0,0
0:2:30.966,263.046,33.4947,0,0.000885,0,0
0:2:31.267,263.633,33.5637,0,0.000885,0,0
0:2:31.565,264.162,33.6326,0,0.000885,0,0
0:2:31.861,264.865,33.7223,0,0.000885,0,0
0:2:32.159,265.101,33.7567,0,0.000885,0,0
0:2:32.451,265.861,33.8533,0,0.000885,0,0
0:2:32.750,266.275,33.9015,0,0.000885,0,0
0:2:33.052,267.036,33.998,0,0.000885,0,0
0:2:33.350,267.503,34.0601,0,0.000885,0,0
0:2:33.647,268.268,34.1566,0,0.000885,0,0
0:2:33.961,269.028,34.2532,0,0.000885,0,0
0:2:34.261,269.558,34.3221,0,0.000885,0,0
0:2:34.555,270.67,34.46,0,0.000885,0,0
0:2:34.856,270.732,34.4738,0,0.000885,0,0
0:2:35.160,271.435,34.5634,0,0.000885,0,0
0:2:35.462,271.786,34.6048,0,0.000885,0,0
0:2:35.761,272.547,34.7013,0,0.000885,0,0
0:2:36.061,273.018,34.7634,0,0.000885,0,0
0:2:36.368,273.663,34.8461,0,0.000885,0,0
0:2:36.665,274.015,34.8875,0,0.000885,0,0
0:2:36.959,274.424,34.9426,0,0.000885,0,0
0:2:37.259,275.483,35.0736,0,0.000885,0,0
0:2:37.551,276.186,35.1633,0,0.000885,0,0
0:2:37.850,276.831,35.246,0,0.000885,0,0
0:2:38.154,276.946,35.2598,0,0.000885,0,0
0:2:38.461,277.476,35.3287,0,0.000885,0,0
0:2:38.760,277.943,35.3908,0,0.000885,0,0
0:2:39.050,278.881,35.508,0,0.000885,0,0
0:2:39.349,279.353,35.5701,0,0.000885,0,0
0:2:39.644,280.113,35.6666,0,0.000885,0,0
0:2:39.945,281.23,35.8045,0,0.000885,0,0
0:2:40.247,281.639,35.8596,0,0.000885,0,0
0:2:40.548,282.756,36.0044,0,0.000885,0,0
0:2:40.849,282.342,35.9493,0,0.000885,0,0
0:2:41.148,283.281,36.0665,0,0.000885,0,0
0:2:41.446,283.632,36.1147,0,0.000885,0,0
0:2:41.751,284.513,36.2251,0,0.000885,0,0
0:2:42.045,284.748,36.2526,0,0.000885,0,0
0:2:42.344,285.042,36.294,0,0.000885,0,0
0:2:42.637,285.687,36.3767,0,0.000885,0,0
0:2:42.936,286.154,36.4319,0,0.000885,0,0
0:2:43.231,286.568,36.4871,0,0.000885,0,0
0:2:43.524,287.738,36.6387,0,0.000885,0,0
0:2:43.821,288.209,36.6939,0,0.000885,0,0
0:2:44.114,288.97,36.7904,0,0.000885,0,0
0:2:44.414,289.615,36.8732,0,0.000885,0,0
0:2:44.708,290.086,36.9352,0,0.000885,0,0
0:2:45.009,290.967,37.0455,0,0.000885,0,0
0:2:45.312,290.967,37.0455,0,0.000885,0,0
0:2:45.614,291.728,37.1421,0,0.000885,0,0
0:2:45.914,292.195,37.2041,0,0.000885,0,0
0:2:46.214,293.133,37.3213,0,0.000885,0,0
0:2:46.512,293.841,37.411,0,0.000885,0,0
0:2:46.810,294.366,37.4799,0,0.000885,0,0
0:2:47.105,294.423,37.4868,0,0.000885,0,0
0:2:47.403,295.655,37.6454,0,0.000885,0,0
0:2:47.696,295.891,37.673,0,0.000885,0,0
0:2:47.994,296.363,37.735,0,0.000885,0,0
0:2:48.291,296.945,37.8108,0,0.000885,0,0
0:2:48.586,297.301,37.8522,0,0.000885,0,0
0:2:48.885,298.529,38.0108,0,0.000885,0,0
0:2:49.178,298.707,38.0315,0,0.000885,0,0
0:2:49.478,299.588,38.1418,0,0.000885,0,0
0:2:49.772,299.588,38.1418,0,0.000885,0,0
0:2:50.071,300.406,38.2521,0,0.000885,0,0
0:2:50.375,301.051,38.328,0,0.000885,0,0
0:2:50.677,301.465,38.3831,0,0.000885,0,0
0:2:50.976,302.461,38.5072,0,0.000885,0,0
0:2:51.276,302.461,38.5072,0,0.000885,0,0
0:2:51.575,303.516,38.6451,0,0.000885,0,0
0:2:51.870,304.218,38.7347,0,0.000885,0,0
0:2:52.166,304.863,38.8175,0,0.000885,0,0
0:2:52.463,305.571,38.9071,0,0.000885,0,0
0:2:52.766,305.98,38.9554,0,0.000885,0,0
0:2:53.065,306.803,39.0657,0,0.000885,0,0
0:2:53.354,306.918,39.0795,0,0.000885,0,0
0:2:53.653,307.27,39.1209,0,0.000885,0,0
0:2:53.948,308.502,39.2794,0,0.000885,0,0
0:2:54.251,308.853,39.3277,0,0.000885,0,0
0:2:54.551,309.734,39.438,0,0.000885,0,0
0:2:54.845,310.086,39.4794,0,0.000885,0,0
0:2:55.147,311.082,39.6104,0,0.000885,0,0
0:2:55.448,311.082,39.6104,0,0.000885,0,0
0:2:55.750,311.727,39.6931,0,0.000885,0,0
0:2:56.051,311.785,39.7,0,0.000885,0,0
0:2:56.350,312.608,39.8034,0,0.000885,0,0
0:2:56.650,312.608,39.8034,0,0.000885,0,0
0:2:56.954,313.898,39.9689,0,0.000885,0,0
0:2:57.261,314.543,40.0516,0,0.000885,0,0
0:2:57.568,315.481,40.1689,0,0.000885,0,0
0:2:57.862,316.011,40.2378,0,0.000885,0,0
0:2:58.163,316.713,40.3274,0,0.000885,0,0
0:2:58.463,316.887,40.3481,0,0.000885,0,0
0:2:58.763,317.474,40.424,0,0.000885,0,0
0:2:59.056,318.177,40.5136,0,0.000885,0,0
0:2:59.352,318.942,40.6101,0,0.000885,0,0
0:2:59.661,319.351,40.6584,0,0.000885,0,0
0:2:59.963,320.054,40.748,0,0.000885,0,0
0:3:0.266,320.583,40.817,0,0.000885,0,0
0:3:0.567,321.113,40.8859,0,0.000885,0,0
0:3:0.867,321.522,40.9342,0,0.000885,0,0
0:3:1.167,322.403,41.0514,0,0.000885,0,0
0:3:1.463,322.812,41.0996,0,0.000885,0,0
0:3:1.763,323.866,41.2375,0,0.000885,0,0
0:3:2.053,323.75,41.2238,0,0.000885,0,0
0:3:2.354,324.689,41.341,0,0.000885,0,0
0:3:2.648,325.161,41.403,0,0.000885,0,0
0:3:2.947,325.628,41.4582,0,0.000885,0,0
0:3:3.243,326.451,41.5616,0,0.000885,0,0
0:3:3.556,326.744,41.603,0,0.000885,0,0
0:3:3.857,327.563,41.7064,0,0.000885,0,0
0:3:4.151,328.559,41.8305,0,0.000885,0,0
0:3:4.449,328.679,41.8512,0,0.000885,0,0
0:3:4.745,329.555,41.9615,0,0.000885,0,0
0:3:5.047,329.849,41.996,0,0.000885,0,0
0:3:5.350,330.143,42.0373,0,0.000885,0,0
0:3:5.650,331.259,42.1752,0,0.000885,0,0
0:3:5.951,331.433,42.2028,0,0.000885,0,0
0:3:6.251,332.313,42.3131,0,0.000885,0,0
0:3:6.548,332.843,42.3821,0,0.000885,0,0
0:3:6.854,333.545,42.4717,0,0.000885,0,0
0:3:7.169,334.306,42.5682,0,0.000885,0,0
0:3:7.470,334.72,42.6165,0,0.000885,0,0
0:3:7.763,335.187,42.6785,0,0.000885,0,0
0:3:8.070,336.125,42.7958,0,0.000885,0,0
0:3:8.366,336.535,42.8509,0,0.000885,0,0
0:3:8.659,337.064,42.913,0,0.000885,0,0
0:3:8.959,337.415,42.9612,0,0.000885,0,0
0:3:9.259,337.825,43.0164,0,0.000885,0,0
0:3:9.563,338.825,43.1405,0,0.000885,0,0
0:3:9.855,339.528,43.2301,0,0.000885,0,0
0:3:10.157,340.173,43.3129,0,0.000885,0,0
0:3:10.462,340.289,43.3267,0,0.000885,0,0
0:3:10.763,340.992,43.4163,0,0.000885,0,0
0:3:11.060,341.405,43.4714,0,0.000885,0,0
0:3:11.360,342.166,43.568,0,0.000885,0,0
0:3:11.660,342.931,43.6645,0,0.000885,0,0
0:3:11.968,343.807,43.7748,0,0.000885,0,0
0:3:12.271,344.866,43.9127,0,0.000885,0,0
0:3:12.570,344.924,43.9196,0,0.000885,0,0
0:3:12.863,345.685,44.0161,0,0.000885,0,0
0:3:13.160,345.978,44.0506,0,0.000885,0,0
0:3:13.455,346.508,44.1196,0,0.000885,0,0
0:3:13.753,347.095,44.1954,0,0.000885,0,0
0:3:14.059,347.388,44.2299,0,0.000885,0,0
0:3:14.364,348.091,44.3195,0,0.000885,0,0
0:3:14.663,348.443,44.3678,0,0.000885,0,0
0:3:14.966,349.439,44.4919,0,0.000885,0,0
0:3:15.267,349.91,44.5539,0,0.000885,0,0
0:3:15.568,350.493,44.6298,0,0.000885,0,0
0:3:15.868,351.374,44.7401,0,0.000885,0,0
0:3:16.169,351.668,44.7746,0,0.000885,0,0
0:3:16.460,352.49,44.878,0,0.000885,0,0
0:3:16.760,352.9,44.9331,0,0.000885,0,0
0:3:17.056,353.135,44.9607,0,0.000885,0,0
0:3:17.353,353.545,45.0159,0,0.000885,0,0
0:3:17.650,354.19,45.0986,0,0.000885,0,0
0:3:17.946,355.364,45.2434,0,0.000885,0,0
0:3:18.245,355.48,45.2641,0,0.000885,0,0
0:3:18.538,356.245,45.3606,0,0.000885,0,0
0:3:18.837,356.948,45.4502,0,0.000885,0,0
0:3:19.134,357.593,45.533,0,0.000885,0,0
0:3:19.429,358.473,45.6433,0,0.000885,0,0
0:3:19.729,359.234,45.7398,0,0.000885,0,0
0:3:20.029,359.879,45.8226,0,0.000885,0,0
0:3:20.332,360.057,45.8432,0,0.000885,0,0
0:3:20.632,361.111,45.9811,0,0.000885,0,0
0:3:20.932,361.347,46.0087,0,0.000885,0,0
0:3:21.232,361.64,46.0432,0,0.000885,0,0
0:3:21.528,362.107,46.1052,0,0.000885,0,0
0:3:21.827,362.93,46.2087,0,0.000885,0,0
0:3:22.119,362.988,46.2156,0,0.000885,0,0
0:3:22.419,364.042,46.3535,0,0.000885,0,0
0:3:22.713,364.336,46.3879,0,0.000885,0,0
0:3:23.010,365.039,46.4776,0,0.000885,0,0
0:3:23.307,365.453,46.5327,0,0.000885,0,0
0:3:23.600,365.977,46.5948,0,0.000885,0,0
0:3:23.901,366.978,46.7258,0,0.000885,0,0
0:3:24.193,367.681,46.8154,0,0.000885,0,0
0:3:24.492,367.739,46.8223,0,0.000885,0,0
0:3:24.787,368.442,46.9119,0,0.000885,0,0
0:3:25.088,369.38,47.0291,0,0.000885,0,0
0:3:25.391,370.025,47.1119,0,0.000885,0,0
0:3:25.692,370.435,47.167,0,0.000885,0,0
0:3:25.993,371.257,47.2705,0,0.000885,0,0
0:3:26.292,371.787,47.3394,0,0.000885,0,0
0:3:26.591,372.899,47.4773,0,0.000885,0,0
0:3:26.887,373.486,47.5531,0,0.000885,0,0
0:3:27.179,373.486,47.5531,0,0.000885,0,0
0:3:27.478,373.895,47.6083,0,0.000885,0,0
0:3:27.774,374.54,47.691,0,0.000885,0,0
0:3:28.072,374.834,47.7255,0,0.000885,0,0
0:3:28.366,375.772,47.8427,0,0.000885,0,0
0:3:28.661,376.36,47.9186,0,0.000885,0,0
0:3:28.958,377.005,48.0013,0,0.000885,0,0
0:3:29.273,377.414,48.0565,0,0.000885,0,0
0:3:29.572,377.827,48.1047,0,0.000885,0,0
0:3:29.874,378.415,48.1806,0,0.000885,0,0
0:3:30.175,378.646,48.2081,0,0.000885,0,0
0:3:30.477,379.647,48.3391,0,0.000885,0,0
0:3:30.776,380.292,48.4219,0,0.000885,0,0
0:3:31.078,380.581,48.4564,0,0.000885,0,0
0:3:31.371,381.462,48.5667,0,0.000885,0,0
0:3:31.672,381.813,48.6149,0,0.000885,0,0
0:3:31.966,382.52,48.7046,0,0.000885,0,0
0:3:32.261,383.165,48.7873,0,0.000885,0,0
0:3:32.558,384.335,48.9321,0,0.000885,0,0
0:3:32.852,384.807,48.9941,0,0.000885,0,0
0:3:33.152,385.394,49.07,0,0.000885,0,0
0:3:33.444,385.567,49.0907,0,0.000885,0,0
0:3:33.744,386.448,49.201,0,0.000885,0,0
0:3:34.039,387.271,49.3113,0,0.000885,0,0
0:3:34.336,387.502,49.3389,0,0.000885,0,0
0:3:34.633,388.032,49.4078,0,0.000885,0,0
0:3:34.934,388.792,49.5044,0,0.000885,0,0
0:3:35.237,388.97,49.525,0,0.000885,0,0
0:3:35.539,389.615,49.6078,0,0.000885,0,0
0:3:35.838,390.26,49.6905,0,0.000885,0,0
0:3:36.140,391.083,49.7939,0,0.000885,0,0
0:3:36.436,391.902,49.8974,0,0.000885,0,0
0:3:36.733,392.253,49.9456,0,0.000885,0,0
0:3:37.028,392.253,49.9456,0,0.000885,0,0
0:3:37.328,392.96,50.0353,0,0.000885,0,0
0:3:37.620,393.721,50.1318,0,0.000885,0,0
0:3:37.917,394.424,50.2214,0,0.000885,0,0
0:3:38.215,394.895,50.2766,0,0.000885,0,0
0:3:38.510,395.714,50.3869,0,0.000885,0,0
0:3:38.809,395.772,50.3938,0,0.000885,0,0
0:3:39.102,396.888,50.5317,0,0.000885,0,0
0:3:39.402,397.475,50.6075,0,0.000885,0,0
0:3:39.697,397.649,50.6282,0,0.000885,0,0
0:3:39.999,399.175,50.8213,0,0.000885,0,0
0:3:40.301,399.41,50.8557,0,0.000885,0,0
0:3:40.603,399.762,50.8971,0,0.000885,0,0
0:3:40.901,399.704,50.8902,0,0.000885,0,0
0:3:41.202,400.585,51.0005,0,0.000885,0,0
0:3:41.501,401.697,51.1453,0,0.000885,0,0
0:3:41.796,401.817,51.1591,0,0.000885,0,0
0:3:42.090,402.399,51.2349,0,0.000885,0,0
0:3:42.390,403.165,51.3315,0,0.000885,0,0
0:3:42.682,403.632,51.3935,0,0.000885,0,0
0:3:42.981,404.219,51.4694,0,0.000885,0,0
0:3:43.274,404.512,51.5038,0,0.000885,0,0
0:3:43.573,405.393,51.6142,0,0.000885,0,0
0:3:43.870,406.332,51.7383,0,0.000885,0,0
0:3:44.174,406.977,51.821,0,0.000885,0,0
0:3:44.473,407.502,51.883,0,0.000885,0,0
0:3:44.776,408.267,51.9796,0,0.000885,0,0
0:3:45.076,408.56,52.0209,0,0.000885,0,0
0:3:45.377,408.969,52.0692,0,0.000885,0,0
0:3:45.677,409.792,52.1795,0,0.000885,0,0
0:3:45.978,410.259,52.2347,0,0.000885,0,0
0:3:46.272,410.904,52.3174,0,0.000885,0,0
0:3:46.573,411.198,52.3588,0,0.000885,0,0
0:3:46.867,412.021,52.4622,0,0.000885,0,0
0:3:47.173,412.724,52.5518,0,0.000885,0,0
0:3:47.469,413.191,52.607,0,0.000885,0,0
0:3:47.763,413.662,52.6691,0,0.000885,0,0
0:3:48.061,414.601,52.7863,0,0.000885,0,0
0:3:48.364,414.895,52.8276,0,0.000885,0,0
0:3:48.663,415.597,52.9173,0,0.000885,0,0
0:3:48.960,416.127,52.9793,0,0.000885,0,0
0:3:49.256,416.42,53.0207,0,0.000885,0,0
0:3:49.553,417.065,53.1034,0,0.000885,0,0
0:3:49.855,417.71,53.1862,0,0.000885,0,0
0:3:50.158,418.529,53.2896,0,0.000885,0,0
0:3:50.458,419.174,53.3723,0,0.000885,0,0
0:3:50.759,420.054,53.4826,0,0.000885,0,0
0:3:51.059,420.699,53.5654,0,0.000885,0,0
0:3:51.367,421.402,53.655,0,0.000885,0,0
0:3:51.674,421.816,53.7102,0,0.000885,0,0
0:3:51.969,422.283,53.7653,0,0.000885,0,0
0:3:52.268,422.341,53.7722,0,0.000885,0,0
0:3:52.560,422.87,53.8412,0,0.000885,0,0
0:3:52.857,423.982,53.9859,0,0.000885,0,0
0:3:53.154,424.569,54.0549,0,0.000885,0,0
0:3:53.448,424.863,54.0963,0,0.000885,0,0
0:3:53.748,425.508,54.179,0,0.000885,0,0
0:3:54.042,425.979,54.2342,0,0.000885,0,0
0:3:54.341,426.331,54.2824,0,0.000885,0,0
0:3:54.637,427.385,54.4134,0,0.000885,0,0
0:3:54.936,427.679,54.4548,0,0.000885,0,0
0:3:55.240,428.208,54.5237,0,0.000885,0,0
0:3:55.540,428.733,54.5858,0,0.000885,0,0
0:3:55.842,429.44,54.6754,0,0.000885,0,0
0:3:56.142,429.792,54.7237,0,0.000885,0,0
0:3:56.441,430.61,54.8271,0,0.000885,0,0
0:3:56.737,431.375,54.9236,0,0.000885,0,0
0:3:57.030,431.784,54.9788,0,0.000885,0,0
0:3:57.329,432.901,55.1167,0,0.000885,0,0
0:3:57.621,432.839,55.1098,0,0.000885,0,0
0:3:57.921,433.719,55.2201,0,0.000885,0,0
0:3:58.215,434.013,55.2615,0,0.000885,0,0
0:3:58.514,434.836,55.3649,0,0.000885,0,0
0:3:58.811,435.245,55.4201,0,0.000885,0,0
0:3:59.104,435.654,55.4683,0,0.000885,0,0
0:3:59.404,436.477,55.5717,0,0.000885,0,0
0:3:59.704,436.944,55.6338,0,0.000885,0,0
0:4:0.007,437.416,55.6958,0,0.000885,0,0
0:4:0.307,438.354,55.8131,0,0.000885,0,0
0:4:0.608,438.648,55.8475,0,0.000885,0,0
0:4:0.909,439.644,55.9785,0,0.000885,0,0
0:4:1.201,439.996,56.0199,0,0.000885,0,0
0:4:1.503,441.464,56.2061,0,0.000885,0,0
0:4:1.796,442.051,56.2819,0,0.000885,0,0
0:4:2.094,442.402,56.3302,0,0.000885,0,0
0:4:2.390,442.576,56.3509,0,0.000885,0,0
0:4:2.686,443.279,56.4405,0,0.000885,0,0
0:4:2.984,443.399,56.4543,0,0.000885,0,0
0:4:3.276,443.986,56.5301,0,0.000885,0,0
0:4:3.576,444.924,56.6473,0,0.000885,0,0
0:4:3.871,444.862,56.6404,0,0.000885,0,0
0:4:4.176,445.627,56.737,0,0.000885,0,0
0:4:4.474,446.566,56.8611,0,0.000885,0,0
0:4:4.775,446.975,56.9093,0,0.000885,0,0
0:4:5.077,447.678,56.999,0,0.000885,0,0
0:4:5.379,448.559,57.1093,0,0.000885,0,0
0:4:5.679,449.204,57.192,0,0.000885,0,0
0:4:5.980,449.613,57.2472,0,0.000885,0,0
0:4:6.275,450.32,57.3368,0,0.000885,0,0
0:4:6.575,450.729,57.392,0,0.000885,0,0
0:4:6.866,451.139,57.4402,0,0.000885,0,0
0:4:7.165,452.019,57.5505,0,0.000885,0,0
0:4:7.472,452.371,57.5988,0,0.000885,0,0
0:4:7.769,453.016,57.6815,0,0.000885,0,0
0:4:8.065,453.487,57.7367,0,0.000885,0,0
0:4:8.358,454.07,57.8125,0,0.000885,0,0
0:4:8.659,454.777,57.9022,0,0.000885,0,0
0:4:8.962,455.244,57.9642,0,0.000885,0,0
0:4:9.259,455.774,58.0332,0,0.000885,0,0
0:4:9.566,456.183,58.0814,0,0.000885,0,0
0:4:9.871,456.712,58.1504,0,0.000885,0,0
0:4:10.174,457.006,58.1849,0,0.000885,0,0
0:4:10.473,457.766,58.2814,0,0.000885,0,0
0:4:10.774,458.589,58.3917,0,0.000885,0,0
0:4:11.074,459.35,58.4882,0,0.000885,0,0
0:4:11.367,460.173,58.5916,0,0.000885,0,0
0:4:11.665,460.524,58.633,0,0.000885,0,0
0:4:11.957,461.285,58.7295,0,0.000885,0,0
0:4:12.258,461.93,58.8123,0,0.000885,0,0
0:4:12.553,462.575,58.895,0,0.000885,0,0
0:4:12.849,462.926,58.9433,0,0.000885,0,0
0:4:13.146,463.634,59.0329,0,0.000885,0,0
0:4:13.440,464.101,59.0881,0,0.000885,0,0
0:4:13.740,464.51,59.1432,0,0.000885,0,0
0:4:14.033,465.275,59.2398,0,0.000885,0,0
0:4:14.331,465.92,59.3225,0,0.000885,0,0
0:4:14.629,466.859,59.4397,0,0.000885,0,0
0:4:14.932,467.504,59.5224,0,0.000885,0,0
0:4:15.233,468.091,59.5983,0,0.000885,0,0
0:4:15.533,468.206,59.6121,0,0.000885,0,0
0:4:15.832,468.972,59.7086,0,0.000885,0,0
0:4:16.134,469.496,59.7775,0,0.000885,0,0
0:4:16.429,470.084,59.8534,0,0.000885,0,0
0:4:16.729,470.493,59.9085,0,0.000885,0,0
0:4:17.020,471.2,59.9982,0,0.000885,0,0
0:4:17.319,471.783,60.0671,0,0.000885,0,0
0:4:17.616,472.37,60.143,0,0.000885,0,0
0:4:17.912,472.784,60.1981,0,0.000885,0,0
0:4:18.209,473.309,60.2671,0,0.000885,0,0
0:4:18.505,473.896,60.336,0,0.000885,0,0
0:4:18.803,474.599,60.4257,0,0.000885,0,0
0:4:19.097,475.364,60.5222,0,0.000885,0,0
0:4:19.397,476.302,60.6463,0,0.000885,0,0
0:4:19.700,476.534,60.6739,0,0.000885,0,0
0:4:20.002,476.889,60.7221,0,0.000885,0,0
0:4:20.302,477.592,60.8118,0,0.000885,0,0
0:4:20.603,478.411,60.9152,0,0.000885,0,0
0:4:20.902,478.998,60.991,0,0.000885,0,0
0:4:21.196,479.118,61.0048,0,0.000885,0,0
0:4:21.490,480.408,61.1703,0,0.000885,0,0
0:4:21.791,481.226,61.2737,0,0.000885,0,0
0:4:22.084,481.226,61.2737,0,0.000885,0,0
0:4:22.382,481.578,61.3151,0,0.000885,0,0
0:4:22.679,482.516,61.4392,0,0.000885,0,0
0:4:22.974,482.81,61.4737,0,0.000885,0,0
0:4:23.273,483.281,61.5357,0,0.000885,0,0
0:4:23.564,484.042,61.6322,0,0.000885,0,0
0:4:23.864,484.629,61.7081,0,0.000885,0,0
0:4:24.170,485.216,61.777,0,0.000885,0,0
0:4:24.471,485.861,61.8598,0,0.000885,0,0
0:4:24.774,486.386,61.9287,0,0.000885,0,0
0:4:25.074,486.742,61.977,0,0.000885,0,0
0:4:25.373,487.151,62.0252,0,0.000885,0,0
0:4:25.674,487.912,62.1218,0,0.000885,0,0
0:4:25.972,488.971,62.2597,0,0.000885,0,0
0:4:26.279,489.38,62.3079,0,0.000885,0,0
0:4:26.574,490.083,62.3976,0,0.000885,0,0
0:4:26.872,490.906,62.501,0,0.000885,0,0
0:4:27.176,491.493,62.5768,0,0.000885,0,0
0:4:27.474,491.902,62.632,0,0.000885,0,0
0:4:27.767,491.96,62.6389,0,0.000885,0,0
0:4:28.063,492.899,62.7561,0,0.000885,0,0
0:4:28.361,493.014,62.7699,0,0.000885,0,0
0:4:28.675,493.779,62.8664,0,0.000885,0,0
0:4:28.973,495.011,63.025,0,0.000885,0,0
0:4:29.267,495.243,63.0595,0,0.000885,0,0
0:4:29.567,495.421,63.0801,0,0.000885,0,0
0:4:29.872,496.595,63.2249,0,0.000885,0,0
0:4:30.174,496.946,63.2732,0,0.000885,0,0
0:4:30.473,497.471,63.3421,0,0.000885,0,0
0:4:30.775,498.294,63.4456,0,0.000885,0,0
0:4:31.071,499.055,63.5421,0,0.000885,0,0
0:4:31.378,498.939,63.5283,0,0.000885,0,0
0:4:31.672,499.762,63.6317,0,0.000885,0,0
0:4:31.973,500.581,63.7351,0,0.000885,0,0
0:4:32.274,501.288,63.8248,0,0.000885,0,0
0:4:32.573,502.049,63.9213,0,0.000885,0,0
0:4:32.867,502.342,63.9627,0,0.000885,0,0
0:4:33.173,503.454,64.1006,0,0.000885,0,0
0:4:33.471,503.574,64.1143,0,0.000885,0,0
0:4:33.763,503.806,64.1488,0,0.000885,0,0
0:4:34.061,504.161,64.1902,0,0.000885,0,0
0:4:34.355,505.038,64.3005,0,0.000885,0,0
0:4:34.657,505.745,64.3901,0,0.000885,0,0
0:4:34.961,506.563,64.5005,0,0.000885,0,0
0:4:35.261,506.857,64.5349,0,0.000885,0,0
0:4:35.562,507.444,64.6108,0,0.000885,0,0
0:4:35.863,508.031,64.6866,0,0.000885,0,0
0:4:36.160,508.912,64.7969,0,0.000885,0,0
0:4:36.467,509.379,64.859,0,0.000885,0,0
0:4:36.772,509.966,64.9279,0,0.000885,0,0
0:4:37.073,510.433,64.99,0,0.000885,0,0
0:4:37.374,511.55,65.1348,0,0.000885,0,0
0:4:37.674,511.434,65.121,0,0.000885,0,0
0:4:37.968,512.017,65.1899,0,0.000885,0,0
0:4:38.274,512.724,65.2796,0,0.000885,0,0
0:4:38.573,513.543,65.383,0,0.000885,0,0
0:4:38.877,514.072,65.4519,0,0.000885,0,0
0:4:39.176,514.717,65.5347,0,0.000885,0,0
0:4:39.469,515.184,65.5967,0,0.000885,0,0
0:4:39.769,515.891,65.6864,0,0.000885,0,0
0:4:40.074,516.358,65.7415,0,0.000885,0,0
0:4:40.375,517.297,65.8656,0,0.000885,0,0
0:4:40.674,518.178,65.9759,0,0.000885,0,0
0:4:40.974,518.765,66.0518,0,0.000885,0,0
0:4:41.270,518.881,66.0656,0,0.000885,0,0
0:4:41.577,519.526,66.1483,0,0.000885,0,0
0:4:41.874,520.055,66.2172,0,0.000885,0,0
0:4:42.170,520.228,66.2379,0,0.000885,0,0
0:4:42.474,520.7,66.3,0,0.000885,0,0
0:4:42.774,521.99,66.4586,0,0.000885,0,0
0:4:43.066,522.519,66.5275,0,0.000885,0,0
0:4:43.375,523.516,66.6585,0,0.000885,0,0
0:4:43.673,524.041,66.7206,0,0.000885,0,0
0:4:43.965,523.983,66.7137,0,0.000885,0,0
0:4:44.264,525.099,66.8585,0,0.000885,0,0
0:4:44.567,525.566,66.9205,0,0.000885,0,0
0:4:44.869,525.744,66.9412,0,0.000885,0,0
0:4:45.169,526.269,67.0101,0,0.000885,0,0
0:4:45.473,527.27,67.1343,0,0.000885,0,0
0:4:45.774,527.795,67.2032,0,0.000885,0,0
0:4:46.065,527.621,67.1756,0,0.000885,0,0
0:4:46.366,528.498,67.2928,0,0.000885,0,0
0:4:46.669,529.263,67.3894,0,0.000885,0,0
0:4:46.967,530.375,67.5273,0,0.000885,0,0
0:4:47.262,530.904,67.5962,0,0.000885,0,0
0:4:47.556,531.02,67.61,0,0.000885,0,0
0:4:47.857,531.607,67.6858,0,0.000885,0,0
0:4:48.149,532.546,67.803,0,0.000885,0,0
0:4:48.449,532.781,67.8375,0,0.000885,0,0
0:4:48.742,533.426,67.9203,0,0.000885,0,0
0:4:49.039,533.778,67.9616,0,0.000885,0,0
0:4:49.335,534.832,68.0995,0,0.000885,0,0
0:4:49.638,535.597,68.196,0,0.000885,0,0
0:4:49.941,536.006,68.2443,0,0.000885,0,0
0:4:50.243,536.709,68.3339,0,0.000885,0,0
0:4:50.542,537.003,68.3753,0,0.000885,0,0
0:4:50.843,537.768,68.4718,0,0.000885,0,0
0:4:51.138,538.235,68.527,0,0.000885,0,0
0:4:51.438,538.938,68.6166,0,0.000885,0,0
0:4:51.731,539.583,68.6994,0,0.000885,0,0
0:4:52.031,540.228,68.7821,0,0.000885,0,0
0:4:52.322,540.29,68.789,0,0.000885,0,0
0:4:52.621,541.166,68.9062,0,0.000885,0,0
0:4:52.917,541.989,69.0096,0,0.000885,0,0
0:4:53.212,542.634,69.0924,0,0.000885,0,0
0:4:53.511,542.812,69.113,0,0.000885,0,0
0:4:53.804,543.337,69.182,0,0.000885,0,0
0:4:54.105,543.573,69.2096,0,0.000885,0,0
0:4:54.399,544.275,69.2992,0,0.000885,0,0
0:4:54.700,544.978,69.3888,0,0.000885,0,0
0:4:55.003,545.917,69.506,0,0.000885,0,0
0:4:55.305,546.504,69.5819,0,0.000885,0,0
0:4:55.609,547.327,69.6853,0,0.000885,0,0
0:4:55.907,547.5,69.7129,0,0.000885,0,0
0:4:56.207,548.208,69.8025,0,0.000885,0,0
0:4:56.501,548.501,69.837,0,0.000885,0,0
0:4:56.797,548.79,69.8715,0,0.000885,0,0
0:4:57.097,549.907,70.0163,0,0.000885,0,0
0:4:57.389,550.258,70.0645,0,0.000885,0,0
0:4:57.690,551.197,70.1817,0,0.000885,0,0
0:4:57.982,551.548,70.2231,0,0.000885,0,0
0:4:58.279,551.726,70.2507,0,0.000885,0,0
0:4:58.576,552.896,70.3955,0,0.000885,0,0
0:4:58.870,553.425,70.4644,0,0.000885,0,0
0:4:59.169,554.306,70.5747,0,0.000885,0,0
0:4:59.474,554.893,70.6506,0,0.000885,0,0
0:4:59.776,555.067,70.6713,0,0.000885,0,0
0:5:0.077,555.948,70.7885,0,0.000885,0,0
0:5:0.376,556.419,70.8436,0,0.000885,0,0
0:5:0.677,556.828,70.8988,0,0.000885,0,0
0:5:0.980,557.473,70.9815,0,0.000885,0,0
0:5:1.282,558.412,71.0987,0,0.000885,0,0
0:5:1.572,558.821,71.1539,0,0.000885,0,0
0:5:1.870,559.351,71.2159,0,0.000885,0,0
0:5:2.167,559.586,71.2504,0,0.000885,0,0
0:5:2.471,559.644,71.2573,0,0.000885,0,0
0:5:2.770,560.756,71.3952,0,0.000885,0,0
0:5:3.064,561.815,71.5331,0,0.000885,0,0
0:5:3.364,562.224,71.5814,0,0.000885,0,0
0:5:3.657,562.398,71.6089,0,0.000885,0,0
0:5:3.961,562.691,71.6434,0,0.000885,0,0
0:5:4.261,564.275,71.8434,0,0.000885,0,0
0:5:4.561,564.862,71.9192,0,0.000885,0,0
0:5:4.864,565.333,71.9813,0,0.000885,0,0
0:5:5.165,565.743,72.0295,0,0.000885,0,0
0:5:5.465,566.623,72.1467,0,0.000885,0,0
0:5:5.766,567.033,72.195,0,0.000885,0,0
0:5:6.061,567.384,72.2433,0,0.000885,0,0
0:5:6.359,568.207,72.3467,0,0.000885,0,0
0:5:6.654,569.025,72.4501,0,0.000885,0,0
0:5:6.953,569.497,72.5122,0,0.000885,0,0
0:5:7.257,570.258,72.6087,0,0.000885,0,0
0:5:7.554,570.493,72.6363,0,0.000885,0,0
0:5:7.860,571.548,72.7742,0,0.000885,0,0
0:5:8.163,572.37,72.8776,0,0.000885,0,0
0:5:8.462,572.606,72.9052,0,0.000885,0,0
0:5:8.756,573.073,72.9672,0,0.000885,0,0
0:5:9.055,573.251,72.9879,0,0.000885,0,0
0:5:9.349,573.838,73.0637,0,0.000885,0,0
0:5:9.649,574.421,73.1396,0,0.000885,0,0
0:5:9.953,575.595,73.2844,0,0.000885,0,0
0:5:10.254,575.716,73.3051,0,0.000885,0,0
0:5:10.555,575.947,73.3326,0,0.000885,0,0
0:5:10.856,576.65,73.4223,0,0.000885,0,0
0:5:11.155,577.766,73.5602,0,0.000885,0,0
0:5:11.460,578.175,73.6153,0,0.000885,0,0
0:5:11.757,578.94,73.7119,0,0.000885,0,0
0:5:12.056,579.35,73.767,0,0.000885,0,0
0:5:12.349,580.053,73.8566,0,0.000885,0,0
0:5:12.649,580.64,73.9325,0,0.000885,0,0
0:5:12.944,580.991,73.9739,0,0.000885,0,0
0:5:13.239,581.93,74.0911,0,0.000885,0,0
0:5:13.536,582.281,74.1393,0,0.000885,0,0
0:5:13.831,582.753,74.2014,0,0.000885,0,0
0:5:14.133,583.34,74.2703,0,0.000885,0,0
0:5:14.434,583.865,74.3393,0,0.000885,0,0
0:5:14.738,584.394,74.4082,0,0.000885,0,0
0:5:15.038,584.63,74.4358,0,0.000885,0,0
0:5:15.339,585.506,74.5461,0,0.000885,0,0
0:5:15.641,586.445,74.6702,0,0.000885,0,0
0:5:15.933,587.325,74.7805,0,0.000885,0,0
0:5:16.233,587.677,74.8288,0,0.000885,0,0
0:5:16.527,587.913,74.8564,0,0.000885,0,0
0:5:16.825,588.322,74.9046,0,0.000885,0,0
0:5:17.124,588.264,74.8977,0,0.000885,0,0
0:5:17.419,589.26,75.0287,0,0.000885,0,0
0:5:17.720,589.496,75.0563,0,0.000885,0,0
0:5:18.015,590.319,75.1597,0,0.000885,0,0
0:5:18.315,590.67,75.208,0,0.000885,0,0
0:5:18.614,591.436,75.3045,0,0.000885,0,0
0:5:18.909,592.374,75.4217,0,0.000885,0,0
0:5:19.211,593.197,75.5252,0,0.000885,0,0
0:5:19.514,593.255,75.5321,0,0.000885,0,0
0:5:19.818,594.603,75.7044,0,0.000885,0,0
0:5:20.120,594.665,75.7182,0,0.000885,0,0
0:5:20.423,595.541,75.8285,0,0.000885,0,0
0:5:20.723,596.013,75.8837,0,0.000885,0,0
0:5:21.019,596.658,75.9664,0,0.000885,0,0
0:5:21.322,597.423,76.063,0,0.000885,0,0
0:5:21.617,597.89,76.125,0,0.000885,0,0
0:5:21.915,598.304,76.1802,0,0.000885,0,0
0:5:22.213,598.477,76.2009,0,0.000885,0,0
0:5:22.508,599.358,76.3112,0,0.000885,0,0
0:5:22.811,600.417,76.4491,0,0.000885,0,0
0:5:23.105,600.648,76.4766,0,0.000885,0,0
0:5:23.404,601.413,76.5732,0,0.000885,0,0
0:5:23.702,602.236,76.6766,0,0.000885,0,0
0:5:23.996,602.996,76.7731,0,0.000885,0,0
0:5:24.299,603.526,76.8421,0,0.000885,0,0
0:5:24.603,604.171,76.9248,0,0.000885,0,0
0:5:24.905,604.642,76.9869,0,0.000885,0,0
0:5:25.207,604.522,76.9731,0,0.000885,0,0
0:5:25.508,604.584,76.98,0,0.000885,0,0
0:5:25.811,604.522,76.9731,0,0.000885,0,0
0:5:26.106,604.878,77.0144,0,0.000885,0,0
0:5:26.405,604.878,77.0144,0,0.000885,0,0
0:5:26.702,605.287,77.0696,0,0.000885,0,0
0:5:26.999,605.932,77.1523,0,0.000885,0,0
0:5:27.298,606.346,77.2006,0,0.000885,0,0
0:5:27.594,607.285,77.3247,0,0.000885,0,0
0:5:27.896,608.69,77.504,0,0.000885,0,0
0:5:28.191,609.455,77.6005,0,0.000885,0,0
0:5:28.490,610.865,77.7798,0,0.000885,0,0
0:5:28.791,611.51,77.8625,0,0.000885,0,0
0:5:29.084,611.804,77.897,0,0.000885,0,0
0:5:29.386,612.333,77.9659,0,0.000885,0,0
0:5:29.691,613.33,78.09,0,0.000885,0,0
0:5:29.995,614.09,78.1865,0,0.000885,0,0
0:5:30.297,614.855,78.2831,0,0.000885,0,0
0:5:30.599,615.207,78.3313,0,0.000885,0,0
0:5:30.902,615.852,78.4141,0,0.000885,0,0
0:5:31.196,577.824,73.574,0,0.000885,0,0
0:5:31.494,544.863,69.375,0,0.000885,0,0
0:5:31.710,515.949,65.6932,0,0.000885,0,0