File: DataFile2021-06-07_053940.csv
Test ID:,Date Tested:,Time:,Test Type:,Diameter Avg. (mm):,Cyl. Corr. Factor:,Height (mm):,Age (days):,Weight (kN):,Break Type:,Ramp Rate (MPa/s):,Load at Break (kN):,Stress at Break (MPa):
12,6/7/2021,05:39,Cylinder,100,1,200,0,3.6,3,0.25,960.24,122.26
Sample Time,Load (kN),Stress (MPa),Long. Strain,Trans. Strain,Chan1 Deflection (mm),Chan2 Deflection (mm)
0:0:10.198,5.63145,0.717055,0,0.000885,0,0
0:0:10.692,7.3885,0.937687,0,0.000885,0,0
0:0:11.191,8.505,1.08248,0,0.000885,0,0
0:0:11.687,8.32707,1.06179,0,0.000885,0,0
0:0:12.183,8.505,1.08248,0,0.000885,0,0
0:0:12.680,9.55923,1.22037,0,0.000885,0,0
0:0:13.178,10.5556,1.34448,0,0.000885,0,0
0:0:13.675,11.3207,1.441,0,0.000885,0,0
0:0:14.171,12.4906,1.59269,0,0.000885,0,0
0:0:14.668,13.4915,1.71679,0,0.000885,0,0
0:0:15.166,14.3099,1.82022,0,0.000885,0,0
0:0:15.671,15.4264,1.96501,0,0.000885,0,0
0:0:16.178,16.0714,2.04774,0,0.000885,0,0
0:0:16.682,17.5972,2.2408,0,0.000885,0,0
0:0:17.181,18.6514,2.3718,0,0.000885,0,0
0:0:17.679,19.412,2.47522,0,0.000885,0,0
0:0:18.175,20.5285,2.61311,0,0.000885,0,0
0:0:18.673,21.347,2.71653,0,0.000885,0,0
0:0:19.170,22.1121,2.81306,0,0.000885,0,0
0:0:19.669,24.1049,3.06817,0,0.000885,0,0
0:0:20.167,24.6921,3.14401,0,0.000885,0,0
0:0:20.665,25.6885,3.26811,0,0.000885,0,0
0:0:21.174,27.5656,3.50943,0,0.000885,0,0
0:0:21.680,28.4464,3.61975,0,0.000885,0,0
0:0:22.183,29.207,3.71627,0,0.000885,0,0
0:0:22.681,30.0878,3.83349,0,0.000885,0,0
0:0:23.180,31.3778,3.99206,0,0.000885,0,0
0:0:23.675,31.6135,4.02654,0,0.000885,0,0
0:0:24.172,32.4943,4.13685,0,0.000885,0,0
0:0:24.669,33.6641,4.28854,0,0.000885,0,0
0:0:25.168,34.0156,4.32991,0,0.000885,0,0
0:0:25.664,35.4256,4.50917,0,0.000885,0,0
0:0:26.172,36.6578,4.66775,0,0.000885,0,0
0:0:26.677,37.5385,4.77807,0,0.000885,0,0
0:0:27.181,38.1835,4.8608,0,0.000885,0,0
0:0:27.679,39.4112,5.01938,0,0.000885,0,0
0:0:28.177,40.7635,5.19175,0,0.000885,0,0
0:0:28.674,41.2884,5.25381,0,0.000885,0,0
0:0:29.173,42.1691,5.37102,0,0.000885,0,0
0:0:29.669,43.3435,5.51581,0,0.000885,0,0
0:0:30.167,44.8069,5.70196,0,0.000885,0,0
0:0:30.674,45.5142,5.7916,0,0.000885,0,0
0:0:31.181,46.4528,5.9157,0,0.000885,0,0
0:0:31.684,46.862,5.96397,0,0.000885,0,0
0:0:32.181,48.6813,6.19839,0,0.000885,0,0
0:0:32.678,49.1484,6.26044,0,0.000885,0,0
0:0:33.175,50.2649,6.39833,0,0.000885,0,0
0:0:33.674,51.5549,6.56381,0,0.000885,0,0
0:0:34.171,52.1421,6.63965,0,0.000885,0,0
0:0:34.670,53.3119,6.79134,0,0.000885,0,0
0:0:35.167,54.1927,6.90165,0,0.000885,0,0
0:0:35.668,54.5441,6.94302,0,0.000885,0,0
0:0:36.176,55.9542,7.12228,0,0.000885,0,0
0:0:36.681,57.4755,7.31534,0,0.000885,0,0
0:0:37.183,58.6498,7.46702,0,0.000885,0,0
0:0:37.680,59.059,7.52218,0,0.000885,0,0
0:0:38.179,60.1755,7.66008,0,0.000885,0,0
0:0:38.677,61.5812,7.83934,0,0.000885,0,0
0:0:39.173,61.8748,7.88071,0,0.000885,0,0
0:0:39.670,63.2848,8.05997,0,0.000885,0,0
0:0:40.170,64.5748,8.21855,0,0.000885,0,0
0:0:40.666,65.5712,8.34955,0,0.000885,0,0
0:0:41.173,65.5712,8.34955,0,0.000885,0,0
0:0:41.679,66.919,8.52192,0,0.000885,0,0
0:0:42.183,67.6219,8.61155,0,0.000885,0,0
0:0:42.680,68.6227,8.73566,0,0.000885,0,0
0:0:43.180,69.9127,8.90113,0,0.000885,0,0
0:0:43.678,70.789,9.01145,0,0.000885,0,0
0:0:44.174,71.4963,9.10108,0,0.000885,0,0
0:0:44.672,72.9019,9.28034,0,0.000885,0,0
0:0:45.170,74.2497,9.45271,0,0.000885,0,0
0:0:45.667,74.7212,9.51477,0,0.000885,0,0
0:0:46.174,76.247,9.70782,0,0.000885,0,0
0:0:46.680,77.1233,9.81813,0,0.000885,0,0
0:0:47.183,77.8305,9.90777,0,0.000885,0,0
0:0:47.683,79.1783,10.0801,0,0.000885,0,0
0:0:48.179,80.1169,10.1973,0,0.000885,0,0
0:0:48.677,80.4105,10.2387,0,0.000885,0,0
0:0:49.173,82.2298,10.4662,0,0.000885,0,0
0:0:49.669,82.9326,10.5559,0,0.000885,0,0
0:0:50.168,83.6933,10.6593,0,0.000885,0,0
0:0:50.672,83.9869,10.6938,0,0.000885,0,0
0:0:51.179,85.397,10.873,0,0.000885,0,0
0:0:51.683,86.6869,11.0385,0,0.000885,0,0
0:0:52.182,87.799,11.1764,0,0.000885,0,0
0:0:52.680,88.8577,11.3143,0,0.000885,0,0
0:0:53.177,89.5027,11.397,0,0.000885,0,0
0:0:53.675,90.2633,11.4936,0,0.000885,0,0
0:0:54.173,91.669,11.6728,0,0.000885,0,0
0:0:54.670,92.9011,11.8314,0,0.000885,0,0
0:0:55.169,93.9598,11.9624,0,0.000885,0,0
0:0:55.670,94.369,12.0176,0,0.000885,0,0
0:0:56.178,95.3654,12.1417,0,0.000885,0,0
0:0:56.681,96.5398,12.2934,0,0.000885,0,0
0:0:57.183,97.6518,12.4312,0,0.000885,0,0
0:0:57.681,98.1233,12.4933,0,0.000885,0,0
0:0:58.180,99.4711,12.6657,0,0.000885,0,0
0:0:58.675,100,12.7346,0,0.000885,0,0
0:0:59.174,100.997,12.8587,0,0.000885,0,0
0:0:59.670,102.403,13.038,0,0.000885,0,0
0:1:0.169,103.755,13.2104,0,0.000885,0,0
0:1:0.668,104.4,13.2931,0,0.000885,0,0
0:1:1.176,104.809,13.3414,0,0.000885,0,0
0:1:1.681,105.805,13.4724,0,0.000885,0,0
0:1:2.184,106.922,13.6103,0,0.000885,0,0
0:1:2.682,108.092,13.7619,0,0.000885,0,0
0:1:3.179,109.502,13.9412,0,0.000885,0,0
0:1:3.677,110.263,14.0377,0,0.000885,0,0
0:1:4.174,111.085,14.1411,0,0.000885,0,0
0:1:4.671,112.255,14.2928,0,0.000885,0,0
0:1:5.168,112.669,14.348,0,0.000885,0,0
0:1:5.666,114.075,14.5273,0,0.000885,0,0
0:1:6.174,114.898,14.6307,0,0.000885,0,0
0:1:6.678,115.543,14.7134,0,0.000885,0,0
0:1:7.183,117.126,14.9134,0,0.000885,0,0
0:1:7.681,117.945,15.0168,0,0.000885,0,0
0:1:8.178,119.355,15.196,0,0.000885,0,0
0:1:8.675,119.59,15.2236,0,0.000885,0,0
0:1:9.171,121.174,15.4305,0,0.000885,0,0
0:1:9.669,121.935,15.527,0,0.000885,0,0
0:1:10.163,122.58,15.6097,0,0.000885,0,0
0:1:10.671,123.927,15.7821,0,0.000885,0,0
0:1:11.177,124.808,15.8924,0,0.000885,0,0
0:1:11.682,126.507,16.1062,0,0.000885,0,0
0:1:12.180,126.921,16.1613,0,0.000885,0,0
0:1:12.677,127.566,16.244,0,0.000885,0,0
0:1:13.175,129.092,16.4371,0,0.000885,0,0
0:1:13.671,129.617,16.506,0,0.000885,0,0
0:1:14.169,131.027,16.6853,0,0.000885,0,0
0:1:14.666,131.378,16.7267,0,0.000885,0,0
0:1:15.164,132.49,16.8715,0,0.000885,0,0
0:1:15.667,133.958,17.0576,0,0.000885,0,0
0:1:16.173,134.719,17.1542,0,0.000885,0,0
0:1:16.678,136.245,17.3472,0,0.000885,0,0
0:1:17.178,136.716,17.4093,0,0.000885,0,0
0:1:17.674,138.064,17.5816,0,0.000885,0,0
0:1:18.171,138.882,17.6851,0,0.000885,0,0
0:1:18.668,139.647,17.7816,0,0.000885,0,0
0:1:19.165,140.88,17.9402,0,0.000885,0,0
0:1:19.662,141.289,17.9884,0,0.000885,0,0
0:1:20.160,142.757,18.1746,0,0.000885,0,0
0:1:20.658,143.695,18.2987,0,0.000885,0,0
0:1:21.165,144.928,18.4504,0,0.000885,0,0
0:1:21.669,145.159,18.4848,0,0.000885,0,0
0:1:22.174,146.275,18.6227,0,0.000885,0,0
0:1:22.672,147.565,18.7882,0,0.000885,0,0
0:1:23.169,148.095,18.8572,0,0.000885,0,0
0:1:23.666,149.149,18.9882,0,0.000885,0,0
0:1:24.162,150.497,19.1605,0,0.000885,0,0
0:1:24.661,152.316,19.395,0,0.000885,0,0
0:1:25.156,152.374,19.4018,0,0.000885,0,0
0:1:25.653,153.134,19.4984,0,0.000885,0,0
0:1:26.161,153.957,19.6018,0,0.000885,0,0
0:1:26.668,155.657,19.8224,0,0.000885,0,0
0:1:27.171,156.657,19.9465,0,0.000885,0,0
0:1:27.668,157.067,20.0017,0,0.000885,0,0
0:1:28.166,158.415,20.1672,0,0.000885,0,0
0:1:28.662,159.117,20.2568,0,0.000885,0,0
0:1:29.159,160.527,20.4361,0,0.000885,0,0
0:1:29.654,160.701,20.4636,0,0.000885,0,0
0:1:30.154,162.111,20.6429,0,0.000885,0,0
0:1:30.660,162.929,20.7463,0,0.000885,0,0
0:1:31.168,163.988,20.8773,0,0.000885,0,0
0:1:31.670,164.807,20.9807,0,0.000885,0,0
0:1:32.170,166.039,21.1393,0,0.000885,0,0
0:1:32.667,167.507,21.3255,0,0.000885,0,0
0:1:33.164,167.974,21.3875,0,0.000885,0,0
0:1:33.662,169.09,21.5323,0,0.000885,0,0
0:1:34.160,170.554,21.7185,0,0.000885,0,0
0:1:34.655,171.261,21.8081,0,0.000885,0,0
0:1:35.155,172.137,21.9184,0,0.000885,0,0
0:1:35.654,173.254,22.0563,0,0.000885,0,0
0:1:36.164,174.192,22.1804,0,0.000885,0,0
0:1:36.667,174.953,22.277,0,0.000885,0,0
0:1:37.170,176.07,22.4149,0,0.000885,0,0
0:1:37.667,177.066,22.5459,0,0.000885,0,0
0:1:38.165,177.889,22.6493,0,0.000885,0,0
0:1:38.662,178.649,22.7458,0,0.000885,0,0
0:1:39.160,179.646,22.8699,0,0.000885,0,0
0:1:39.656,180.7,23.0078,0,0.000885,0,0
0:1:40.153,182.052,23.1802,0,0.000885,0,0
0:1:40.651,182.991,23.2974,0,0.000885,0,0
0:1:41.159,183.578,23.3732,0,0.000885,0,0
0:1:41.663,184.223,23.456,0,0.000885,0,0
0:1:42.168,186.158,23.7042,0,0.000885,0,0
0:1:42.664,186.861,23.7938,0,0.000885,0,0
0:1:43.161,187.448,23.8696,0,0.000885,0,0
0:1:43.656,188.912,24.0558,0,0.000885,0,0
0:1:44.155,189.97,24.1868,0,0.000885,0,0
0:1:44.651,190.615,24.2695,0,0.000885,0,0
0:1:45.148,191.318,24.3592,0,0.000885,0,0
0:1:45.656,192.257,24.4764,0,0.000885,0,0
0:1:46.159,193.08,24.5867,0,0.000885,0,0
0:1:46.660,194.663,24.7867,0,0.000885,0,0
0:1:47.154,195.891,24.9452,0,0.000885,0,0
0:1:47.646,196.42,25.0073,0,0.000885,0,0
0:1:48.141,197.768,25.1797,0,0.000885,0,0
0:1:48.644,198.942,25.3313,0,0.000885,0,0
0:1:49.139,199.587,25.4141,0,0.000885,0,0
0:1:49.641,200.468,25.5244,0,0.000885,0,0
0:1:50.146,201.407,25.6416,0,0.000885,0,0
0:1:50.644,202.519,25.7864,0,0.000885,0,0
0:1:51.149,203.164,25.8691,0,0.000885,0,0
0:1:51.649,204.516,26.0415,0,0.000885,0,0
0:1:52.147,205.161,26.1242,0,0.000885,0,0
0:1:52.643,206.331,26.269,0,0.000885,0,0
0:1:53.146,207.154,26.3724,0,0.000885,0,0
0:1:53.642,208.15,26.5034,0,0.000885,0,0
0:1:54.144,209.324,26.6551,0,0.000885,0,0
0:1:54.640,209.969,26.731,0,0.000885,0,0
0:1:55.143,211.317,26.9033,0,0.000885,0,0
0:1:55.648,212.434,27.0481,0,0.000885,0,0
0:1:56.153,213.079,27.1309,0,0.000885,0,0
0:1:56.653,214.075,27.255,0,0.000885,0,0
0:1:57.155,215.365,27.4204,0,0.000885,0,0
0:1:57.648,215.952,27.4963,0,0.000885,0,0
0:1:58.143,217.184,27.6549,0,0.000885,0,0
0:1:58.644,217.709,27.7169,0,0.000885,0,0
0:1:59.148,219.177,27.9031,0,0.000885,0,0
0:1:59.641,219.88,27.9927,0,0.000885,0,0
0:2:0.146,221.112,28.1513,0,0.000885,0,0
0:2:0.648,221.993,28.2616,0,0.000885,0,0
0:2:1.152,223.341,28.434,0,0.000885,0,0
0:2:1.653,223.986,28.5167,0,0.000885,0,0
0:2:2.154,225.276,28.6822,0,0.000885,0,0
0:2:2.649,226.041,28.7787,0,0.000885,0,0
0:2:3.145,227.211,28.9304,0,0.000885,0,0
0:2:3.645,227.918,29.02,0,0.000885,0,0
0:2:4.140,229.03,29.1579,0,0.000885,0,0
0:2:4.641,229.675,29.2407,0,0.000885,0,0
0:2:5.146,230.907,29.3992,0,0.000885,0,0
0:2:5.649,231.61,29.4889,0,0.000885,0,0
0:2:6.152,232.784,29.6406,0,0.000885,0,0
0:2:6.651,233.665,29.7509,0,0.000885,0,0
0:2:7.148,234.661,29.875,0,0.000885,0,0
0:2:7.641,235.658,30.006,0,0.000885,0,0
0:2:8.135,236.596,30.1232,0,0.000885,0,0
0:2:8.641,237.829,30.2818,0,0.000885,0,0
0:2:9.144,239.176,30.4541,0,0.000885,0,0
0:2:9.648,240.057,30.5645,0,0.000885,0,0
0:2:10.142,240.938,30.6748,0,0.000885,0,0
0:2:10.638,242.228,30.8402,0,0.000885,0,0
0:2:11.144,242.286,30.8471,0,0.000885,0,0
0:2:11.643,243.34,30.985,0,0.000885,0,0
0:2:12.141,244.279,31.1023,0,0.000885,0,0
0:2:12.646,246.098,31.3367,0,0.000885,0,0
0:2:13.149,246.565,31.3918,0,0.000885,0,0
0:2:13.643,247.272,31.4815,0,0.000885,0,0
0:2:14.146,248.148,31.5987,0,0.000885,0,0
0:2:14.638,249.559,31.7779,0,0.000885,0,0
0:2:15.145,250.671,31.9158,0,0.000885,0,0
0:2:15.646,251.378,32.0055,0,0.000885,0,0
0:2:16.149,252.139,32.102,0,0.000885,0,0
0:2:16.653,253.9,32.3295,0,0.000885,0,0
0:2:17.152,254.719,32.4329,0,0.000885,0,0
0:2:17.646,254.954,32.4605,0,0.000885,0,0
0:2:18.150,256.302,32.6329,0,0.000885,0,0
0:2:18.644,257.356,32.7708,0,0.000885,0,0
0:2:19.147,258.121,32.8673,0,0.000885,0,0
0:2:19.651,259.233,33.0052,0,0.000885,0,0
0:2:20.145,260.523,33.1707,0,0.000885,0,0
0:2:20.648,260.937,33.2258,0,0.000885,0,0
0:2:21.150,262.227,33.3844,0,0.000885,0,0
0:2:21.653,263.691,33.5775,0,0.000885,0,0
0:2:22.147,264.046,33.6188,0,0.000885,0,0
0:2:22.649,264.691,33.7016,0,0.000885,0,0
0:2:23.143,266.155,33.8877,0,0.000885,0,0
0:2:23.646,267.151,34.0118,0,0.000885,0,0
0:2:24.150,267.681,34.0808,0,0.000885,0,0
0:2:24.645,269.149,34.2669,0,0.000885,0,0
0:2:25.148,270.203,34.4048,0,0.000885,0,0
0:2:25.653,270.554,34.4462,0,0.000885,0,0
0:2:26.155,272.196,34.6599,0,0.000885,0,0
0:2:26.657,273.486,34.8185,0,0.000885,0,0
0:2:27.150,274.015,34.8875,0,0.000885,0,0
0:2:27.645,274.718,34.9771,0,0.000885,0,0
0:2:28.148,275.483,35.0736,0,0.000885,0,0
0:2:28.643,277.24,35.3012,0,0.000885,0,0
0:2:29.146,277.943,35.3908,0,0.000885,0,0
0:2:29.649,278.299,35.4322,0,0.000885,0,0
0:2:30.143,280.349,35.6942,0,0.000885,0,0
0:2:30.640,280.701,35.7424,0,0.000885,0,0
0:2:31.148,281.817,35.8803,0,0.000885,0,0
0:2:31.648,283.516,36.1009,0,0.000885,0,0
0:2:32.144,283.81,36.1354,0,0.000885,0,0
0:2:32.648,285.216,36.3147,0,0.000885,0,0
0:2:33.151,285.861,36.3974,0,0.000885,0,0
0:2:33.645,286.683,36.5008,0,0.000885,0,0
0:2:34.150,287.622,36.6181,0,0.000885,0,0
0:2:34.651,288.383,36.7215,0,0.000885,0,0
0:2:35.146,289.321,36.8387,0,0.000885,0,0
0:2:35.654,291.025,37.0524,0,0.000885,0,0
0:2:36.160,291.963,37.1765,0,0.000885,0,0
0:2:36.660,292.782,37.28,0,0.000885,0,0
0:2:37.159,294.308,37.473,0,0.000885,0,0
0:2:37.651,294.308,37.473,0,0.000885,0,0
0:2:38.148,295.54,37.6316,0,0.000885,0,0
0:2:38.638,296.127,37.7005,0,0.000885,0,0
0:2:39.145,297.653,37.9005,0,0.000885,0,0
0:2:39.649,298.765,38.0384,0,0.000885,0,0
0:2:40.141,299.646,38.1487,0,0.000885,0,0
0:2:40.648,300.642,38.2797,0,0.000885,0,0
0:2:41.152,301.407,38.3762,0,0.000885,0,0
0:2:41.652,302.635,38.5348,0,0.000885,0,0
0:2:42.152,303.516,38.6451,0,0.000885,0,0
0:2:42.647,304.574,38.7761,0,0.000885,0,0
0:2:43.151,305.508,38.9002,0,0.000885,0,0
0:2:43.646,306.567,39.0312,0,0.000885,0,0
0:2:44.149,307.621,39.1691,0,0.000885,0,0
0:2:44.641,307.506,39.1553,0,0.000885,0,0
0:2:45.147,309.263,39.376,0,0.000885,0,0
0:2:45.652,309.97,39.4656,0,0.000885,0,0
0:2:46.156,311.433,39.6517,0,0.000885,0,0
0:2:46.656,312.492,39.7896,0,0.000885,0,0
0:2:47.159,312.843,39.831,0,0.000885,0,0
0:2:47.652,314.071,39.9896,0,0.000885,0,0
0:2:48.147,315.188,40.1344,0,0.000885,0,0
0:2:48.649,316.068,40.2447,0,0.000885,0,0
0:2:49.142,316.829,40.3412,0,0.000885,0,0
0:2:49.649,318.239,40.5205,0,0.000885,0,0
0:2:50.153,318.884,40.6032,0,0.000885,0,0
0:2:50.645,320.641,40.8239,0,0.000885,0,0
0:2:51.148,321.055,40.879,0,0.000885,0,0
0:2:51.649,322.518,41.0652,0,0.000885,0,0
0:2:52.149,323.048,41.1341,0,0.000885,0,0
0:2:52.653,324.044,41.2582,0,0.000885,0,0
0:2:53.147,325.512,41.4444,0,0.000885,0,0
0:2:53.649,325.45,41.4375,0,0.000885,0,0
0:2:54.152,327.269,41.6719,0,0.000885,0,0
0:2:54.654,328.795,41.865,0,0.000885,0,0
0:2:55.148,328.386,41.8098,0,0.000885,0,0
0:2:55.653,329.44,41.9477,0,0.000885,0,0
0:2:56.154,330.908,42.1339,0,0.000885,0,0
0:2:56.655,331.846,42.2511,0,0.000885,0,0
0:2:57.149,332.723,42.3614,0,0.000885,0,0
0:2:57.651,333.955,42.52,0,0.000885,0,0
0:2:58.154,335.129,42.6717,0,0.000885,0,0
0:2:58.648,335.89,42.7682,0,0.000885,0,0
0:2:59.152,336.828,42.8854,0,0.000885,0,0
0:2:59.647,337.767,43.0026,0,0.000885,0,0
0:3:0.138,338.532,43.106,0,0.000885,0,0
0:3:0.636,339.47,43.2232,0,0.000885,0,0
0:3:1.140,340.934,43.4094,0,0.000885,0,0
0:3:1.640,341.757,43.5128,0,0.000885,0,0
0:3:2.149,343.047,43.6783,0,0.000885,0,0
0:3:2.642,343.807,43.7748,0,0.000885,0,0
0:3:3.156,344.63,43.8782,0,0.000885,0,0
0:3:3.650,346.098,44.0644,0,0.000885,0,0
0:3:4.141,346.508,44.1196,0,0.000885,0,0
0:3:4.647,347.268,44.2161,0,0.000885,0,0
0:3:5.150,348.794,44.4091,0,0.000885,0,0
0:3:5.652,349.323,44.4781,0,0.000885,0,0
0:3:6.155,350.204,44.5884,0,0.000885,0,0
0:3:6.655,351.903,44.809,0,0.000885,0,0
0:3:7.156,352.664,44.9056,0,0.000885,0,0
0:3:7.650,353.309,44.9883,0,0.000885,0,0
0:3:8.155,355.07,45.2089,0,0.000885,0,0
0:3:8.655,355.658,45.2848,0,0.000885,0,0
0:3:9.150,355.951,45.3192,0,0.000885,0,0
0:3:9.652,357.183,45.4778,0,0.000885,0,0
0:3:10.147,358.767,45.6778,0,0.000885,0,0
0:3:10.650,359.292,45.7467,0,0.000885,0,0
0:3:11.152,360.524,45.9053,0,0.000885,0,0
0:3:11.654,361.52,46.0294,0,0.000885,0,0
0:3:12.154,362.165,46.1121,0,0.000885,0,0
0:3:12.649,363.34,46.2638,0,0.000885,0,0
0:3:13.152,364.687,46.4362,0,0.000885,0,0
0:3:13.645,365.275,46.5051,0,0.000885,0,0
0:3:14.150,366.507,46.6637,0,0.000885,0,0
0:3:14.652,367.912,46.843,0,0.000885,0,0
0:3:15.155,368.384,46.905,0,0.000885,0,0
0:3:15.656,369.087,46.9947,0,0.000885,0,0
0:3:16.162,370.377,47.1601,0,0.000885,0,0
0:3:16.661,371.373,47.2842,0,0.000885,0,0
0:3:17.156,371.902,47.3532,0,0.000885,0,0
0:3:17.651,372.841,47.4704,0,0.000885,0,0
0:3:18.153,374.425,47.6704,0,0.000885,0,0
0:3:18.648,375.185,47.7669,0,0.000885,0,0
0:3:19.152,376.008,47.8772,0,0.000885,0,0
0:3:19.655,377.062,48.0082,0,0.000885,0,0
0:3:20.148,378.179,48.153,0,0.000885,0,0
0:3:20.642,379.06,48.2633,0,0.000885,0,0
0:3:21.145,379.527,48.3254,0,0.000885,0,0
0:3:21.648,381.23,48.5391,0,0.000885,0,0
0:3:22.149,381.875,48.6218,0,0.000885,0,0
0:3:22.652,382.987,48.7666,0,0.000885,0,0
0:3:23.155,383.984,48.8907,0,0.000885,0,0
0:3:23.649,384.687,48.9804,0,0.000885,0,0
0:3:24.153,386.097,49.1596,0,0.000885,0,0
0:3:24.645,387.502,49.3389,0,0.000885,0,0
0:3:25.150,387.387,49.3251,0,0.000885,0,0
0:3:25.654,389.322,49.5733,0,0.000885,0,0
0:3:26.157,390.438,49.7112,0,0.000885,0,0
0:3:26.660,390.79,49.7595,0,0.000885,0,0
0:3:27.160,391.492,49.8491,0,0.000885,0,0
0:3:27.653,392.84,50.0215,0,0.000885,0,0
0:3:28.156,394.308,50.2076,0,0.000885,0,0
0:3:28.659,395.011,50.2973,0,0.000885,0,0
0:3:29.152,396.065,50.4283,0,0.000885,0,0
0:3:29.656,396.359,50.4627,0,0.000885,0,0
0:3:30.149,397.533,50.6144,0,0.000885,0,0
0:3:30.652,398.939,50.7937,0,0.000885,0,0
0:3:31.154,399.997,50.9316,0,0.000885,0,0
0:3:31.655,400.464,50.9867,0,0.000885,0,0
0:3:32.146,401.99,51.1798,0,0.000885,0,0
0:3:32.653,403.222,51.3384,0,0.000885,0,0
0:3:33.153,402.987,51.3108,0,0.000885,0,0
0:3:33.657,404.219,51.4694,0,0.000885,0,0
0:3:34.151,405.86,51.6762,0,0.000885,0,0
0:3:34.654,407.328,51.8624,0,0.000885,0,0
0:3:35.156,407.212,51.8486,0,0.000885,0,0
0:3:35.656,407.857,51.9313,0,0.000885,0,0
0:3:36.162,409.441,52.1313,0,0.000885,0,0
0:3:36.661,410.437,52.2554,0,0.000885,0,0
0:3:37.156,411.376,52.3795,0,0.000885,0,0
0:3:37.652,412.546,52.5243,0,0.000885,0,0
0:3:38.154,413.191,52.607,0,0.000885,0,0
0:3:38.659,414.543,52.7794,0,0.000885,0,0
0:3:39.152,415.949,52.9586,0,0.000885,0,0
0:3:39.655,416.594,53.0414,0,0.000885,0,0
0:3:40.150,417.065,53.1034,0,0.000885,0,0
0:3:40.654,417.826,53.1999,0,0.000885,0,0
0:3:41.161,419.294,53.3861,0,0.000885,0,0
0:3:41.660,420.757,53.5723,0,0.000885,0,0
0:3:42.161,421.58,53.6757,0,0.000885,0,0
0:3:42.652,421.754,53.6964,0,0.000885,0,0
0:3:43.156,423.337,53.9032,0,0.000885,0,0
0:3:43.650,424.632,54.0687,0,0.000885,0,0
0:3:44.156,425.157,54.1307,0,0.000885,0,0
0:3:44.659,426.504,54.3031,0,0.000885,0,0
0:3:45.152,427.385,54.4134,0,0.000885,0,0
0:3:45.655,428.324,54.5375,0,0.000885,0,0
0:3:46.160,429.382,54.6685,0,0.000885,0,0
0:3:46.660,429.672,54.7099,0,0.000885,0,0
0:3:47.161,430.846,54.8547,0,0.000885,0,0
0:3:47.655,432.55,55.0753,0,0.000885,0,0
0:3:48.157,433.252,55.165,0,0.000885,0,0
0:3:48.651,433.84,55.2408,0,0.000885,0,0
0:3:49.155,435.067,55.3925,0,0.000885,0,0
0:3:49.660,435.89,55.4959,0,0.000885,0,0
0:3:50.152,436.419,55.5648,0,0.000885,0,0
0:3:50.655,437.474,55.7027,0,0.000885,0,0
0:3:51.161,439.173,55.9165,0,0.000885,0,0
0:3:51.662,439.587,55.9716,0,0.000885,0,0
0:3:52.163,441.344,56.1923,0,0.000885,0,0
0:3:52.659,442.518,56.344,0,0.000885,0,0
0:3:53.152,442.927,56.3922,0,0.000885,0,0
0:3:53.656,443.924,56.5232,0,0.000885,0,0
0:3:54.157,445.156,56.6818,0,0.000885,0,0
0:3:54.649,445.449,56.7163,0,0.000885,0,0
0:3:55.153,446.214,56.8128,0,0.000885,0,0
0:3:55.656,448.092,57.0541,0,0.000885,0,0
0:3:56.157,448.149,57.061,0,0.000885,0,0
0:3:56.657,450.32,57.3368,0,0.000885,0,0
0:3:57.149,450.903,57.4126,0,0.000885,0,0
0:3:57.654,451.552,57.4954,0,0.000885,0,0
0:3:58.156,452.722,57.6402,0,0.000885,0,0
0:3:58.649,453.545,57.7436,0,0.000885,0,0
0:3:59.144,455.009,57.9366,0,0.000885,0,0
0:3:59.658,456.125,58.0745,0,0.000885,0,0
0:4:0.152,456.712,58.1504,0,0.000885,0,0
0:4:0.649,457.237,58.2193,0,0.000885,0,0
0:4:1.156,458.002,58.3159,0,0.000885,0,0
0:4:1.656,459.528,58.5089,0,0.000885,0,0
0:4:2.152,460.289,58.6054,0,0.000885,0,0
0:4:2.657,461.93,58.8123,0,0.000885,0,0
0:4:3.162,462.637,58.9019,0,0.000885,0,0
0:4:3.656,464.101,59.0881,0,0.000885,0,0
0:4:4.149,465.039,59.2122,0,0.000885,0,0
0:4:4.654,465.039,59.2122,0,0.000885,0,0
0:4:5.158,466.156,59.3501,0,0.000885,0,0
0:4:5.650,467.619,59.5362,0,0.000885,0,0
0:4:6.158,468.149,59.6052,0,0.000885,0,0
0:4:6.657,469.087,59.7293,0,0.000885,0,0
0:4:7.161,470.435,59.8948,0,0.000885,0,0
0:4:7.653,470.729,59.9361,0,0.000885,0,0
0:4:8.155,472.312,60.1361,0,0.000885,0,0
0:4:8.660,473.251,60.2533,0,0.000885,0,0
0:4:9.163,474.892,60.467,0,0.000885,0,0
0:4:9.655,475.306,60.5153,0,0.000885,0,0
0:4:10.147,476.827,60.7083,0,0.000885,0,0
0:4:10.653,477.414,60.7842,0,0.000885,0,0
0:4:11.156,478.531,60.929,0,0.000885,0,0
0:4:11.659,479.291,61.0255,0,0.000885,0,0
0:4:12.159,480.23,61.1427,0,0.000885,0,0
0:4:12.659,480.759,61.2117,0,0.000885,0,0
0:4:13.154,482.574,61.4461,0,0.000885,0,0
0:4:13.657,483.339,61.5426,0,0.000885,0,0
0:4:14.160,484.158,61.646,0,0.000885,0,0
0:4:14.650,484.745,61.7219,0,0.000885,0,0
0:4:15.157,485.741,61.846,0,0.000885,0,0
0:4:15.661,487.503,62.0735,0,0.000885,0,0
0:4:16.163,487.912,62.1218,0,0.000885,0,0
0:4:16.663,489.144,62.2803,0,0.000885,0,0
0:4:17.157,490.319,62.432,0,0.000885,0,0
0:4:17.660,491.199,62.5423,0,0.000885,0,0
0:4:18.154,491.666,62.6044,0,0.000885,0,0
0:4:18.657,492.841,62.7492,0,0.000885,0,0
0:4:19.162,493.895,62.8871,0,0.000885,0,0
0:4:19.655,494.66,62.9836,0,0.000885,0,0
0:4:20.161,496.008,63.156,0,0.000885,0,0
0:4:20.660,497.062,63.287,0,0.000885,0,0
0:4:21.163,497.591,63.3559,0,0.000885,0,0
0:4:21.662,498.824,63.5145,0,0.000885,0,0
0:4:22.160,499.878,63.6455,0,0.000885,0,0
0:4:22.655,500.816,63.7627,0,0.000885,0,0
0:4:23.147,501.755,63.8868,0,0.000885,0,0
0:4:23.650,503.161,64.0661,0,0.000885,0,0
0:4:24.155,503.574,64.1143,0,0.000885,0,0
0:4:24.662,505.038,64.3005,0,0.000885,0,0
0:4:25.165,505.625,64.3763,0,0.000885,0,0
0:4:25.658,506.799,64.528,0,0.000885,0,0
0:4:26.164,507.386,64.6039,0,0.000885,0,0
0:4:26.665,508.676,64.7693,0,0.000885,0,0
0:4:27.165,510.14,64.9555,0,0.000885,0,0
0:4:27.656,510.554,65.0038,0,0.000885,0,0
0:4:28.160,511.492,65.1279,0,0.000885,0,0
0:4:28.662,512.84,65.3002,0,0.000885,0,0
0:4:29.156,513.076,65.3278,0,0.000885,0,0
0:4:29.657,514.481,65.5071,0,0.000885,0,0
0:4:30.162,515.598,65.645,0,0.000885,0,0
0:4:30.665,516.416,65.7553,0,0.000885,0,0
0:4:31.168,517.413,65.8794,0,0.000885,0,0
0:4:31.667,518.178,65.9759,0,0.000885,0,0
0:4:32.160,519.29,66.1207,0,0.000885,0,0
0:4:32.663,520.406,66.2586,0,0.000885,0,0
0:4:33.156,521.874,66.4448,0,0.000885,0,0
0:4:33.660,522.635,66.5413,0,0.000885,0,0
0:4:34.165,523.28,66.624,0,0.000885,0,0
0:4:34.657,524.454,66.7757,0,0.000885,0,0
0:4:35.151,525.508,66.9067,0,0.000885,0,0
0:4:35.651,526.505,67.0377,0,0.000885,0,0
0:4:36.157,527.27,67.1343,0,0.000885,0,0
0:4:36.658,528.088,67.2377,0,0.000885,0,0
0:4:37.153,529.614,67.4307,0,0.000885,0,0
0:4:37.667,530.143,67.4997,0,0.000885,0,0
0:4:38.163,531.02,67.61,0,0.000885,0,0
0:4:38.658,532.43,67.7893,0,0.000885,0,0
0:4:39.162,533.368,67.9134,0,0.000885,0,0
0:4:39.664,533.836,67.9685,0,0.000885,0,0
0:4:40.158,535.419,68.1685,0,0.000885,0,0
0:4:40.666,536.3,68.2857,0,0.000885,0,0
0:4:41.171,536.829,68.3477,0,0.000885,0,0
0:4:41.671,537.71,68.4649,0,0.000885,0,0
0:4:42.170,539.231,68.658,0,0.000885,0,0
0:4:42.665,539.938,68.7476,0,0.000885,0,0
0:4:43.159,541.402,68.9338,0,0.000885,0,0
0:4:43.660,542.047,69.0165,0,0.000885,0,0
0:4:44.164,542.576,69.0855,0,0.000885,0,0
0:4:44.657,543.982,69.2647,0,0.000885,0,0
0:4:45.162,545.098,69.4026,0,0.000885,0,0
0:4:45.664,545.801,69.4923,0,0.000885,0,0
0:4:46.168,546.855,69.6302,0,0.000885,0,0
0:4:46.671,547.856,69.7543,0,0.000885,0,0
0:4:47.172,549.204,69.9266,0,0.000885,0,0
0:4:47.666,549.44,69.9542,0,0.000885,0,0
0:4:48.160,550.668,70.1128,0,0.000885,0,0
0:4:48.662,552.193,70.3058,0,0.000885,0,0
0:4:49.166,552.429,70.3403,0,0.000885,0,0
0:4:49.658,553.603,70.4851,0,0.000885,0,0
0:4:50.151,555.187,70.6851,0,0.000885,0,0
0:4:50.654,556.005,70.7954,0,0.000885,0,0
0:4:51.161,557.064,70.9264,0,0.000885,0,0
0:4:51.658,557.883,71.0298,0,0.000885,0,0
0:4:52.163,558.879,71.1608,0,0.000885,0,0
0:4:52.665,559.644,71.2573,0,0.000885,0,0
0:4:53.162,560.756,71.3952,0,0.000885,0,0
0:4:53.665,562.046,71.5607,0,0.000885,0,0
0:4:54.160,562.34,71.6021,0,0.000885,0,0
0:4:54.650,563.398,71.7331,0,0.000885,0,0
0:4:55.154,564.337,71.8503,0,0.000885,0,0
0:4:55.652,565.098,71.9537,0,0.000885,0,0
0:4:56.160,566.388,72.1123,0,0.000885,0,0
0:4:56.660,567.913,72.3122,0,0.000885,0,0
0:4:57.166,568.852,72.4294,0,0.000885,0,0
0:4:57.661,569.613,72.526,0,0.000885,0,0
0:4:58.166,570.378,72.6225,0,0.000885,0,0
0:4:58.661,571.725,72.7948,0,0.000885,0,0
0:4:59.163,572.019,72.8293,0,0.000885,0,0
0:4:59.656,573.718,73.05,0,0.000885,0,0
0:5:0.161,574.128,73.0982,0,0.000885,0,0
0:5:0.666,575.244,73.243,0,0.000885,0,0
0:5:1.171,576.361,73.3809,0,0.000885,0,0
0:5:1.672,577.588,73.5395,0,0.000885,0,0
0:5:2.172,578.233,73.6222,0,0.000885,0,0
0:5:2.666,579.585,73.7946,0,0.000885,0,0
0:5:3.168,580.23,73.8773,0,0.000885,0,0
0:5:3.663,581.343,74.0221,0,0.000885,0,0
0:5:4.167,582.281,74.1393,0,0.000885,0,0
0:5:4.656,583.398,74.2772,0,0.000885,0,0
0:5:5.164,584.394,74.4082,0,0.000885,0,0
0:5:5.667,585.275,74.5185,0,0.000885,0,0
0:5:6.172,586.445,74.6702,0,0.000885,0,0
0:5:6.672,587.09,74.753,0,0.000885,0,0
0:5:7.174,587.97,74.8633,0,0.000885,0,0
0:5:7.667,588.909,74.9805,0,0.000885,0,0
0:5:8.163,590.141,75.1391,0,0.000885,0,0
0:5:8.667,591.195,75.277,0,0.000885,0,0
0:5:9.164,592.196,75.4011,0,0.000885,0,0
0:5:9.670,592.957,75.4976,0,0.000885,0,0
0:5:10.166,594.131,75.6493,0,0.000885,0,0
0:5:10.663,594.838,75.7389,0,0.000885,0,0
0:5:11.170,595.95,75.8768,0,0.000885,0,0
0:5:11.673,597.187,76.0354,0,0.000885,0,0
0:5:12.178,598.063,76.1457,0,0.000885,0,0
0:5:12.675,599.006,76.2698,0,0.000885,0,0
0:5:13.170,600.118,76.4077,0,0.000885,0,0
0:5:13.666,601.293,76.5594,0,0.000885,0,0
0:5:14.162,601.413,76.5732,0,0.000885,0,0
0:5:14.669,603.17,76.8007,0,0.000885,0,0
0:5:15.165,603.584,76.849,0,0.000885,0,0
0:5:15.671,605.052,77.0351,0,0.000885,0,0
0:5:16.176,606.106,77.173,0,0.000885,0,0
0:5:16.680,606.751,77.2558,0,0.000885,0,0
0:5:17.182,607.752,77.3799,0,0.000885,0,0
0:5:17.679,608.748,77.5109,0,0.000885,0,0
0:5:18.176,609.807,77.6419,0,0.000885,0,0
0:5:18.672,610.745,77.7591,0,0.000885,0,0
0:5:19.168,611.8,77.897,0,0.000885,0,0
0:5:19.664,612.622,78.0004,0,0.000885,0,0
0:5:20.170,613.855,78.159,0,0.000885,0,0
0:5:20.675,614.442,78.2348,0,0.000885,0,0
0:5:21.181,615.322,78.3451,0,0.000885,0,0
0:5:21.683,616.555,78.5037,0,0.000885,0,0
0:5:22.181,617.142,78.5795,0,0.000885,0,0
0:5:22.676,618.2,78.7105,0,0.000885,0,0
0:5:23.173,619.668,78.8967,0,0.000885,0,0
0:5:23.668,620.429,78.9932,0,0.000885,0,0
0:5:24.165,621.425,79.1242,0,0.000885,0,0
0:5:24.671,622.778,79.2966,0,0.000885,0,0
0:5:25.167,623.481,79.3862,0,0.000885,0,0
0:5:25.672,624.188,79.4759,0,0.000885,0,0
0:5:26.179,625.242,79.6069,0,0.000885,0,0
0:5:26.682,626.826,79.8068,0,0.000885,0,0
0:5:27.178,627.413,79.8827,0,0.000885,0,0
0:5:27.675,628.707,80.0481,0,0.000885,0,0
0:5:28.170,629.882,80.1998,0,0.000885,0,0
0:5:28.667,630.175,80.2343,0,0.000885,0,0
0:5:29.164,631.056,80.3515,0,0.000885,0,0
0:5:29.672,632.461,80.5308,0,0.000885,0,0
0:5:30.167,633.636,80.6756,0,0.000885,0,0
0:5:30.667,634.459,80.779,0,0.000885,0,0
0:5:31.174,635.397,80.9031,0,0.000885,0,0
0:5:31.676,636.105,80.9927,0,0.000885,0,0
0:5:32.177,637.274,81.1375,0,0.000885,0,0
0:5:32.675,637.862,81.2133,0,0.000885,0,0
0:5:33.172,638.92,81.3512,0,0.000885,0,0
0:5:33.668,639.801,81.4616,0,0.000885,0,0
0:5:34.164,641.149,81.6339,0,0.000885,0,0
0:5:34.668,641.914,81.7305,0,0.000885,0,0
0:5:35.165,642.968,81.8683,0,0.000885,0,0
0:5:35.658,643.969,81.9925,0,0.000885,0,0
0:5:36.166,645.553,82.1924,0,0.000885,0,0
0:5:36.668,646.549,82.3234,0,0.000885,0,0
0:5:37.171,646.905,82.3648,0,0.000885,0,0
0:5:37.668,648.137,82.5233,0,0.000885,0,0
0:5:38.165,649.076,82.6406,0,0.000885,0,0
0:5:38.670,649.721,82.7233,0,0.000885,0,0
0:5:39.167,650.423,82.8129,0,0.000885,0,0
0:5:39.670,651.656,82.9715,0,0.000885,0,0
0:5:40.168,652.892,83.1301,0,0.000885,0,0
0:5:40.673,654.476,83.33,0,0.000885,0,0
0:5:41.177,655.063,83.4059,0,0.000885,0,0
0:5:41.679,655.356,83.4404,0,0.000885,0,0
0:5:42.176,656.704,83.6127,0,0.000885,0,0
0:5:42.671,658.114,83.792,0,0.000885,0,0
0:5:43.169,659.231,83.9368,0,0.000885,0,0
0:5:43.664,660.227,84.0609,0,0.000885,0,0
0:5:44.168,660.521,84.1022,0,0.000885,0,0
0:5:44.666,661.931,84.2815,0,0.000885,0,0
0:5:45.170,662.518,84.3574,0,0.000885,0,0
0:5:45.674,664.044,84.5504,0,0.000885,0,0
0:5:46.178,664.747,84.64,0,0.000885,0,0
0:5:46.681,666.272,84.8331,0,0.000885,0,0
0:5:47.180,666.86,84.9089,0,0.000885,0,0
0:5:47.676,667.447,84.9848,0,0.000885,0,0
0:5:48.171,668.799,85.1571,0,0.000885,0,0
0:5:48.670,669.617,85.2606,0,0.000885,0,0
0:5:49.166,670.267,85.3433,0,0.000885,0,0
0:5:49.672,671.85,85.5433,0,0.000885,0,0
0:5:50.168,672.967,85.688,0,0.000885,0,0
0:5:50.664,672.905,85.6743,0,0.000885,0,0
0:5:51.170,674.551,85.888,0,0.000885,0,0
0:5:51.673,675.667,86.0259,0,0.000885,0,0
0:5:52.177,676.076,86.081,0,0.000885,0,0
0:5:52.673,677.366,86.2465,0,0.000885,0,0
0:5:53.170,678.367,86.3706,0,0.000885,0,0
0:5:53.665,679.421,86.5085,0,0.000885,0,0
0:5:54.172,680.302,86.6188,0,0.000885,0,0
0:5:54.667,682.006,86.8326,0,0.000885,0,0
0:5:55.172,682.593,86.9084,0,0.000885,0,0
0:5:55.667,683.416,87.0118,0,0.000885,0,0
0:5:56.173,684.354,87.1359,0,0.000885,0,0
0:5:56.677,684.822,87.1911,0,0.000885,0,0
0:5:57.180,686.583,87.4186,0,0.000885,0,0
0:5:57.675,687.522,87.5358,0,0.000885,0,0
0:5:58.171,688.344,87.6462,0,0.000885,0,0
0:5:58.666,689.461,87.784,0,0.000885,0,0
0:5:59.162,690.4,87.9013,0,0.000885,0,0
0:5:59.656,691.516,88.0461,0,0.000885,0,0
0:6:0.154,692.512,88.1702,0,0.000885,0,0
0:6:0.658,693.157,88.2529,0,0.000885,0,0
0:6:1.167,694.038,88.3701,0,0.000885,0,0
0:6:1.668,695.097,88.5011,0,0.000885,0,0
0:6:2.165,696.093,88.6321,0,0.000885,0,0
0:6:2.671,696.974,88.7424,0,0.000885,0,0
0:6:3.167,698.091,88.8803,0,0.000885,0,0
0:6:3.665,699.145,89.0182,0,0.000885,0,0
0:6:4.170,700.083,89.1354,0,0.000885,0,0
0:6:4.666,700.848,89.2319,0,0.000885,0,0
0:6:5.161,701.903,89.3698,0,0.000885,0,0
0:6:5.665,702.49,89.4457,0,0.000885,0,0
0:6:6.171,704.016,89.6387,0,0.000885,0,0
0:6:6.674,705.426,89.818,0,0.000885,0,0
0:6:7.174,705.777,89.8594,0,0.000885,0,0
0:6:7.671,706.836,89.9973,0,0.000885,0,0
0:6:8.167,707.717,90.1076,0,0.000885,0,0
0:6:8.661,710.123,90.4178,0,0.000885,0,0
0:6:9.168,710.359,90.4454,0,0.000885,0,0
0:6:9.674,710.768,90.5006,0,0.000885,0,0
0:6:10.171,711.649,90.6109,0,0.000885,0,0
0:6:10.671,712.703,90.7419,0,0.000885,0,0
0:6:11.176,713.819,90.8867,0,0.000885,0,0
0:6:11.678,714.464,90.9694,0,0.000885,0,0
0:6:12.179,715.759,91.1349,0,0.000885,0,0
0:6:12.674,717.107,91.3073,0,0.000885,0,0
0:6:13.171,717.987,91.4176,0,0.000885,0,0
0:6:13.666,718.868,91.5279,0,0.000885,0,0
0:6:14.173,720.22,91.7003,0,0.000885,0,0
0:6:14.668,720.278,91.7072,0,0.000885,0,0
0:6:15.162,721.333,91.8451,0,0.000885,0,0
0:6:15.670,722.685,92.0174,0,0.000885,0,0
0:6:16.176,723.739,92.1484,0,0.000885,0,0
0:6:16.678,724.798,92.2863,0,0.000885,0,0
0:6:17.181,725.5,92.376,0,0.000885,0,0
0:6:17.679,726.145,92.4587,0,0.000885,0,0
0:6:18.175,727.026,92.569,0,0.000885,0,0
0:6:18.673,728.672,92.7759,0,0.000885,0,0
0:6:19.177,730.02,92.9482,0,0.000885,0,0
0:6:19.673,730.491,93.0103,0,0.000885,0,0
0:6:20.168,731.724,93.1689,0,0.000885,0,0
0:6:20.662,732.84,93.3068,0,0.000885,0,0
0:6:21.170,733.952,93.4515,0,0.000885,0,0
0:6:21.671,734.13,93.4722,0,0.000885,0,0
0:6:22.176,735.54,93.6515,0,0.000885,0,0
0:6:22.671,736.714,93.8032,0,0.000885,0,0
0:6:23.167,737.302,93.879,0,0.000885,0,0
0:6:23.661,738.707,94.0583,0,0.000885,0,0
0:6:24.168,739.179,94.1134,0,0.000885,0,0
0:6:24.673,740.411,94.272,0,0.000885,0,0
0:6:25.170,741.35,94.3892,0,0.000885,0,0
0:6:25.675,742.346,94.5202,0,0.000885,0,0
0:6:26.178,743.111,94.6168,0,0.000885,0,0
0:6:26.680,744.459,94.7891,0,0.000885,0,0
0:6:27.177,744.93,94.8443,0,0.000885,0,0
0:6:27.672,746.22,95.0098,0,0.000885,0,0
0:6:28.168,747.043,95.1132,0,0.000885,0,0
0:6:28.663,748.333,95.2787,0,0.000885,0,0
0:6:29.161,749.392,95.4165,0,0.000885,0,0
0:6:29.667,750.33,95.5338,0,0.000885,0,0
0:6:30.161,751.096,95.6303,0,0.000885,0,0
0:6:30.665,751.741,95.713,0,0.000885,0,0
0:6:31.171,752.501,95.8095,0,0.000885,0,0
0:6:31.673,754.441,96.0578,0,0.000885,0,0
0:6:32.170,755.143,96.1474,0,0.000885,0,0
0:6:32.665,756.789,96.3542,0,0.000885,0,0
0:6:33.161,757.376,96.4301,0,0.000885,0,0
0:6:33.670,758.021,96.5128,0,0.000885,0,0
0:6:34.174,758.902,96.6231,0,0.000885,0,0
0:6:34.671,759.432,96.6921,0,0.000885,0,0
0:6:35.165,761.251,96.9265,0,0.000885,0,0
0:6:35.662,762.305,97.0575,0,0.000885,0,0
0:6:36.171,762.656,97.1058,0,0.000885,0,0
0:6:36.674,764.124,97.2919,0,0.000885,0,0
0:6:37.177,764.596,97.354,0,0.000885,0,0
0:6:37.673,766.237,97.5608,0,0.000885,0,0
0:6:38.169,767.002,97.6573,0,0.000885,0,0
0:6:38.674,767.999,97.7814,0,0.000885,0,0
0:6:39.169,768.764,97.8849,0,0.000885,0,0
0:6:39.662,769.351,97.9538,0,0.000885,0,0
0:6:40.171,770.757,98.1331,0,0.000885,0,0
0:6:40.675,772.051,98.2986,0,0.000885,0,0
0:6:41.181,772.46,98.3537,0,0.000885,0,0
0:6:41.685,773.813,98.5261,0,0.000885,0,0
0:6:42.187,774.631,98.6295,0,0.000885,0,0
0:6:42.682,775.748,98.7743,0,0.000885,0,0
0:6:43.180,776.513,98.8708,0,0.000885,0,0
0:6:43.674,777.745,99.0225,0,0.000885,0,0
0:6:44.171,778.332,99.0983,0,0.000885,0,0
0:6:44.675,778.919,99.1742,0,0.000885,0,0
0:6:45.172,780.912,99.4293,0,0.000885,0,0
0:6:45.679,781.913,99.5534,0,0.000885,0,0
0:6:46.182,782.967,99.6913,0,0.000885,0,0
0:6:46.685,783.381,99.7396,0,0.000885,0,0
0:6:47.179,784.493,99.8843,0,0.000885,0,0
0:6:47.675,785.316,99.9878,0,0.000885,0,0
0:6:48.171,786.548,100.146,0,0.000885,0,0
0:6:48.676,787.135,100.222,0,0.000885,0,0
0:6:49.172,788.545,100.401,0,0.000885,0,0
0:6:49.679,789.19,100.484,0,0.000885,0,0
0:6:50.175,790.658,100.67,0,0.000885,0,0
0:6:50.676,791.775,100.808,0,0.000885,0,0
0:6:51.181,792.299,100.877,0,0.000885,0,0
0:6:51.683,792.829,100.946,0,0.000885,0,0
0:6:52.185,794.297,101.132,0,0.000885,0,0
0:6:52.681,795,101.222,0,0.000885,0,0
0:6:53.177,796.116,101.367,0,0.000885,0,0
0:6:53.673,797.642,101.56,0,0.000885,0,0
0:6:54.167,798.287,101.643,0,0.000885,0,0
0:6:54.664,799.345,101.774,0,0.000885,0,0
0:6:55.172,800.4,101.911,0,0.000885,0,0
0:6:55.666,801.107,102.001,0,0.000885,0,0
0:6:56.174,802.339,102.16,0,0.000885,0,0
0:6:56.675,802.748,102.208,0,0.000885,0,0
0:6:57.179,803.923,102.36,0,0.000885,0,0
0:6:57.675,804.688,102.456,0,0.000885,0,0
0:6:58.171,806.156,102.642,0,0.000885,0,0
0:6:58.664,807.094,102.759,0,0.000885,0,0
0:6:59.182,808.562,102.953,0,0.000885,0,0
0:6:59.676,808.562,102.953,0,0.000885,0,0
0:7:0.173,809.91,103.118,0,0.000885,0,0
0:7:0.677,811.026,103.263,0,0.000885,0,0
0:7:1.182,811.671,103.346,0,0.000885,0,0
0:7:1.687,812.846,103.497,0,0.000885,0,0
0:7:2.189,813.962,103.635,0,0.000885,0,0
0:7:2.686,815.074,103.78,0,0.000885,0,0
0:7:3.182,815.839,103.876,0,0.000885,0,0
0:7:3.678,816.894,104.007,0,0.000885,0,0
0:7:4.173,817.774,104.125,0,0.000885,0,0
0:7:4.667,819.42,104.331,0,0.000885,0,0
0:7:5.174,819.772,104.38,0,0.000885,0,0
0:7:5.678,821.004,104.531,0,0.000885,0,0
0:7:6.182,821.769,104.628,0,0.000885,0,0
0:7:6.685,822.881,104.773,0,0.000885,0,0
0:7:7.183,824.118,104.931,0,0.000885,0,0
0:7:7.680,824.585,104.986,0,0.000885,0,0
0:7:8.176,825.701,105.131,0,0.000885,0,0
0:7:8.673,826.991,105.297,0,0.000885,0,0
0:7:9.166,827.463,105.359,0,0.000885,0,0
0:7:9.664,828.286,105.462,0,0.000885,0,0
0:7:10.168,829.104,105.566,0,0.000885,0,0
0:7:10.679,830.456,105.738,0,0.000885,0,0
0:7:11.185,831.804,105.91,0,0.000885,0,0
0:7:11.687,832.921,106.048,0,0.000885,0,0
0:7:12.189,833.917,106.179,0,0.000885,0,0
0:7:12.685,834.389,106.234,0,0.000885,0,0
0:7:13.182,835.211,106.345,0,0.000885,0,0
0:7:13.678,836.444,106.496,0,0.000885,0,0
0:7:14.174,837.498,106.634,0,0.000885,0,0
0:7:14.667,838.085,106.71,0,0.000885,0,0
0:7:15.175,839.553,106.896,0,0.000885,0,0
0:7:15.681,841.372,107.124,0,0.000885,0,0
0:7:16.184,841.724,107.172,0,0.000885,0,0
0:7:16.689,842.311,107.248,0,0.000885,0,0
0:7:17.190,843.369,107.379,0,0.000885,0,0
0:7:17.686,844.014,107.462,0,0.000885,0,0
0:7:18.184,845.482,107.648,0,0.000885,0,0
0:7:18.678,846.541,107.786,0,0.000885,0,0
0:7:19.174,847.417,107.896,0,0.000885,0,0
0:7:19.668,848.592,108.048,0,0.000885,0,0
0:7:20.165,849.65,108.179,0,0.000885,0,0
0:7:20.668,849.766,108.193,0,0.000885,0,0
0:7:21.177,851.118,108.365,0,0.000885,0,0
0:7:21.678,852.35,108.523,0,0.000885,0,0
0:7:22.174,853.231,108.634,0,0.000885,0,0
0:7:22.679,854.757,108.834,0,0.000885,0,0
0:7:23.175,855.402,108.916,0,0.000885,0,0
0:7:23.670,856.692,109.075,0,0.000885,0,0
0:7:24.178,857.399,109.165,0,0.000885,0,0
0:7:24.674,858.396,109.296,0,0.000885,0,0
0:7:25.169,859.218,109.399,0,0.000885,0,0
0:7:25.669,860.393,109.551,0,0.000885,0,0
0:7:26.177,861.216,109.654,0,0.000885,0,0
0:7:26.679,862.092,109.765,0,0.000885,0,0
0:7:27.181,862.621,109.833,0,0.000885,0,0
0:7:27.677,863.796,109.985,0,0.000885,0,0
0:7:28.174,864.912,110.123,0,0.000885,0,0
0:7:28.679,866.674,110.351,0,0.000885,0,0
0:7:29.177,866.909,110.378,0,0.000885,0,0
0:7:29.671,868.373,110.564,0,0.000885,0,0
0:7:30.168,869.08,110.654,0,0.000885,0,0
0:7:30.686,870.197,110.799,0,0.000885,0,0
0:7:31.192,871.135,110.916,0,0.000885,0,0
0:7:31.696,872.074,111.033,0,0.000885,0,0
0:7:32.198,873.19,111.178,0,0.000885,0,0
0:7:32.695,873.778,111.254,0,0.000885,0,0
0:7:33.193,874.654,111.364,0,0.000885,0,0
0:7:33.689,876.184,111.557,0,0.000885,0,0
0:7:34.184,876.535,111.605,0,0.000885,0,0
0:7:34.680,878.119,111.805,0,0.000885,0,0
0:7:35.175,878.942,111.909,0,0.000885,0,0
0:7:35.670,879.938,112.04,0,0.000885,0,0
0:7:36.176,880.997,112.171,0,0.000885,0,0
0:7:36.681,881.291,112.212,0,0.000885,0,0
0:7:37.183,882.99,112.426,0,0.000885,0,0
0:7:37.679,883.813,112.529,0,0.000885,0,0
0:7:38.175,884.751,112.653,0,0.000885,0,0
0:7:38.668,886.104,112.819,0,0.000885,0,0
0:7:39.175,886.749,112.902,0,0.000885,0,0
0:7:39.670,887.216,112.964,0,0.000885,0,0
0:7:40.166,888.51,113.129,0,0.000885,0,0
0:7:40.662,889.213,113.219,0,0.000885,0,0
0:7:41.168,890.503,113.384,0,0.000885,0,0
0:7:41.669,891.619,113.522,0,0.000885,0,0
0:7:42.173,892.972,113.695,0,0.000885,0,0
0:7:42.670,893.617,113.777,0,0.000885,0,0
0:7:43.166,894.146,113.846,0,0.000885,0,0
0:7:43.662,895.378,114.005,0,0.000885,0,0
0:7:44.169,896.197,114.108,0,0.000885,0,0
0:7:44.677,897.958,114.329,0,0.000885,0,0
0:7:45.172,898.487,114.398,0,0.000885,0,0
0:7:45.679,899.72,114.556,0,0.000885,0,0
0:7:46.184,900.249,114.625,0,0.000885,0,0
0:7:46.687,901.89,114.832,0,0.000885,0,0
0:7:47.184,901.717,114.811,0,0.000885,0,0
0:7:47.678,903.888,115.087,0,0.000885,0,0
0:7:48.173,904.359,115.149,0,0.000885,0,0
0:7:48.670,905.471,115.287,0,0.000885,0,0
0:7:49.166,905.765,115.329,0,0.000885,0,0
0:7:49.662,907.704,115.57,0,0.000885,0,0
0:7:50.168,908.233,115.639,0,0.000885,0,0
0:7:50.671,909.639,115.818,0,0.000885,0,0
0:7:51.180,910.168,115.887,0,0.000885,0,0
0:7:51.682,910.756,115.963,0,0.000885,0,0
0:7:52.180,911.988,116.115,0,0.000885,0,0
0:7:52.674,912.926,116.239,0,0.000885,0,0
0:7:53.180,914.279,116.411,0,0.000885,0,0
0:7:53.677,915.689,116.59,0,0.000885,0,0
0:7:54.172,916.334,116.673,0,0.000885,0,0
0:7:54.668,917.036,116.763,0,0.000885,0,0
0:7:55.164,917.739,116.852,0,0.000885,0,0
0:7:55.664,918.798,116.983,0,0.000885,0,0
0:7:56.171,920.088,117.149,0,0.000885,0,0
0:7:56.674,921.32,117.307,0,0.000885,0,0
0:7:57.177,921.849,117.376,0,0.000885,0,0
0:7:57.673,923.139,117.535,0,0.000885,0,0
0:7:58.169,923.847,117.625,0,0.000885,0,0
0:7:58.678,925.195,117.797,0,0.000885,0,0
0:7:59.172,925.96,117.893,0,0.000885,0,0
0:7:59.681,927.25,118.059,0,0.000885,0,0
0:8:0.174,927.25,118.059,0,0.000885,0,0
0:8:0.685,928.717,118.245,0,0.000885,0,0
0:8:1.191,930.715,118.5,0,0.000885,0,0
0:8:1.692,930.657,118.493,0,0.000885,0,0
0:8:2.195,931.889,118.652,0,0.000885,0,0
0:8:2.691,932.708,118.755,0,0.000885,0,0
0:8:3.190,933.882,118.907,0,0.000885,0,0
0:8:3.685,934.82,119.024,0,0.000885,0,0
0:8:4.182,936.288,119.21,0,0.000885,0,0
0:8:4.678,936.76,119.272,0,0.000885,0,0
0:8:5.182,938.17,119.452,0,0.000885,0,0
0:8:5.679,938.464,119.486,0,0.000885,0,0
0:8:6.186,940.047,119.693,0,0.000885,0,0
0:8:6.689,940.634,119.762,0,0.000885,0,0
0:8:7.191,941.631,119.893,0,0.000885,0,0
0:8:7.687,942.925,120.058,0,0.000885,0,0
0:8:8.182,943.277,120.1,0,0.000885,0,0
0:8:8.674,943.508,120.134,0,0.000885,0,0
0:8:9.182,944.389,120.245,0,0.000885,0,0
0:8:9.678,945.977,120.445,0,0.000885,0,0
0:8:10.171,946.973,120.576,0,0.000885,0,0
0:8:10.680,948.85,120.81,0,0.000885,0,0
0:8:11.183,949.967,120.955,0,0.000885,0,0
0:8:11.686,950.963,121.079,0,0.000885,0,0
0:8:12.183,951.612,121.162,0,0.000885,0,0
0:8:12.679,951.199,121.113,0,0.000885,0,0
0:8:13.171,948.85,120.81,0,0.000885,0,0
0:8:13.666,950.905,121.072,0,0.000885,0,0
0:8:14.172,953.725,121.43,0,0.000885,0,0
0:8:14.681,956.248,121.755,0,0.000885,0,0
0:8:15.174,958.009,121.975,0,0.000885,0,0
0:8:15.680,958.596,122.051,0,0.000885,0,0
0:8:16.185,959.535,122.175,0,0.000885,0,0
0:8:16.686,959.593,122.182,0,0.000885,0,0
0:8:17.185,955.193,121.617,0,0.000885,0,0
0:8:17.679,813.669,103.601,0,0.000885,0,0
0:8:18.184,807.446,102.808,0,0.000885,0,0
0:8:18.687,806.156,102.642,0,0.000885,0,0
0:8:19.183,803.749,102.339,0,0.000885,0,0
0:8:19.675,803.629,102.318,0,0.000885,0,0
0:8:20.172,803.865,102.353,0,0.000885,0,0
0:8:20.677,804.043,102.373,0,0.000885,0,0
0:8:21.184,804.274,102.401,0,0.000885,0,0
0:8:21.684,804.336,102.408,0,0.000885,0,0
0:8:22.186,794.706,101.187,0,0.000885,0,0
0:8:22.501,782.909,99.6844,0,0.000885,0,0