File: DataFile2021-06-08_040109.csv
Test ID:,Date Tested:,Time:,Test Type:,Diameter Avg. (mm):,Cyl. Corr. Factor:,Height (mm):,Age (days):,Weight (kN):,Break Type:,Ramp Rate (MPa/s):,Load at Break (kN):,Stress at Break (MPa):
12,6/8/2021,04:01,Cylinder,100,1,200,0,3.6,3,0.25,925.72,117.87
Sample Time,Load (kN),Stress (MPa),Long. Strain,Trans. Strain,Chan1 Deflection (mm),Chan2 Deflection (mm)
0:0:13.167,5.57362,0.71016,0,0.000885,0,0
0:0:13.566,12.6685,1.61337,0,0.000885,0,0
0:0:13.964,12.7264,1.62027,0,0.000885,0,0
0:0:14.359,11.8456,1.50995,0,0.000885,0,0
0:0:14.755,11.8456,1.50995,0,0.000885,0,0
0:0:15.153,11.4942,1.46169,0,0.000885,0,0
0:0:15.552,11.3786,1.4479,0,0.000885,0,0
0:0:15.944,11.1428,1.42032,0,0.000885,0,0
0:0:16.350,11.085,1.41343,0,0.000885,0,0
0:0:16.745,11.4942,1.46169,0,0.000885,0,0
0:0:17.144,11.4942,1.46169,0,0.000885,0,0
0:0:17.540,12.6107,1.60648,0,0.000885,0,0
0:0:17.949,13.4915,1.71679,0,0.000885,0,0
0:0:18.354,14.43,1.83401,0,0.000885,0,0
0:0:18.756,15.3063,1.95122,0,0.000885,0,0
0:0:19.162,16.4807,2.09601,0,0.000885,0,0
0:0:19.566,17.9486,2.28216,0,0.000885,0,0
0:0:19.969,18.945,2.41317,0,0.000885,0,0
0:0:20.369,20.057,2.55106,0,0.000885,0,0
0:0:20.769,20.8221,2.64759,0,0.000885,0,0
0:0:21.167,21.2892,2.70964,0,0.000885,0,0
0:0:21.564,21.992,2.79927,0,0.000885,0,0
0:0:21.960,22.8149,2.90269,0,0.000885,0,0
0:0:22.360,23.6957,3.0199,0,0.000885,0,0
0:0:22.758,23.7535,3.0268,0,0.000885,0,0
0:0:23.156,24.2206,3.08196,0,0.000885,0,0
0:0:23.553,25.515,3.24743,0,0.000885,0,0
0:0:23.958,26.3913,3.35775,0,0.000885,0,0
0:0:24.362,27.2142,3.46806,0,0.000885,0,0
0:0:24.765,28.095,3.57838,0,0.000885,0,0
0:0:25.168,28.7978,3.66801,0,0.000885,0,0
0:0:25.566,29.7364,3.78522,0,0.000885,0,0
0:0:25.963,30.6171,3.89554,0,0.000885,0,0
0:0:26.364,31.142,3.96449,0,0.000885,0,0
0:0:26.764,32.3163,4.11617,0,0.000885,0,0
0:0:27.160,33.1393,4.21959,0,0.000885,0,0
0:0:27.556,33.4328,4.25407,0,0.000885,0,0
0:0:27.953,34.4292,4.38507,0,0.000885,0,0
0:0:28.353,35.1899,4.48159,0,0.000885,0,0
0:0:28.754,36.1285,4.5988,0,0.000885,0,0
0:0:29.160,36.5377,4.65396,0,0.000885,0,0
0:0:29.565,37.3606,4.75738,0,0.000885,0,0
0:0:29.967,37.5964,4.78496,0,0.000885,0,0
0:0:30.370,39.2378,4.9987,0,0.000885,0,0
0:0:30.768,39.5892,5.04007,0,0.000885,0,0
0:0:31.164,40.5277,5.15728,0,0.000885,0,0
0:0:31.560,41.2884,5.25381,0,0.000885,0,0
0:0:31.960,41.9957,5.34344,0,0.000885,0,0
0:0:32.360,43.0499,5.48133,0,0.000885,0,0
0:0:32.757,43.9306,5.59165,0,0.000885,0,0
0:0:33.155,45.0427,5.73644,0,0.000885,0,0
0:0:33.559,45.7455,5.82607,0,0.000885,0,0
0:0:33.964,45.9234,5.84675,0,0.000885,0,0
0:0:34.366,47.0399,5.99154,0,0.000885,0,0
0:0:34.770,47.507,6.0467,0,0.000885,0,0
0:0:35.165,48.5612,6.1846,0,0.000885,0,0
0:0:35.563,49.3842,6.28802,0,0.000885,0,0
0:0:35.964,49.9135,6.35697,0,0.000885,0,0
0:0:36.361,50.2649,6.39833,0,0.000885,0,0
0:0:36.757,51.2035,6.52244,0,0.000885,0,0
0:0:37.154,51.7862,6.59139,0,0.000885,0,0
0:0:37.554,53.1963,6.77065,0,0.000885,0,0
0:0:37.953,54.077,6.88786,0,0.000885,0,0
0:0:38.360,54.8377,6.98439,0,0.000885,0,0
0:0:38.766,55.4248,7.06023,0,0.000885,0,0
0:0:39.171,55.6606,7.08781,0,0.000885,0,0
0:0:39.575,56.9506,7.25328,0,0.000885,0,0
0:0:39.978,57.8313,7.3636,0,0.000885,0,0
0:0:40.376,58.4763,7.44634,0,0.000885,0,0
0:0:40.771,59.237,7.54286,0,0.000885,0,0
0:0:41.170,60.2334,7.66697,0,0.000885,0,0
0:0:41.572,61.2298,7.79797,0,0.000885,0,0
0:0:41.967,61.937,7.8876,0,0.000885,0,0
0:0:42.363,62.582,7.97034,0,0.000885,0,0
0:0:42.762,63.3427,8.06687,0,0.000885,0,0
0:0:43.161,64.2234,8.17718,0,0.000885,0,0
0:0:43.560,64.8106,8.25302,0,0.000885,0,0
0:0:43.966,65.8648,8.38402,0,0.000885,0,0
0:0:44.371,66.919,8.52192,0,0.000885,0,0
0:0:44.774,67.4484,8.59087,0,0.000885,0,0
0:0:45.176,67.9777,8.65292,0,0.000885,0,0
0:0:45.573,68.6805,8.74255,0,0.000885,0,0
0:0:45.970,69.9127,8.90113,0,0.000885,0,0
0:0:46.367,70.2641,8.94939,0,0.000885,0,0
0:0:46.768,70.789,9.01145,0,0.000885,0,0
0:0:47.165,71.7898,9.14245,0,0.000885,0,0
0:0:47.563,72.6083,9.24587,0,0.000885,0,0
0:0:47.959,73.9561,9.41824,0,0.000885,0,0
0:0:48.358,74.1341,9.43892,0,0.000885,0,0
0:0:48.758,75.0726,9.55613,0,0.000885,0,0
0:0:49.164,76.069,9.68713,0,0.000885,0,0
0:0:49.568,76.5984,9.75608,0,0.000885,0,0
0:0:49.972,77.1855,9.82503,0,0.000885,0,0
0:0:50.374,77.9462,9.92156,0,0.000885,0,0
0:0:50.774,79.1783,10.0801,0,0.000885,0,0
0:0:51.170,80.1169,10.1973,0,0.000885,0,0
0:0:51.567,80.8776,10.3008,0,0.000885,0,0
0:0:51.967,81.4069,10.3628,0,0.000885,0,0
0:0:52.365,81.7005,10.4042,0,0.000885,0,0
0:0:52.762,83.3419,10.611,0,0.000885,0,0
0:0:53.159,84.3961,10.7489,0,0.000885,0,0
0:0:53.563,84.4584,10.7558,0,0.000885,0,0
0:0:53.969,85.219,10.8523,0,0.000885,0,0
0:0:54.371,86.2154,10.9765,0,0.000885,0,0
0:0:54.776,87.2118,11.1075,0,0.000885,0,0
0:0:55.173,87.9191,11.1971,0,0.000885,0,0
0:0:55.572,88.8577,11.3143,0,0.000885,0,0
0:0:55.972,89.4404,11.3901,0,0.000885,0,0
0:0:56.367,90.4412,11.5142,0,0.000885,0,0
0:0:56.762,90.379,11.5073,0,0.000885,0,0
0:0:57.160,91.669,11.6728,0,0.000885,0,0
0:0:57.561,92.2561,11.7487,0,0.000885,0,0
0:0:57.958,92.7855,11.8107,0,0.000885,0,0
0:0:58.355,93.8975,11.9555,0,0.000885,0,0
0:0:58.759,94.7783,12.0658,0,0.000885,0,0
0:0:59.165,95.7747,12.1968,0,0.000885,0,0
0:0:59.568,95.8369,12.2037,0,0.000885,0,0
0:0:59.971,96.949,12.3416,0,0.000885,0,0
0:1:0.367,98.0655,12.4864,0,0.000885,0,0
0:1:0.765,98.9418,12.5967,0,0.000885,0,0
0:1:1.165,99.1775,12.6243,0,0.000885,0,0
0:1:1.563,100.41,12.7829,0,0.000885,0,0
0:1:1.960,101.055,12.8656,0,0.000885,0,0
0:1:2.356,102.403,13.038,0,0.000885,0,0
0:1:2.757,102.874,13.1,0,0.000885,0,0
0:1:3.155,103.341,13.1552,0,0.000885,0,0
0:1:3.548,103.635,13.1966,0,0.000885,0,0
0:1:3.955,104.044,13.2448,0,0.000885,0,0
0:1:4.359,105.921,13.4861,0,0.000885,0,0
0:1:4.763,106.393,13.5482,0,0.000885,0,0
0:1:5.166,107.211,13.6516,0,0.000885,0,0
0:1:5.562,107.74,13.7206,0,0.000885,0,0
0:1:5.960,108.915,13.8654,0,0.000885,0,0
0:1:6.360,109.795,13.9826,0,0.000885,0,0
0:1:6.758,110.263,14.0377,0,0.000885,0,0
0:1:7.155,110.908,14.1205,0,0.000885,0,0
0:1:7.548,112.375,14.3066,0,0.000885,0,0
0:1:7.948,112.842,14.3687,0,0.000885,0,0
0:1:8.350,113.487,14.4514,0,0.000885,0,0
0:1:8.758,114.84,14.6238,0,0.000885,0,0
0:1:9.159,115.249,14.672,0,0.000885,0,0
0:1:9.562,115.365,14.6858,0,0.000885,0,0
0:1:9.962,116.89,14.8858,0,0.000885,0,0
0:1:10.362,117.357,14.9409,0,0.000885,0,0
0:1:10.761,117.887,15.0099,0,0.000885,0,0
0:1:11.157,119.003,15.1547,0,0.000885,0,0
0:1:11.554,119.59,15.2236,0,0.000885,0,0
0:1:11.951,121.405,15.458,0,0.000885,0,0
0:1:12.350,121.583,15.4787,0,0.000885,0,0
0:1:12.746,122.637,15.6166,0,0.000885,0,0
0:1:13.154,122.931,15.6511,0,0.000885,0,0
0:1:13.558,124.221,15.8166,0,0.000885,0,0
0:1:13.964,124.572,15.8579,0,0.000885,0,0
0:1:14.368,125.395,15.9683,0,0.000885,0,0
0:1:14.771,126.57,16.113,0,0.000885,0,0
0:1:15.169,127.095,16.182,0,0.000885,0,0
0:1:15.566,127.508,16.2372,0,0.000885,0,0
0:1:15.964,127.682,16.2578,0,0.000885,0,0
0:1:16.363,128.972,16.4233,0,0.000885,0,0
0:1:16.760,129.737,16.5198,0,0.000885,0,0
0:1:17.157,131.258,16.7129,0,0.000885,0,0
0:1:17.556,131.787,16.7818,0,0.000885,0,0
0:1:17.956,132.726,16.8991,0,0.000885,0,0
0:1:18.362,133.077,16.9473,0,0.000885,0,0
0:1:18.767,133.607,17.0094,0,0.000885,0,0
0:1:19.172,134.777,17.1611,0,0.000885,0,0
0:1:19.574,135.364,17.2369,0,0.000885,0,0
0:1:19.977,136.89,17.4299,0,0.000885,0,0
0:1:20.374,137.183,17.4644,0,0.000885,0,0
0:1:20.769,138.237,17.6023,0,0.000885,0,0
0:1:21.168,138.945,17.6919,0,0.000885,0,0
0:1:21.566,139.354,17.7402,0,0.000885,0,0
0:1:21.964,140.466,17.885,0,0.000885,0,0
0:1:22.361,140.995,17.9539,0,0.000885,0,0
0:1:22.756,141.467,18.0091,0,0.000885,0,0
0:1:23.156,142.579,18.1539,0,0.000885,0,0
0:1:23.557,143.108,18.2228,0,0.000885,0,0
0:1:23.963,143.869,18.3194,0,0.000885,0,0
0:1:24.368,145.159,18.4848,0,0.000885,0,0
0:1:24.768,145.63,18.54,0,0.000885,0,0
0:1:25.168,146.862,18.6986,0,0.000885,0,0
0:1:25.568,147.33,18.7606,0,0.000885,0,0
0:1:25.965,147.387,18.7675,0,0.000885,0,0
0:1:26.361,148.74,18.9399,0,0.000885,0,0
0:1:26.759,149.852,19.0778,0,0.000885,0,0
0:1:27.158,150.612,19.1743,0,0.000885,0,0
0:1:27.558,151.671,19.3122,0,0.000885,0,0
0:1:27.962,151.965,19.3467,0,0.000885,0,0
0:1:28.359,152.552,19.4225,0,0.000885,0,0
0:1:28.765,153.842,19.588,0,0.000885,0,0
0:1:29.170,154.429,19.6638,0,0.000885,0,0
0:1:29.574,155.305,19.7742,0,0.000885,0,0
0:1:29.978,155.892,19.85,0,0.000885,0,0
0:1:30.374,157.009,19.9879,0,0.000885,0,0
0:1:30.773,157.596,20.0637,0,0.000885,0,0
0:1:31.173,158.708,20.2085,0,0.000885,0,0
0:1:31.571,158.886,20.2292,0,0.000885,0,0
0:1:31.967,159.998,20.374,0,0.000885,0,0
0:1:32.364,161.288,20.5326,0,0.000885,0,0
0:1:32.764,160.763,20.4705,0,0.000885,0,0
0:1:33.163,161.875,20.6084,0,0.000885,0,0
0:1:33.560,163.107,20.767,0,0.000885,0,0
0:1:33.964,163.401,20.8015,0,0.000885,0,0
0:1:34.368,165.394,21.0566,0,0.000885,0,0
0:1:34.769,164.807,20.9807,0,0.000885,0,0
0:1:35.172,166.684,21.2221,0,0.000885,0,0
0:1:35.569,167.155,21.2841,0,0.000885,0,0
0:1:35.964,167.213,21.291,0,0.000885,0,0
0:1:36.362,168.854,21.4979,0,0.000885,0,0
0:1:36.762,168.912,21.5047,0,0.000885,0,0
0:1:37.160,169.971,21.6426,0,0.000885,0,0
0:1:37.553,170.847,21.753,0,0.000885,0,0
0:1:37.962,171.67,21.8564,0,0.000885,0,0
0:1:38.361,172.667,21.9874,0,0.000885,0,0
0:1:38.760,173.254,22.0563,0,0.000885,0,0
0:1:39.166,173.783,22.1253,0,0.000885,0,0
0:1:39.569,174.544,22.2218,0,0.000885,0,0
0:1:39.972,176.012,22.408,0,0.000885,0,0
0:1:40.374,176.95,22.5321,0,0.000885,0,0
0:1:40.772,178.298,22.7044,0,0.000885,0,0
0:1:41.169,178.182,22.6838,0,0.000885,0,0
0:1:41.564,178.827,22.7665,0,0.000885,0,0
0:1:41.963,178.885,22.7734,0,0.000885,0,0
0:1:42.365,179.646,22.8699,0,0.000885,0,0
0:1:42.761,180.878,23.0285,0,0.000885,0,0
0:1:43.166,181.701,23.1319,0,0.000885,0,0
0:1:43.570,182.519,23.2422,0,0.000885,0,0
0:1:43.976,182.813,23.2767,0,0.000885,0,0
0:1:44.378,184.281,23.4629,0,0.000885,0,0
0:1:44.780,184.517,23.4904,0,0.000885,0,0
0:1:45.177,186.038,23.6904,0,0.000885,0,0
0:1:45.577,186.567,23.7524,0,0.000885,0,0
0:1:45.976,187.448,23.8696,0,0.000885,0,0
0:1:46.373,189.267,24.0972,0,0.000885,0,0
0:1:46.769,189.734,24.1592,0,0.000885,0,0
0:1:47.166,189.792,24.1661,0,0.000885,0,0
0:1:47.567,190.789,24.2902,0,0.000885,0,0
0:1:47.965,191.963,24.4419,0,0.000885,0,0
0:1:48.360,192.021,24.4488,0,0.000885,0,0
0:1:48.764,192.372,24.4971,0,0.000885,0,0
0:1:49.169,193.662,24.6557,0,0.000885,0,0
0:1:49.570,194.779,24.8004,0,0.000885,0,0
0:1:49.968,195.424,24.8832,0,0.000885,0,0
0:1:50.362,196.184,24.9797,0,0.000885,0,0
0:1:50.768,196.892,25.0693,0,0.000885,0,0
0:1:51.164,197.83,25.1865,0,0.000885,0,0
0:1:51.560,198.413,25.2624,0,0.000885,0,0
0:1:51.962,199.351,25.3796,0,0.000885,0,0
0:1:52.366,199.765,25.4348,0,0.000885,0,0
0:1:52.762,200.704,25.552,0,0.000885,0,0
0:1:53.161,201.58,25.6692,0,0.000885,0,0
0:1:53.563,202.225,25.745,0,0.000885,0,0
0:1:53.966,203.164,25.8691,0,0.000885,0,0
0:1:54.367,203.871,25.9588,0,0.000885,0,0
0:1:54.767,204.574,26.0484,0,0.000885,0,0
0:1:55.166,205.686,26.1863,0,0.000885,0,0
0:1:55.560,205.806,26.207,0,0.000885,0,0
0:1:55.964,206.976,26.3518,0,0.000885,0,0
0:1:56.361,207.683,26.4414,0,0.000885,0,0
0:1:56.766,208.622,26.5655,0,0.000885,0,0
0:1:57.161,210.321,26.7792,0,0.000885,0,0
0:1:57.551,210.788,26.8413,0,0.000885,0,0
0:1:57.955,211.202,26.8896,0,0.000885,0,0
0:1:58.356,212.959,27.1171,0,0.000885,0,0
0:1:58.760,212.727,27.0826,0,0.000885,0,0
0:1:59.163,213.546,27.1929,0,0.000885,0,0
0:1:59.563,213.666,27.2067,0,0.000885,0,0
0:1:59.967,214.836,27.3515,0,0.000885,0,0
0:2:0.363,215.129,27.3929,0,0.000885,0,0
0:2:0.755,215.894,27.4894,0,0.000885,0,0
0:2:1.148,217.184,27.6549,0,0.000885,0,0
0:2:1.554,217.709,27.7169,0,0.000885,0,0
0:2:1.951,219.062,27.8893,0,0.000885,0,0
0:2:2.354,219.529,27.9513,0,0.000885,0,0
0:2:2.760,220.467,28.0686,0,0.000885,0,0
0:2:3.162,221.29,28.172,0,0.000885,0,0
0:2:3.562,221.815,28.2409,0,0.000885,0,0
0:2:3.967,222.989,28.3926,0,0.000885,0,0
0:2:4.367,223.105,28.4064,0,0.000885,0,0
0:2:4.766,224.395,28.5719,0,0.000885,0,0
0:2:5.163,225.04,28.6546,0,0.000885,0,0
0:2:5.561,226.156,28.7925,0,0.000885,0,0
0:2:5.965,226.508,28.8408,0,0.000885,0,0
0:2:6.355,227.446,28.958,0,0.000885,0,0
0:2:6.750,227.856,29.0131,0,0.000885,0,0
0:2:7.146,229.733,29.2476,0,0.000885,0,0
0:2:7.541,229.969,29.282,0,0.000885,0,0
0:2:7.944,230.965,29.4061,0,0.000885,0,0
0:2:8.338,231.374,29.4613,0,0.000885,0,0
0:2:8.739,232.019,29.544,0,0.000885,0,0
0:2:9.142,232.606,29.6199,0,0.000885,0,0
0:2:9.544,233.896,29.7785,0,0.000885,0,0
0:2:9.944,234.484,29.8543,0,0.000885,0,0
0:2:10.339,235.306,29.9577,0,0.000885,0,0
0:2:10.736,235.836,30.0267,0,0.000885,0,0
0:2:11.133,237.593,30.2542,0,0.000885,0,0
0:2:11.525,238.002,30.3025,0,0.000885,0,0
0:2:11.917,237.944,30.2956,0,0.000885,0,0
0:2:12.315,239.119,30.4472,0,0.000885,0,0
0:2:12.710,239.586,30.5024,0,0.000885,0,0
0:2:13.104,240.702,30.6472,0,0.000885,0,0
0:2:13.496,240.938,30.6748,0,0.000885,0,0
0:2:13.897,242.459,30.8678,0,0.000885,0,0
0:2:14.301,243.166,30.9575,0,0.000885,0,0
0:2:14.701,243.985,31.0678,0,0.000885,0,0
0:2:15.102,244.688,31.1574,0,0.000885,0,0
0:2:15.497,245.337,31.2401,0,0.000885,0,0
0:2:15.893,246.04,31.3298,0,0.000885,0,0
0:2:16.291,247.152,31.4677,0,0.000885,0,0
0:2:16.684,247.797,31.5504,0,0.000885,0,0
0:2:17.076,248.736,31.6676,0,0.000885,0,0
0:2:17.474,249.381,31.7504,0,0.000885,0,0
0:2:17.870,250.026,31.8331,0,0.000885,0,0
0:2:18.263,251.142,31.9779,0,0.000885,0,0
0:2:18.665,251.671,32.0468,0,0.000885,0,0
0:2:19.067,252.784,32.1847,0,0.000885,0,0
0:2:19.467,253.135,32.233,0,0.000885,0,0
0:2:19.867,254.367,32.3847,0,0.000885,0,0
0:2:20.261,254.719,32.4329,0,0.000885,0,0
0:2:20.664,255.773,32.5639,0,0.000885,0,0
0:2:21.061,256.302,32.6329,0,0.000885,0,0
0:2:21.466,256.831,32.7018,0,0.000885,0,0
0:2:21.858,257.476,32.7846,0,0.000885,0,0
0:2:22.250,258.237,32.8811,0,0.000885,0,0
0:2:22.648,259.647,33.0604,0,0.000885,0,0
0:2:23.044,260.172,33.1293,0,0.000885,0,0
0:2:23.439,261.462,33.2879,0,0.000885,0,0
0:2:23.842,261.934,33.3499,0,0.000885,0,0
0:2:24.242,262.343,33.4051,0,0.000885,0,0
0:2:24.644,263.339,33.5292,0,0.000885,0,0
0:2:25.045,263.984,33.6119,0,0.000885,0,0
0:2:25.448,265.568,33.8119,0,0.000885,0,0
0:2:25.850,265.452,33.7981,0,0.000885,0,0
0:2:26.255,266.858,33.9774,0,0.000885,0,0
0:2:26.651,266.92,33.9843,0,0.000885,0,0
0:2:27.055,267.738,34.0877,0,0.000885,0,0
0:2:27.447,268.504,34.1842,0,0.000885,0,0
0:2:27.843,269.967,34.3704,0,0.000885,0,0
0:2:28.241,270.439,34.4324,0,0.000885,0,0
0:2:28.645,271.319,34.5427,0,0.000885,0,0
0:2:29.048,272.547,34.7013,0,0.000885,0,0
0:2:29.447,272.783,34.7289,0,0.000885,0,0
0:2:29.849,273.486,34.8185,0,0.000885,0,0
0:2:30.250,274.544,34.9564,0,0.000885,0,0
0:2:30.654,275.247,35.0461,0,0.000885,0,0
0:2:31.047,275.776,35.115,0,0.000885,0,0
0:2:31.462,276.773,35.2391,0,0.000885,0,0
0:2:31.856,276.946,35.2598,0,0.000885,0,0
0:2:32.254,278.121,35.4115,0,0.000885,0,0
0:2:32.646,279.117,35.5356,0,0.000885,0,0
0:2:33.048,279.526,35.5907,0,0.000885,0,0
0:2:33.449,280.936,35.77,0,0.000885,0,0
0:2:33.854,281.23,35.8045,0,0.000885,0,0
0:2:34.254,282.756,36.0044,0,0.000885,0,0
0:2:34.655,283.165,36.0527,0,0.000885,0,0
0:2:35.049,283.868,36.1423,0,0.000885,0,0
0:2:35.447,284.984,36.2871,0,0.000885,0,0
0:2:35.852,285.336,36.3285,0,0.000885,0,0
0:2:36.255,285.687,36.3767,0,0.000885,0,0
0:2:36.657,286.799,36.5146,0,0.000885,0,0
0:2:37.052,287.973,36.6663,0,0.000885,0,0
0:2:37.450,288.031,36.6732,0,0.000885,0,0
0:2:37.844,289.09,36.8111,0,0.000885,0,0
0:2:38.246,290.26,36.9559,0,0.000885,0,0
0:2:38.647,290.905,37.0386,0,0.000885,0,0
0:2:39.050,291.728,37.1421,0,0.000885,0,0
0:2:39.451,292.608,37.2593,0,0.000885,0,0
0:2:39.852,293.311,37.3489,0,0.000885,0,0
0:2:40.246,294.25,37.4661,0,0.000885,0,0
0:2:40.652,295.131,37.5764,0,0.000885,0,0
0:2:41.049,295.188,37.5833,0,0.000885,0,0
0:2:41.453,295.833,37.6661,0,0.000885,0,0
0:2:41.855,297.239,37.8453,0,0.000885,0,0
0:2:42.249,297.653,37.9005,0,0.000885,0,0
0:2:42.646,298.765,38.0384,0,0.000885,0,0
0:2:43.043,299.352,38.1142,0,0.000885,0,0
0:2:43.435,300.233,38.2245,0,0.000885,0,0
0:2:43.836,301.171,38.3486,0,0.000885,0,0
0:2:44.239,301.758,38.4176,0,0.000885,0,0
0:2:44.640,302.341,38.4934,0,0.000885,0,0
0:2:45.041,303.693,38.6658,0,0.000885,0,0
0:2:45.435,303.987,38.7072,0,0.000885,0,0
0:2:45.830,305.041,38.8382,0,0.000885,0,0
0:2:46.225,305.686,38.9209,0,0.000885,0,0
0:2:46.621,306.683,39.045,0,0.000885,0,0
0:2:47.016,307.27,39.1209,0,0.000885,0,0
0:2:47.408,307.857,39.1967,0,0.000885,0,0
0:2:47.804,308.853,39.3277,0,0.000885,0,0
0:2:48.202,309.383,39.3897,0,0.000885,0,0
0:2:48.605,309.85,39.4518,0,0.000885,0,0
0:2:49.005,310.966,39.5966,0,0.000885,0,0
0:2:49.405,311.669,39.6862,0,0.000885,0,0
0:2:49.802,312.198,39.7483,0,0.000885,0,0
0:2:50.201,313.31,39.8931,0,0.000885,0,0
0:2:50.596,314.543,40.0516,0,0.000885,0,0
0:2:50.988,315.481,40.1689,0,0.000885,0,0
0:2:51.381,316.068,40.2447,0,0.000885,0,0
0:2:51.777,316.42,40.2861,0,0.000885,0,0
0:2:52.176,317.71,40.4515,0,0.000885,0,0
0:2:52.570,318.591,40.5619,0,0.000885,0,0
0:2:52.971,318.413,40.5412,0,0.000885,0,0
0:2:53.372,319.703,40.7066,0,0.000885,0,0
0:2:53.777,320.526,40.8101,0,0.000885,0,0
0:2:54.176,321.113,40.8859,0,0.000885,0,0
0:2:54.577,322.225,41.0238,0,0.000885,0,0
0:2:54.970,322.638,41.079,0,0.000885,0,0
0:2:55.366,323.457,41.1824,0,0.000885,0,0
0:2:55.765,324.453,41.3134,0,0.000885,0,0
0:2:56.167,325.098,41.3961,0,0.000885,0,0
0:2:56.559,325.628,41.4582,0,0.000885,0,0
0:2:56.962,326.566,41.5823,0,0.000885,0,0
0:2:57.359,327.856,41.7409,0,0.000885,0,0
0:2:57.756,328.617,41.8443,0,0.000885,0,0
0:2:58.158,329.555,41.9615,0,0.000885,0,0
0:2:58.561,329.791,41.9891,0,0.000885,0,0
0:2:58.965,330.494,42.0787,0,0.000885,0,0
0:2:59.365,331.61,42.2235,0,0.000885,0,0
0:2:59.766,332.607,42.3476,0,0.000885,0,0
0:3:0.170,333.136,42.4165,0,0.000885,0,0
0:3:0.573,333.488,42.4579,0,0.000885,0,0
0:3:0.970,334.662,42.6096,0,0.000885,0,0
0:3:1.367,335.952,42.7751,0,0.000885,0,0
0:3:1.758,336.535,42.8509,0,0.000885,0,0
0:3:2.162,336.597,42.8578,0,0.000885,0,0
0:3:2.569,337.945,43.0302,0,0.000885,0,0
0:3:2.967,338.883,43.1474,0,0.000885,0,0
0:3:3.358,339.35,43.2094,0,0.000885,0,0
0:3:3.761,339.88,43.2715,0,0.000885,0,0
0:3:4.163,340.703,43.3818,0,0.000885,0,0
0:3:4.565,342.166,43.568,0,0.000885,0,0
0:3:4.962,342.638,43.6231,0,0.000885,0,0
0:3:5.356,343.225,43.699,0,0.000885,0,0
0:3:5.770,343.807,43.7748,0,0.000885,0,0
0:3:6.174,344.808,43.8989,0,0.000885,0,0
0:3:6.572,345.863,44.0368,0,0.000885,0,0
0:3:6.966,346.508,44.1196,0,0.000885,0,0
0:3:7.358,347.153,44.2023,0,0.000885,0,0
0:3:7.772,348.033,44.3126,0,0.000885,0,0
0:3:8.170,349.088,44.4505,0,0.000885,0,0
0:3:8.568,350.142,44.5815,0,0.000885,0,0
0:3:8.970,350.849,44.6711,0,0.000885,0,0
0:3:9.372,351.08,44.6987,0,0.000885,0,0
0:3:9.771,351.725,44.7814,0,0.000885,0,0
0:3:10.170,352.49,44.878,0,0.000885,0,0
0:3:10.567,353.602,45.0228,0,0.000885,0,0
0:3:10.969,354.132,45.0917,0,0.000885,0,0
0:3:11.360,355.128,45.2158,0,0.000885,0,0
0:3:11.769,355.658,45.2848,0,0.000885,0,0
0:3:12.163,356.712,45.4158,0,0.000885,0,0
0:3:12.558,357.708,45.5468,0,0.000885,0,0
0:3:12.959,358.18,45.6019,0,0.000885,0,0
0:3:13.362,359.234,45.7398,0,0.000885,0,0
0:3:13.764,359.528,45.7743,0,0.000885,0,0
0:3:14.166,360.524,45.9053,0,0.000885,0,0
0:3:14.564,360.817,45.9398,0,0.000885,0,0
0:3:14.957,361.64,46.0432,0,0.000885,0,0
0:3:15.353,363.455,46.2776,0,0.000885,0,0
0:3:15.751,363.691,46.3052,0,0.000885,0,0
0:3:16.164,364.63,46.4293,0,0.000885,0,0
0:3:16.568,364.981,46.4707,0,0.000885,0,0
0:3:16.973,365.92,46.5879,0,0.000885,0,0
0:3:17.369,366.449,46.6568,0,0.000885,0,0
0:3:17.776,366.916,46.7189,0,0.000885,0,0
0:3:18.170,368.678,46.9395,0,0.000885,0,0
0:3:18.571,369.438,47.036,0,0.000885,0,0
0:3:18.974,370.025,47.1119,0,0.000885,0,0
0:3:19.374,370.612,47.1877,0,0.000885,0,0
0:3:19.775,371.667,47.3256,0,0.000885,0,0
0:3:20.167,372.783,47.4635,0,0.000885,0,0
0:3:20.560,373.664,47.5738,0,0.000885,0,0
0:3:20.958,374.073,47.629,0,0.000885,0,0
0:3:21.353,374.834,47.7255,0,0.000885,0,0
0:3:21.746,375.363,47.7945,0,0.000885,0,0
0:3:22.158,375.599,47.822,0,0.000885,0,0
0:3:22.555,376.244,47.9048,0,0.000885,0,0
0:3:22.953,377.24,48.0289,0,0.000885,0,0
0:3:23.357,378.295,48.1668,0,0.000885,0,0
0:3:23.760,379.585,48.3322,0,0.000885,0,0
0:3:24.162,380.23,48.415,0,0.000885,0,0
0:3:24.563,381.346,48.5529,0,0.000885,0,0
0:3:24.962,382.285,48.677,0,0.000885,0,0
0:3:25.356,382.872,48.7459,0,0.000885,0,0
0:3:25.758,383.632,48.8425,0,0.000885,0,0
0:3:26.156,384.22,48.9183,0,0.000885,0,0
0:3:26.552,384.865,49.001,0,0.000885,0,0
0:3:26.964,385.51,49.0838,0,0.000885,0,0
0:3:27.357,386.155,49.1665,0,0.000885,0,0
0:3:27.763,387.387,49.3251,0,0.000885,0,0
0:3:28.160,387.796,49.3734,0,0.000885,0,0
0:3:28.555,388.735,49.4975,0,0.000885,0,0
0:3:28.957,389.206,49.5526,0,0.000885,0,0
0:3:29.357,389.909,49.6423,0,0.000885,0,0
0:3:29.759,391.377,49.8284,0,0.000885,0,0
0:3:30.158,391.902,49.8974,0,0.000885,0,0
0:3:30.553,392.898,50.0284,0,0.000885,0,0
0:3:30.955,393.134,50.0559,0,0.000885,0,0
0:3:31.359,394.25,50.2007,0,0.000885,0,0
0:3:31.756,395.482,50.3524,0,0.000885,0,0
0:3:32.159,395.772,50.3938,0,0.000885,0,0
0:3:32.551,396.479,50.4834,0,0.000885,0,0
0:3:32.965,398.12,50.6903,0,0.000885,0,0
0:3:33.369,398.707,50.7661,0,0.000885,0,0
0:3:33.772,399.232,50.835,0,0.000885,0,0
0:3:34.172,400.055,50.9385,0,0.000885,0,0
0:3:34.571,400.7,51.0212,0,0.000885,0,0
0:3:34.975,400.994,51.0557,0,0.000885,0,0
0:3:35.373,402.048,51.1936,0,0.000885,0,0
0:3:35.765,403.107,51.3246,0,0.000885,0,0
0:3:36.169,403.925,51.428,0,0.000885,0,0
0:3:36.560,404.69,51.5245,0,0.000885,0,0
0:3:36.958,404.984,51.5659,0,0.000885,0,0
0:3:37.354,406.154,51.7107,0,0.000885,0,0
0:3:37.756,406.625,51.7727,0,0.000885,0,0
0:3:38.158,407.386,51.8693,0,0.000885,0,0
0:3:38.560,408.089,51.9589,0,0.000885,0,0
0:3:38.963,409.027,52.0761,0,0.000885,0,0
0:3:39.364,409.147,52.0968,0,0.000885,0,0
0:3:39.763,410.789,52.3036,0,0.000885,0,0
0:3:40.166,411.256,52.3657,0,0.000885,0,0
0:3:40.563,412.608,52.5381,0,0.000885,0,0
0:3:40.971,413.311,52.6277,0,0.000885,0,0
0:3:41.364,414.365,52.7587,0,0.000885,0,0
0:3:41.765,415.13,52.8552,0,0.000885,0,0
0:3:42.161,415.891,52.9517,0,0.000885,0,0
0:3:42.556,416.478,53.0276,0,0.000885,0,0
0:3:42.960,417.417,53.1448,0,0.000885,0,0
0:3:43.355,418.119,53.2344,0,0.000885,0,0
0:3:43.757,418.587,53.2965,0,0.000885,0,0
0:3:44.160,419.587,53.4206,0,0.000885,0,0
0:3:44.558,420.29,53.5102,0,0.000885,0,0
0:3:44.956,420.584,53.5516,0,0.000885,0,0
0:3:45.350,421.638,53.6826,0,0.000885,0,0
0:3:45.746,422.399,53.7791,0,0.000885,0,0
0:3:46.141,423.048,53.8618,0,0.000885,0,0
0:3:46.537,423.924,53.9791,0,0.000885,0,0
0:3:46.928,424.569,54.0549,0,0.000885,0,0
0:3:47.323,425.686,54.1997,0,0.000885,0,0
0:3:47.720,426.567,54.31,0,0.000885,0,0
0:3:48.116,427.679,54.4548,0,0.000885,0,0
0:3:48.518,428.15,54.5168,0,0.000885,0,0
0:3:48.921,429.027,54.6272,0,0.000885,0,0
0:3:49.322,429.907,54.7375,0,0.000885,0,0
0:3:49.721,430.085,54.7582,0,0.000885,0,0
0:3:50.115,431.082,54.8892,0,0.000885,0,0
0:3:50.506,431.611,54.9512,0,0.000885,0,0
0:3:50.901,432.607,55.0822,0,0.000885,0,0
0:3:51.297,433.132,55.1512,0,0.000885,0,0
0:3:51.693,433.484,55.1925,0,0.000885,0,0
0:3:52.086,435.009,55.3856,0,0.000885,0,0
0:3:52.479,436.006,55.5166,0,0.000885,0,0
0:3:52.875,436.477,55.5717,0,0.000885,0,0
0:3:53.272,437.474,55.7027,0,0.000885,0,0
0:3:53.675,437.709,55.7303,0,0.000885,0,0
0:3:54.075,438.884,55.882,0,0.000885,0,0
0:3:54.475,439.818,55.9992,0,0.000885,0,0
0:3:54.874,440.525,56.0889,0,0.000885,0,0
0:3:55.267,441.522,56.213,0,0.000885,0,0
0:3:55.660,441.931,56.2681,0,0.000885,0,0
0:3:56.062,443.047,56.4129,0,0.000885,0,0
0:3:56.460,443.457,56.4612,0,0.000885,0,0
0:3:56.865,444.453,56.5922,0,0.000885,0,0
0:3:57.260,445.392,56.7094,0,0.000885,0,0
0:3:57.661,446.152,56.8059,0,0.000885,0,0
0:3:58.066,446.624,56.868,0,0.000885,0,0
0:3:58.465,447.504,56.9783,0,0.000885,0,0
0:3:58.867,448.385,57.0886,0,0.000885,0,0
0:3:59.269,448.968,57.1644,0,0.000885,0,0
0:3:59.668,449.555,57.2403,0,0.000885,0,0
0:4:0.066,450.672,57.3782,0,0.000885,0,0
0:4:0.464,451.841,57.5299,0,0.000885,0,0
0:4:0.865,451.841,57.5299,0,0.000885,0,0
0:4:1.258,453.194,57.7022,0,0.000885,0,0
0:4:1.664,453.897,57.7919,0,0.000885,0,0
0:4:2.060,454.715,57.8953,0,0.000885,0,0
0:4:2.464,455.422,57.9849,0,0.000885,0,0
0:4:2.880,456.183,58.0814,0,0.000885,0,0
0:4:3.272,456.828,58.1642,0,0.000885,0,0
0:4:3.674,457.766,58.2814,0,0.000885,0,0
0:4:4.077,458.532,58.3848,0,0.000885,0,0
0:4:4.479,459.114,58.4538,0,0.000885,0,0
0:4:4.878,460.231,58.5985,0,0.000885,0,0
0:4:5.272,460.76,58.6675,0,0.000885,0,0
0:4:5.668,461.521,58.764,0,0.000885,0,0
0:4:6.076,462.459,58.8812,0,0.000885,0,0
0:4:6.467,462.989,58.9502,0,0.000885,0,0
0:4:6.859,464.279,59.1156,0,0.000885,0,0
0:4:7.256,464.866,59.1915,0,0.000885,0,0
0:4:7.653,465.333,59.2466,0,0.000885,0,0
0:4:8.048,465.978,59.3294,0,0.000885,0,0
0:4:8.452,466.801,59.4328,0,0.000885,0,0
0:4:8.853,467.855,59.5707,0,0.000885,0,0
0:4:9.254,468.794,59.6879,0,0.000885,0,0
0:4:9.655,469.79,59.8189,0,0.000885,0,0
0:4:10.060,470.084,59.8534,0,0.000885,0,0
0:4:10.464,471.489,60.0327,0,0.000885,0,0
0:4:10.858,471.845,60.074,0,0.000885,0,0
0:4:11.256,472.664,60.1843,0,0.000885,0,0
0:4:11.663,473.193,60.2464,0,0.000885,0,0
0:4:12.065,474.367,60.3981,0,0.000885,0,0
0:4:12.459,475.07,60.4877,0,0.000885,0,0
0:4:12.856,475.889,60.5911,0,0.000885,0,0
0:4:13.254,476.36,60.6532,0,0.000885,0,0
0:4:13.658,477.241,60.7635,0,0.000885,0,0
0:4:14.060,478.059,60.8669,0,0.000885,0,0
0:4:14.460,478.998,60.991,0,0.000885,0,0
0:4:14.858,479.763,61.0875,0,0.000885,0,0
0:4:15.264,480.759,61.2117,0,0.000885,0,0
0:4:15.667,481.462,61.3013,0,0.000885,0,0
0:4:16.059,482.285,61.4047,0,0.000885,0,0
0:4:16.465,482.752,61.4668,0,0.000885,0,0
0:4:16.863,483.219,61.5288,0,0.000885,0,0
0:4:17.267,484.042,61.6322,0,0.000885,0,0
0:4:17.669,484.745,61.7219,0,0.000885,0,0
0:4:18.064,485.804,61.8529,0,0.000885,0,0
0:4:18.463,486.68,61.9632,0,0.000885,0,0
0:4:18.867,487.267,62.039,0,0.000885,0,0
0:4:19.267,488.441,62.1907,0,0.000885,0,0
0:4:19.667,489.144,62.2803,0,0.000885,0,0
0:4:20.073,490.083,62.3976,0,0.000885,0,0
0:4:20.480,490.612,62.4665,0,0.000885,0,0
0:4:20.877,491.373,62.563,0,0.000885,0,0
0:4:21.267,491.96,62.6389,0,0.000885,0,0
0:4:21.662,493.076,62.7837,0,0.000885,0,0
0:4:22.059,493.659,62.8526,0,0.000885,0,0
0:4:22.466,494.776,62.9974,0,0.000885,0,0
0:4:22.860,495.888,63.1353,0,0.000885,0,0
0:4:23.252,496.123,63.1698,0,0.000885,0,0
0:4:23.654,497.004,63.2801,0,0.000885,0,0
0:4:24.057,497.885,63.3904,0,0.000885,0,0
0:4:24.456,498.766,63.5076,0,0.000885,0,0
0:4:24.855,499.526,63.6041,0,0.000885,0,0
0:4:25.268,500.349,63.7076,0,0.000885,0,0
0:4:25.666,501.052,63.7972,0,0.000885,0,0
0:4:26.075,501.933,63.9075,0,0.000885,0,0
0:4:26.477,502.222,63.942,0,0.000885,0,0
0:4:26.867,503.281,64.0799,0,0.000885,0,0
0:4:27.276,503.69,64.135,0,0.000885,0,0
0:4:27.671,504.864,64.2798,0,0.000885,0,0
0:4:28.065,505.625,64.3763,0,0.000885,0,0
0:4:28.466,506.39,64.4729,0,0.000885,0,0
0:4:28.868,507.151,64.5694,0,0.000885,0,0
0:4:29.268,507.974,64.6797,0,0.000885,0,0
0:4:29.669,509.143,64.8245,0,0.000885,0,0
0:4:30.075,509.615,64.8866,0,0.000885,0,0
0:4:30.479,509.909,64.921,0,0.000885,0,0
0:4:30.871,511.141,65.0796,0,0.000885,0,0
0:4:31.270,511.786,65.1624,0,0.000885,0,0
0:4:31.676,512.489,65.252,0,0.000885,0,0
0:4:32.068,513.427,65.3692,0,0.000885,0,0
0:4:32.471,514.308,65.4864,0,0.000885,0,0
0:4:32.881,515.011,65.576,0,0.000885,0,0
0:4:33.277,515.656,65.6519,0,0.000885,0,0
0:4:33.678,516.768,65.7967,0,0.000885,0,0
0:4:34.080,517.475,65.8863,0,0.000885,0,0
0:4:34.480,517.591,65.9001,0,0.000885,0,0
0:4:34.880,518.996,66.0794,0,0.000885,0,0
0:4:35.276,519.583,66.1552,0,0.000885,0,0
0:4:35.668,520.349,66.2517,0,0.000885,0,0
0:4:36.071,521.345,66.3827,0,0.000885,0,0
0:4:36.480,522.226,66.493,0,0.000885,0,0
0:4:36.876,522.751,66.562,0,0.000885,0,0
0:4:37.278,523.809,66.693,0,0.000885,0,0
0:4:37.669,524.454,66.7757,0,0.000885,0,0
0:4:38.067,525.393,66.8929,0,0.000885,0,0
0:4:38.464,525.918,66.9619,0,0.000885,0,0
0:4:38.867,526.563,67.0446,0,0.000885,0,0
0:4:39.269,527.679,67.1894,0,0.000885,0,0
0:4:39.670,528.324,67.2653,0,0.000885,0,0
0:4:40.069,528.969,67.348,0,0.000885,0,0
0:4:40.476,530.259,67.5135,0,0.000885,0,0
0:4:40.870,531.198,67.6376,0,0.000885,0,0
0:4:41.262,531.958,67.7341,0,0.000885,0,0
0:4:41.667,532.43,67.7893,0,0.000885,0,0
0:4:42.064,533.191,67.8858,0,0.000885,0,0
0:4:42.468,533.604,67.9409,0,0.000885,0,0
0:4:42.871,534.894,68.1064,0,0.000885,0,0
0:4:43.276,535.77,68.2167,0,0.000885,0,0
0:4:43.679,536.415,68.2995,0,0.000885,0,0
0:4:44.080,537.238,68.4029,0,0.000885,0,0
0:4:44.481,538.119,68.5132,0,0.000885,0,0
0:4:44.870,538.822,68.6028,0,0.000885,0,0
0:4:45.279,539.231,68.658,0,0.000885,0,0
0:4:45.673,540.228,68.7821,0,0.000885,0,0
0:4:46.080,541.286,68.92,0,0.000885,0,0
0:4:46.472,541.989,69.0096,0,0.000885,0,0
0:4:46.876,542.518,69.0786,0,0.000885,0,0
0:4:47.271,543.515,69.2027,0,0.000885,0,0
0:4:47.679,544.275,69.2992,0,0.000885,0,0
0:4:48.082,545.041,69.3957,0,0.000885,0,0
0:4:48.484,545.628,69.4716,0,0.000885,0,0
0:4:48.886,546.331,69.5612,0,0.000885,0,0
0:4:49.286,547.207,69.6715,0,0.000885,0,0
0:4:49.688,548.559,69.8439,0,0.000885,0,0
0:4:50.080,548.968,69.899,0,0.000885,0,0
0:4:50.474,549.907,70.0163,0,0.000885,0,0
0:4:50.871,550.258,70.0645,0,0.000885,0,0
0:4:51.278,551.375,70.2024,0,0.000885,0,0
0:4:51.671,552.607,70.361,0,0.000885,0,0
0:4:52.073,553.425,70.4644,0,0.000885,0,0
0:4:52.470,553.603,70.4851,0,0.000885,0,0
0:4:52.867,554.248,70.5678,0,0.000885,0,0
0:4:53.271,555.418,70.7195,0,0.000885,0,0
0:4:53.673,555.832,70.7678,0,0.000885,0,0
0:4:54.074,556.828,70.8988,0,0.000885,0,0
0:4:54.477,557.647,71.0022,0,0.000885,0,0
0:4:54.878,558.528,71.1125,0,0.000885,0,0
0:4:55.280,558.941,71.1677,0,0.000885,0,0
0:4:55.673,559.818,71.278,0,0.000885,0,0
0:4:56.081,560.698,71.3883,0,0.000885,0,0
0:4:56.477,561.637,71.5124,0,0.000885,0,0
0:4:56.871,562.46,71.6158,0,0.000885,0,0
0:4:57.274,563.105,71.6986,0,0.000885,0,0
0:4:57.669,563.692,71.7744,0,0.000885,0,0
0:4:58.064,564.337,71.8503,0,0.000885,0,0
0:4:58.459,565.098,71.9537,0,0.000885,0,0
0:4:58.862,566.152,72.0847,0,0.000885,0,0
0:4:59.265,566.859,72.1743,0,0.000885,0,0
0:4:59.666,567.562,72.264,0,0.000885,0,0
0:5:0.066,568.968,72.4432,0,0.000885,0,0
0:5:0.481,569.613,72.526,0,0.000885,0,0
0:5:0.885,570.258,72.6087,0,0.000885,0,0
0:5:1.280,570.729,72.6707,0,0.000885,0,0
0:5:1.675,571.841,72.8086,0,0.000885,0,0
0:5:2.070,572.428,72.8845,0,0.000885,0,0
0:5:2.465,572.838,72.9327,0,0.000885,0,0
0:5:2.858,573.425,73.0086,0,0.000885,0,0
0:5:3.258,574.248,73.112,0,0.000885,0,0
0:5:3.661,575.244,73.243,0,0.000885,0,0
0:5:4.063,576.534,73.4085,0,0.000885,0,0
0:5:4.464,576.943,73.4567,0,0.000885,0,0
0:5:4.860,577.415,73.5188,0,0.000885,0,0
0:5:5.258,578.469,73.6498,0,0.000885,0,0
0:5:5.653,579.408,73.7739,0,0.000885,0,0
0:5:6.045,579.879,73.8291,0,0.000885,0,0
0:5:6.441,581.285,74.0083,0,0.000885,0,0
0:5:6.837,582.281,74.1393,0,0.000885,0,0
0:5:7.233,582.633,74.1807,0,0.000885,0,0
0:5:7.627,583.691,74.3186,0,0.000885,0,0
0:5:8.021,584.688,74.4427,0,0.000885,0,0
0:5:8.421,585.39,74.5323,0,0.000885,0,0
0:5:8.825,585.568,74.5599,0,0.000885,0,0
0:5:9.225,586.387,74.6633,0,0.000885,0,0
0:5:9.626,587.152,74.7599,0,0.000885,0,0
0:5:10.021,587.97,74.8633,0,0.000885,0,0
0:5:10.417,588.793,74.9667,0,0.000885,0,0
0:5:10.816,589.203,75.0219,0,0.000885,0,0
0:5:11.208,590.257,75.1529,0,0.000885,0,0
0:5:11.603,591.373,75.2976,0,0.000885,0,0
0:5:12.001,591.489,75.3114,0,0.000885,0,0
0:5:12.400,592.721,75.47,0,0.000885,0,0
0:5:12.797,594.016,75.6355,0,0.000885,0,0
0:5:13.191,594.309,75.67,0,0.000885,0,0
0:5:13.595,595.305,75.7941,0,0.000885,0,0
0:5:13.999,595.835,75.863,0,0.000885,0,0
0:5:14.403,596.889,76.0009,0,0.000885,0,0
0:5:14.804,597.361,76.0561,0,0.000885,0,0
0:5:15.200,598.241,76.1733,0,0.000885,0,0
0:5:15.597,598.828,76.2422,0,0.000885,0,0
0:5:15.997,599.416,76.3181,0,0.000885,0,0
0:5:16.394,600.532,76.4629,0,0.000885,0,0
0:5:16.788,600.826,76.4973,0,0.000885,0,0
0:5:17.184,602.058,76.6559,0,0.000885,0,0
0:5:17.584,602.761,76.7455,0,0.000885,0,0
0:5:17.982,603.641,76.8559,0,0.000885,0,0
0:5:18.386,604.931,77.0213,0,0.000885,0,0
0:5:18.791,605.403,77.0834,0,0.000885,0,0
0:5:19.192,605.87,77.1385,0,0.000885,0,0
0:5:19.595,606.693,77.2489,0,0.000885,0,0
0:5:19.993,607.632,77.3661,0,0.000885,0,0
0:5:20.389,608.161,77.435,0,0.000885,0,0
0:5:20.783,609.571,77.6143,0,0.000885,0,0
0:5:21.183,609.922,77.6557,0,0.000885,0,0
0:5:21.581,611.039,77.8004,0,0.000885,0,0
0:5:21.987,611.155,77.8142,0,0.000885,0,0
0:5:22.383,612.093,77.9314,0,0.000885,0,0
0:5:22.786,612.738,78.0142,0,0.000885,0,0
0:5:23.189,614.033,78.1797,0,0.000885,0,0
0:5:23.595,614.62,78.2555,0,0.000885,0,0
0:5:23.998,615.852,78.4141,0,0.000885,0,0
0:5:24.397,616.145,78.4485,0,0.000885,0,0
0:5:24.795,616.848,78.5382,0,0.000885,0,0
0:5:25.194,618.023,78.6899,0,0.000885,0,0
0:5:25.592,618.61,78.7657,0,0.000885,0,0
0:5:25.988,619.664,78.8967,0,0.000885,0,0
0:5:26.384,620.078,78.9519,0,0.000885,0,0
0:5:26.783,621.074,79.076,0,0.000885,0,0
0:5:27.181,621.719,79.1587,0,0.000885,0,0
0:5:27.575,622.484,79.2552,0,0.000885,0,0
0:5:27.970,623.245,79.3518,0,0.000885,0,0
0:5:28.374,623.716,79.4138,0,0.000885,0,0
0:5:28.783,624.775,79.5517,0,0.000885,0,0
0:5:29.186,626.123,79.7172,0,0.000885,0,0
0:5:29.587,626.301,79.7448,0,0.000885,0,0
0:5:29.984,627.706,79.924,0,0.000885,0,0
0:5:30.382,627.769,79.9309,0,0.000885,0,0
0:5:30.781,628.707,80.0481,0,0.000885,0,0
0:5:31.175,629.41,80.1378,0,0.000885,0,0
0:5:31.570,630.994,80.3377,0,0.000885,0,0
0:5:31.967,631.407,80.3929,0,0.000885,0,0
0:5:32.375,632.697,80.5583,0,0.000885,0,0
0:5:32.784,632.582,80.5446,0,0.000885,0,0
0:5:33.177,633.4,80.648,0,0.000885,0,0
0:5:33.584,634.343,80.7652,0,0.000885,0,0
0:5:33.988,634.868,80.8341,0,0.000885,0,0
0:5:34.389,635.749,80.9445,0,0.000885,0,0
0:5:34.791,636.572,81.0479,0,0.000885,0,0
0:5:35.187,637.274,81.1375,0,0.000885,0,0
0:5:35.582,638.213,81.2616,0,0.000885,0,0
0:5:35.983,638.627,81.3099,0,0.000885,0,0
0:5:36.381,639.743,81.4547,0,0.000885,0,0
0:5:36.774,640.504,81.5512,0,0.000885,0,0
0:5:37.170,641.5,81.6753,0,0.000885,0,0
0:5:37.587,642.087,81.7511,0,0.000885,0,0
0:5:37.985,643.262,81.9028,0,0.000885,0,0
0:5:38.385,643.44,81.9235,0,0.000885,0,0
0:5:38.789,644.672,82.0821,0,0.000885,0,0
0:5:39.193,645.437,82.1786,0,0.000885,0,0
0:5:39.596,646.255,82.282,0,0.000885,0,0
0:5:39.995,646.727,82.3441,0,0.000885,0,0
0:5:40.394,648.195,82.5302,0,0.000885,0,0
0:5:40.790,648.546,82.5785,0,0.000885,0,0
0:5:41.183,649.133,82.6475,0,0.000885,0,0
0:5:41.583,649.778,82.7302,0,0.000885,0,0
0:5:41.991,650.837,82.8681,0,0.000885,0,0
0:5:42.387,651.656,82.9715,0,0.000885,0,0
0:5:42.782,652.069,83.0267,0,0.000885,0,0
0:5:43.186,653.008,83.1439,0,0.000885,0,0
0:5:43.590,654.591,83.3438,0,0.000885,0,0
0:5:43.992,654.418,83.3231,0,0.000885,0,0
0:5:44.394,655.53,83.4679,0,0.000885,0,0
0:5:44.792,655.944,83.5162,0,0.000885,0,0
0:5:45.188,657.349,83.6955,0,0.000885,0,0
0:5:45.586,657.585,83.723,0,0.000885,0,0
0:5:45.986,658.288,83.8127,0,0.000885,0,0
0:5:46.379,659.582,83.9781,0,0.000885,0,0
0:5:46.774,660.757,84.1298,0,0.000885,0,0
0:5:47.184,661.224,84.1919,0,0.000885,0,0
0:5:47.583,661.869,84.2746,0,0.000885,0,0
0:5:47.978,662.692,84.378,0,0.000885,0,0
0:5:48.385,663.515,84.4815,0,0.000885,0,0
0:5:48.788,664.395,84.5918,0,0.000885,0,0
0:5:49.190,664.805,84.6469,0,0.000885,0,0
0:5:49.593,665.276,84.7021,0,0.000885,0,0
0:5:49.990,666.624,84.8745,0,0.000885,0,0
0:5:50.384,667.211,84.9503,0,0.000885,0,0
0:5:50.791,668.092,85.0675,0,0.000885,0,0
0:5:51.192,668.857,85.164,0,0.000885,0,0
0:5:51.588,669.738,85.2744,0,0.000885,0,0
0:5:51.984,670.498,85.3709,0,0.000885,0,0
0:5:52.377,671.379,85.4812,0,0.000885,0,0
0:5:52.787,672.202,85.5846,0,0.000885,0,0
0:5:53.185,673.083,85.7018,0,0.000885,0,0
0:5:53.591,673.434,85.7432,0,0.000885,0,0
0:5:53.995,674.137,85.8328,0,0.000885,0,0
0:5:54.397,675.725,86.0328,0,0.000885,0,0
0:5:54.798,675.725,86.0328,0,0.000885,0,0
0:5:55.195,676.721,86.1638,0,0.000885,0,0
0:5:55.592,677.486,86.2603,0,0.000885,0,0
0:5:55.986,678.074,86.3362,0,0.000885,0,0
0:5:56.386,679.012,86.4534,0,0.000885,0,0
0:5:56.784,680.066,86.5913,0,0.000885,0,0
0:5:57.176,680.596,86.6533,0,0.000885,0,0
0:5:57.572,681.361,86.7567,0,0.000885,0,0
0:5:57.971,682.357,86.8808,0,0.000885,0,0
0:5:58.369,683.002,86.9636,0,0.000885,0,0
0:5:58.775,683.825,87.067,0,0.000885,0,0
0:5:59.177,684.942,87.2118,0,0.000885,0,0
0:5:59.579,685.818,87.3221,0,0.000885,0,0
0:5:59.980,686.054,87.3497,0,0.000885,0,0
0:6:0.377,686.877,87.4531,0,0.000885,0,0
0:6:0.774,687.815,87.5772,0,0.000885,0,0
0:6:1.168,687.993,87.5979,0,0.000885,0,0
0:6:1.568,688.58,87.6737,0,0.000885,0,0
0:6:1.968,689.986,87.853,0,0.000885,0,0
0:6:2.362,690.987,87.9771,0,0.000885,0,0
0:6:2.758,691.925,88.1012,0,0.000885,0,0
0:6:3.161,692.686,88.1977,0,0.000885,0,0
0:6:3.568,693.451,88.2943,0,0.000885,0,0
0:6:3.970,693.629,88.3149,0,0.000885,0,0
0:6:4.373,694.447,88.4184,0,0.000885,0,0
0:6:4.768,695.328,88.5287,0,0.000885,0,0
0:6:5.167,696.503,88.6804,0,0.000885,0,0
0:6:5.574,697.268,88.7769,0,0.000885,0,0
0:6:5.972,697.913,88.8596,0,0.000885,0,0
0:6:6.367,698.909,88.9906,0,0.000885,0,0
0:6:6.762,699.616,89.0803,0,0.000885,0,0
0:6:7.163,699.91,89.1147,0,0.000885,0,0
0:6:7.568,700.786,89.2251,0,0.000885,0,0
0:6:7.985,701.961,89.3767,0,0.000885,0,0
0:6:8.390,702.841,89.4871,0,0.000885,0,0
0:6:8.794,703.491,89.5698,0,0.000885,0,0
0:6:9.197,704.367,89.6801,0,0.000885,0,0
0:6:9.600,704.954,89.756,0,0.000885,0,0
0:6:9.995,705.955,89.887,0,0.000885,0,0
0:6:10.391,706.716,89.9835,0,0.000885,0,0
0:6:10.792,707.539,90.0869,0,0.000885,0,0
0:6:11.188,708.126,90.1627,0,0.000885,0,0
0:6:11.582,709.184,90.2937,0,0.000885,0,0
0:6:11.975,709.594,90.3489,0,0.000885,0,0
0:6:12.373,710.239,90.4316,0,0.000885,0,0
0:6:12.772,711.355,90.5695,0,0.000885,0,0
0:6:13.187,712.294,90.6936,0,0.000885,0,0
0:6:13.592,712.881,90.7695,0,0.000885,0,0
0:6:13.996,713.468,90.8384,0,0.000885,0,0
0:6:14.399,714.113,90.9212,0,0.000885,0,0
0:6:14.800,714.878,91.0177,0,0.000885,0,0
0:6:15.196,716.168,91.1832,0,0.000885,0,0
0:6:15.592,716.635,91.2452,0,0.000885,0,0
0:6:15.989,717.81,91.3969,0,0.000885,0,0
0:6:16.387,718.69,91.5072,0,0.000885,0,0
0:6:16.783,719.513,91.6106,0,0.000885,0,0
0:6:17.177,719.865,91.6589,0,0.000885,0,0
0:6:17.574,720.572,91.7485,0,0.000885,0,0
0:6:17.973,721.39,91.852,0,0.000885,0,0
0:6:18.369,722.507,91.9899,0,0.000885,0,0
0:6:18.774,723.094,92.0657,0,0.000885,0,0
0:6:19.177,723.975,92.176,0,0.000885,0,0
0:6:19.579,724.442,92.2381,0,0.000885,0,0
0:6:19.983,725.265,92.3415,0,0.000885,0,0
0:6:20.378,726.266,92.4725,0,0.000885,0,0
0:6:20.774,727.204,92.5897,0,0.000885,0,0
0:6:21.170,728.316,92.7345,0,0.000885,0,0
0:6:21.577,728.672,92.7759,0,0.000885,0,0
0:6:21.975,729.081,92.831,0,0.000885,0,0
0:6:22.373,729.726,92.9137,0,0.000885,0,0
0:6:22.768,730.785,93.0447,0,0.000885,0,0
0:6:23.169,731.252,93.1068,0,0.000885,0,0
0:6:23.576,732.369,93.2447,0,0.000885,0,0
0:6:23.978,732.84,93.3068,0,0.000885,0,0
0:6:24.380,734.072,93.4653,0,0.000885,0,0
0:6:24.775,734.891,93.5688,0,0.000885,0,0
0:6:25.175,735.771,93.6791,0,0.000885,0,0
0:6:25.573,736.185,93.7342,0,0.000885,0,0
0:6:25.969,736.83,93.817,0,0.000885,0,0
0:6:26.366,738.178,93.9893,0,0.000885,0,0
0:6:26.760,739.121,94.1065,0,0.000885,0,0
0:6:27.159,739.472,94.1548,0,0.000885,0,0
0:6:27.558,740.291,94.2582,0,0.000885,0,0
0:6:27.954,741.056,94.3548,0,0.000885,0,0
0:6:28.357,741.585,94.4237,0,0.000885,0,0
0:6:28.760,742.288,94.5133,0,0.000885,0,0
0:6:29.164,742.933,94.5961,0,0.000885,0,0
0:6:29.567,743.52,94.665,0,0.000885,0,0
0:6:29.965,744.695,94.8167,0,0.000885,0,0
0:6:30.361,745.869,94.9684,0,0.000885,0,0
0:6:30.759,746.807,95.0856,0,0.000885,0,0
0:6:31.157,747.395,95.1614,0,0.000885,0,0
0:6:31.557,748.685,95.3269,0,0.000885,0,0
0:6:31.951,749.565,95.4372,0,0.000885,0,0
0:6:32.346,749.859,95.4786,0,0.000885,0,0
0:6:32.745,750.86,95.6027,0,0.000885,0,0
0:6:33.145,751.741,95.713,0,0.000885,0,0
0:6:33.549,752.501,95.8095,0,0.000885,0,0
0:6:33.952,753.146,95.8923,0,0.000885,0,0
0:6:34.355,753.56,95.9474,0,0.000885,0,0
0:6:34.756,754.441,96.0578,0,0.000885,0,0
0:6:35.155,755.028,96.1336,0,0.000885,0,0
0:6:35.551,755.966,96.2508,0,0.000885,0,0
0:6:35.946,756.905,96.3749,0,0.000885,0,0
0:6:36.343,757.728,96.4783,0,0.000885,0,0
0:6:36.743,758.253,96.5473,0,0.000885,0,0
0:6:37.138,759.254,96.6714,0,0.000885,0,0
0:6:37.533,759.841,96.7472,0,0.000885,0,0
0:6:37.930,760.601,96.8438,0,0.000885,0,0
0:6:38.334,763.946,97.2712,0,0.000885,0,0
0:6:38.741,764.534,97.3471,0,0.000885,0,0
0:6:39.142,764.476,97.3333,0,0.000885,0,0
0:6:39.545,764.24,97.3057,0,0.000885,0,0
0:6:39.941,764.476,97.3333,0,0.000885,0,0
0:6:40.340,764.947,97.3953,0,0.000885,0,0
0:6:40.737,765.65,97.485,0,0.000885,0,0
0:6:41.135,766.237,97.5608,0,0.000885,0,0
0:6:41.529,766.767,97.6298,0,0.000885,0,0
0:6:41.928,768.177,97.809,0,0.000885,0,0
0:6:42.326,769.467,97.9745,0,0.000885,0,0
0:6:42.725,769.818,98.0159,0,0.000885,0,0
0:6:43.120,770.699,98.1262,0,0.000885,0,0
0:6:43.526,771.873,98.2779,0,0.000885,0,0
0:6:43.929,772.518,98.3606,0,0.000885,0,0
0:6:44.330,772.87,98.402,0,0.000885,0,0
0:6:44.736,774.338,98.595,0,0.000885,0,0
0:6:45.130,774.983,98.6709,0,0.000885,0,0
0:6:45.527,775.396,98.726,0,0.000885,0,0
0:6:45.925,776.215,98.8295,0,0.000885,0,0
0:6:46.325,777.038,98.9329,0,0.000885,0,0
0:6:46.722,777.918,99.0501,0,0.000885,0,0
0:6:47.116,778.741,99.1535,0,0.000885,0,0
0:6:47.515,779.328,99.2293,0,0.000885,0,0
0:6:47.912,780.089,99.3259,0,0.000885,0,0
0:6:48.311,781.441,99.4982,0,0.000885,0,0
0:6:48.716,781.793,99.5396,0,0.000885,0,0
0:6:49.119,782.558,99.6361,0,0.000885,0,0
0:6:49.522,783.376,99.7396,0,0.000885,0,0
0:6:49.925,784.257,99.8568,0,0.000885,0,0
0:6:50.321,785.022,99.9533,0,0.000885,0,0
0:6:50.718,785.961,100.071,0,0.000885,0,0
0:6:51.113,786.49,100.139,0,0.000885,0,0
0:6:51.514,786.841,100.181,0,0.000885,0,0
0:6:51.912,787.958,100.326,0,0.000885,0,0
0:6:52.307,788.954,100.45,0,0.000885,0,0
0:6:52.702,789.599,100.532,0,0.000885,0,0
0:6:53.106,790.48,100.65,0,0.000885,0,0
0:6:53.512,790.952,100.705,0,0.000885,0,0
0:6:53.915,791.597,100.788,0,0.000885,0,0
0:6:54.317,792.42,100.891,0,0.000885,0,0
0:6:54.714,793.416,101.022,0,0.000885,0,0
0:6:55.114,794.764,101.194,0,0.000885,0,0
0:6:55.510,795.587,101.298,0,0.000885,0,0
0:6:55.907,796.352,101.394,0,0.000885,0,0
0:6:56.302,797.17,101.498,0,0.000885,0,0
0:6:56.701,797.935,101.594,0,0.000885,0,0
0:6:57.099,798.465,101.663,0,0.000885,0,0
0:6:57.493,799.288,101.767,0,0.000885,0,0
0:6:57.890,799.87,101.842,0,0.000885,0,0
0:6:58.294,800.693,101.946,0,0.000885,0,0
0:6:58.699,801.107,102.001,0,0.000885,0,0
0:6:59.100,802.281,102.153,0,0.000885,0,0
0:6:59.504,802.806,102.215,0,0.000885,0,0
0:6:59.898,803.393,102.291,0,0.000885,0,0
0:7:0.298,804.158,102.387,0,0.000885,0,0
0:7:0.697,805.506,102.56,0,0.000885,0,0
0:7:1.094,806.329,102.663,0,0.000885,0,0
0:7:1.498,807.032,102.753,0,0.000885,0,0
0:7:1.895,807.681,102.835,0,0.000885,0,0
0:7:2.294,808.384,102.925,0,0.000885,0,0
0:7:2.692,809.145,103.021,0,0.000885,0,0
0:7:3.083,809.732,103.097,0,0.000885,0,0
0:7:3.487,810.906,103.249,0,0.000885,0,0
0:7:3.893,811.556,103.332,0,0.000885,0,0
0:7:4.297,812.316,103.428,0,0.000885,0,0
0:7:4.699,813.842,103.621,0,0.000885,0,0
0:7:5.094,814.781,103.739,0,0.000885,0,0
0:7:5.491,815.017,103.773,0,0.000885,0,0
0:7:5.887,815.897,103.883,0,0.000885,0,0
0:7:6.285,816.249,103.925,0,0.000885,0,0
0:7:6.681,816.956,104.021,0,0.000885,0,0
0:7:7.085,817.774,104.125,0,0.000885,0,0
0:7:7.485,819.007,104.276,0,0.000885,0,0
0:7:7.895,819.714,104.366,0,0.000885,0,0
0:7:8.299,819.714,104.366,0,0.000885,0,0
0:7:8.703,821.182,104.559,0,0.000885,0,0
0:7:9.105,822,104.662,0,0.000885,0,0
0:7:9.505,822.472,104.718,0,0.000885,0,0
0:7:9.904,823.352,104.835,0,0.000885,0,0
0:7:10.298,824.291,104.952,0,0.000885,0,0
0:7:10.694,825.056,105.049,0,0.000885,0,0
0:7:11.092,825.581,105.117,0,0.000885,0,0
0:7:11.500,826.813,105.276,0,0.000885,0,0
0:7:11.897,827.107,105.311,0,0.000885,0,0
0:7:12.292,828.05,105.428,0,0.000885,0,0
0:7:12.688,829.34,105.593,0,0.000885,0,0
0:7:13.088,829.749,105.648,0,0.000885,0,0
0:7:13.496,830.456,105.738,0,0.000885,0,0
0:7:13.899,830.981,105.807,0,0.000885,0,0
0:7:14.300,832.218,105.959,0,0.000885,0,0
0:7:14.698,832.685,106.021,0,0.000885,0,0
0:7:15.096,833.801,106.165,0,0.000885,0,0
0:7:15.492,834.446,106.248,0,0.000885,0,0
0:7:15.884,834.918,106.303,0,0.000885,0,0
0:7:16.284,836.266,106.476,0,0.000885,0,0
0:7:16.682,836.675,106.531,0,0.000885,0,0
0:7:17.079,837.676,106.655,0,0.000885,0,0
0:7:17.483,838.556,106.765,0,0.000885,0,0
0:7:17.880,838.908,106.814,0,0.000885,0,0
0:7:18.281,839.669,106.91,0,0.000885,0,0
0:7:18.687,840.843,107.062,0,0.000885,0,0
0:7:19.093,841.372,107.124,0,0.000885,0,0
0:7:19.496,842.489,107.269,0,0.000885,0,0
0:7:19.893,843.134,107.351,0,0.000885,0,0
0:7:20.294,843.485,107.393,0,0.000885,0,0
0:7:20.688,844.192,107.482,0,0.000885,0,0
0:7:21.083,845.656,107.675,0,0.000885,0,0
0:7:21.479,845.834,107.696,0,0.000885,0,0
0:7:21.878,847.244,107.875,0,0.000885,0,0
0:7:22.275,847.595,107.917,0,0.000885,0,0
0:7:22.682,849.005,108.096,0,0.000885,0,0
0:7:23.084,849.65,108.179,0,0.000885,0,0
0:7:23.486,850.06,108.234,0,0.000885,0,0
0:7:23.895,851.176,108.372,0,0.000885,0,0
0:7:24.297,851.763,108.448,0,0.000885,0,0
0:7:24.699,852.23,108.51,0,0.000885,0,0
0:7:25.095,853.583,108.682,0,0.000885,0,0
0:7:25.495,854.17,108.758,0,0.000885,0,0
0:7:25.893,855.344,108.903,0,0.000885,0,0
0:7:26.298,855.695,108.951,0,0.000885,0,0
0:7:26.693,856.576,109.061,0,0.000885,0,0
0:7:27.100,856.754,109.082,0,0.000885,0,0
0:7:27.499,857.63,109.199,0,0.000885,0,0
0:7:27.898,858.511,109.309,0,0.000885,0,0
0:7:28.302,859.218,109.399,0,0.000885,0,0
0:7:28.706,860.686,109.585,0,0.000885,0,0
0:7:29.108,861.389,109.675,0,0.000885,0,0
0:7:29.511,862.27,109.785,0,0.000885,0,0
0:7:29.906,862.448,109.813,0,0.000885,0,0
0:7:30.301,863.209,109.909,0,0.000885,0,0
0:7:30.699,864.325,110.047,0,0.000885,0,0
0:7:31.098,864.561,110.082,0,0.000885,0,0
0:7:31.497,865.909,110.254,0,0.000885,0,0
0:7:31.889,865.966,110.261,0,0.000885,0,0
0:7:32.295,867.141,110.406,0,0.000885,0,0
0:7:32.694,868.257,110.551,0,0.000885,0,0
0:7:33.090,869.08,110.654,0,0.000885,0,0
0:7:33.498,870.312,110.813,0,0.000885,0,0
0:7:33.901,870.664,110.854,0,0.000885,0,0
0:7:34.304,871.954,111.019,0,0.000885,0,0
0:7:34.706,871.838,111.006,0,0.000885,0,0
0:7:35.103,873.364,111.199,0,0.000885,0,0
0:7:35.498,873.6,111.233,0,0.000885,0,0
0:7:35.891,874.596,111.357,0,0.000885,0,0
0:7:36.290,875.005,111.412,0,0.000885,0,0
0:7:36.690,876.122,111.55,0,0.000885,0,0
0:7:37.084,876.473,111.599,0,0.000885,0,0
0:7:37.480,877.647,111.743,0,0.000885,0,0
0:7:37.878,877.883,111.778,0,0.000885,0,0
0:7:38.277,879.587,111.992,0,0.000885,0,0
0:7:38.682,879.996,112.047,0,0.000885,0,0
0:7:39.086,880.761,112.143,0,0.000885,0,0
0:7:39.487,881.348,112.219,0,0.000885,0,0
0:7:39.887,882.287,112.336,0,0.000885,0,0
0:7:40.284,882.99,112.426,0,0.000885,0,0
0:7:40.688,884.458,112.612,0,0.000885,0,0
0:7:41.084,884.751,112.653,0,0.000885,0,0
0:7:41.482,885.868,112.791,0,0.000885,0,0
0:7:41.882,886.041,112.812,0,0.000885,0,0
0:7:42.277,887.451,112.991,0,0.000885,0,0
0:7:42.673,888.096,113.074,0,0.000885,0,0
0:7:43.076,888.804,113.164,0,0.000885,0,0
0:7:43.482,889.8,113.295,0,0.000885,0,0
0:7:43.884,889.858,113.302,0,0.000885,0,0
0:7:44.286,891.148,113.467,0,0.000885,0,0
0:7:44.681,891.562,113.515,0,0.000885,0,0
0:7:45.081,892.442,113.632,0,0.000885,0,0
0:7:45.479,893.261,113.736,0,0.000885,0,0
0:7:45.883,894.141,113.846,0,0.000885,0,0
0:7:46.279,894.671,113.915,0,0.000885,0,0
0:7:46.697,895.729,114.046,0,0.000885,0,0
0:7:47.096,896.374,114.129,0,0.000885,0,0
0:7:47.504,897.197,114.232,0,0.000885,0,0
0:7:47.898,897.607,114.287,0,0.000885,0,0
0:7:48.302,899.017,114.467,0,0.000885,0,0
0:7:48.707,899.484,114.529,0,0.000885,0,0
0:7:49.108,900.6,114.667,0,0.000885,0,0
0:7:49.512,901.187,114.743,0,0.000885,0,0
0:7:49.907,902.126,114.86,0,0.000885,0,0
0:7:50.303,902.949,114.97,0,0.000885,0,0
0:7:50.702,903.945,115.094,0,0.000885,0,0
0:7:51.099,904.123,115.115,0,0.000885,0,0
0:7:51.496,905.12,115.246,0,0.000885,0,0
0:7:51.888,905.649,115.308,0,0.000885,0,0
0:7:52.287,906.178,115.377,0,0.000885,0,0
0:7:52.685,907.704,115.57,0,0.000885,0,0
0:7:53.093,908.643,115.694,0,0.000885,0,0
0:7:53.499,909.23,115.77,0,0.000885,0,0
0:7:53.903,910.284,115.901,0,0.000885,0,0
0:7:54.305,910.111,115.88,0,0.000885,0,0
0:7:54.709,911.872,116.101,0,0.000885,0,0
0:7:55.106,912.633,116.197,0,0.000885,0,0
0:7:55.499,912.753,116.218,0,0.000885,0,0
0:7:55.896,914.158,116.397,0,0.000885,0,0
0:7:56.303,914.158,116.397,0,0.000885,0,0
0:7:56.703,915.333,116.542,0,0.000885,0,0
0:7:57.098,915.453,116.556,0,0.000885,0,0
0:7:57.492,916.859,116.735,0,0.000885,0,0
0:7:57.890,918.091,116.894,0,0.000885,0,0
0:7:58.289,918.504,116.949,0,0.000885,0,0
0:7:58.697,919.149,117.032,0,0.000885,0,0
0:7:59.101,920.911,117.252,0,0.000885,0,0
0:7:59.503,920.911,117.252,0,0.000885,0,0
0:7:59.902,921.556,117.335,0,0.000885,0,0
0:8:0.299,921.792,117.369,0,0.000885,0,0
0:8:0.696,923.139,117.535,0,0.000885,0,0
0:8:1.087,923.024,117.521,0,0.000885,0,0
0:8:1.483,924.14,117.666,0,0.000885,0,0
0:8:1.883,925.021,117.776,0,0.000885,0,0
0:8:2.279,925.724,117.866,0,0.000885,0,0
0:8:2.409,926.311,117.942,0,0.000885,0,0