File: DataFile2021-06-07_043106.csv
Test ID:,Date Tested:,Time:,Test Type:,Diameter Avg. (mm):,Cyl. Corr. Factor:,Height (mm):,Age (days):,Weight (kN):,Break Type:,Ramp Rate (MPa/s):,Load at Break (kN):,Stress at Break (MPa):
12,6/7/2021,04:31,Cylinder,100,1,200,0,3.6,3,0.24,496.47,63.21
Sample Time,Load (kN),Stress (MPa),Long. Strain,Trans. Strain,Chan1 Deflection (mm),Chan2 Deflection (mm)
0:0:19.204,5.8672,0.744634,0,0.000885,0,0
0:0:19.498,12.6685,1.61337,0,0.000885,0,0
0:0:19.799,13.4915,1.71679,0,0.000885,0,0
0:0:20.094,13.0778,1.66853,0,0.000885,0,0
0:0:20.392,13.1979,1.68232,0,0.000885,0,0
0:0:20.690,13.0778,1.66853,0,0.000885,0,0
0:0:20.985,13.1979,1.68232,0,0.000885,0,0
0:0:21.287,12.4328,1.58579,0,0.000885,0,0
0:0:21.580,12.3171,1.56511,0,0.000885,0,0
0:0:21.879,12.3171,1.56511,0,0.000885,0,0
0:0:22.175,11.9657,1.52374,0,0.000885,0,0
0:0:22.473,12.2015,1.55132,0,0.000885,0,0
0:0:22.771,12.375,1.5789,0,0.000885,0,0
0:0:23.066,12.3171,1.56511,0,0.000885,0,0
0:0:23.367,12.7264,1.62027,0,0.000885,0,0
0:0:23.660,12.4328,1.58579,0,0.000885,0,0
0:0:23.960,12.9621,1.64785,0,0.000885,0,0
0:0:24.256,14.0163,1.78574,0,0.000885,0,0
0:0:24.558,14.3678,1.82711,0,0.000885,0,0
0:0:24.861,14.7192,1.87537,0,0.000885,0,0
0:0:25.165,15.3686,1.95811,0,0.000885,0,0
0:0:25.468,16.5963,2.11669,0,0.000885,0,0
0:0:25.770,17.8863,2.27527,0,0.000885,0,0
0:0:26.070,18.767,2.39248,0,0.000885,0,0
0:0:26.370,19.59,2.4959,0,0.000885,0,0
0:0:26.666,20.057,2.55106,0,0.000885,0,0
0:0:26.967,20.5285,2.61311,0,0.000885,0,0
0:0:27.261,21.9342,2.79238,0,0.000885,0,0
0:0:27.561,22.2856,2.84064,0,0.000885,0,0
0:0:27.859,23.1663,2.95096,0,0.000885,0,0
0:0:28.156,23.4021,2.97854,0,0.000885,0,0
0:0:28.456,23.7535,3.0268,0,0.000885,0,0
0:0:28.753,24.8077,3.1578,0,0.000885,0,0
0:0:29.054,25.1013,3.19917,0,0.000885,0,0
0:0:29.359,25.1013,3.19917,0,0.000885,0,0
0:0:29.661,25.6307,3.26122,0,0.000885,0,0
0:0:29.966,26.0977,3.32327,0,0.000885,0,0
0:0:30.268,26.805,3.4129,0,0.000885,0,0
0:0:30.571,27.0363,3.44048,0,0.000885,0,0
0:0:30.873,27.45,3.49564,0,0.000885,0,0
0:0:31.174,28.0371,3.57148,0,0.000885,0,0
0:0:31.473,29.207,3.71627,0,0.000885,0,0
0:0:31.771,29.5006,3.75764,0,0.000885,0,0
0:0:32.072,30.1456,3.84038,0,0.000885,0,0
0:0:32.365,30.9685,3.9438,0,0.000885,0,0
0:0:32.667,31.4934,4.01275,0,0.000885,0,0
0:0:32.963,32.0227,4.0748,0,0.000885,0,0
0:0:33.261,32.3163,4.11617,0,0.000885,0,0
0:0:33.561,32.9613,4.19891,0,0.000885,0,0
0:0:33.858,33.1971,4.22649,0,0.000885,0,0
0:0:34.161,33.722,4.29543,0,0.000885,0,0
0:0:34.454,34.5449,4.39886,0,0.000885,0,0
0:0:34.759,35.3055,4.49538,0,0.000885,0,0
0:0:35.061,35.777,4.55743,0,0.000885,0,0
0:0:35.366,36.7734,4.68154,0,0.000885,0,0
0:0:35.669,37.9478,4.83322,0,0.000885,0,0
0:0:35.971,39.002,4.96423,0,0.000885,0,0
0:0:36.274,39.7671,5.06075,0,0.000885,0,0
0:0:36.569,40.1763,5.11591,0,0.000885,0,0
0:0:36.869,41.2306,5.24691,0,0.000885,0,0
0:0:37.169,41.1149,5.23312,0,0.000885,0,0
0:0:37.463,41.5241,5.28828,0,0.000885,0,0
0:0:37.766,42.227,5.37791,0,0.000885,0,0
0:0:38.062,42.5784,5.41928,0,0.000885,0,0
0:0:38.363,43.6949,5.56407,0,0.000885,0,0
0:0:38.660,43.3435,5.51581,0,0.000885,0,0
0:0:38.955,44.3399,5.64681,0,0.000885,0,0
0:0:39.256,44.0463,5.60544,0,0.000885,0,0
0:0:39.559,44.7491,5.69507,0,0.000885,0,0
0:0:39.864,45.572,5.80539,0,0.000885,0,0
0:0:40.167,46.217,5.88123,0,0.000885,0,0
0:0:40.469,46.6263,5.93639,0,0.000885,0,0
0:0:40.771,47.5648,6.0536,0,0.000885,0,0
0:0:41.068,48.0363,6.11565,0,0.000885,0,0
0:0:41.369,48.4456,6.17081,0,0.000885,0,0
0:0:41.666,49.442,6.29491,0,0.000885,0,0
0:0:41.966,49.7356,6.32939,0,0.000885,0,0
0:0:42.263,50.1448,6.38455,0,0.000885,0,0
0:0:42.562,50.9677,6.48797,0,0.000885,0,0
0:0:42.862,51.6705,6.5776,0,0.000885,0,0
0:0:43.157,52.1999,6.64655,0,0.000885,0,0
0:0:43.460,52.7248,6.71549,0,0.000885,0,0
0:0:43.756,53.1385,6.76376,0,0.000885,0,0
0:0:44.056,54.2505,6.90855,0,0.000885,0,0
0:0:44.365,54.6642,6.95681,0,0.000885,0,0
0:0:44.668,55.4248,7.06023,0,0.000885,0,0
0:0:44.973,55.5405,7.07402,0,0.000885,0,0
0:0:45.276,56.657,7.21192,0,0.000885,0,0
0:0:45.578,57.1863,7.28086,0,0.000885,0,0
0:0:45.881,57.6534,7.34292,0,0.000885,0,0
0:0:46.179,58.0626,7.39118,0,0.000885,0,0
0:0:46.479,59.0012,7.51529,0,0.000885,0,0
0:0:46.776,59.4149,7.56355,0,0.000885,0,0
0:0:47.077,60.3535,7.68076,0,0.000885,0,0
0:0:47.374,60.4691,7.70144,0,0.000885,0,0
0:0:47.673,61.0563,7.77039,0,0.000885,0,0
0:0:47.973,62.1105,7.90829,0,0.000885,0,0
0:0:48.268,62.6977,7.98413,0,0.000885,0,0
0:0:48.570,62.7555,7.99102,0,0.000885,0,0
0:0:48.865,63.4005,8.07376,0,0.000885,0,0
0:0:49.165,63.9877,8.1496,0,0.000885,0,0
0:0:49.464,65.0419,8.2806,0,0.000885,0,0
0:0:49.767,65.162,8.29439,0,0.000885,0,0
0:0:50.071,65.7492,8.37024,0,0.000885,0,0
0:0:50.374,65.8648,8.38402,0,0.000885,0,0
0:0:50.677,66.8612,8.51503,0,0.000885,0,0
0:0:50.979,67.3906,8.57708,0,0.000885,0,0
0:0:51.279,67.7998,8.63224,0,0.000885,0,0
0:0:51.577,68.4448,8.71497,0,0.000885,0,0
0:0:51.875,69.5613,8.85976,0,0.000885,0,0
0:0:52.177,69.9127,8.90113,0,0.000885,0,0
0:0:52.472,70.3798,8.96318,0,0.000885,0,0
0:0:52.771,71.0826,9.05282,0,0.000885,0,0
0:0:53.069,71.4963,9.10108,0,0.000885,0,0
0:0:53.367,72.1413,9.18382,0,0.000885,0,0
0:0:53.667,73.0798,9.30792,0,0.000885,0,0
0:0:53.964,73.8983,9.41134,0,0.000885,0,0
0:0:54.265,74.0762,9.43203,0,0.000885,0,0
0:0:54.562,75.0148,9.54924,0,0.000885,0,0
0:0:54.864,75.602,9.62508,0,0.000885,0,0
0:0:55.170,76.1891,9.70092,0,0.000885,0,0
0:0:55.473,75.9534,9.67334,0,0.000885,0,0
0:0:55.775,76.3626,9.72161,0,0.000885,0,0
0:0:56.078,77.359,9.85261,0,0.000885,0,0
0:0:56.379,78.2398,9.96292,0,0.000885,0,0
0:0:56.675,78.2398,9.96292,0,0.000885,0,0
0:0:56.972,79.1205,10.0732,0,0.000885,0,0
0:0:57.273,79.5298,10.1284,0,0.000885,0,0
0:0:57.568,80.9398,10.3077,0,0.000885,0,0
0:0:57.870,81.4647,10.3697,0,0.000885,0,0
0:0:58.166,81.9941,10.4387,0,0.000885,0,0
0:0:58.464,82.3455,10.4869,0,0.000885,0,0
0:0:58.764,82.8748,10.549,0,0.000885,0,0
0:0:59.060,83.5776,10.6386,0,0.000885,0,0
0:0:59.362,84.0447,10.7007,0,0.000885,0,0
0:0:59.666,84.4584,10.7558,0,0.000885,0,0
0:0:59.970,85.1612,10.8455,0,0.000885,0,0
0:1:0.274,86.3355,10.9902,0,0.000885,0,0
0:1:0.575,86.7448,11.0454,0,0.000885,0,0
0:1:0.879,86.6869,11.0385,0,0.000885,0,0
0:1:1.174,87.3898,11.1281,0,0.000885,0,0
0:1:1.476,87.9769,11.204,0,0.000885,0,0
0:1:1.773,88.7376,11.3005,0,0.000885,0,0
0:1:2.072,89.734,11.4246,0,0.000885,0,0
0:1:2.370,89.9119,11.4453,0,0.000885,0,0
0:1:2.666,90.7304,11.5556,0,0.000885,0,0
0:1:2.969,91.2597,11.6177,0,0.000885,0,0
0:1:3.264,91.6111,11.6659,0,0.000885,0,0
0:1:3.566,92.0826,11.7211,0,0.000885,0,0
0:1:3.863,92.4919,11.7762,0,0.000885,0,0
0:1:4.160,93.1947,11.8659,0,0.000885,0,0
0:1:4.461,93.9598,11.9624,0,0.000885,0,0
0:1:4.764,94.6626,12.052,0,0.000885,0,0
0:1:5.069,95.4232,12.1486,0,0.000885,0,0
0:1:5.371,96.304,12.2589,0,0.000885,0,0
0:1:5.674,96.3618,12.2727,0,0.000885,0,0
0:1:5.976,97.0646,12.3623,0,0.000885,0,0
0:1:6.274,97.8297,12.4588,0,0.000885,0,0
0:1:6.574,98.0655,12.4864,0,0.000885,0,0
0:1:6.871,98.7683,12.576,0,0.000885,0,0
0:1:7.171,99.3555,12.6519,0,0.000885,0,0
0:1:7.469,99.9382,12.7277,0,0.000885,0,0
0:1:7.766,100.468,12.7898,0,0.000885,0,0
0:1:8.068,100.819,12.838,0,0.000885,0,0
0:1:8.364,101.878,12.969,0,0.000885,0,0
0:1:8.666,102.229,13.0173,0,0.000885,0,0
0:1:8.962,102.46,13.0449,0,0.000885,0,0
0:1:9.261,103.11,13.1276,0,0.000885,0,0
0:1:9.560,104.106,13.2517,0,0.000885,0,0
0:1:9.862,104.689,13.3276,0,0.000885,0,0
0:1:10.168,105.69,13.4586,0,0.000885,0,0
0:1:10.471,106.099,13.5068,0,0.000885,0,0
0:1:10.773,106.45,13.5551,0,0.000885,0,0
0:1:11.076,107.273,13.6585,0,0.000885,0,0
0:1:11.374,107.798,13.7275,0,0.000885,0,0
0:1:11.674,108.092,13.7619,0,0.000885,0,0
0:1:11.969,108.679,13.8378,0,0.000885,0,0
0:1:12.271,109.208,13.9067,0,0.000885,0,0
0:1:12.567,109.795,13.9826,0,0.000885,0,0
0:1:12.866,110.32,14.0446,0,0.000885,0,0
0:1:13.165,111.259,14.1687,0,0.000885,0,0
0:1:13.462,111.553,14.2032,0,0.000885,0,0
0:1:13.764,112.024,14.2653,0,0.000885,0,0
0:1:14.058,112.785,14.3618,0,0.000885,0,0
0:1:14.361,113.545,14.4583,0,0.000885,0,0
0:1:14.654,114.484,14.5755,0,0.000885,0,0
0:1:14.959,114.84,14.6238,0,0.000885,0,0
0:1:15.265,115.307,14.6789,0,0.000885,0,0
0:1:15.567,116.303,14.8099,0,0.000885,0,0
0:1:15.869,116.01,14.7686,0,0.000885,0,0
0:1:16.171,116.833,14.8789,0,0.000885,0,0
0:1:16.470,117.242,14.9271,0,0.000885,0,0
0:1:16.770,118.123,15.0375,0,0.000885,0,0
0:1:17.066,119.177,15.1754,0,0.000885,0,0
0:1:17.368,119.822,15.2581,0,0.000885,0,0
0:1:17.663,120.058,15.2857,0,0.000885,0,0
0:1:17.965,120.467,15.3408,0,0.000885,0,0
0:1:18.261,121.054,15.4098,0,0.000885,0,0
0:1:18.560,121.819,15.5132,0,0.000885,0,0
0:1:18.860,121.877,15.5201,0,0.000885,0,0
0:1:19.164,122.695,15.6235,0,0.000885,0,0
0:1:19.468,123.167,15.6787,0,0.000885,0,0
0:1:19.773,123.927,15.7821,0,0.000885,0,0
0:1:20.077,124.693,15.8786,0,0.000885,0,0
0:1:20.379,125.102,15.9269,0,0.000885,0,0
0:1:20.680,125.983,16.0372,0,0.000885,0,0
0:1:20.984,126.801,16.1475,0,0.000885,0,0
0:1:21.278,127.33,16.2096,0,0.000885,0,0
0:1:21.579,128.033,16.2992,0,0.000885,0,0
0:1:21.878,128.678,16.3819,0,0.000885,0,0
0:1:22.175,129.03,16.4302,0,0.000885,0,0
0:1:22.475,129.443,16.4785,0,0.000885,0,0
0:1:22.771,129.852,16.5336,0,0.000885,0,0
0:1:23.073,130.555,16.6233,0,0.000885,0,0
0:1:23.370,131.027,16.6853,0,0.000885,0,0
0:1:23.668,130.849,16.6577,0,0.000885,0,0
0:1:23.967,132.432,16.8646,0,0.000885,0,0
0:1:24.264,133.077,16.9473,0,0.000885,0,0
0:1:24.565,133.429,16.9887,0,0.000885,0,0
0:1:24.868,134.074,17.0714,0,0.000885,0,0
0:1:25.173,135.07,17.1955,0,0.000885,0,0
0:1:25.475,135.484,17.2507,0,0.000885,0,0
0:1:25.778,135.951,17.3127,0,0.000885,0,0
0:1:26.080,136.538,17.3817,0,0.000885,0,0
0:1:26.377,136.89,17.4299,0,0.000885,0,0
0:1:26.679,137.299,17.4851,0,0.000885,0,0
0:1:26.976,138.064,17.5816,0,0.000885,0,0
0:1:27.276,138.709,17.6575,0,0.000885,0,0
0:1:27.575,139.705,17.7885,0,0.000885,0,0
0:1:27.871,140.292,17.8643,0,0.000885,0,0
0:1:28.173,140.822,17.9264,0,0.000885,0,0
0:1:28.468,141.347,17.9953,0,0.000885,0,0
0:1:28.770,142.17,18.0987,0,0.000885,0,0
0:1:29.065,142.112,18.0918,0,0.000885,0,0
0:1:29.365,142.815,18.1815,0,0.000885,0,0
0:1:29.666,143.517,18.2711,0,0.000885,0,0
0:1:29.967,143.869,18.3194,0,0.000885,0,0
0:1:30.273,144.456,18.3952,0,0.000885,0,0
0:1:30.574,145.279,18.4986,0,0.000885,0,0
0:1:30.877,146.449,18.6434,0,0.000885,0,0
0:1:31.181,146.8,18.6917,0,0.000885,0,0
0:1:31.477,147.036,18.7193,0,0.000885,0,0
0:1:31.778,148.095,18.8572,0,0.000885,0,0
0:1:32.072,148.268,18.8778,0,0.000885,0,0
0:1:32.374,148.797,18.9468,0,0.000885,0,0
0:1:32.671,149.385,19.0226,0,0.000885,0,0
0:1:32.969,149.558,19.0433,0,0.000885,0,0
0:1:33.269,150.261,19.133,0,0.000885,0,0
0:1:33.565,151.844,19.3329,0,0.000885,0,0
0:1:33.867,151.965,19.3467,0,0.000885,0,0
0:1:34.161,152.138,19.3743,0,0.000885,0,0
0:1:34.465,153.134,19.4984,0,0.000885,0,0
0:1:34.769,153.606,19.5604,0,0.000885,0,0
0:1:35.073,154.429,19.6638,0,0.000885,0,0
0:1:35.375,154.896,19.719,0,0.000885,0,0
0:1:35.677,155.247,19.7673,0,0.000885,0,0
0:1:35.980,155.835,19.8431,0,0.000885,0,0
0:1:36.277,156.244,19.8914,0,0.000885,0,0
0:1:36.575,157.302,20.0293,0,0.000885,0,0
0:1:36.875,157.534,20.0568,0,0.000885,0,0
0:1:37.170,158.005,20.1189,0,0.000885,0,0
0:1:37.472,158.824,20.2223,0,0.000885,0,0
0:1:37.767,160.056,20.3809,0,0.000885,0,0
0:1:38.067,160.114,20.3878,0,0.000885,0,0
0:1:38.364,160.763,20.4705,0,0.000885,0,0
0:1:38.663,161.408,20.5533,0,0.000885,0,0
0:1:38.963,161.346,20.5464,0,0.000885,0,0
0:1:39.255,162.169,20.6498,0,0.000885,0,0
0:1:39.560,162.929,20.7463,0,0.000885,0,0
0:1:39.864,163.868,20.8635,0,0.000885,0,0
0:1:40.168,164.046,20.8842,0,0.000885,0,0
0:1:40.471,165.394,21.0566,0,0.000885,0,0
0:1:40.773,165.63,21.0911,0,0.000885,0,0
0:1:41.076,166.332,21.1807,0,0.000885,0,0
0:1:41.370,166.626,21.2152,0,0.000885,0,0
0:1:41.671,167.507,21.3255,0,0.000885,0,0
0:1:41.969,167.858,21.3737,0,0.000885,0,0
0:1:42.266,167.858,21.3737,0,0.000885,0,0
0:1:42.565,168.387,21.4427,0,0.000885,0,0
0:1:42.862,168.797,21.491,0,0.000885,0,0
0:1:43.164,169.793,21.622,0,0.000885,0,0
0:1:43.469,170.496,21.7116,0,0.000885,0,0
0:1:43.768,170.847,21.753,0,0.000885,0,0
0:1:44.067,171.492,21.8357,0,0.000885,0,0
0:1:44.364,172.551,21.9667,0,0.000885,0,0
0:1:44.666,173.018,22.0287,0,0.000885,0,0
0:1:44.972,173.783,22.1253,0,0.000885,0,0
0:1:45.275,174.25,22.1873,0,0.000885,0,0
0:1:45.579,175.482,22.3459,0,0.000885,0,0
0:1:45.879,175.949,22.4011,0,0.000885,0,0
0:1:46.181,175.66,22.3666,0,0.000885,0,0
0:1:46.477,176.599,22.4838,0,0.000885,0,0
0:1:46.778,177.302,22.5734,0,0.000885,0,0
0:1:47.075,178.182,22.6838,0,0.000885,0,0
0:1:47.373,178.356,22.7113,0,0.000885,0,0
0:1:47.673,179.179,22.8148,0,0.000885,0,0
0:1:47.968,179.646,22.8699,0,0.000885,0,0
0:1:48.270,179.588,22.863,0,0.000885,0,0
0:1:48.566,180.527,22.9871,0,0.000885,0,0
0:1:48.866,181.056,23.0492,0,0.000885,0,0
0:1:49.163,181.874,23.1595,0,0.000885,0,0
0:1:49.462,182.226,23.2009,0,0.000885,0,0
0:1:49.762,182.697,23.2629,0,0.000885,0,0
0:1:50.065,183.164,23.3181,0,0.000885,0,0
0:1:50.369,183.93,23.4215,0,0.000885,0,0
0:1:50.671,184.397,23.4766,0,0.000885,0,0
0:1:50.974,185.162,23.5732,0,0.000885,0,0
0:1:51.276,186.216,23.7111,0,0.000885,0,0
0:1:51.573,186.803,23.7869,0,0.000885,0,0
0:1:51.876,187.506,23.8765,0,0.000885,0,0
0:1:52.170,187.39,23.8559,0,0.000885,0,0
0:1:52.472,188.502,24.0007,0,0.000885,0,0
0:1:52.770,189.383,24.111,0,0.000885,0,0
0:1:53.066,189.619,24.1454,0,0.000885,0,0
0:1:53.366,190.437,24.2489,0,0.000885,0,0
0:1:53.661,190.437,24.2489,0,0.000885,0,0
0:1:53.963,190.909,24.304,0,0.000885,0,0
0:1:54.268,191.963,24.4419,0,0.000885,0,0
0:1:54.570,192.55,24.5178,0,0.000885,0,0
0:1:54.873,192.666,24.5315,0,0.000885,0,0
0:1:55.174,193.253,24.6074,0,0.000885,0,0
0:1:55.476,194.192,24.7246,0,0.000885,0,0
0:1:55.775,195.072,24.8349,0,0.000885,0,0
0:1:56.075,195.482,24.8901,0,0.000885,0,0
0:1:56.370,195.659,24.9108,0,0.000885,0,0
0:1:56.666,196.656,25.0418,0,0.000885,0,0
0:1:56.965,197.181,25.1038,0,0.000885,0,0
0:1:57.265,197.946,25.2003,0,0.000885,0,0
0:1:57.566,198.182,25.2348,0,0.000885,0,0
0:1:57.858,198.591,25.2831,0,0.000885,0,0
0:1:58.167,199.472,25.4003,0,0.000885,0,0
0:1:58.464,200.468,25.5244,0,0.000885,0,0
0:1:58.756,200.232,25.4968,0,0.000885,0,0
0:1:59.056,201.171,25.614,0,0.000885,0,0
0:1:59.369,201.7,25.683,0,0.000885,0,0
0:1:59.669,202.581,25.7933,0,0.000885,0,0
0:1:59.971,203.048,25.8553,0,0.000885,0,0
0:2:0.273,203.693,25.9381,0,0.000885,0,0
0:2:0.575,204.338,26.0139,0,0.000885,0,0
0:2:0.874,204.222,26.0001,0,0.000885,0,0
0:2:1.175,205.277,26.138,0,0.000885,0,0
0:2:1.468,205.922,26.2208,0,0.000885,0,0
0:2:1.765,206.802,26.3311,0,0.000885,0,0
0:2:2.063,206.918,26.3449,0,0.000885,0,0
0:2:2.355,208.034,26.4897,0,0.000885,0,0
0:2:2.654,208.501,26.5448,0,0.000885,0,0
0:2:2.946,209.031,26.6138,0,0.000885,0,0
0:2:3.246,208.795,26.5862,0,0.000885,0,0
0:2:3.549,209.734,26.7034,0,0.000885,0,0
0:2:3.855,210.436,26.793,0,0.000885,0,0
0:2:4.154,211.433,26.924,0,0.000885,0,0
0:2:4.467,211.904,26.9792,0,0.000885,0,0
0:2:4.769,212.843,27.1033,0,0.000885,0,0
0:2:5.072,213.372,27.1653,0,0.000885,0,0
0:2:5.372,214.133,27.2619,0,0.000885,0,0
0:2:5.674,214.662,27.3308,0,0.000885,0,0
0:2:5.973,214.72,27.3377,0,0.000885,0,0
0:2:6.272,215.129,27.3929,0,0.000885,0,0
0:2:6.565,216.304,27.5377,0,0.000885,0,0
0:2:6.865,216.126,27.517,0,0.000885,0,0
0:2:7.168,217.006,27.6273,0,0.000885,0,0
0:2:7.465,217.536,27.6962,0,0.000885,0,0
0:2:7.762,218.417,27.8066,0,0.000885,0,0
0:2:8.063,218.884,27.8686,0,0.000885,0,0
0:2:8.364,219.351,27.9307,0,0.000885,0,0
0:2:8.666,219.413,27.9376,0,0.000885,0,0
0:2:8.965,220.058,28.0203,0,0.000885,0,0
0:2:9.258,221.228,28.1651,0,0.000885,0,0
0:2:9.562,221.993,28.2616,0,0.000885,0,0
0:2:9.864,222.46,28.3237,0,0.000885,0,0
0:2:10.165,222.518,28.3306,0,0.000885,0,0
0:2:10.467,223.812,28.496,0,0.000885,0,0
0:2:10.767,224.515,28.5857,0,0.000885,0,0
0:2:11.062,225.04,28.6546,0,0.000885,0,0
0:2:11.370,225.627,28.7305,0,0.000885,0,0
0:2:11.664,226.744,28.8683,0,0.000885,0,0
0:2:11.964,227.095,28.9166,0,0.000885,0,0
0:2:12.256,227.269,28.9373,0,0.000885,0,0
0:2:12.552,228.091,29.0407,0,0.000885,0,0
0:2:12.859,228.501,29.0959,0,0.000885,0,0
0:2:13.164,228.621,29.1097,0,0.000885,0,0
0:2:13.464,229.617,29.2338,0,0.000885,0,0
0:2:13.756,229.911,29.2751,0,0.000885,0,0
0:2:14.053,230.792,29.3855,0,0.000885,0,0
0:2:14.369,231.085,29.4199,0,0.000885,0,0
0:2:14.671,231.788,29.5096,0,0.000885,0,0
0:2:14.972,232.019,29.544,0,0.000885,0,0
0:2:15.272,233.078,29.675,0,0.000885,0,0
0:2:15.572,233.371,29.7164,0,0.000885,0,0
0:2:15.873,233.959,29.7854,0,0.000885,0,0
0:2:16.170,234.835,29.9026,0,0.000885,0,0
0:2:16.467,235.658,30.006,0,0.000885,0,0
0:2:16.759,236.245,30.0818,0,0.000885,0,0
0:2:17.058,237.184,30.199,0,0.000885,0,0
0:2:17.353,237.184,30.199,0,0.000885,0,0
0:2:17.650,237.886,30.2887,0,0.000885,0,0
0:2:17.956,238.647,30.3852,0,0.000885,0,0
0:2:18.260,238.825,30.4059,0,0.000885,0,0
0:2:18.560,239.003,30.4335,0,0.000885,0,0
0:2:18.863,239.528,30.4955,0,0.000885,0,0
0:2:19.163,240.293,30.592,0,0.000885,0,0
0:2:19.467,240.996,30.6817,0,0.000885,0,0
0:2:19.769,241.756,30.7782,0,0.000885,0,0
0:2:20.071,242.521,30.8816,0,0.000885,0,0
0:2:20.372,243.398,30.9919,0,0.000885,0,0
0:2:20.671,243.224,30.9712,0,0.000885,0,0
0:2:20.973,244.043,31.0747,0,0.000885,0,0
0:2:21.269,244.981,31.1919,0,0.000885,0,0
0:2:21.566,245.511,31.2608,0,0.000885,0,0
0:2:21.868,246.449,31.378,0,0.000885,0,0
0:2:22.169,246.916,31.4401,0,0.000885,0,0
0:2:22.464,247.388,31.4953,0,0.000885,0,0
0:2:22.759,247.975,31.5711,0,0.000885,0,0
0:2:23.067,249.029,31.709,0,0.000885,0,0
0:2:23.360,249.323,31.7435,0,0.000885,0,0
0:2:23.659,249.381,31.7504,0,0.000885,0,0
0:2:23.951,249.616,31.7848,0,0.000885,0,0
0:2:24.250,250.497,31.8951,0,0.000885,0,0
0:2:24.546,251.2,31.9848,0,0.000885,0,0
0:2:24.849,251.316,31.9986,0,0.000885,0,0
0:2:25.152,252.081,32.0951,0,0.000885,0,0
0:2:25.453,253.429,32.2675,0,0.000885,0,0
0:2:25.754,253.958,32.3364,0,0.000885,0,0
0:2:26.054,254.603,32.4191,0,0.000885,0,0
0:2:26.369,255.19,32.495,0,0.000885,0,0
0:2:26.670,255.835,32.5708,0,0.000885,0,0
0:2:26.959,255.773,32.5639,0,0.000885,0,0
0:2:27.259,256.889,32.7087,0,0.000885,0,0
0:2:27.565,257.241,32.7501,0,0.000885,0,0
0:2:27.871,257.476,32.7846,0,0.000885,0,0
0:2:28.169,258.709,32.9363,0,0.000885,0,0
0:2:28.460,259.002,32.9776,0,0.000885,0,0
0:2:28.760,259.705,33.0673,0,0.000885,0,0
0:2:29.066,260.466,33.1638,0,0.000885,0,0
0:2:29.371,260.879,33.2189,0,0.000885,0,0
0:2:29.669,261.346,33.2741,0,0.000885,0,0
0:2:29.971,261.818,33.3362,0,0.000885,0,0
0:2:30.273,261.991,33.3568,0,0.000885,0,0
0:2:30.574,262.752,33.4534,0,0.000885,0,0
0:2:30.875,263.339,33.5292,0,0.000885,0,0
0:2:31.175,263.811,33.5913,0,0.000885,0,0
0:2:31.469,265.274,33.7774,0,0.000885,0,0
0:2:31.770,265.51,33.805,0,0.000885,0,0
0:2:32.071,266.155,33.8877,0,0.000885,0,0
0:2:32.370,266.333,33.9084,0,0.000885,0,0
0:2:32.665,267.565,34.067,0,0.000885,0,0
0:2:32.970,267.387,34.0463,0,0.000885,0,0
0:2:33.270,268.561,34.1911,0,0.000885,0,0
0:2:33.572,269.149,34.2669,0,0.000885,0,0
0:2:33.871,269.851,34.3566,0,0.000885,0,0
0:2:34.167,270.439,34.4324,0,0.000885,0,0
0:2:34.472,270.848,34.4876,0,0.000885,0,0
0:2:34.771,271.493,34.5703,0,0.000885,0,0
0:2:35.072,272.138,34.6531,0,0.000885,0,0
0:2:35.375,272.489,34.6944,0,0.000885,0,0
0:2:35.676,273.018,34.7634,0,0.000885,0,0
0:2:35.977,273.899,34.8737,0,0.000885,0,0
0:2:36.277,274.486,34.9495,0,0.000885,0,0
0:2:36.571,274.66,34.9702,0,0.000885,0,0
0:2:36.871,275.305,35.0529,0,0.000885,0,0
0:2:37.166,276.186,35.1633,0,0.000885,0,0
0:2:37.471,276.301,35.1771,0,0.000885,0,0
0:2:37.768,276.773,35.2391,0,0.000885,0,0
0:2:38.060,278.005,35.3977,0,0.000885,0,0
0:2:38.361,278.414,35.4459,0,0.000885,0,0
0:2:38.665,279.295,35.5632,0,0.000885,0,0
0:2:38.961,279.704,35.6114,0,0.000885,0,0
0:2:39.266,280.465,35.7079,0,0.000885,0,0
0:2:39.568,280.643,35.7355,0,0.000885,0,0
0:2:39.870,280.994,35.7769,0,0.000885,0,0
0:2:40.171,282.226,35.9355,0,0.000885,0,0
0:2:40.471,283.049,36.0389,0,0.000885,0,0
0:2:40.772,283.632,36.1147,0,0.000885,0,0
0:2:41.069,283.458,36.0941,0,0.000885,0,0
0:2:41.366,283.926,36.1492,0,0.000885,0,0
0:2:41.670,284.161,36.1837,0,0.000885,0,0
0:2:41.968,284.691,36.2457,0,0.000885,0,0
0:2:42.259,285.042,36.294,0,0.000885,0,0
0:2:42.569,285.923,36.4043,0,0.000885,0,0
0:2:42.868,287.155,36.5629,0,0.000885,0,0
0:2:43.169,287.564,36.6112,0,0.000885,0,0
0:2:43.470,287.858,36.6525,0,0.000885,0,0
0:2:43.762,288.618,36.7491,0,0.000885,0,0
0:2:44.059,290.086,36.9352,0,0.000885,0,0
0:2:44.367,290.847,37.0317,0,0.000885,0,0
0:2:44.668,290.847,37.0317,0,0.000885,0,0
0:2:44.970,291.67,37.1352,0,0.000885,0,0
0:2:45.272,292.195,37.2041,0,0.000885,0,0
0:2:45.572,292.608,37.2593,0,0.000885,0,0
0:2:45.872,293.018,37.3075,0,0.000885,0,0
0:2:46.167,293.369,37.3558,0,0.000885,0,0
0:2:46.466,294.486,37.4937,0,0.000885,0,0
0:2:46.757,294.779,37.5351,0,0.000885,0,0
0:2:47.057,295.011,37.5626,0,0.000885,0,0
0:2:47.351,295.718,37.6523,0,0.000885,0,0
0:2:47.649,295.655,37.6454,0,0.000885,0,0
0:2:47.955,297.239,37.8453,0,0.000885,0,0
0:2:48.259,297.59,37.8936,0,0.000885,0,0
0:2:48.558,298.12,37.9556,0,0.000885,0,0
0:2:48.852,299.236,38.1004,0,0.000885,0,0
0:2:49.160,299.761,38.1694,0,0.000885,0,0
0:2:49.466,300.7,38.2866,0,0.000885,0,0
0:2:49.767,301.051,38.328,0,0.000885,0,0
0:2:50.070,301.638,38.4038,0,0.000885,0,0
0:2:50.370,302.052,38.459,0,0.000885,0,0
0:2:50.671,302.697,38.5417,0,0.000885,0,0
0:2:50.971,303.222,38.6106,0,0.000885,0,0
0:2:51.269,303.516,38.6451,0,0.000885,0,0
0:2:51.566,304.218,38.7347,0,0.000885,0,0
0:2:51.869,305.571,38.9071,0,0.000885,0,0
0:2:52.170,305.393,38.8864,0,0.000885,0,0
0:2:52.472,305.628,38.914,0,0.000885,0,0
0:2:52.769,306.273,38.9967,0,0.000885,0,0
0:2:53.061,306.861,39.0726,0,0.000885,0,0
0:2:53.370,307.973,39.2105,0,0.000885,0,0
0:2:53.668,308.266,39.2519,0,0.000885,0,0
0:2:53.959,309.383,39.3897,0,0.000885,0,0
0:2:54.260,309.85,39.4518,0,0.000885,0,0
0:2:54.564,309.97,39.4656,0,0.000885,0,0
0:2:54.864,310.908,39.5828,0,0.000885,0,0
0:2:55.169,311.491,39.6586,0,0.000885,0,0
0:2:55.470,311.843,39.7069,0,0.000885,0,0
0:2:55.769,312.136,39.7414,0,0.000885,0,0
0:2:56.070,313.137,39.8724,0,0.000885,0,0
0:2:56.369,313.782,39.9551,0,0.000885,0,0
0:2:56.663,314.133,39.9965,0,0.000885,0,0
0:2:56.969,314.721,40.0723,0,0.000885,0,0
0:2:57.267,315.245,40.1413,0,0.000885,0,0
0:2:57.570,316.304,40.2723,0,0.000885,0,0
0:2:57.870,316.949,40.355,0,0.000885,0,0
0:2:58.172,317.416,40.4171,0,0.000885,0,0
0:2:58.470,317.888,40.4722,0,0.000885,0,0
0:2:58.768,318.706,40.5756,0,0.000885,0,0
0:2:59.059,319.178,40.6377,0,0.000885,0,0
0:2:59.358,319.529,40.686,0,0.000885,0,0
0:2:59.659,319.938,40.7342,0,0.000885,0,0
0:2:59.961,320.232,40.7756,0,0.000885,0,0
0:3:0.261,321.58,40.948,0,0.000885,0,0
0:3:0.561,321.931,40.9893,0,0.000885,0,0
0:3:0.862,322.518,41.0652,0,0.000885,0,0
0:3:1.168,323.515,41.1893,0,0.000885,0,0
0:3:1.467,324.222,41.2789,0,0.000885,0,0
0:3:1.758,323.986,41.2513,0,0.000885,0,0
0:3:2.056,324.805,41.3548,0,0.000885,0,0
0:3:2.352,325.628,41.4582,0,0.000885,0,0
0:3:2.659,326.037,41.5133,0,0.000885,0,0
0:3:2.958,326.157,41.5271,0,0.000885,0,0
0:3:3.260,327.447,41.6926,0,0.000885,0,0
0:3:3.561,327.798,41.734,0,0.000885,0,0
0:3:3.855,327.972,41.7615,0,0.000885,0,0
0:3:4.151,329.031,41.8925,0,0.000885,0,0
0:3:4.459,329.44,41.9477,0,0.000885,0,0
0:3:4.759,330.32,42.058,0,0.000885,0,0
0:3:5.061,331.023,42.1477,0,0.000885,0,0
0:3:5.361,331.081,42.1545,0,0.000885,0,0
0:3:5.663,332.371,42.32,0,0.000885,0,0
0:3:5.963,332.607,42.3476,0,0.000885,0,0
0:3:6.269,333.136,42.4165,0,0.000885,0,0
0:3:6.569,333.43,42.451,0,0.000885,0,0
0:3:6.859,333.723,42.4924,0,0.000885,0,0
0:3:7.160,334.426,42.582,0,0.000885,0,0
0:3:7.464,334.778,42.6234,0,0.000885,0,0
0:3:7.770,335.952,42.7751,0,0.000885,0,0
0:3:8.069,336.891,42.8923,0,0.000885,0,0
0:3:8.360,337.593,42.9819,0,0.000885,0,0
0:3:8.660,338.296,43.0715,0,0.000885,0,0
0:3:8.964,338.532,43.106,0,0.000885,0,0
0:3:9.273,338.705,43.1267,0,0.000885,0,0
0:3:9.569,339.88,43.2715,0,0.000885,0,0
0:3:9.871,339.938,43.2853,0,0.000885,0,0
0:3:10.172,340.934,43.4094,0,0.000885,0,0
0:3:10.472,341.521,43.4852,0,0.000885,0,0
0:3:10.773,341.93,43.5335,0,0.000885,0,0
0:3:11.071,342.46,43.6024,0,0.000885,0,0
0:3:11.369,343.225,43.699,0,0.000885,0,0
0:3:11.663,343.807,43.7748,0,0.000885,0,0
0:3:11.978,344.279,43.8369,0,0.000885,0,0
0:3:12.278,344.924,43.9196,0,0.000885,0,0
0:3:12.571,345.511,43.9886,0,0.000885,0,0
0:3:12.869,346.33,44.0989,0,0.000885,0,0
0:3:13.162,346.392,44.1058,0,0.000885,0,0
0:3:13.460,347.388,44.2299,0,0.000885,0,0
0:3:13.758,347.62,44.2574,0,0.000885,0,0
0:3:14.050,348.794,44.4091,0,0.000885,0,0
0:3:14.351,349.497,44.4988,0,0.000885,0,0
0:3:14.654,349.675,44.5194,0,0.000885,0,0
0:3:14.955,350.026,44.5677,0,0.000885,0,0
0:3:15.256,350.613,44.6436,0,0.000885,0,0
0:3:15.556,351.2,44.7194,0,0.000885,0,0
0:3:15.856,351.845,44.7952,0,0.000885,0,0
0:3:16.169,353.078,44.9538,0,0.000885,0,0
0:3:16.477,353.251,44.9745,0,0.000885,0,0
0:3:16.775,354.074,45.0848,0,0.000885,0,0
0:3:17.076,353.78,45.0434,0,0.000885,0,0
0:3:17.376,354.719,45.1676,0,0.000885,0,0
0:3:17.670,355.658,45.2848,0,0.000885,0,0
0:3:17.966,355.422,45.2503,0,0.000885,0,0
0:3:18.260,356.182,45.3537,0,0.000885,0,0
0:3:18.566,356.418,45.3813,0,0.000885,0,0
0:3:18.876,357.886,45.5675,0,0.000885,0,0
0:3:19.169,358.531,45.6502,0,0.000885,0,0
0:3:19.469,358.883,45.6916,0,0.000885,0,0
0:3:19.772,359.995,45.8363,0,0.000885,0,0
0:3:20.074,360.524,45.9053,0,0.000885,0,0
0:3:20.373,361.053,45.9673,0,0.000885,0,0
0:3:20.674,361.462,46.0225,0,0.000885,0,0
0:3:20.975,362.401,46.1397,0,0.000885,0,0
0:3:21.265,363.046,46.2225,0,0.000885,0,0
0:3:21.564,363.104,46.2293,0,0.000885,0,0
0:3:21.860,364.042,46.3535,0,0.000885,0,0
0:3:22.165,364.745,46.4431,0,0.000885,0,0
0:3:22.462,365.332,46.5189,0,0.000885,0,0
0:3:22.765,365.684,46.5603,0,0.000885,0,0
0:3:23.066,366.155,46.6223,0,0.000885,0,0
0:3:23.367,366.565,46.6706,0,0.000885,0,0
0:3:23.666,367.561,46.8016,0,0.000885,0,0
0:3:23.963,368.033,46.8568,0,0.000885,0,0
0:3:24.270,368.09,46.8637,0,0.000885,0,0
0:3:24.566,368.851,46.9671,0,0.000885,0,0
0:3:24.871,369.496,47.0429,0,0.000885,0,0
0:3:25.172,370.261,47.1464,0,0.000885,0,0
0:3:25.473,370.497,47.1739,0,0.000885,0,0
0:3:25.773,371.373,47.2842,0,0.000885,0,0
0:3:26.072,371.551,47.3049,0,0.000885,0,0
0:3:26.365,372.49,47.429,0,0.000885,0,0
0:3:26.664,373.25,47.5256,0,0.000885,0,0
0:3:26.978,373.722,47.5807,0,0.000885,0,0
0:3:27.278,374.834,47.7255,0,0.000885,0,0
0:3:27.573,375.07,47.7531,0,0.000885,0,0
0:3:27.877,375.599,47.822,0,0.000885,0,0
0:3:28.176,376.008,47.8772,0,0.000885,0,0
0:3:28.467,376.417,47.9255,0,0.000885,0,0
0:3:28.767,377.414,48.0565,0,0.000885,0,0
0:3:29.061,377.476,48.0634,0,0.000885,0,0
0:3:29.359,378.588,48.2012,0,0.000885,0,0
0:3:29.665,378.997,48.2564,0,0.000885,0,0
0:3:29.967,379.647,48.3391,0,0.000885,0,0
0:3:30.271,380.35,48.4288,0,0.000885,0,0
0:3:30.573,381.11,48.5253,0,0.000885,0,0
0:3:30.872,381.346,48.5529,0,0.000885,0,0
0:3:31.172,382.227,48.6632,0,0.000885,0,0
0:3:31.478,382.52,48.7046,0,0.000885,0,0
0:3:31.777,383.165,48.7873,0,0.000885,0,0
0:3:32.066,383.632,48.8425,0,0.000885,0,0
0:3:32.367,384.335,48.9321,0,0.000885,0,0
0:3:32.672,384.513,48.9597,0,0.000885,0,0
0:3:32.978,385.394,49.07,0,0.000885,0,0
0:3:33.275,386.155,49.1665,0,0.000885,0,0
0:3:33.579,386.742,49.2424,0,0.000885,0,0
0:3:33.879,387.387,49.3251,0,0.000885,0,0
0:3:34.171,387.974,49.4009,0,0.000885,0,0
0:3:34.471,388.147,49.4216,0,0.000885,0,0
0:3:34.775,389.086,49.5388,0,0.000885,0,0
0:3:35.076,389.731,49.6216,0,0.000885,0,0
0:3:35.377,390.496,49.7181,0,0.000885,0,0
0:3:35.676,390.612,49.7319,0,0.000885,0,0
0:3:35.978,391.608,49.8629,0,0.000885,0,0
0:3:36.271,391.959,49.9043,0,0.000885,0,0
0:3:36.566,392.547,49.9801,0,0.000885,0,0
0:3:36.864,392.667,49.9939,0,0.000885,0,0
0:3:37.179,393.427,50.0904,0,0.000885,0,0
0:3:37.478,394.66,50.249,0,0.000885,0,0
0:3:37.773,394.833,50.2697,0,0.000885,0,0
0:3:38.069,395.598,50.3662,0,0.000885,0,0
0:3:38.364,396.185,50.442,0,0.000885,0,0
0:3:38.660,396.946,50.5386,0,0.000885,0,0
0:3:38.969,397.769,50.642,0,0.000885,0,0
0:3:39.273,398.062,50.6834,0,0.000885,0,0
0:3:39.572,398.765,50.773,0,0.000885,0,0
0:3:39.875,398.765,50.773,0,0.000885,0,0
0:3:40.177,399.762,50.8971,0,0.000885,0,0
0:3:40.478,399.94,50.9247,0,0.000885,0,0
0:3:40.778,400.349,50.9729,0,0.000885,0,0
0:3:41.079,400.936,51.0488,0,0.000885,0,0
0:3:41.371,401.581,51.1315,0,0.000885,0,0
0:3:41.669,402.693,51.2694,0,0.000885,0,0
0:3:41.976,403.338,51.3522,0,0.000885,0,0
0:3:42.269,403.516,51.3797,0,0.000885,0,0
0:3:42.567,404.161,51.4625,0,0.000885,0,0
0:3:42.860,404.512,51.5038,0,0.000885,0,0
0:3:43.161,405.509,51.6279,0,0.000885,0,0
0:3:43.475,405.86,51.6762,0,0.000885,0,0
0:3:43.773,406.505,51.7589,0,0.000885,0,0
0:3:44.078,407.328,51.8624,0,0.000885,0,0
0:3:44.373,408.031,51.952,0,0.000885,0,0
0:3:44.673,408.209,51.9727,0,0.000885,0,0
0:3:44.976,408.56,52.0209,0,0.000885,0,0
0:3:45.277,409.205,52.1037,0,0.000885,0,0
0:3:45.577,409.379,52.1244,0,0.000885,0,0
0:3:45.878,410.669,52.2898,0,0.000885,0,0
0:3:46.178,410.962,52.3243,0,0.000885,0,0
0:3:46.472,411.434,52.3864,0,0.000885,0,0
0:3:46.773,412.194,52.4829,0,0.000885,0,0
0:3:47.075,412.666,52.5449,0,0.000885,0,0
0:3:47.373,413.191,52.607,0,0.000885,0,0
0:3:47.678,413.484,52.6484,0,0.000885,0,0
0:3:47.982,413.898,52.6966,0,0.000885,0,0
0:3:48.281,415.068,52.8483,0,0.000885,0,0
0:3:48.575,415.362,52.8828,0,0.000885,0,0
0:3:48.874,415.775,52.9379,0,0.000885,0,0
0:3:49.179,416.358,53.0138,0,0.000885,0,0
0:3:49.474,417.065,53.1034,0,0.000885,0,0
0:3:49.769,416.945,53.0896,0,0.000885,0,0
0:3:50.073,417.648,53.1793,0,0.000885,0,0
0:3:50.376,418.004,53.2206,0,0.000885,0,0
0:3:50.676,418.413,53.2758,0,0.000885,0,0
0:3:50.976,418.649,53.3034,0,0.000885,0,0
0:3:51.276,419.352,53.393,0,0.000885,0,0
0:3:51.569,419.645,53.4275,0,0.000885,0,0
0:3:51.869,419.881,53.4619,0,0.000885,0,0
0:3:52.169,419.761,53.4482,0,0.000885,0,0
0:3:52.467,419.352,53.393,0,0.000885,0,0
0:3:52.764,420.054,53.4826,0,0.000885,0,0
0:3:53.060,419.881,53.4619,0,0.000885,0,0
0:3:53.356,419.587,53.4206,0,0.000885,0,0
0:3:53.650,419.116,53.3654,0,0.000885,0,0
0:3:53.958,418.177,53.2413,0,0.000885,0,0
0:3:54.269,416.536,53.0345,0,0.000885,0,0
0:3:54.570,415.775,52.9379,0,0.000885,0,0
0:3:54.873,414.365,52.7587,0,0.000885,0,0
0:3:55.175,412.96,52.5794,0,0.000885,0,0
0:3:55.474,411.376,52.3795,0,0.000885,0,0
0:3:55.775,410.962,52.3243,0,0.000885,0,0
0:3:56.073,411.025,52.3312,0,0.000885,0,0
0:3:56.364,411.256,52.3657,0,0.000885,0,0
0:3:56.660,411.963,52.4553,0,0.000885,0,0
0:3:56.966,412.252,52.4898,0,0.000885,0,0
0:3:57.259,413.311,52.6277,0,0.000885,0,0
0:3:57.558,414.365,52.7587,0,0.000885,0,0
0:3:57.851,415.775,52.9379,0,0.000885,0,0
0:3:58.159,417.003,53.0965,0,0.000885,0,0
0:3:58.464,419.116,53.3654,0,0.000885,0,0
0:3:58.767,420.526,53.5447,0,0.000885,0,0
0:3:59.067,421.989,53.7308,0,0.000885,0,0
0:3:59.360,423.457,53.917,0,0.000885,0,0
0:3:59.660,426.447,54.2962,0,0.000885,0,0
0:3:59.963,428.382,54.5444,0,0.000885,0,0
0:4:0.265,429.734,54.7168,0,0.000885,0,0
0:4:0.565,431.669,54.965,0,0.000885,0,0
0:4:0.866,433.546,55.1994,0,0.000885,0,0
0:4:1.167,436.006,55.5166,0,0.000885,0,0
0:4:1.471,438.297,55.8062,0,0.000885,0,0
0:4:1.780,439.818,55.9992,0,0.000885,0,0
0:4:2.075,441.17,56.1716,0,0.000885,0,0
0:4:2.370,443.457,56.4612,0,0.000885,0,0
0:4:2.668,445.218,56.6887,0,0.000885,0,0
0:4:2.960,446.917,56.9024,0,0.000885,0,0
0:4:3.261,448.029,57.0472,0,0.000885,0,0
0:4:3.565,449.439,57.2265,0,0.000885,0,0
0:4:3.870,450.965,57.4195,0,0.000885,0,0
0:4:4.180,451.841,57.5299,0,0.000885,0,0
0:4:4.482,452.549,57.6195,0,0.000885,0,0
0:4:4.783,453.136,57.6953,0,0.000885,0,0
0:4:5.087,453.897,57.7919,0,0.000885,0,0
0:4:5.390,454.306,57.847,0,0.000885,0,0
0:4:5.690,454.599,57.8815,0,0.000885,0,0
0:4:5.991,454.777,57.9022,0,0.000885,0,0
0:4:6.290,455.244,57.9642,0,0.000885,0,0
0:4:6.585,455.538,57.9987,0,0.000885,0,0
0:4:6.884,455.889,58.047,0,0.000885,0,0
0:4:7.177,455.889,58.047,0,0.000885,0,0
0:4:7.474,456.067,58.0676,0,0.000885,0,0
0:4:7.770,456.361,58.1021,0,0.000885,0,0
0:4:8.074,456.77,58.1573,0,0.000885,0,0
0:4:8.375,457.121,58.2055,0,0.000885,0,0
0:4:8.677,456.886,58.1711,0,0.000885,0,0
0:4:8.976,457.531,58.2538,0,0.000885,0,0
0:4:9.281,457.766,58.2814,0,0.000885,0,0
0:4:9.581,458.118,58.3296,0,0.000885,0,0
0:4:9.884,458.532,58.3848,0,0.000885,0,0
0:4:10.184,459.292,58.4813,0,0.000885,0,0
0:4:10.485,459.759,58.5365,0,0.000885,0,0
0:4:10.785,460.173,58.5916,0,0.000885,0,0
0:4:11.083,460.524,58.633,0,0.000885,0,0
0:4:11.381,460.934,58.6882,0,0.000885,0,0
0:4:11.675,461.699,58.7847,0,0.000885,0,0
0:4:11.976,462.166,58.8468,0,0.000885,0,0
0:4:12.276,462.695,58.9088,0,0.000885,0,0
0:4:12.574,462.753,58.9226,0,0.000885,0,0
0:4:12.868,463.571,59.026,0,0.000885,0,0
0:4:13.176,464.51,59.1432,0,0.000885,0,0
0:4:13.475,465.217,59.2329,0,0.000885,0,0
0:4:13.777,465.626,59.288,0,0.000885,0,0
0:4:14.077,466.507,59.3983,0,0.000885,0,0
0:4:14.368,467.032,59.4673,0,0.000885,0,0
0:4:14.668,467.739,59.5569,0,0.000885,0,0
0:4:14.971,468.149,59.6052,0,0.000885,0,0
0:4:15.272,468.5,59.6534,0,0.000885,0,0
0:4:15.575,468.972,59.7086,0,0.000885,0,0
0:4:15.875,469.848,59.8258,0,0.000885,0,0
0:4:16.172,469.968,59.8396,0,0.000885,0,0
0:4:16.479,470.844,59.9499,0,0.000885,0,0
0:4:16.771,471.489,60.0327,0,0.000885,0,0
0:4:17.071,472.197,60.1223,0,0.000885,0,0
0:4:17.376,472.957,60.2188,0,0.000885,0,0
0:4:17.675,473.251,60.2533,0,0.000885,0,0
0:4:17.978,474.011,60.3498,0,0.000885,0,0
0:4:18.276,474.189,60.3774,0,0.000885,0,0
0:4:18.571,475.128,60.4946,0,0.000885,0,0
0:4:18.864,475.421,60.5291,0,0.000885,0,0
0:4:19.163,475.479,60.5429,0,0.000885,0,0
0:4:19.457,476.182,60.6325,0,0.000885,0,0
0:4:19.757,476.654,60.6877,0,0.000885,0,0
0:4:20.061,476.947,60.729,0,0.000885,0,0
0:4:20.363,478.353,60.9083,0,0.000885,0,0
0:4:20.664,478.762,60.9565,0,0.000885,0,0
0:4:20.963,479.118,61.0048,0,0.000885,0,0
0:4:21.264,479.643,61.0669,0,0.000885,0,0
0:4:21.558,480.408,61.1703,0,0.000885,0,0
0:4:21.865,481.226,61.2737,0,0.000885,0,0
0:4:22.172,481.871,61.3564,0,0.000885,0,0
0:4:22.478,482.459,61.4254,0,0.000885,0,0
0:4:22.778,483.104,61.5081,0,0.000885,0,0
0:4:23.069,484.1,61.6391,0,0.000885,0,0
0:4:23.368,484.394,61.6736,0,0.000885,0,0
0:4:23.664,485.159,61.7701,0,0.000885,0,0
0:4:23.960,485.626,61.8322,0,0.000885,0,0
0:4:24.258,486.035,61.8873,0,0.000885,0,0
0:4:24.560,487.036,62.0114,0,0.000885,0,0
0:4:24.863,487.325,62.0459,0,0.000885,0,0
0:4:25.163,487.97,62.1287,0,0.000885,0,0
0:4:25.464,488.263,62.17,0,0.000885,0,0
0:4:25.764,488.908,62.2528,0,0.000885,0,0
0:4:26.058,488.793,62.2321,0,0.000885,0,0
0:4:26.357,489.616,62.3424,0,0.000885,0,0
0:4:26.652,490.434,62.4458,0,0.000885,0,0
0:4:26.951,490.964,62.5148,0,0.000885,0,0
0:4:27.245,492.138,62.6596,0,0.000885,0,0
0:4:27.542,492.663,62.7285,0,0.000885,0,0
0:4:27.839,492.783,62.7423,0,0.000885,0,0
0:4:28.133,493.486,62.8319,0,0.000885,0,0
0:4:28.431,493.659,62.8526,0,0.000885,0,0
0:4:28.725,494.954,63.0181,0,0.000885,0,0
0:4:29.023,495.305,63.0663,0,0.000885,0,0
0:4:29.316,495.421,63.0801,0,0.000885,0,0
0:4:29.618,496.066,63.1629,0,0.000885,0,0
0:4:29.921,496.475,63.2111,0,0.000885,0,0
0:4:30.221,497.004,63.2801,0,0.000885,0,0
0:4:30.521,495.363,63.0732,0,0.000885,0,0
0:4:30.821,494.954,63.0181,0,0.000885,0,0
0:4:31.118,495.656,63.1077,0,0.000885,0,0
0:4:31.413,495.95,63.1491,0,0.000885,0,0
0:4:31.707,496.181,63.1767,0,0.000885,0,0
0:4:32.006,496.653,63.2387,0,0.000885,0,0
0:4:32.298,496.359,63.1973,0,0.000885,0,0
0:4:32.596,496.123,63.1698,0,0.000885,0,0
0:4:32.891,490.964,62.5148,0,0.000885,0,0
0:4:33.187,467.326,59.5018,0,0.000885,0,0
0:4:33.484,466.094,59.3432,0,0.000885,0,0
0:4:33.785,467.21,59.488,0,0.000885,0,0
0:4:34.085,468.678,59.6741,0,0.000885,0,0
0:4:34.377,468.033,59.5914,0,0.000885,0,0
0:4:34.678,374.603,47.6979,0,0.000885,0,0
0:4:34.979,368.384,46.905,0,0.000885,0,0
0:4:35.280,367.797,46.8292,0,0.000885,0,0
0:4:35.579,367.681,46.8154,0,0.000885,0,0
0:4:35.878,363.282,46.2569,0,0.000885,0,0
0:4:36.178,362.752,46.188,0,0.000885,0,0
0:4:36.480,362.81,46.1949,0,0.000885,0,0
0:4:36.778,362.873,46.2018,0,0.000885,0,0
0:4:37.082,362.81,46.1949,0,0.000885,0,0
0:4:37.386,362.988,46.2156,0,0.000885,0,0
0:4:37.685,362.579,46.1673,0,0.000885,0,0
0:4:37.973,362.343,46.1328,0,0.000885,0,0
0:4:38.273,361.872,46.0777,0,0.000885,0,0
0:4:38.467,359.292,45.7467,0,0.000885,0,0