File: DataFile2021-07-15_054222.csv
Test ID:,Date Tested:,Time:,Test Type:,Diameter Avg. (mm):,Cyl. Corr. Factor:,Height (mm):,Age (days):,Weight (kN):,Break Type:,Ramp Rate (MPa/s):,Load at Break (kN):,Stress at Break (MPa):
12,7/15/2021,05:42,Cylinder,150,1,300,0,3.6,3,0.25,1725.98,97.67
Sample Time,Load (kN),Stress (MPa),Long. Strain,Trans. Strain,Chan1 Deflection (mm),Chan2 Deflection (mm)
0:0:8.692,6.5122,0.365422,0,0.000885,0,0
0:0:9.091,8.79858,0.496423,0,0.000885,0,0
0:0:9.490,8.97206,0.510212,0,0.000885,0,0
0:0:9.888,9.79498,0.551581,0,0.000885,0,0
0:0:10.285,12.375,0.703265,0,0.000885,0,0
0:0:10.681,13.8429,0.786002,0,0.000885,0,0
0:0:11.080,15.1328,0.85495,0,0.000885,0,0
0:0:11.478,16.5963,0.937687,0,0.000885,0,0
0:0:11.876,18.3578,1.04111,0,0.000885,0,0
0:0:12.272,20.5285,1.15832,0,0.000885,0,0
0:0:12.668,21.1735,1.19969,0,0.000885,0,0
0:0:13.068,23.4599,1.33069,0,0.000885,0,0
0:0:13.469,25.1591,1.42721,0,0.000885,0,0
0:0:13.866,26.9206,1.52374,0,0.000885,0,0
0:0:14.270,28.4464,1.60648,0,0.000885,0,0
0:0:14.676,30.1456,1.70301,0,0.000885,0,0
0:0:15.079,31.8493,1.79953,0,0.000885,0,0
0:0:15.481,33.6063,1.90295,0,0.000885,0,0
0:0:15.880,35.0164,1.9788,0,0.000885,0,0
0:0:16.277,37.0092,2.09601,0,0.000885,0,0
0:0:16.676,38.5928,2.18564,0,0.000885,0,0
0:0:17.077,40.7012,2.30285,0,0.000885,0,0
0:0:17.475,42.5784,2.40627,0,0.000885,0,0
0:0:17.869,44.1619,2.4959,0,0.000885,0,0
0:0:18.269,46.5106,2.6338,0,0.000885,0,0
0:0:18.670,48.6813,2.7579,0,0.000885,0,0
0:0:19.067,51.2035,2.8958,0,0.000885,0,0
0:0:19.472,53.0806,3.00611,0,0.000885,0,0
0:0:19.878,55.0734,3.11643,0,0.000885,0,0
0:0:20.281,56.3634,3.19227,0,0.000885,0,0
0:0:20.685,57.2442,3.24054,0,0.000885,0,0
0:0:21.083,59.5305,3.37154,0,0.000885,0,0
0:0:21.478,61.7591,3.49564,0,0.000885,0,0
0:0:21.876,64.3391,3.64043,0,0.000885,0,0
0:0:22.276,66.6255,3.77143,0,0.000885,0,0
0:0:22.677,69.5613,3.93691,0,0.000885,0,0
0:0:23.074,71.6119,4.05412,0,0.000885,0,0
0:0:23.470,73.4312,4.15754,0,0.000885,0,0
0:0:23.868,74.8947,4.24028,0,0.000885,0,0
0:0:24.271,75.602,4.27475,0,0.000885,0,0
0:0:24.679,76.8341,4.35059,0,0.000885,0,0
0:0:25.084,78.2398,4.42643,0,0.000885,0,0
0:0:25.486,79.1205,4.4747,0,0.000885,0,0
0:0:25.886,80.8197,4.57122,0,0.000885,0,0
0:0:26.286,82.7547,4.68154,0,0.000885,0,0
0:0:26.686,83.8712,4.74359,0,0.000885,0,0
0:0:27.084,86.5668,4.90217,0,0.000885,0,0
0:0:27.480,88.6219,5.01249,0,0.000885,0,0
0:0:27.880,90.7927,5.13659,0,0.000885,0,0
0:0:28.280,92.4919,5.23312,0,0.000885,0,0
0:0:28.678,94.1333,5.32965,0,0.000885,0,0
0:0:29.075,96.4197,5.45375,0,0.000885,0,0
0:0:29.478,97.8876,5.53649,0,0.000885,0,0
0:0:29.886,99.4711,5.62612,0,0.000885,0,0
0:0:30.288,101.406,5.73644,0,0.000885,0,0
0:0:30.692,102.874,5.81918,0,0.000885,0,0
0:0:31.088,104.751,5.92949,0,0.000885,0,0
0:0:31.487,105.748,5.98465,0,0.000885,0,0
0:0:31.887,107.273,6.06739,0,0.000885,0,0
0:0:32.285,109.502,6.19839,0,0.000885,0,0
0:0:32.680,110.792,6.26733,0,0.000885,0,0
0:0:33.078,113.02,6.39833,0,0.000885,0,0
0:0:33.479,115.013,6.50865,0,0.000885,0,0
0:0:33.878,116.833,6.61207,0,0.000885,0,0
0:0:34.284,118.825,6.72239,0,0.000885,0,0
0:0:34.689,120.702,6.8327,0,0.000885,0,0
0:0:35.091,122.228,6.91544,0,0.000885,0,0
0:0:35.496,124.105,7.02576,0,0.000885,0,0
0:0:35.892,125.862,7.12228,0,0.000885,0,0
0:0:36.288,127.215,7.19813,0,0.000885,0,0
0:0:36.687,128.914,7.29465,0,0.000885,0,0
0:0:37.087,130.791,7.39807,0,0.000885,0,0
0:0:37.487,132.49,7.4946,0,0.000885,0,0
0:0:37.884,133.9,7.57734,0,0.000885,0,0
0:0:38.280,136.245,7.70834,0,0.000885,0,0
0:0:38.681,138.18,7.81865,0,0.000885,0,0
0:0:39.081,139.883,7.91518,0,0.000885,0,0
0:0:39.487,142.05,8.03929,0,0.000885,0,0
0:0:39.891,143.869,8.14271,0,0.000885,0,0
0:0:40.293,145.862,8.25302,0,0.000885,0,0
0:0:40.696,147.214,8.32887,0,0.000885,0,0
0:0:41.094,149.149,8.43918,0,0.000885,0,0
0:0:41.491,149.967,8.48745,0,0.000885,0,0
0:0:41.888,151.965,8.59776,0,0.000885,0,0
0:0:42.288,153.37,8.6805,0,0.000885,0,0
0:0:42.688,155.599,8.80461,0,0.000885,0,0
0:0:43.087,157.476,8.90803,0,0.000885,0,0
0:0:43.482,159.647,9.03213,0,0.000885,0,0
0:0:43.881,161.052,9.11487,0,0.000885,0,0
0:0:44.283,162.636,9.2045,0,0.000885,0,0
0:0:44.690,164.219,9.29413,0,0.000885,0,0
0:0:45.095,165.803,9.38376,0,0.000885,0,0
0:0:45.498,167.507,9.48029,0,0.000885,0,0
0:0:45.898,169.851,9.61129,0,0.000885,0,0
0:0:46.297,171.67,9.71471,0,0.000885,0,0
0:0:46.696,173.138,9.79745,0,0.000885,0,0
0:0:47.092,175.482,9.92845,0,0.000885,0,0
0:0:47.489,177.244,10.0319,0,0.000885,0,0
0:0:47.888,179.294,10.1491,0,0.000885,0,0
0:0:48.289,180.469,10.2111,0,0.000885,0,0
0:0:48.686,182.226,10.3146,0,0.000885,0,0
0:0:49.091,184.575,10.4456,0,0.000885,0,0
0:0:49.496,186.332,10.5421,0,0.000885,0,0
0:0:49.899,187.742,10.6248,0,0.000885,0,0
0:0:50.301,190.028,10.7558,0,0.000885,0,0
0:0:50.699,191.554,10.8386,0,0.000885,0,0
0:0:51.095,192.844,10.9144,0,0.000885,0,0
0:0:51.493,194.369,10.9971,0,0.000885,0,0
0:0:51.889,195.833,11.0799,0,0.000885,0,0
0:0:52.283,197.652,11.1833,0,0.000885,0,0
0:0:52.676,199.645,11.3005,0,0.000885,0,0
0:0:53.073,201.229,11.3901,0,0.000885,0,0
0:0:53.471,203.284,11.5005,0,0.000885,0,0
0:0:53.866,204.632,11.5832,0,0.000885,0,0
0:0:54.269,206.451,11.6797,0,0.000885,0,0
0:0:54.669,208.386,11.79,0,0.000885,0,0
0:0:55.069,210.499,11.9141,0,0.000885,0,0
0:0:55.470,212.434,12.0245,0,0.000885,0,0
0:0:55.864,214.249,12.121,0,0.000885,0,0
0:0:56.257,215.832,12.2106,0,0.000885,0,0
0:0:56.655,217.594,12.314,0,0.000885,0,0
0:0:57.053,218.941,12.3899,0,0.000885,0,0
0:0:57.455,220.876,12.5002,0,0.000885,0,0
0:0:57.859,222.638,12.5967,0,0.000885,0,0
0:0:58.253,224.395,12.7001,0,0.000885,0,0
0:0:58.652,226.392,12.8105,0,0.000885,0,0
0:0:59.056,228.034,12.907,0,0.000885,0,0
0:0:59.459,229.502,12.9897,0,0.000885,0,0
0:0:59.862,231.259,13.0862,0,0.000885,0,0
0:1:0.262,232.9,13.1828,0,0.000885,0,0
0:1:0.662,234.955,13.2931,0,0.000885,0,0
0:1:1.056,236.832,13.4034,0,0.000885,0,0
0:1:1.458,238.531,13.4999,0,0.000885,0,0
0:1:1.854,239.937,13.5758,0,0.000885,0,0
0:1:2.253,241.814,13.6861,0,0.000885,0,0
0:1:2.656,243.811,13.7964,0,0.000885,0,0
0:1:3.047,245.689,13.8998,0,0.000885,0,0
0:1:3.454,247.566,14.0101,0,0.000885,0,0
0:1:3.851,249.323,14.1067,0,0.000885,0,0
0:1:4.246,251.258,14.217,0,0.000885,0,0
0:1:4.652,252.961,14.3135,0,0.000885,0,0
0:1:5.053,254.896,14.4238,0,0.000885,0,0
0:1:5.454,256.653,14.5204,0,0.000885,0,0
0:1:5.853,258.357,14.6169,0,0.000885,0,0
0:1:6.257,260.056,14.7134,0,0.000885,0,0
0:1:6.651,261.404,14.7893,0,0.000885,0,0
0:1:7.055,262.988,14.8789,0,0.000885,0,0
0:1:7.454,264.865,14.9892,0,0.000885,0,0
0:1:7.859,266.8,15.0995,0,0.000885,0,0
0:1:8.261,268.268,15.1823,0,0.000885,0,0
0:1:8.654,270.318,15.2995,0,0.000885,0,0
0:1:9.056,272.08,15.396,0,0.000885,0,0
0:1:9.459,273.779,15.4925,0,0.000885,0,0
0:1:9.860,275.363,15.5822,0,0.000885,0,0
0:1:10.261,277.418,15.6994,0,0.000885,0,0
0:1:10.656,278.588,15.7683,0,0.000885,0,0
0:1:11.053,280.407,15.8648,0,0.000885,0,0
0:1:11.459,282.404,15.982,0,0.000885,0,0
0:1:11.854,284.513,16.0993,0,0.000885,0,0
0:1:12.255,286.096,16.1889,0,0.000885,0,0
0:1:12.653,288.267,16.313,0,0.000885,0,0
0:1:13.059,290.322,16.4302,0,0.000885,0,0
0:1:13.452,292.079,16.5267,0,0.000885,0,0
0:1:13.844,293.663,16.6164,0,0.000885,0,0
0:1:14.246,295.598,16.7267,0,0.000885,0,0
0:1:14.653,297.123,16.8163,0,0.000885,0,0
0:1:15.048,298.765,16.9059,0,0.000885,0,0
0:1:15.461,300.642,17.0163,0,0.000885,0,0
0:1:15.855,302.403,17.1128,0,0.000885,0,0
0:1:16.252,303.342,17.1679,0,0.000885,0,0
0:1:16.657,305.219,17.2714,0,0.000885,0,0
0:1:17.052,307.154,17.3817,0,0.000885,0,0
0:1:17.455,308.969,17.4851,0,0.000885,0,0
0:1:17.859,310.788,17.5885,0,0.000885,0,0
0:1:18.257,312.43,17.6782,0,0.000885,0,0
0:1:18.654,313.955,17.7678,0,0.000885,0,0
0:1:19.058,315.948,17.8781,0,0.000885,0,0
0:1:19.460,317.888,17.9884,0,0.000885,0,0
0:1:19.863,320.116,18.1125,0,0.000885,0,0
0:1:20.264,321.286,18.1815,0,0.000885,0,0
0:1:20.664,323.577,18.3125,0,0.000885,0,0
0:1:21.057,325.161,18.4021,0,0.000885,0,0
0:1:21.452,326.86,18.4986,0,0.000885,0,0
0:1:21.858,328.91,18.6158,0,0.000885,0,0
0:1:22.255,330.494,18.7055,0,0.000885,0,0
0:1:22.659,332.078,18.7951,0,0.000885,0,0
0:1:23.052,333.781,18.8847,0,0.000885,0,0
0:1:23.459,335.952,19.0088,0,0.000885,0,0
0:1:23.856,337.767,19.1123,0,0.000885,0,0
0:1:24.261,339.235,19.195,0,0.000885,0,0
0:1:24.661,341.228,19.3122,0,0.000885,0,0
0:1:25.061,342.931,19.4087,0,0.000885,0,0
0:1:25.460,344.573,19.4984,0,0.000885,0,0
0:1:25.856,345.627,19.5604,0,0.000885,0,0
0:1:26.258,347.913,19.6845,0,0.000885,0,0
0:1:26.653,349.203,19.7604,0,0.000885,0,0
0:1:27.058,351.08,19.8638,0,0.000885,0,0
0:1:27.456,353.078,19.981,0,0.000885,0,0
0:1:27.862,355.013,20.0913,0,0.000885,0,0
0:1:28.254,357.299,20.2223,0,0.000885,0,0
0:1:28.659,358.589,20.2913,0,0.000885,0,0
0:1:29.058,360.817,20.4154,0,0.000885,0,0
0:1:29.462,362.401,20.505,0,0.000885,0,0
0:1:29.863,364.042,20.6015,0,0.000885,0,0
0:1:30.264,365.684,20.6912,0,0.000885,0,0
0:1:30.660,367.33,20.7877,0,0.000885,0,0
0:1:31.057,369.616,20.9187,0,0.000885,0,0
0:1:31.462,371.493,21.0221,0,0.000885,0,0
0:1:31.854,373.135,21.1117,0,0.000885,0,0
0:1:32.259,374.954,21.2152,0,0.000885,0,0
0:1:32.655,376.36,21.2979,0,0.000885,0,0
0:1:33.063,378.472,21.4151,0,0.000885,0,0
0:1:33.456,379.998,21.5047,0,0.000885,0,0
0:1:33.858,381.875,21.6082,0,0.000885,0,0
0:1:34.261,383.81,21.7185,0,0.000885,0,0
0:1:34.663,385.274,21.8012,0,0.000885,0,0
0:1:35.065,387.209,21.9115,0,0.000885,0,0
0:1:35.464,388.792,22.0012,0,0.000885,0,0
0:1:35.858,389.909,22.0632,0,0.000885,0,0
0:1:36.257,391.959,22.1804,0,0.000885,0,0
0:1:36.664,393.605,22.2701,0,0.000885,0,0
0:1:37.056,395.714,22.3942,0,0.000885,0,0
0:1:37.461,397.711,22.5045,0,0.000885,0,0
0:1:37.857,399.175,22.5872,0,0.000885,0,0
0:1:38.254,401.697,22.732,0,0.000885,0,0
0:1:38.658,403.165,22.8148,0,0.000885,0,0
0:1:39.060,404.748,22.9044,0,0.000885,0,0
0:1:39.461,406.505,23.0009,0,0.000885,0,0
0:1:39.865,408.676,23.125,0,0.000885,0,0
0:1:40.267,409.73,23.1871,0,0.000885,0,0
0:1:40.667,411.607,23.2905,0,0.000885,0,0
0:1:41.061,413.191,23.3801,0,0.000885,0,0
0:1:41.458,415.246,23.4973,0,0.000885,0,0
0:1:41.856,416.945,23.5939,0,0.000885,0,0
0:1:42.259,418.822,23.6973,0,0.000885,0,0
0:1:42.661,421.051,23.8283,0,0.000885,0,0
0:1:43.056,422.399,23.9041,0,0.000885,0,0
0:1:43.454,424.747,24.0351,0,0.000885,0,0
0:1:43.861,426.504,24.1385,0,0.000885,0,0
0:1:44.263,428.088,24.2282,0,0.000885,0,0
0:1:44.664,429.204,24.2902,0,0.000885,0,0
0:1:45.065,431.255,24.4074,0,0.000885,0,0
0:1:45.465,432.959,24.4971,0,0.000885,0,0
0:1:45.860,434.307,24.5798,0,0.000885,0,0
0:1:46.262,436.535,24.7039,0,0.000885,0,0
0:1:46.657,438.119,24.7935,0,0.000885,0,0
0:1:47.055,439.996,24.897,0,0.000885,0,0
0:1:47.459,441.873,25.0073,0,0.000885,0,0
0:1:47.851,443.399,25.09,0,0.000885,0,0
0:1:48.256,445.507,25.2072,0,0.000885,0,0
0:1:48.654,446.975,25.2969,0,0.000885,0,0
0:1:49.049,449.088,25.4141,0,0.000885,0,0
0:1:49.455,450.672,25.5037,0,0.000885,0,0
0:1:49.857,452.429,25.6002,0,0.000885,0,0
0:1:50.257,454.07,25.6968,0,0.000885,0,0
0:1:50.656,456.183,25.814,0,0.000885,0,0
0:1:51.060,458.002,25.9174,0,0.000885,0,0
0:1:51.452,460.053,26.0346,0,0.000885,0,0
0:1:51.857,461.463,26.1104,0,0.000885,0,0
0:1:52.255,463.34,26.2208,0,0.000885,0,0
0:1:52.661,464.924,26.3104,0,0.000885,0,0
0:1:53.056,466.859,26.4207,0,0.000885,0,0
0:1:53.458,468.091,26.4897,0,0.000885,0,0
0:1:53.862,469.496,26.5655,0,0.000885,0,0
0:1:54.262,471.725,26.6965,0,0.000885,0,0
0:1:54.665,473.66,26.8068,0,0.000885,0,0
0:1:55.067,475.773,26.924,0,0.000885,0,0
0:1:55.466,477.472,27.0206,0,0.000885,0,0
0:1:55.865,478.704,27.0895,0,0.000885,0,0
0:1:56.262,480.639,27.1998,0,0.000885,0,0
0:1:56.657,482.516,27.3032,0,0.000885,0,0
0:1:57.059,484.22,27.3998,0,0.000885,0,0
0:1:57.464,486.329,27.5239,0,0.000885,0,0
0:1:57.861,487.681,27.5997,0,0.000885,0,0
0:1:58.257,489.264,27.6893,0,0.000885,0,0
0:1:58.661,490.728,27.7721,0,0.000885,0,0
0:1:59.063,492.956,27.8962,0,0.000885,0,0
0:1:59.467,494.598,27.9858,0,0.000885,0,0
0:1:59.867,496.889,28.1168,0,0.000885,0,0
0:2:0.267,498.472,28.2065,0,0.000885,0,0
0:2:0.661,500.638,28.3306,0,0.000885,0,0
0:2:1.057,502.578,28.4409,0,0.000885,0,0
0:2:1.452,504.099,28.5236,0,0.000885,0,0
0:2:1.859,505.273,28.5926,0,0.000885,0,0
0:2:2.250,507.329,28.7098,0,0.000885,0,0
0:2:2.657,509.788,28.8477,0,0.000885,0,0
0:2:3.064,510.963,28.9166,0,0.000885,0,0
0:2:3.462,511.492,28.9442,0,0.000885,0,0
0:2:3.857,513.485,29.0545,0,0.000885,0,0
0:2:4.259,515.304,29.1579,0,0.000885,0,0
0:2:4.662,517.706,29.2958,0,0.000885,0,0
0:2:5.062,519.526,29.3992,0,0.000885,0,0
0:2:5.461,521.345,29.5027,0,0.000885,0,0
0:2:5.853,522.751,29.5785,0,0.000885,0,0
0:2:6.259,524.863,29.7026,0,0.000885,0,0
0:2:6.664,527.27,29.8405,0,0.000885,0,0
0:2:7.062,528.088,29.8819,0,0.000885,0,0
0:2:7.456,529.788,29.9784,0,0.000885,0,0
0:2:7.858,531.727,30.0887,0,0.000885,0,0
0:2:8.256,533.604,30.199,0,0.000885,0,0
0:2:8.650,535.303,30.2887,0,0.000885,0,0
0:2:9.068,537.354,30.4059,0,0.000885,0,0
0:2:9.470,538.764,30.4886,0,0.000885,0,0
0:2:9.872,540.699,30.5989,0,0.000885,0,0
0:2:10.272,542.692,30.7092,0,0.000885,0,0
0:2:10.672,544.805,30.8265,0,0.000885,0,0
0:2:11.068,546.446,30.923,0,0.000885,0,0
0:2:11.461,547.972,31.0057,0,0.000885,0,0
0:2:11.857,549.791,31.1091,0,0.000885,0,0
0:2:12.253,551.668,31.2195,0,0.000885,0,0
0:2:12.660,553.897,31.3436,0,0.000885,0,0
0:2:13.063,555.187,31.4194,0,0.000885,0,0
0:2:13.457,556.241,31.4746,0,0.000885,0,0
0:2:13.863,558.296,31.5918,0,0.000885,0,0
0:2:14.262,559.293,31.6469,0,0.000885,0,0
0:2:14.664,561.285,31.7641,0,0.000885,0,0
0:2:15.065,563.63,31.8951,0,0.000885,0,0
0:2:15.465,565.743,32.0124,0,0.000885,0,0
0:2:15.864,566.739,32.0675,0,0.000885,0,0
0:2:16.260,568.852,32.1916,0,0.000885,0,0
0:2:16.652,570.609,32.2881,0,0.000885,0,0
0:2:17.057,572.428,32.3916,0,0.000885,0,0
0:2:17.464,574.777,32.5226,0,0.000885,0,0
0:2:17.862,576.24,32.6053,0,0.000885,0,0
0:2:18.265,577.824,32.6949,0,0.000885,0,0
0:2:18.657,579.585,32.7984,0,0.000885,0,0
0:2:19.059,581.93,32.9294,0,0.000885,0,0
0:2:19.462,583.455,33.019,0,0.000885,0,0
0:2:19.862,584.158,33.0535,0,0.000885,0,0
0:2:20.262,586.565,33.1914,0,0.000885,0,0
0:2:20.655,588.793,33.3155,0,0.000885,0,0
0:2:21.055,590.67,33.4258,0,0.000885,0,0
0:2:21.453,592.254,33.5154,0,0.000885,0,0
0:2:21.861,594.193,33.6257,0,0.000885,0,0
0:2:22.264,595.777,33.7154,0,0.000885,0,0
0:2:22.661,596.894,33.7774,0,0.000885,0,0
0:2:23.063,599.006,33.8946,0,0.000885,0,0
0:2:23.459,600.59,33.9843,0,0.000885,0,0
0:2:23.863,602.703,34.1084,0,0.000885,0,0
0:2:24.267,604.349,34.198,0,0.000885,0,0
0:2:24.672,605.403,34.26,0,0.000885,0,0
0:2:25.073,607.636,34.3842,0,0.000885,0,0
0:2:25.476,609.455,34.4876,0,0.000885,0,0
0:2:25.872,611.155,34.5841,0,0.000885,0,0
0:2:26.270,612.916,34.6806,0,0.000885,0,0
0:2:26.670,615.029,34.8047,0,0.000885,0,0
0:2:27.067,617.084,34.9219,0,0.000885,0,0
0:2:27.464,618.672,35.0116,0,0.000885,0,0
0:2:27.858,619.726,35.0667,0,0.000885,0,0
0:2:28.258,621.959,35.1977,0,0.000885,0,0
0:2:28.655,624.13,35.3218,0,0.000885,0,0
0:2:29.062,626.123,35.4322,0,0.000885,0,0
0:2:29.466,627.475,35.508,0,0.000885,0,0
0:2:29.871,629.41,35.6183,0,0.000885,0,0
0:2:30.272,630.82,35.6942,0,0.000885,0,0
0:2:30.675,632.933,35.8183,0,0.000885,0,0
0:2:31.070,635.224,35.9493,0,0.000885,0,0
0:2:31.466,635.927,35.9837,0,0.000885,0,0
0:2:31.866,637.63,36.0803,0,0.000885,0,0
0:2:32.264,639.214,36.1699,0,0.000885,0,0
0:2:32.659,640.975,36.2733,0,0.000885,0,0
0:2:33.052,642.679,36.3698,0,0.000885,0,0
0:2:33.463,644.498,36.4733,0,0.000885,0,0
0:2:33.862,646.082,36.5629,0,0.000885,0,0
0:2:34.267,648.724,36.7077,0,0.000885,0,0
0:2:34.669,650.25,36.7973,0,0.000885,0,0
0:2:35.072,652.599,36.9283,0,0.000885,0,0
0:2:35.471,654.947,37.0593,0,0.000885,0,0
0:2:35.871,655.477,37.0938,0,0.000885,0,0
0:2:36.268,657.296,37.1972,0,0.000885,0,0
0:2:36.663,659.231,37.3075,0,0.000885,0,0
0:2:37.068,660.757,37.3903,0,0.000885,0,0
0:2:37.467,662.34,37.4799,0,0.000885,0,0
0:2:37.865,664.395,37.5971,0,0.000885,0,0
0:2:38.262,666.099,37.6936,0,0.000885,0,0
0:2:38.654,668.096,37.804,0,0.000885,0,0
0:2:39.059,669.502,37.8867,0,0.000885,0,0
0:2:39.464,671.441,37.997,0,0.000885,0,0
0:2:39.868,673.67,38.1211,0,0.000885,0,0
0:2:40.269,675.783,38.2383,0,0.000885,0,0
0:2:40.667,677.429,38.3349,0,0.000885,0,0
0:2:41.065,678.839,38.4176,0,0.000885,0,0
0:2:41.465,679.951,38.4796,0,0.000885,0,0
0:2:41.860,681.77,38.5831,0,0.000885,0,0
0:2:42.255,683.883,38.7003,0,0.000885,0,0
0:2:42.663,685.12,38.7692,0,0.000885,0,0
0:2:43.063,687.348,38.8933,0,0.000885,0,0
0:2:43.463,689.461,39.0174,0,0.000885,0,0
0:2:43.866,690.929,39.1002,0,0.000885,0,0
0:2:44.271,692.633,39.1967,0,0.000885,0,0
0:2:44.674,693.745,39.2587,0,0.000885,0,0
0:2:45.077,695.506,39.3553,0,0.000885,0,0
0:2:45.481,697.561,39.4725,0,0.000885,0,0
0:2:45.878,700.088,39.6173,0,0.000885,0,0
0:2:46.274,701.32,39.6862,0,0.000885,0,0
0:2:46.670,703.784,39.8241,0,0.000885,0,0
0:2:47.069,705.368,39.9137,0,0.000885,0,0
0:2:47.467,706.778,39.9965,0,0.000885,0,0
0:2:47.863,709.006,40.1206,0,0.000885,0,0
0:2:48.256,710.71,40.2171,0,0.000885,0,0
0:2:48.655,712.943,40.3412,0,0.000885,0,0
0:2:49.066,714.585,40.4378,0,0.000885,0,0
0:2:49.471,716.168,40.5274,0,0.000885,0,0
0:2:49.874,717.872,40.6239,0,0.000885,0,0
0:2:50.276,719.749,40.7273,0,0.000885,0,0
0:2:50.676,721.453,40.8239,0,0.000885,0,0
0:2:51.076,722.213,40.8721,0,0.000885,0,0
0:2:51.471,723.917,40.9686,0,0.000885,0,0
0:2:51.867,725.914,41.079,0,0.000885,0,0
0:2:52.265,727.556,41.1686,0,0.000885,0,0
0:2:52.663,729.495,41.2789,0,0.000885,0,0
0:2:53.062,731.901,41.4168,0,0.000885,0,0
0:2:53.455,733.018,41.4789,0,0.000885,0,0
0:2:53.852,734.895,41.5892,0,0.000885,0,0
0:2:54.255,736.83,41.6995,0,0.000885,0,0
0:2:54.663,738.592,41.796,0,0.000885,0,0
0:2:55.065,740.117,41.8788,0,0.000885,0,0
0:2:55.467,742.23,42.0029,0,0.000885,0,0
0:2:55.864,744.343,42.1201,0,0.000885,0,0
0:2:56.263,746.283,42.2304,0,0.000885,0,0
0:2:56.659,747.75,42.3131,0,0.000885,0,0
0:2:57.065,749.04,42.389,0,0.000885,0,0
0:2:57.463,750.686,42.4786,0,0.000885,0,0
0:2:57.856,752.857,42.6027,0,0.000885,0,0
0:2:58.256,754.854,42.713,0,0.000885,0,0
0:2:58.667,756.789,42.8233,0,0.000885,0,0
0:2:59.071,758.257,42.9061,0,0.000885,0,0
0:2:59.475,760.312,43.0233,0,0.000885,0,0
0:2:59.879,762.425,43.1474,0,0.000885,0,0
0:3:0.280,764.067,43.237,0,0.000885,0,0
0:3:0.683,765.361,43.3129,0,0.000885,0,0
0:3:1.079,766.767,43.3887,0,0.000885,0,0
0:3:1.476,768.47,43.4852,0,0.000885,0,0
0:3:1.874,770.347,43.5956,0,0.000885,0,0
0:3:2.272,772.287,43.7059,0,0.000885,0,0
0:3:2.670,773.577,43.7748,0,0.000885,0,0
0:3:3.066,775.396,43.8782,0,0.000885,0,0
0:3:3.459,777.336,43.9886,0,0.000885,0,0
0:3:3.858,779.093,44.0851,0,0.000885,0,0
0:3:4.258,780.974,44.1954,0,0.000885,0,0
0:3:4.664,782.5,44.2781,0,0.000885,0,0
0:3:5.068,784.497,44.3953,0,0.000885,0,0
0:3:5.469,786.61,44.5126,0,0.000885,0,0
0:3:5.873,789.132,44.6573,0,0.000885,0,0
0:3:6.269,790.307,44.7194,0,0.000885,0,0
0:3:6.664,791.717,44.8021,0,0.000885,0,0
0:3:7.058,793.945,44.9262,0,0.000885,0,0
0:3:7.457,795.12,44.9952,0,0.000885,0,0
0:3:7.868,796.881,45.0917,0,0.000885,0,0
0:3:8.264,798.465,45.1813,0,0.000885,0,0
0:3:8.655,800.111,45.2779,0,0.000885,0,0
0:3:9.059,802.281,45.402,0,0.000885,0,0
0:3:9.466,804.043,45.4985,0,0.000885,0,0
0:3:9.869,805.862,45.6019,0,0.000885,0,0
0:3:10.271,807.566,45.6985,0,0.000885,0,0
0:3:10.667,809.443,45.8019,0,0.000885,0,0
0:3:11.066,810.791,45.8846,0,0.000885,0,0
0:3:11.465,812.788,45.9949,0,0.000885,0,0
0:3:11.869,814.434,46.0846,0,0.000885,0,0
0:3:12.265,815.666,46.1604,0,0.000885,0,0
0:3:12.659,817.427,46.2569,0,0.000885,0,0
0:3:13.059,819.656,46.381,0,0.000885,0,0
0:3:13.458,821.533,46.4913,0,0.000885,0,0
0:3:13.873,823.708,46.6155,0,0.000885,0,0
0:3:14.276,825.172,46.6982,0,0.000885,0,0
0:3:14.681,826.996,46.8016,0,0.000885,0,0
0:3:15.084,829.046,46.9119,0,0.000885,0,0
0:3:15.486,830.572,47.0016,0,0.000885,0,0
0:3:15.882,832.333,47.0981,0,0.000885,0,0
0:3:16.281,833.979,47.1946,0,0.000885,0,0
0:3:16.679,836.27,47.3256,0,0.000885,0,0
0:3:17.076,838.147,47.429,0,0.000885,0,0
0:3:17.472,839.437,47.5049,0,0.000885,0,0
0:3:17.867,841.377,47.6152,0,0.000885,0,0
0:3:18.267,843.196,47.7117,0,0.000885,0,0
0:3:18.666,844.37,47.7807,0,0.000885,0,0
0:3:19.059,846.421,47.8979,0,0.000885,0,0
0:3:19.467,848.596,48.022,0,0.000885,0,0
0:3:19.870,849.65,48.0771,0,0.000885,0,0
0:3:20.272,851.118,48.1668,0,0.000885,0,0
0:3:20.674,853.231,48.284,0,0.000885,0,0
0:3:21.070,855.464,48.4081,0,0.000885,0,0
0:3:21.466,857.163,48.5046,0,0.000885,0,0
0:3:21.865,858.925,48.608,0,0.000885,0,0
0:3:22.264,860.451,48.6908,0,0.000885,0,0
0:3:22.658,862.506,48.808,0,0.000885,0,0
0:3:23.064,863.916,48.8907,0,0.000885,0,0
0:3:23.471,865.206,48.9597,0,0.000885,0,0
0:3:23.871,867.083,49.07,0,0.000885,0,0
0:3:24.268,868.965,49.1734,0,0.000885,0,0
0:3:24.673,871.077,49.2906,0,0.000885,0,0
0:3:25.076,872.545,49.3734,0,0.000885,0,0
0:3:25.479,875.125,49.525,0,0.000885,0,0
0:3:25.883,876.829,49.6216,0,0.000885,0,0
0:3:26.279,878.826,49.7319,0,0.000885,0,0
0:3:26.674,880.174,49.8077,0,0.000885,0,0
0:3:27.070,882.345,49.9318,0,0.000885,0,0
0:3:27.470,884.048,50.0284,0,0.000885,0,0
0:3:27.866,885.459,50.1042,0,0.000885,0,0
0:3:28.259,886.806,50.18,0,0.000885,0,0
0:3:28.654,888.919,50.3041,0,0.000885,0,0
0:3:29.057,890.623,50.4007,0,0.000885,0,0
0:3:29.465,892.62,50.511,0,0.000885,0,0
0:3:29.868,894.088,50.5937,0,0.000885,0,0
0:3:30.269,895.729,50.6903,0,0.000885,0,0
0:3:30.668,897.197,50.773,0,0.000885,0,0
0:3:31.069,898.781,50.8626,0,0.000885,0,0
0:3:31.465,901.365,51.0074,0,0.000885,0,0
0:3:31.868,902.891,51.0902,0,0.000885,0,0
0:3:32.262,905.004,51.2143,0,0.000885,0,0
0:3:32.660,906.766,51.3108,0,0.000885,0,0
0:3:33.069,908.233,51.3935,0,0.000885,0,0
0:3:33.465,909.759,51.4832,0,0.000885,0,0
0:3:33.857,911.579,51.5866,0,0.000885,0,0
0:3:34.261,913.691,51.7038,0,0.000885,0,0
0:3:34.669,915.337,51.8003,0,0.000885,0,0
0:3:35.073,917.157,51.9037,0,0.000885,0,0
0:3:35.474,919.149,52.014,0,0.000885,0,0
0:3:35.870,920.737,52.1037,0,0.000885,0,0
0:3:36.271,922.321,52.1933,0,0.000885,0,0
0:3:36.670,924.727,52.3312,0,0.000885,0,0
0:3:37.074,926.725,52.4415,0,0.000885,0,0
0:3:37.469,927.485,52.4829,0,0.000885,0,0
0:3:37.866,928.953,52.5656,0,0.000885,0,0
0:3:38.263,930.893,52.6759,0,0.000885,0,0
0:3:38.661,932.943,52.7932,0,0.000885,0,0
0:3:39.067,934.941,52.9035,0,0.000885,0,0
0:3:39.470,936.76,53.0069,0,0.000885,0,0
0:3:39.875,938.348,53.0965,0,0.000885,0,0
0:3:40.278,939.989,53.1931,0,0.000885,0,0
0:3:40.680,941.515,53.2758,0,0.000885,0,0
0:3:41.075,943.277,53.3792,0,0.000885,0,0
0:3:41.474,945.212,53.4895,0,0.000885,0,0
0:3:41.874,947.267,53.6067,0,0.000885,0,0
0:3:42.270,948.561,53.6757,0,0.000885,0,0
0:3:42.672,950.616,53.7929,0,0.000885,0,0
0:3:43.070,952.787,53.917,0,0.000885,0,0
0:3:43.469,954.313,53.9997,0,0.000885,0,0
0:3:43.867,955.545,54.0756,0,0.000885,0,0
0:3:44.272,958.245,54.2273,0,0.000885,0,0
0:3:44.676,959.771,54.31,0,0.000885,0,0
0:3:45.079,961.416,54.4065,0,0.000885,0,0
0:3:45.480,963.645,54.5306,0,0.000885,0,0
0:3:45.877,965.229,54.6203,0,0.000885,0,0
0:3:46.273,967.168,54.7306,0,0.000885,0,0
0:3:46.668,968.049,54.7788,0,0.000885,0,0
0:3:47.068,969.69,54.8754,0,0.000885,0,0
0:3:47.464,970.985,54.9443,0,0.000885,0,0
0:3:47.870,973.622,55.096,0,0.000885,0,0
0:3:48.263,975.09,55.1787,0,0.000885,0,0
0:3:48.660,977.439,55.3097,0,0.000885,0,0
0:3:49.059,978.671,55.3787,0,0.000885,0,0
0:3:49.464,980.668,55.4959,0,0.000885,0,0
0:3:49.869,982.603,55.6062,0,0.000885,0,0
0:3:50.272,984.249,55.6958,0,0.000885,0,0
0:3:50.671,985.597,55.7717,0,0.000885,0,0
0:3:51.070,987.83,55.9027,0,0.000885,0,0
0:3:51.464,989.298,55.9854,0,0.000885,0,0
0:3:51.870,991.117,56.0889,0,0.000885,0,0
0:3:52.269,993.172,56.1992,0,0.000885,0,0
0:3:52.668,994.814,56.2957,0,0.000885,0,0
0:3:53.072,996.753,56.406,0,0.000885,0,0
0:3:53.468,998.746,56.5163,0,0.000885,0,0
0:3:53.863,1000.63,56.6266,0,0.000885,0,0
0:3:54.265,1001.74,56.6887,0,0.000885,0,0
0:3:54.671,1003.79,56.8059,0,0.000885,0,0
0:3:55.075,1006.09,56.93,0,0.000885,0,0
0:3:55.476,1007.55,57.0127,0,0.000885,0,0
0:3:55.875,1008.73,57.0817,0,0.000885,0,0
0:3:56.273,1010.96,57.2058,0,0.000885,0,0
0:3:56.669,1012.31,57.2816,0,0.000885,0,0
0:3:57.061,1014.42,57.4057,0,0.000885,0,0
0:3:57.470,1016,57.4954,0,0.000885,0,0
0:3:57.870,1017.29,57.5643,0,0.000885,0,0
0:3:58.268,1019,57.6609,0,0.000885,0,0
0:3:58.662,1021.17,57.785,0,0.000885,0,0
0:3:59.068,1023.63,57.9229,0,0.000885,0,0
0:3:59.473,1025.1,58.0056,0,0.000885,0,0
0:3:59.875,1026.45,58.0883,0,0.000885,0,0
0:4:0.279,1028.39,58.1918,0,0.000885,0,0
0:4:0.673,1029.68,58.2676,0,0.000885,0,0
0:4:1.070,1031.56,58.371,0,0.000885,0,0
0:4:1.468,1033.62,58.4882,0,0.000885,0,0
0:4:1.864,1035.38,58.5916,0,0.000885,0,0
0:4:2.272,1037.31,58.702,0,0.000885,0,0
0:4:2.668,1039.13,58.8054,0,0.000885,0,0
0:4:3.065,1040.95,58.9088,0,0.000885,0,0
0:4:3.463,1042.95,59.0191,0,0.000885,0,0
0:4:3.872,1044.18,59.0881,0,0.000885,0,0
0:4:4.274,1045.94,59.1915,0,0.000885,0,0
0:4:4.678,1048.64,59.3432,0,0.000885,0,0
0:4:5.081,1050.81,59.4673,0,0.000885,0,0
0:4:5.483,1051.93,59.5293,0,0.000885,0,0
0:4:5.879,1053.1,59.5914,0,0.000885,0,0
0:4:6.276,1054.51,59.6741,0,0.000885,0,0
0:4:6.673,1056.45,59.7844,0,0.000885,0,0
0:4:7.072,1058.03,59.8741,0,0.000885,0,0
0:4:7.470,1059.79,59.9706,0,0.000885,0,0
0:4:7.861,1061.73,60.0809,0,0.000885,0,0
0:4:8.258,1063.9,60.205,0,0.000885,0,0
0:4:8.657,1065.25,60.2809,0,0.000885,0,0
0:4:9.064,1066.84,60.3705,0,0.000885,0,0
0:4:9.472,1069.19,60.5015,0,0.000885,0,0
0:4:9.876,1071.18,60.6187,0,0.000885,0,0
0:4:10.279,1072.3,60.6808,0,0.000885,0,0
0:4:10.682,1073.94,60.7704,0,0.000885,0,0
0:4:11.079,1076.29,60.9083,0,0.000885,0,0
0:4:11.474,1078.23,61.0117,0,0.000885,0,0
0:4:11.872,1079.11,61.0669,0,0.000885,0,0
0:4:12.270,1081.75,61.2117,0,0.000885,0,0
0:4:12.666,1083.68,61.322,0,0.000885,0,0
0:4:13.061,1084.8,61.384,0,0.000885,0,0
0:4:13.456,1086.74,61.4943,0,0.000885,0,0
0:4:13.856,1088.15,61.5771,0,0.000885,0,0
0:4:14.254,1090.14,61.6874,0,0.000885,0,0
0:4:14.659,1092.14,61.8046,0,0.000885,0,0
0:4:15.062,1093.31,61.8667,0,0.000885,0,0
0:4:15.465,1095.42,61.9908,0,0.000885,0,0
0:4:15.867,1097.18,62.0873,0,0.000885,0,0
0:4:16.263,1098.47,62.1631,0,0.000885,0,0
0:4:16.658,1101.06,62.3079,0,0.000885,0,0
0:4:17.055,1102.18,62.37,0,0.000885,0,0
0:4:17.453,1104.17,62.4803,0,0.000885,0,0
0:4:17.852,1105.99,62.5837,0,0.000885,0,0
0:4:18.270,1107.93,62.694,0,0.000885,0,0
0:4:18.662,1109.45,62.7837,0,0.000885,0,0
0:4:19.064,1111.98,62.9284,0,0.000885,0,0
0:4:19.471,1113.27,62.9974,0,0.000885,0,0
0:4:19.874,1115.38,63.1146,0,0.000885,0,0
0:4:20.276,1116.32,63.1698,0,0.000885,0,0
0:4:20.670,1118.73,63.3077,0,0.000885,0,0
0:4:21.072,1121.02,63.4387,0,0.000885,0,0
0:4:21.468,1121.9,63.4869,0,0.000885,0,0
0:4:21.864,1124.13,63.611,0,0.000885,0,0
0:4:22.270,1126.36,63.742,0,0.000885,0,0
0:4:22.666,1127.65,63.811,0,0.000885,0,0
0:4:23.065,1128.41,63.8523,0,0.000885,0,0
0:4:23.462,1130.59,63.9765,0,0.000885,0,0
0:4:23.856,1132.46,64.0868,0,0.000885,0,0
0:4:24.260,1134.28,64.1902,0,0.000885,0,0
0:4:24.664,1135.93,64.2798,0,0.000885,0,0
0:4:25.071,1138.04,64.397,0,0.000885,0,0
0:4:25.472,1140.03,64.5142,0,0.000885,0,0
0:4:25.864,1141.5,64.597,0,0.000885,0,0
0:4:26.264,1142.85,64.6728,0,0.000885,0,0
0:4:26.663,1144.79,64.7831,0,0.000885,0,0
0:4:27.059,1147.2,64.921,0,0.000885,0,0
0:4:27.466,1148.84,65.0107,0,0.000885,0,0
0:4:27.860,1149.9,65.0727,0,0.000885,0,0
0:4:28.260,1151.84,65.183,0,0.000885,0,0
0:4:28.658,1153.54,65.2796,0,0.000885,0,0
0:4:29.054,1155.65,65.3968,0,0.000885,0,0
0:4:29.459,1157.35,65.4933,0,0.000885,0,0
0:4:29.864,1159.64,65.6243,0,0.000885,0,0
0:4:30.266,1161.7,65.7415,0,0.000885,0,0
0:4:30.668,1163.05,65.8174,0,0.000885,0,0
0:4:31.065,1165.16,65.9346,0,0.000885,0,0
0:4:31.461,1166.45,66.0104,0,0.000885,0,0
0:4:31.871,1168.39,66.1138,0,0.000885,0,0
0:4:32.268,1169.38,66.1759,0,0.000885,0,0
0:4:32.663,1171.79,66.3069,0,0.000885,0,0
0:4:33.067,1173.55,66.4103,0,0.000885,0,0
0:4:33.465,1174.96,66.4861,0,0.000885,0,0
0:4:33.866,1175.96,66.5482,0,0.000885,0,0
0:4:34.263,1177.78,66.6516,0,0.000885,0,0
0:4:34.667,1180.13,66.7826,0,0.000885,0,0
0:4:35.074,1182.24,66.8998,0,0.000885,0,0
0:4:35.475,1184.65,67.0377,0,0.000885,0,0
0:4:35.878,1186,67.1136,0,0.000885,0,0
0:4:36.274,1187.64,67.2101,0,0.000885,0,0
0:4:36.677,1189.23,67.2997,0,0.000885,0,0
0:4:37.077,1190.28,67.3549,0,0.000885,0,0
0:4:37.476,1192.45,67.479,0,0.000885,0,0
0:4:37.873,1194.63,67.6031,0,0.000885,0,0
0:4:38.266,1196.21,67.6927,0,0.000885,0,0
0:4:38.674,1197.79,67.7824,0,0.000885,0,0
0:4:39.075,1200.44,67.934,0,0.000885,0,0
0:4:39.480,1202.26,68.0306,0,0.000885,0,0
0:4:39.884,1203.43,68.0995,0,0.000885,0,0
0:4:40.286,1205.25,68.2029,0,0.000885,0,0
0:4:40.684,1206.83,68.2926,0,0.000885,0,0
0:4:41.085,1208.36,68.3822,0,0.000885,0,0
0:4:41.482,1210.24,68.4856,0,0.000885,0,0
0:4:41.876,1212.35,68.6028,0,0.000885,0,0
0:4:42.274,1213.76,68.6856,0,0.000885,0,0
0:4:42.669,1216.05,68.8166,0,0.000885,0,0
0:4:43.068,1217.87,68.92,0,0.000885,0,0
0:4:43.464,1218.99,68.982,0,0.000885,0,0
0:4:43.868,1220.45,69.0648,0,0.000885,0,0
0:4:44.273,1222.86,69.2027,0,0.000885,0,0
0:4:44.679,1224.33,69.2854,0,0.000885,0,0
0:4:45.083,1226.15,69.3888,0,0.000885,0,0
0:4:45.485,1228.2,69.4992,0,0.000885,0,0
0:4:45.882,1229.32,69.5681,0,0.000885,0,0
0:4:46.281,1232.08,69.7198,0,0.000885,0,0
0:4:46.679,1233.31,69.7887,0,0.000885,0,0
0:4:47.074,1235.77,69.9335,0,0.000885,0,0
0:4:47.468,1237.13,70.0094,0,0.000885,0,0
0:4:47.866,1239.12,70.1197,0,0.000885,0,0
0:4:48.265,1240.88,70.2162,0,0.000885,0,0
0:4:48.683,1242.11,70.2921,0,0.000885,0,0
0:4:49.079,1244.29,70.4093,0,0.000885,0,0
0:4:49.483,1245.64,70.492,0,0.000885,0,0
0:4:49.889,1247.81,70.6092,0,0.000885,0,0
0:4:50.291,1249.39,70.6988,0,0.000885,0,0
0:4:50.693,1252.09,70.8505,0,0.000885,0,0
0:4:51.089,1252.68,70.885,0,0.000885,0,0
0:4:51.486,1255.44,71.0436,0,0.000885,0,0
0:4:51.887,1256.73,71.1194,0,0.000885,0,0
0:4:52.282,1258.55,71.2159,0,0.000885,0,0
0:4:52.676,1259.43,71.2711,0,0.000885,0,0
0:4:53.075,1261.66,71.3952,0,0.000885,0,0
0:4:53.471,1263.19,71.4848,0,0.000885,0,0
0:4:53.869,1264.83,71.5745,0,0.000885,0,0
0:4:54.276,1267.47,71.7262,0,0.000885,0,0
0:4:54.679,1269.12,71.8158,0,0.000885,0,0
0:4:55.081,1270.52,71.8985,0,0.000885,0,0
0:4:55.483,1272.58,72.0157,0,0.000885,0,0
0:4:55.880,1273.87,72.0847,0,0.000885,0,0
0:4:56.276,1275.98,72.2088,0,0.000885,0,0
0:4:56.669,1277.16,72.2708,0,0.000885,0,0
0:4:57.069,1279.27,72.395,0,0.000885,0,0
0:4:57.479,1281.32,72.5053,0,0.000885,0,0
0:4:57.883,1283.5,72.6294,0,0.000885,0,0
0:4:58.278,1284.44,72.6845,0,0.000885,0,0
0:4:58.677,1286.43,72.7948,0,0.000885,0,0
0:4:59.077,1288.66,72.9258,0,0.000885,0,0
0:4:59.482,1290.54,73.0293,0,0.000885,0,0
0:4:59.885,1292.6,73.1465,0,0.000885,0,0
0:5:0.286,1293.89,73.2223,0,0.000885,0,0
0:5:0.687,1295.59,73.312,0,0.000885,0,0
0:5:1.085,1297.35,73.4154,0,0.000885,0,0
0:5:1.481,1297.94,73.4498,0,0.000885,0,0
0:5:1.876,1299.81,73.5533,0,0.000885,0,0
0:5:2.275,1301.87,73.6705,0,0.000885,0,0
0:5:2.671,1303.98,73.7877,0,0.000885,0,0
0:5:3.068,1305.98,73.9049,0,0.000885,0,0
0:5:3.463,1307.8,74.0083,0,0.000885,0,0
0:5:3.860,1309.79,74.1186,0,0.000885,0,0
0:5:4.260,1311.44,74.2152,0,0.000885,0,0
0:5:4.666,1313.08,74.3048,0,0.000885,0,0
0:5:5.069,1314.49,74.3875,0,0.000885,0,0
0:5:5.470,1316.07,74.4772,0,0.000885,0,0
0:5:5.871,1318.13,74.5875,0,0.000885,0,0
0:5:6.269,1319.95,74.6909,0,0.000885,0,0
0:5:6.664,1321.18,74.7667,0,0.000885,0,0
0:5:7.060,1323.23,74.8771,0,0.000885,0,0
0:5:7.457,1325.41,75.0012,0,0.000885,0,0
0:5:7.857,1326.76,75.077,0,0.000885,0,0
0:5:8.264,1328.93,75.2011,0,0.000885,0,0
0:5:8.659,1330.45,75.2907,0,0.000885,0,0
0:5:9.064,1331.92,75.3735,0,0.000885,0,0
0:5:9.468,1333.74,75.4769,0,0.000885,0,0
0:5:9.870,1335.8,75.5941,0,0.000885,0,0
0:5:10.272,1337.03,75.6631,0,0.000885,0,0
0:5:10.668,1338.62,75.7527,0,0.000885,0,0
0:5:11.066,1340.73,75.8699,0,0.000885,0,0
0:5:11.464,1343.19,76.0078,0,0.000885,0,0
0:5:11.860,1344.72,76.0974,0,0.000885,0,0
0:5:12.257,1346.3,76.1871,0,0.000885,0,0
0:5:12.651,1347.83,76.2698,0,0.000885,0,0
0:5:13.061,1350.36,76.4146,0,0.000885,0,0
0:5:13.459,1351.82,76.4973,0,0.000885,0,0
0:5:13.865,1353.29,76.5801,0,0.000885,0,0
0:5:14.269,1356.16,76.7455,0,0.000885,0,0
0:5:14.671,1357.34,76.8076,0,0.000885,0,0
0:5:15.076,1358.93,76.8972,0,0.000885,0,0
0:5:15.478,1360.51,76.9869,0,0.000885,0,0
0:5:15.873,1361.74,77.0558,0,0.000885,0,0
0:5:16.270,1364.03,77.1868,0,0.000885,0,0
0:5:16.666,1366.03,77.304,0,0.000885,0,0
0:5:17.066,1367.55,77.3868,0,0.000885,0,0
0:5:17.464,1370.19,77.5384,0,0.000885,0,0
0:5:17.880,1371.13,77.5936,0,0.000885,0,0
0:5:18.273,1373.72,77.7384,0,0.000885,0,0
0:5:18.671,1375.24,77.8211,0,0.000885,0,0
0:5:19.072,1376.48,77.8901,0,0.000885,0,0
0:5:19.480,1379.41,78.0555,0,0.000885,0,0
0:5:19.881,1380.23,78.1038,0,0.000885,0,0
0:5:20.283,1381.88,78.2003,0,0.000885,0,0
0:5:20.683,1383.52,78.29,0,0.000885,0,0
0:5:21.081,1385.11,78.3796,0,0.000885,0,0
0:5:21.478,1386.69,78.4692,0,0.000885,0,0
0:5:21.883,1389.33,78.6209,0,0.000885,0,0
0:5:22.278,1390.91,78.7105,0,0.000885,0,0
0:5:22.679,1392.5,78.8002,0,0.000885,0,0
0:5:23.078,1394.14,78.8898,0,0.000885,0,0
0:5:23.471,1395.73,78.9794,0,0.000885,0,0
0:5:23.867,1397.78,79.0967,0,0.000885,0,0
0:5:24.271,1400.07,79.2277,0,0.000885,0,0
0:5:24.678,1401.48,79.3104,0,0.000885,0,0
0:5:25.082,1403.42,79.4207,0,0.000885,0,0
0:5:25.483,1405.24,79.5172,0,0.000885,0,0
0:5:25.879,1406.47,79.5931,0,0.000885,0,0
0:5:26.279,1408.29,79.6896,0,0.000885,0,0
0:5:26.678,1410.58,79.8206,0,0.000885,0,0
0:5:27.072,1411.75,79.8896,0,0.000885,0,0
0:5:27.479,1414.22,80.0274,0,0.000885,0,0
0:5:27.874,1415.63,80.1102,0,0.000885,0,0
0:5:28.273,1417.39,80.2067,0,0.000885,0,0
0:5:28.671,1418.86,80.2894,0,0.000885,0,0
0:5:29.069,1420.27,80.3722,0,0.000885,0,0
0:5:29.474,1422.44,80.4963,0,0.000885,0,0
0:5:29.879,1424.14,80.5928,0,0.000885,0,0
0:5:30.282,1425.84,80.6893,0,0.000885,0,0
0:5:30.684,1428.13,80.8135,0,0.000885,0,0
0:5:31.082,1429.19,80.8755,0,0.000885,0,0
0:5:31.486,1431.48,81.0065,0,0.000885,0,0
0:5:31.883,1433.06,81.0961,0,0.000885,0,0
0:5:32.283,1435.23,81.2202,0,0.000885,0,0
0:5:32.681,1436.76,81.303,0,0.000885,0,0
0:5:33.074,1438.05,81.3788,0,0.000885,0,0
0:5:33.480,1440.28,81.5029,0,0.000885,0,0
0:5:33.879,1441.93,81.5995,0,0.000885,0,0
0:5:34.279,1443.86,81.7029,0,0.000885,0,0
0:5:34.684,1445.68,81.8063,0,0.000885,0,0
0:5:35.088,1447.5,81.9097,0,0.000885,0,0
0:5:35.491,1449.56,82.0269,0,0.000885,0,0
0:5:35.891,1451.08,82.1166,0,0.000885,0,0
0:5:36.291,1452.55,82.1993,0,0.000885,0,0
0:5:36.688,1454.84,82.3303,0,0.000885,0,0
0:5:37.082,1456.66,82.4268,0,0.000885,0,0
0:5:37.480,1458.13,82.5165,0,0.000885,0,0
0:5:37.878,1458.77,82.5509,0,0.000885,0,0
0:5:38.275,1460.71,82.6612,0,0.000885,0,0
0:5:38.683,1463.41,82.8129,0,0.000885,0,0
0:5:39.075,1464.94,82.8957,0,0.000885,0,0
0:5:39.480,1466.11,82.9646,0,0.000885,0,0
0:5:39.886,1467.99,83.068,0,0.000885,0,0
0:5:40.289,1470.1,83.1921,0,0.000885,0,0
0:5:40.691,1472.21,83.3094,0,0.000885,0,0
0:5:41.088,1473.68,83.3921,0,0.000885,0,0
0:5:41.487,1475.15,83.4748,0,0.000885,0,0
0:5:41.887,1476.91,83.5782,0,0.000885,0,0
0:5:42.282,1478.79,83.6817,0,0.000885,0,0
0:5:42.675,1480.44,83.7782,0,0.000885,0,0
0:5:43.072,1482.26,83.8816,0,0.000885,0,0
0:5:43.471,1484.86,84.0264,0,0.000885,0,0
0:5:43.870,1486.33,84.1091,0,0.000885,0,0
0:5:44.275,1488.04,84.2057,0,0.000885,0,0
0:5:44.680,1489.92,84.3091,0,0.000885,0,0
0:5:45.082,1491.98,84.4263,0,0.000885,0,0
0:5:45.484,1493.33,84.5021,0,0.000885,0,0
0:5:45.888,1495.45,84.6263,0,0.000885,0,0
0:5:46.285,1496.75,84.7021,0,0.000885,0,0
0:5:46.681,1499.05,84.8262,0,0.000885,0,0
0:5:47.081,1499.81,84.8745,0,0.000885,0,0
0:5:47.475,1501.87,84.9917,0,0.000885,0,0
0:5:47.882,1503.58,85.0882,0,0.000885,0,0
0:5:48.286,1505.58,85.1985,0,0.000885,0,0
0:5:48.686,1506.88,85.2744,0,0.000885,0,0
0:5:49.086,1508.76,85.3778,0,0.000885,0,0
0:5:49.491,1510.65,85.4881,0,0.000885,0,0
0:5:49.894,1512.94,85.6122,0,0.000885,0,0
0:5:50.297,1514.47,85.7018,0,0.000885,0,0
0:5:50.699,1516.47,85.8121,0,0.000885,0,0
0:5:51.097,1518.07,85.9018,0,0.000885,0,0
0:5:51.493,1519.54,85.9914,0,0.000885,0,0
0:5:51.888,1521.66,86.1086,0,0.000885,0,0
0:5:52.287,1523.25,86.1983,0,0.000885,0,0
0:5:52.687,1524.89,86.2948,0,0.000885,0,0
0:5:53.083,1526.96,86.4051,0,0.000885,0,0
0:5:53.479,1528.84,86.5154,0,0.000885,0,0
0:5:53.874,1530.73,86.6188,0,0.000885,0,0
0:5:54.275,1531.96,86.6947,0,0.000885,0,0
0:5:54.682,1533.73,86.7912,0,0.000885,0,0
0:5:55.085,1536.08,86.9222,0,0.000885,0,0
0:5:55.488,1538.26,87.0463,0,0.000885,0,0
0:5:55.887,1539.38,87.1084,0,0.000885,0,0
0:5:56.285,1541.32,87.2187,0,0.000885,0,0
0:5:56.681,1542.5,87.2876,0,0.000885,0,0
0:5:57.074,1544.39,87.391,0,0.000885,0,0
0:5:57.474,1545.97,87.4876,0,0.000885,0,0
0:5:57.872,1547.51,87.5703,0,0.000885,0,0
0:5:58.269,1549.74,87.6944,0,0.000885,0,0
0:5:58.666,1551.86,87.8185,0,0.000885,0,0
0:5:59.070,1553.16,87.8875,0,0.000885,0,0
0:5:59.476,1554.69,87.9771,0,0.000885,0,0
0:5:59.878,1556.93,88.1012,0,0.000885,0,0
0:6:0.282,1558.69,88.2046,0,0.000885,0,0
0:6:0.686,1560.58,88.3081,0,0.000885,0,0
0:6:1.086,1562.29,88.4046,0,0.000885,0,0
0:6:1.484,1564.35,88.5218,0,0.000885,0,0
0:6:1.878,1564.58,88.5356,0,0.000885,0,0
0:6:2.274,1566.65,88.6528,0,0.000885,0,0
0:6:2.682,1568.94,88.7838,0,0.000885,0,0
0:6:3.081,1571.12,88.9079,0,0.000885,0,0
0:6:3.477,1572.36,88.9768,0,0.000885,0,0
0:6:3.873,1574.77,89.1147,0,0.000885,0,0
0:6:4.277,1576.53,89.2113,0,0.000885,0,0
0:6:4.683,1578.95,89.3492,0,0.000885,0,0
0:6:5.084,1580.31,89.425,0,0.000885,0,0
0:6:5.486,1581.13,89.4733,0,0.000885,0,0
0:6:5.882,1582.72,89.5629,0,0.000885,0,0
0:6:6.275,1584.25,89.6525,0,0.000885,0,0
0:6:6.674,1586.13,89.756,0,0.000885,0,0
0:6:7.084,1588.31,89.8801,0,0.000885,0,0
0:6:7.477,1590.26,89.9904,0,0.000885,0,0
0:6:7.871,1592.37,90.1076,0,0.000885,0,0
0:6:8.270,1594.26,90.2179,0,0.000885,0,0
0:6:8.669,1596.15,90.3213,0,0.000885,0,0
0:6:9.064,1597.85,90.4178,0,0.000885,0,0
0:6:9.469,1599.15,90.4937,0,0.000885,0,0
0:6:9.873,1601.39,90.6178,0,0.000885,0,0
0:6:10.276,1602.74,90.6936,0,0.000885,0,0
0:6:10.678,1604.39,90.7902,0,0.000885,0,0
0:6:11.074,1606.27,90.8936,0,0.000885,0,0
0:6:11.469,1608.27,91.0108,0,0.000885,0,0
0:6:11.867,1609.98,91.1073,0,0.000885,0,0
0:6:12.266,1612.04,91.2245,0,0.000885,0,0
0:6:12.672,1613.52,91.3073,0,0.000885,0,0
0:6:13.066,1615.34,91.4107,0,0.000885,0,0
0:6:13.464,1617.4,91.5279,0,0.000885,0,0
0:6:13.864,1618.99,91.6175,0,0.000885,0,0
0:6:14.259,1620.46,91.7003,0,0.000885,0,0
0:6:14.664,1622.05,91.7899,0,0.000885,0,0
0:6:15.069,1623.76,91.8864,0,0.000885,0,0
0:6:15.471,1625.23,91.9692,0,0.000885,0,0
0:6:15.875,1627.47,92.0933,0,0.000885,0,0
0:6:16.283,1629.12,92.1898,0,0.000885,0,0
0:6:16.676,1631.35,92.3139,0,0.000885,0,0
0:6:17.083,1633.12,92.4173,0,0.000885,0,0
0:6:17.482,1635.18,92.5345,0,0.000885,0,0
0:6:17.880,1636.36,92.5966,0,0.000885,0,0
0:6:18.274,1637.42,92.6586,0,0.000885,0,0
0:6:18.680,1639.42,92.769,0,0.000885,0,0
0:6:19.085,1641.55,92.8931,0,0.000885,0,0
0:6:19.491,1643.43,92.9965,0,0.000885,0,0
0:6:19.894,1645.25,93.0999,0,0.000885,0,0
0:6:20.295,1646.96,93.1964,0,0.000885,0,0
0:6:20.691,1649.08,93.3205,0,0.000885,0,0
0:6:21.092,1650.67,93.4102,0,0.000885,0,0
0:6:21.489,1652.5,93.5136,0,0.000885,0,0
0:6:21.885,1654.56,93.6308,0,0.000885,0,0
0:6:22.278,1656.03,93.7135,0,0.000885,0,0
0:6:22.675,1657.91,93.817,0,0.000885,0,0
0:6:23.075,1659.8,93.9273,0,0.000885,0,0
0:6:23.480,1661.27,94.01,0,0.000885,0,0
0:6:23.876,1663.33,94.1272,0,0.000885,0,0
0:6:24.278,1665.1,94.2238,0,0.000885,0,0
0:6:24.684,1666.51,94.3065,0,0.000885,0,0
0:6:25.088,1667.98,94.3892,0,0.000885,0,0
0:6:25.489,1669.4,94.4651,0,0.000885,0,0
0:6:25.886,1670.45,94.5271,0,0.000885,0,0
0:6:26.284,1659.85,93.9273,0,0.000885,0,0
0:6:26.679,1664.45,94.1893,0,0.000885,0,0
0:6:27.073,1670.1,94.5064,0,0.000885,0,0
0:6:27.478,1674.16,94.7409,0,0.000885,0,0
0:6:27.876,1678.52,94.9822,0,0.000885,0,0
0:6:28.275,1681.7,95.1614,0,0.000885,0,0
0:6:28.672,1685.18,95.3614,0,0.000885,0,0
0:6:29.069,1687.88,95.5131,0,0.000885,0,0
0:6:29.473,1690,95.6372,0,0.000885,0,0
0:6:29.877,1691.95,95.7475,0,0.000885,0,0
0:6:30.279,1693.59,95.8371,0,0.000885,0,0
0:6:30.685,1695.77,95.9612,0,0.000885,0,0
0:6:31.090,1696.24,95.9888,0,0.000885,0,0
0:6:31.486,1697.6,96.0647,0,0.000885,0,0
0:6:31.885,1697.95,96.0853,0,0.000885,0,0
0:6:32.291,1695.89,95.9681,0,0.000885,0,0
0:6:32.686,1697.9,96.0784,0,0.000885,0,0
0:6:33.078,1701.08,96.2577,0,0.000885,0,0
0:6:33.477,1702.31,96.3335,0,0.000885,0,0
0:6:33.877,1703.96,96.4232,0,0.000885,0,0
0:6:34.280,1706.72,96.5818,0,0.000885,0,0
0:6:34.686,1705.84,96.5335,0,0.000885,0,0
0:6:35.087,1706.43,96.5611,0,0.000885,0,0
0:6:35.487,1708.61,96.6852,0,0.000885,0,0
0:6:35.886,1710.03,96.7679,0,0.000885,0,0
0:6:36.280,1711.03,96.8231,0,0.000885,0,0
0:6:36.685,1712.79,96.9265,0,0.000885,0,0
0:6:37.092,1709.61,96.7472,0,0.000885,0,0
0:6:37.490,1710.14,96.7748,0,0.000885,0,0
0:6:37.886,1711.97,96.8782,0,0.000885,0,0
0:6:38.279,1713.74,96.9748,0,0.000885,0,0
0:6:38.675,1715.21,97.0575,0,0.000885,0,0
0:6:39.077,1717.27,97.1747,0,0.000885,0,0
0:6:39.485,1719.38,97.2988,0,0.000885,0,0
0:6:39.888,1720.98,97.3884,0,0.000885,0,0
0:6:40.290,1723.09,97.5057,0,0.000885,0,0
0:6:40.688,1725.1,97.6229,0,0.000885,0,0
0:6:41.087,1725.22,97.6298,0,0.000885,0,0
0:6:41.482,1725.63,97.6504,0,0.000885,0,0
0:6:41.855,1721.68,97.4298,0,0.000885,0,0