File: DataFile2021-07-15_045417.csv
Test ID:,Date Tested:,Time:,Test Type:,Diameter Avg. (mm):,Cyl. Corr. Factor:,Height (mm):,Age (days):,Weight (kN):,Break Type:,Ramp Rate (MPa/s):,Load at Break (kN):,Stress at Break (MPa):
12,7/15/2021,04:54,Cylinder,150,1,300,0,3.6,3,0.25,1703.48,96.4
Sample Time,Load (kN),Stress (MPa),Long. Strain,Trans. Strain,Chan1 Deflection (mm),Chan2 Deflection (mm)
0:0:12.151,5.63145,0.317159,0,0.000885,0,0
0:0:12.548,10.3243,0.586054,0,0.000885,0,0
0:0:12.944,10.8492,0.613633,0,0.000885,0,0
0:0:13.340,10.6757,0.606739,0,0.000885,0,0
0:0:13.739,11.6721,0.661897,0,0.000885,0,0
0:0:14.138,13.9007,0.786002,0,0.000885,0,0
0:0:14.534,15.2485,0.861845,0,0.000885,0,0
0:0:14.929,17.2413,0.979056,0,0.000885,0,0
0:0:15.329,19.6478,1.11006,0,0.000885,0,0
0:0:15.728,20.4084,1.15832,0,0.000885,0,0
0:0:16.123,21.2314,1.19969,0,0.000885,0,0
0:0:16.520,23.1663,1.31,0,0.000885,0,0
0:0:16.917,25.1591,1.42721,0,0.000885,0,0
0:0:17.319,27.3877,1.55132,0,0.000885,0,0
0:0:17.716,29.2648,1.65474,0,0.000885,0,0
0:0:18.121,31.4356,1.77885,0,0.000885,0,0
0:0:18.526,33.4907,1.89606,0,0.000885,0,0
0:0:18.930,35.5991,2.01327,0,0.000885,0,0
0:0:19.332,37.6542,2.13048,0,0.000885,0,0
0:0:19.733,39.647,2.2408,0,0.000885,0,0
0:0:20.129,41.4663,2.34422,0,0.000885,0,0
0:0:20.528,43.7527,2.47522,0,0.000885,0,0
0:0:20.927,46.217,2.61311,0,0.000885,0,0
0:0:21.326,47.8006,2.70274,0,0.000885,0,0
0:0:21.723,49.1484,2.77859,0,0.000885,0,0
0:0:22.119,50.087,2.83375,0,0.000885,0,0
0:0:22.521,51.9063,2.93717,0,0.000885,0,0
0:0:22.928,52.9605,2.99922,0,0.000885,0,0
0:0:23.331,54.9533,3.10954,0,0.000885,0,0
0:0:23.735,56.8305,3.21296,0,0.000885,0,0
0:0:24.133,58.3562,3.30259,0,0.000885,0,0
0:0:24.533,60.4691,3.4198,0,0.000885,0,0
0:0:24.931,61.9949,3.50943,0,0.000885,0,0
0:0:25.328,63.5784,3.59906,0,0.000885,0,0
0:0:25.725,65.162,3.6887,0,0.000885,0,0
0:0:26.125,67.0391,3.79212,0,0.000885,0,0
0:0:26.525,69.1476,3.91622,0,0.000885,0,0
0:0:26.921,70.8513,4.00585,0,0.000885,0,0
0:0:27.319,72.7284,4.11617,0,0.000885,0,0
0:0:27.724,74.6634,4.22649,0,0.000885,0,0
0:0:28.129,76.1891,4.30922,0,0.000885,0,0
0:0:28.533,78.4177,4.44022,0,0.000885,0,0
0:0:28.936,80.3527,4.54365,0,0.000885,0,0
0:0:29.333,81.9362,4.63328,0,0.000885,0,0
0:0:29.731,82.9326,4.69533,0,0.000885,0,0
0:0:30.133,84.9833,4.81254,0,0.000885,0,0
0:0:30.531,86.7448,4.90907,0,0.000885,0,0
0:0:30.926,88.7376,5.01938,0,0.000885,0,0
0:0:31.325,90.3211,5.10902,0,0.000885,0,0
0:0:31.725,92.1983,5.21933,0,0.000885,0,0
0:0:32.123,94.1911,5.32965,0,0.000885,0,0
0:0:32.520,96.1261,5.43996,0,0.000885,0,0
0:0:32.925,97.594,5.5227,0,0.000885,0,0
0:0:33.330,99.2932,5.61923,0,0.000885,0,0
0:0:33.733,100.819,5.70196,0,0.000885,0,0
0:0:34.136,103.105,5.83296,0,0.000885,0,0
0:0:34.532,104.573,5.9157,0,0.000885,0,0
0:0:34.929,105.921,5.99154,0,0.000885,0,0
0:0:35.330,108.034,6.11565,0,0.000885,0,0
0:0:35.730,109.853,6.21907,0,0.000885,0,0
0:0:36.126,110.965,6.28112,0,0.000885,0,0
0:0:36.522,113.02,6.39833,0,0.000885,0,0
0:0:36.922,114.777,6.49486,0,0.000885,0,0
0:0:37.323,116.539,6.59139,0,0.000885,0,0
0:0:37.728,118.358,6.69481,0,0.000885,0,0
0:0:38.132,120.409,6.81202,0,0.000885,0,0
0:0:38.536,122.05,6.90855,0,0.000885,0,0
0:0:38.938,123.692,6.99818,0,0.000885,0,0
0:0:39.335,125.453,7.1016,0,0.000885,0,0
0:0:39.732,127.388,7.21192,0,0.000885,0,0
0:0:40.129,129.501,7.32913,0,0.000885,0,0
0:0:40.528,131.027,7.41186,0,0.000885,0,0
0:0:40.929,132.317,7.48771,0,0.000885,0,0
0:0:41.326,134.897,7.6325,0,0.000885,0,0
0:0:41.722,136.538,7.72902,0,0.000885,0,0
0:0:42.121,138.531,7.83934,0,0.000885,0,0
0:0:42.522,140.466,7.94966,0,0.000885,0,0
0:0:42.928,142.17,8.04618,0,0.000885,0,0
0:0:43.333,143.989,8.1496,0,0.000885,0,0
0:0:43.734,145.63,8.23923,0,0.000885,0,0
0:0:44.136,146.978,8.31508,0,0.000885,0,0
0:0:44.534,148.504,8.40471,0,0.000885,0,0
0:0:44.931,150.03,8.48745,0,0.000885,0,0
0:0:45.327,151.671,8.58397,0,0.000885,0,0
0:0:45.724,153.606,8.69429,0,0.000885,0,0
0:0:46.126,155.835,8.81839,0,0.000885,0,0
0:0:46.523,157.418,8.90803,0,0.000885,0,0
0:0:46.920,159.18,9.00455,0,0.000885,0,0
0:0:47.317,160.643,9.08729,0,0.000885,0,0
0:0:47.720,162.872,9.21829,0,0.000885,0,0
0:0:48.127,164.455,9.30792,0,0.000885,0,0
0:0:48.530,166.097,9.39755,0,0.000885,0,0
0:0:48.932,168.032,9.50787,0,0.000885,0,0
0:0:49.331,169.851,9.61129,0,0.000885,0,0
0:0:49.731,172.079,9.7354,0,0.000885,0,0
0:0:50.129,173.605,9.82503,0,0.000885,0,0
0:0:50.527,175.425,9.92845,0,0.000885,0,0
0:0:50.923,177.533,10.0457,0,0.000885,0,0
0:0:51.324,179.41,10.156,0,0.000885,0,0
0:0:51.724,181.114,10.2456,0,0.000885,0,0
0:0:52.121,183.049,10.3559,0,0.000885,0,0
0:0:52.518,183.867,10.4042,0,0.000885,0,0
0:0:52.923,185.744,10.5145,0,0.000885,0,0
0:0:53.329,187.39,10.6041,0,0.000885,0,0
0:0:53.732,189.147,10.7007,0,0.000885,0,0
0:0:54.135,190.673,10.7903,0,0.000885,0,0
0:0:54.532,192.372,10.8868,0,0.000885,0,0
0:0:54.929,193.956,10.9765,0,0.000885,0,0
0:0:55.325,195.659,11.073,0,0.000885,0,0
0:0:55.720,197.594,11.1833,0,0.000885,0,0
0:0:56.113,199.294,11.2798,0,0.000885,0,0
0:0:56.506,201.522,11.4039,0,0.000885,0,0
0:0:56.904,203.635,11.5211,0,0.000885,0,0
0:0:57.311,205.099,11.6039,0,0.000885,0,0
0:0:57.713,207.154,11.7211,0,0.000885,0,0
0:0:58.115,208.795,11.8176,0,0.000885,0,0
0:0:58.515,210.557,11.9141,0,0.000885,0,0
0:0:58.915,212.549,12.0245,0,0.000885,0,0
0:0:59.311,214.191,12.121,0,0.000885,0,0
0:0:59.712,216.304,12.2382,0,0.000885,0,0
0:1:0.118,217.887,12.3278,0,0.000885,0,0
0:1:0.514,219.586,12.4244,0,0.000885,0,0
0:1:0.907,221.642,12.5416,0,0.000885,0,0
0:1:1.312,222.696,12.6036,0,0.000885,0,0
0:1:1.715,224.101,12.6795,0,0.000885,0,0
0:1:2.113,225.511,12.7622,0,0.000885,0,0
0:1:2.510,227.389,12.8656,0,0.000885,0,0
0:1:2.915,229.559,12.9897,0,0.000885,0,0
0:1:3.315,231.201,13.0862,0,0.000885,0,0
0:1:3.714,232.958,13.1828,0,0.000885,0,0
0:1:4.114,234.604,13.2724,0,0.000885,0,0
0:1:4.510,237.006,13.4103,0,0.000885,0,0
0:1:4.912,239.412,13.5482,0,0.000885,0,0
0:1:5.305,240.644,13.6171,0,0.000885,0,0
0:1:5.702,242.815,13.7413,0,0.000885,0,0
0:1:6.099,244.456,13.8309,0,0.000885,0,0
0:1:6.504,245.689,13.8998,0,0.000885,0,0
0:1:6.905,248.091,14.0377,0,0.000885,0,0
0:1:7.301,249.91,14.1411,0,0.000885,0,0
0:1:7.701,251.378,14.2239,0,0.000885,0,0
0:1:8.104,253.077,14.3204,0,0.000885,0,0
0:1:8.504,254.661,14.41,0,0.000885,0,0
0:1:8.904,256.302,14.5066,0,0.000885,0,0
0:1:9.312,258.179,14.61,0,0.000885,0,0
0:1:9.711,259.999,14.7134,0,0.000885,0,0
0:1:10.101,261.231,14.7824,0,0.000885,0,0
0:1:10.503,262.694,14.8651,0,0.000885,0,0
0:1:10.911,265.043,14.9961,0,0.000885,0,0
0:1:11.307,266.8,15.0995,0,0.000885,0,0
0:1:11.702,268.441,15.1892,0,0.000885,0,0
0:1:12.095,270.554,15.3133,0,0.000885,0,0
0:1:12.497,272.138,15.4029,0,0.000885,0,0
0:1:12.901,273.837,15.4994,0,0.000885,0,0
0:1:13.300,275.421,15.589,0,0.000885,0,0
0:1:13.700,277.418,15.6994,0,0.000885,0,0
0:1:14.094,279.117,15.7959,0,0.000885,0,0
0:1:14.500,280.936,15.8993,0,0.000885,0,0
0:1:14.898,283.281,16.0303,0,0.000885,0,0
0:1:15.314,284.922,16.1268,0,0.000885,0,0
0:1:15.717,286.568,16.2165,0,0.000885,0,0
0:1:16.112,288.089,16.2992,0,0.000885,0,0
0:1:16.506,290.028,16.4095,0,0.000885,0,0
0:1:16.904,291.492,16.4923,0,0.000885,0,0
0:1:17.298,293.841,16.6302,0,0.000885,0,0
0:1:17.701,295.304,16.7129,0,0.000885,0,0
0:1:18.103,297.301,16.8232,0,0.000885,0,0
0:1:18.503,299.116,16.9266,0,0.000885,0,0
0:1:18.902,300.878,17.0232,0,0.000885,0,0
0:1:19.297,301.638,17.0714,0,0.000885,0,0
0:1:19.709,303.573,17.1817,0,0.000885,0,0
0:1:20.106,305.393,17.2852,0,0.000885,0,0
0:1:20.514,307.741,17.4162,0,0.000885,0,0
0:1:20.905,309.383,17.5058,0,0.000885,0,0
0:1:21.312,311.024,17.6023,0,0.000885,0,0
0:1:21.704,312.901,17.7057,0,0.000885,0,0
0:1:22.109,314.307,17.7885,0,0.000885,0,0
0:1:22.508,316.184,17.8919,0,0.000885,0,0
0:1:22.913,318.119,18.0022,0,0.000885,0,0
0:1:23.316,319.996,18.1056,0,0.000885,0,0
0:1:23.716,321.873,18.2159,0,0.000885,0,0
0:1:24.115,323.515,18.3056,0,0.000885,0,0
0:1:24.509,324.983,18.3883,0,0.000885,0,0
0:1:24.915,327.211,18.5193,0,0.000885,0,0
0:1:25.305,329.146,18.6227,0,0.000885,0,0
0:1:25.702,330.436,18.6986,0,0.000885,0,0
0:1:26.099,332.549,18.8158,0,0.000885,0,0
0:1:26.502,334.426,18.9261,0,0.000885,0,0
0:1:26.897,336.125,19.0226,0,0.000885,0,0
0:1:27.301,337.651,19.1054,0,0.000885,0,0
0:1:27.701,339.702,19.2226,0,0.000885,0,0
0:1:28.105,341.641,19.3329,0,0.000885,0,0
0:1:28.505,342.344,19.3743,0,0.000885,0,0
0:1:28.906,343.985,19.4639,0,0.000885,0,0
0:1:29.302,346.098,19.588,0,0.000885,0,0
0:1:29.699,348.385,19.7121,0,0.000885,0,0
0:1:30.096,349.559,19.7811,0,0.000885,0,0
0:1:30.488,351.08,19.8638,0,0.000885,0,0
0:1:30.881,353.193,19.9879,0,0.000885,0,0
0:1:31.278,355.244,20.1051,0,0.000885,0,0
0:1:31.674,356.948,20.2016,0,0.000885,0,0
0:1:32.070,358.998,20.312,0,0.000885,0,0
0:1:32.463,360.702,20.4085,0,0.000885,0,0
0:1:32.864,362.401,20.505,0,0.000885,0,0
0:1:33.269,364.63,20.636,0,0.000885,0,0
0:1:33.671,366.449,20.7394,0,0.000885,0,0
0:1:34.072,367.975,20.8222,0,0.000885,0,0
0:1:34.466,369.438,20.9049,0,0.000885,0,0
0:1:34.860,370.377,20.9601,0,0.000885,0,0
0:1:35.260,372.374,21.0704,0,0.000885,0,0
0:1:35.655,374.015,21.1669,0,0.000885,0,0
0:1:36.047,375.305,21.2359,0,0.000885,0,0
0:1:36.442,377.65,21.3737,0,0.000885,0,0
0:1:36.838,379.527,21.4772,0,0.000885,0,0
0:1:37.236,381.755,21.6013,0,0.000885,0,0
0:1:37.638,383.281,21.6909,0,0.000885,0,0
0:1:38.041,385.043,21.7874,0,0.000885,0,0
0:1:38.441,386.8,21.8909,0,0.000885,0,0
0:1:38.840,388.855,22.0012,0,0.000885,0,0
0:1:39.237,390.376,22.0908,0,0.000885,0,0
0:1:39.632,392.489,22.208,0,0.000885,0,0
0:1:40.024,394.25,22.3114,0,0.000885,0,0
0:1:40.422,395.598,22.3873,0,0.000885,0,0
0:1:40.819,397.24,22.4769,0,0.000885,0,0
0:1:41.222,399.175,22.5872,0,0.000885,0,0
0:1:41.616,400.464,22.6631,0,0.000885,0,0
0:1:42.018,402.751,22.7941,0,0.000885,0,0
0:1:42.421,404.103,22.8699,0,0.000885,0,0
0:1:42.824,406.154,22.9802,0,0.000885,0,0
0:1:43.225,407.795,23.0768,0,0.000885,0,0
0:1:43.624,409.441,23.1664,0,0.000885,0,0
0:1:44.022,411.14,23.2629,0,0.000885,0,0
0:1:44.418,413.017,23.3732,0,0.000885,0,0
0:1:44.812,415.068,23.4904,0,0.000885,0,0
0:1:45.218,416.478,23.5663,0,0.000885,0,0
0:1:45.608,418.587,23.6904,0,0.000885,0,0
0:1:46.006,420.406,23.7869,0,0.000885,0,0
0:1:46.402,422.812,23.9248,0,0.000885,0,0
0:1:46.796,424.569,24.0282,0,0.000885,0,0
0:1:47.191,425.979,24.1041,0,0.000885,0,0
0:1:47.592,427.563,24.1937,0,0.000885,0,0
0:1:47.996,429.672,24.3178,0,0.000885,0,0
0:1:48.396,430.259,24.3454,0,0.000885,0,0
0:1:48.797,432.372,24.4695,0,0.000885,0,0
0:1:49.200,433.777,24.5453,0,0.000885,0,0
0:1:49.597,436.006,24.6763,0,0.000885,0,0
0:1:50.004,437.474,24.7591,0,0.000885,0,0
0:1:50.399,439.467,24.8694,0,0.000885,0,0
0:1:50.802,441.112,24.959,0,0.000885,0,0
0:1:51.205,443.163,25.0762,0,0.000885,0,0
0:1:51.602,444.511,25.1521,0,0.000885,0,0
0:1:51.998,446.566,25.2693,0,0.000885,0,0
0:1:52.403,449.088,25.4141,0,0.000885,0,0
0:1:52.804,450.32,25.483,0,0.000885,0,0
0:1:53.208,452.313,25.5933,0,0.000885,0,0
0:1:53.608,454.132,25.6968,0,0.000885,0,0
0:1:54.010,455.654,25.7864,0,0.000885,0,0
0:1:54.424,457.651,25.8967,0,0.000885,0,0
0:1:54.817,459.292,25.9932,0,0.000885,0,0
0:1:55.213,460.991,26.0898,0,0.000885,0,0
0:1:55.611,462.402,26.1656,0,0.000885,0,0
0:1:56.013,464.51,26.2828,0,0.000885,0,0
0:1:56.406,465.978,26.3656,0,0.000885,0,0
0:1:56.804,468.149,26.4897,0,0.000885,0,0
0:1:57.201,470.084,26.6,0,0.000885,0,0
0:1:57.605,471.725,26.6965,0,0.000885,0,0
0:1:58.006,474.011,26.8206,0,0.000885,0,0
0:1:58.407,475.012,26.8827,0,0.000885,0,0
0:1:58.805,476.534,26.9654,0,0.000885,0,0
0:1:59.212,478.117,27.055,0,0.000885,0,0
0:1:59.617,480.057,27.1653,0,0.000885,0,0
0:2:0.008,481.578,27.255,0,0.000885,0,0
0:2:0.413,483.513,27.3584,0,0.000885,0,0
0:2:0.811,485.568,27.4756,0,0.000885,0,0
0:2:1.226,487.796,27.6066,0,0.000885,0,0
0:2:1.618,489.38,27.6962,0,0.000885,0,0
0:2:2.012,490.612,27.7652,0,0.000885,0,0
0:2:2.413,492.783,27.8824,0,0.000885,0,0
0:2:2.819,494.246,27.972,0,0.000885,0,0
0:2:3.220,496.181,28.0755,0,0.000885,0,0
0:2:3.621,497.943,28.1789,0,0.000885,0,0
0:2:4.018,499.82,28.2823,0,0.000885,0,0
0:2:4.412,501.755,28.3926,0,0.000885,0,0
0:2:4.817,503.454,28.4891,0,0.000885,0,0
0:2:5.221,505.1,28.5857,0,0.000885,0,0
0:2:5.625,507.208,28.7029,0,0.000885,0,0
0:2:6.023,509.086,28.8063,0,0.000885,0,0
0:2:6.420,511.021,28.9166,0,0.000885,0,0
0:2:6.809,512.84,29.02,0,0.000885,0,0
0:2:7.204,513.894,29.0821,0,0.000885,0,0
0:2:7.605,515.478,29.1717,0,0.000885,0,0
0:2:8.010,516.594,29.2338,0,0.000885,0,0
0:2:8.411,518.471,29.3372,0,0.000885,0,0
0:2:8.810,520.464,29.4544,0,0.000885,0,0
0:2:9.207,522.457,29.5647,0,0.000885,0,0
0:2:9.603,524.57,29.6819,0,0.000885,0,0
0:2:9.998,526.505,29.7922,0,0.000885,0,0
0:2:10.393,528.266,29.8957,0,0.000885,0,0
0:2:10.787,530.081,29.9991,0,0.000885,0,0
0:2:11.184,531.607,30.0818,0,0.000885,0,0
0:2:11.580,533.248,30.1784,0,0.000885,0,0
0:2:11.973,535.188,30.2887,0,0.000885,0,0
0:2:12.368,537.123,30.3921,0,0.000885,0,0
0:2:12.769,538.764,30.4886,0,0.000885,0,0
0:2:13.173,540.348,30.5782,0,0.000885,0,0
0:2:13.575,541.989,30.6679,0,0.000885,0,0
0:2:13.972,544.102,30.792,0,0.000885,0,0
0:2:14.368,545.334,30.8609,0,0.000885,0,0
0:2:14.765,547.269,30.9712,0,0.000885,0,0
0:2:15.161,548.733,31.054,0,0.000885,0,0
0:2:15.555,550.552,31.1574,0,0.000885,0,0
0:2:15.948,552.545,31.2677,0,0.000885,0,0
0:2:16.345,554.191,31.3574,0,0.000885,0,0
0:2:16.744,556.299,31.4815,0,0.000885,0,0
0:2:17.137,558.003,31.578,0,0.000885,0,0
0:2:17.540,559.818,31.6814,0,0.000885,0,0
0:2:17.942,561.459,31.771,0,0.000885,0,0
0:2:18.343,563.105,31.8676,0,0.000885,0,0
0:2:18.745,565.333,31.9917,0,0.000885,0,0
0:2:19.139,567.033,32.0882,0,0.000885,0,0
0:2:19.532,568.38,32.164,0,0.000885,0,0
0:2:19.931,570.378,32.2744,0,0.000885,0,0
0:2:20.326,571.548,32.3433,0,0.000885,0,0
0:2:20.719,573.131,32.4329,0,0.000885,0,0
0:2:21.122,574.95,32.5364,0,0.000885,0,0
0:2:21.520,576.943,32.6467,0,0.000885,0,0
0:2:21.914,578.527,32.7363,0,0.000885,0,0
0:2:22.321,580.404,32.8466,0,0.000885,0,0
0:2:22.724,582.339,32.9569,0,0.000885,0,0
0:2:23.125,584.1,33.0535,0,0.000885,0,0
0:2:23.526,585.742,33.1431,0,0.000885,0,0
0:2:23.926,587.619,33.2534,0,0.000885,0,0
0:2:24.321,589.496,33.3568,0,0.000885,0,0
0:2:24.712,591.2,33.4534,0,0.000885,0,0
0:2:25.111,593.313,33.5775,0,0.000885,0,0
0:2:25.510,594.487,33.6395,0,0.000885,0,0
0:2:25.914,596.538,33.7567,0,0.000885,0,0
0:2:26.310,598.126,33.8464,0,0.000885,0,0
0:2:26.708,600.412,33.9774,0,0.000885,0,0
0:2:27.108,602.231,34.0808,0,0.000885,0,0
0:2:27.503,603.348,34.1428,0,0.000885,0,0
0:2:27.909,605.403,34.26,0,0.000885,0,0
0:2:28.313,606.635,34.329,0,0.000885,0,0
0:2:28.714,608.806,34.4531,0,0.000885,0,0
0:2:29.116,610.625,34.5565,0,0.000885,0,0
0:2:29.524,612.035,34.6324,0,0.000885,0,0
0:2:29.915,613.855,34.7358,0,0.000885,0,0
0:2:30.312,615.5,34.8323,0,0.000885,0,0
0:2:30.713,617.435,34.9426,0,0.000885,0,0
0:2:31.110,619.081,35.0323,0,0.000885,0,0
0:2:31.514,621.194,35.1495,0,0.000885,0,0
0:2:31.909,623.013,35.2529,0,0.000885,0,0
0:2:32.313,624.717,35.3494,0,0.000885,0,0
0:2:32.720,626.359,35.4459,0,0.000885,0,0
0:2:33.124,628.529,35.5701,0,0.000885,0,0
0:2:33.526,630.055,35.6528,0,0.000885,0,0
0:2:33.922,632.404,35.7838,0,0.000885,0,0
0:2:34.321,634.165,35.8872,0,0.000885,0,0
0:2:34.715,635.691,35.9699,0,0.000885,0,0
0:2:35.111,637.51,36.0734,0,0.000885,0,0
0:2:35.506,639.33,36.1768,0,0.000885,0,0
0:2:35.907,640.797,36.2595,0,0.000885,0,0
0:2:36.315,642.323,36.3492,0,0.000885,0,0
0:2:36.711,644.378,36.4664,0,0.000885,0,0
0:2:37.106,645.673,36.5353,0,0.000885,0,0
0:2:37.510,647.723,36.6525,0,0.000885,0,0
0:2:37.914,649.721,36.7697,0,0.000885,0,0
0:2:38.316,651.189,36.8525,0,0.000885,0,0
0:2:38.721,652.83,36.9421,0,0.000885,0,0
0:2:39.115,654.591,37.0455,0,0.000885,0,0
0:2:39.513,656.531,37.149,0,0.000885,0,0
0:2:39.913,657.585,37.211,0,0.000885,0,0
0:2:40.309,659.524,37.3213,0,0.000885,0,0
0:2:40.714,661.753,37.4454,0,0.000885,0,0
0:2:41.123,664.044,37.5764,0,0.000885,0,0
0:2:41.522,666.041,37.6867,0,0.000885,0,0
0:2:41.916,667.447,37.7695,0,0.000885,0,0
0:2:42.314,669.093,37.866,0,0.000885,0,0
0:2:42.718,670.498,37.9418,0,0.000885,0,0
0:2:43.125,672.26,38.0453,0,0.000885,0,0
0:2:43.528,674.315,38.1556,0,0.000885,0,0
0:2:43.929,676.254,38.2659,0,0.000885,0,0
0:2:44.324,678.309,38.3831,0,0.000885,0,0
0:2:44.722,679.657,38.459,0,0.000885,0,0
0:2:45.121,681.597,38.5693,0,0.000885,0,0
0:2:45.516,683.296,38.6658,0,0.000885,0,0
0:2:45.911,685.173,38.7761,0,0.000885,0,0
0:2:46.309,686.467,38.8451,0,0.000885,0,0
0:2:46.718,689.283,39.0036,0,0.000885,0,0
0:2:47.128,690.457,39.0726,0,0.000885,0,0
0:2:47.532,692.219,39.1691,0,0.000885,0,0
0:2:47.934,694.038,39.2725,0,0.000885,0,0
0:2:48.337,694.977,39.3277,0,0.000885,0,0
0:2:48.738,696.738,39.4242,0,0.000885,0,0
0:2:49.135,698.384,39.5207,0,0.000885,0,0
0:2:49.529,700.203,39.6242,0,0.000885,0,0
0:2:49.926,702.259,39.7414,0,0.000885,0,0
0:2:50.324,704.487,39.8655,0,0.000885,0,0
0:2:50.722,706.542,39.9827,0,0.000885,0,0
0:2:51.117,708.068,40.0654,0,0.000885,0,0
0:2:51.512,709.651,40.1551,0,0.000885,0,0
0:2:51.911,711.533,40.2654,0,0.000885,0,0
0:2:52.310,713.232,40.3619,0,0.000885,0,0
0:2:52.716,715.114,40.4653,0,0.000885,0,0
0:2:53.119,716.462,40.5412,0,0.000885,0,0
0:2:53.522,718.223,40.6446,0,0.000885,0,0
0:2:53.924,719.927,40.7411,0,0.000885,0,0
0:2:54.323,721.978,40.8583,0,0.000885,0,0
0:2:54.716,724.033,40.9686,0,0.000885,0,0
0:2:55.112,725.558,41.0583,0,0.000885,0,0
0:2:55.509,727.262,41.1548,0,0.000885,0,0
0:2:55.908,729.668,41.2927,0,0.000885,0,0
0:2:56.304,730.785,41.3548,0,0.000885,0,0
0:2:56.699,732.369,41.4444,0,0.000885,0,0
0:2:57.098,734.072,41.5409,0,0.000885,0,0
0:2:57.498,736.007,41.6512,0,0.000885,0,0
0:2:57.903,737.533,41.734,0,0.000885,0,0
0:2:58.307,739.766,41.865,0,0.000885,0,0
0:2:58.710,741.35,41.9546,0,0.000885,0,0
0:2:59.109,742.639,42.0235,0,0.000885,0,0
0:2:59.509,744.757,42.1477,0,0.000885,0,0
0:2:59.914,746.807,42.258,0,0.000885,0,0
0:3:0.311,748.569,42.3614,0,0.000885,0,0
0:3:0.707,750.388,42.4648,0,0.000885,0,0
0:3:1.107,752.328,42.5751,0,0.000885,0,0
0:3:1.504,754.205,42.6785,0,0.000885,0,0
0:3:1.910,755.909,42.7751,0,0.000885,0,0
0:3:2.306,757.492,42.8647,0,0.000885,0,0
0:3:2.708,759.369,42.975,0,0.000885,0,0
0:3:3.114,760.779,43.0509,0,0.000885,0,0
0:3:3.517,762.425,43.1474,0,0.000885,0,0
0:3:3.920,764.124,43.2439,0,0.000885,0,0
0:3:4.315,766.237,43.3611,0,0.000885,0,0
0:3:4.716,768.35,43.4783,0,0.000885,0,0
0:3:5.125,770.232,43.5887,0,0.000885,0,0
0:3:5.517,771.228,43.6438,0,0.000885,0,0
0:3:5.913,772.99,43.7403,0,0.000885,0,0
0:3:6.311,774.631,43.8369,0,0.000885,0,0
0:3:6.711,776.335,43.9334,0,0.000885,0,0
0:3:7.107,778.27,44.0437,0,0.000885,0,0
0:3:7.512,780.267,44.154,0,0.000885,0,0
0:3:7.915,782.144,44.2574,0,0.000885,0,0
0:3:8.317,784.026,44.3678,0,0.000885,0,0
0:3:8.723,785.494,44.4505,0,0.000885,0,0
0:3:9.117,787.486,44.5608,0,0.000885,0,0
0:3:9.520,789.074,44.6504,0,0.000885,0,0
0:3:9.919,791.009,44.7608,0,0.000885,0,0
0:3:10.319,792.593,44.8504,0,0.000885,0,0
0:3:10.715,794.239,44.9469,0,0.000885,0,0
0:3:11.111,795.943,45.0434,0,0.000885,0,0
0:3:11.508,798.171,45.1676,0,0.000885,0,0
0:3:11.908,799.697,45.2503,0,0.000885,0,0
0:3:12.315,801.988,45.3813,0,0.000885,0,0
0:3:12.720,803.335,45.4571,0,0.000885,0,0
0:3:13.127,805.039,45.5537,0,0.000885,0,0
0:3:13.529,807.036,45.6709,0,0.000885,0,0
0:3:13.930,808.793,45.7674,0,0.000885,0,0
0:3:14.328,810.497,45.8639,0,0.000885,0,0
0:3:14.719,811.671,45.9329,0,0.000885,0,0
0:3:15.117,813.549,46.0363,0,0.000885,0,0
0:3:15.516,815.137,46.1259,0,0.000885,0,0
0:3:15.914,817.365,46.25,0,0.000885,0,0
0:3:16.311,818.833,46.3397,0,0.000885,0,0
0:3:16.714,820.537,46.4362,0,0.000885,0,0
0:3:17.113,822.885,46.5672,0,0.000885,0,0
0:3:17.513,824.705,46.6706,0,0.000885,0,0
0:3:17.919,825.937,46.7396,0,0.000885,0,0
0:3:18.322,828.165,46.8637,0,0.000885,0,0
0:3:18.726,829.927,46.9671,0,0.000885,0,0
0:3:19.133,831.573,47.0567,0,0.000885,0,0
0:3:19.533,833.508,47.167,0,0.000885,0,0
0:3:19.929,835.091,47.2567,0,0.000885,0,0
0:3:20.322,836.559,47.3394,0,0.000885,0,0
0:3:20.721,839.024,47.4773,0,0.000885,0,0
0:3:21.120,840.727,47.5738,0,0.000885,0,0
0:3:21.517,842.604,47.6841,0,0.000885,0,0
0:3:21.911,844.428,47.7876,0,0.000885,0,0
0:3:22.315,846.012,47.8772,0,0.000885,0,0
0:3:22.720,847.947,47.9806,0,0.000885,0,0
0:3:23.123,849.65,48.0771,0,0.000885,0,0
0:3:23.528,850.825,48.1461,0,0.000885,0,0
0:3:23.921,852.293,48.2288,0,0.000885,0,0
0:3:24.319,854.17,48.3391,0,0.000885,0,0
0:3:24.719,856.047,48.4426,0,0.000885,0,0
0:3:25.127,857.399,48.5184,0,0.000885,0,0
0:3:25.519,859.218,48.6218,0,0.000885,0,0
0:3:25.918,861.274,48.739,0,0.000885,0,0
0:3:26.318,862.799,48.8218,0,0.000885,0,0
0:3:26.715,865.442,48.9735,0,0.000885,0,0
0:3:27.110,867.141,49.07,0,0.000885,0,0
0:3:27.514,869.138,49.1803,0,0.000885,0,0
0:3:27.919,870.957,49.2837,0,0.000885,0,0
0:3:28.322,872.425,49.3665,0,0.000885,0,0
0:3:28.726,873.951,49.4561,0,0.000885,0,0
0:3:29.120,875.535,49.5457,0,0.000885,0,0
0:3:29.517,877.59,49.6629,0,0.000885,0,0
0:3:29.916,878.764,49.725,0,0.000885,0,0
0:3:30.314,880.819,49.8422,0,0.000885,0,0
0:3:30.708,882.874,49.9594,0,0.000885,0,0
0:3:31.104,885.103,50.0835,0,0.000885,0,0
0:3:31.513,886.691,50.1731,0,0.000885,0,0
0:3:31.913,888.159,50.2628,0,0.000885,0,0
0:3:32.310,889.271,50.3248,0,0.000885,0,0
0:3:32.715,891.619,50.4558,0,0.000885,0,0
0:3:33.117,893.203,50.5455,0,0.000885,0,0
0:3:33.521,895.436,50.6696,0,0.000885,0,0
0:3:33.922,896.668,50.7385,0,0.000885,0,0
0:3:34.317,898.545,50.8488,0,0.000885,0,0
0:3:34.714,900.307,50.9454,0,0.000885,0,0
0:3:35.113,902.126,51.0488,0,0.000885,0,0
0:3:35.512,903.945,51.1522,0,0.000885,0,0
0:3:35.910,906,51.2694,0,0.000885,0,0
0:3:36.313,907.704,51.3659,0,0.000885,0,0
0:3:36.709,909.701,51.4763,0,0.000885,0,0
0:3:37.109,910.934,51.5452,0,0.000885,0,0
0:3:37.506,912.517,51.6348,0,0.000885,0,0
0:3:37.911,914.279,51.7383,0,0.000885,0,0
0:3:38.314,915.982,51.8348,0,0.000885,0,0
0:3:38.717,918.326,51.9658,0,0.000885,0,0
0:3:39.120,919.972,52.0623,0,0.000885,0,0
0:3:39.515,921.614,52.1519,0,0.000885,0,0
0:3:39.911,923.669,52.2692,0,0.000885,0,0
0:3:40.308,926.133,52.4071,0,0.000885,0,0
0:3:40.707,927.485,52.4829,0,0.000885,0,0
0:3:41.114,928.717,52.5518,0,0.000885,0,0
0:3:41.510,930.243,52.6415,0,0.000885,0,0
0:3:41.905,931.947,52.738,0,0.000885,0,0
0:3:42.309,933.882,52.8483,0,0.000885,0,0
0:3:42.715,935.408,52.9311,0,0.000885,0,0
0:3:43.119,937.231,53.0345,0,0.000885,0,0
0:3:43.520,939.282,53.1517,0,0.000885,0,0
0:3:43.918,940.456,53.2206,0,0.000885,0,0
0:3:44.318,942.276,53.3241,0,0.000885,0,0
0:3:44.715,944.509,53.4482,0,0.000885,0,0
0:3:45.111,946.506,53.5585,0,0.000885,0,0
0:3:45.515,948.09,53.6481,0,0.000885,0,0
0:3:45.922,950.024,53.7584,0,0.000885,0,0
0:3:46.323,951.728,53.8549,0,0.000885,0,0
0:3:46.718,953.663,53.9653,0,0.000885,0,0
0:3:47.115,955.309,54.0618,0,0.000885,0,0
0:3:47.519,956.777,54.1445,0,0.000885,0,0
0:3:47.924,959.005,54.2686,0,0.000885,0,0
0:3:48.328,960.767,54.3652,0,0.000885,0,0
0:3:48.731,962.528,54.4686,0,0.000885,0,0
0:3:49.123,964.174,54.5582,0,0.000885,0,0
0:3:49.523,965.758,54.6478,0,0.000885,0,0
0:3:49.921,967.693,54.7582,0,0.000885,0,0
0:3:50.318,969.748,54.8754,0,0.000885,0,0
0:3:50.713,971.158,54.9581,0,0.000885,0,0
0:3:51.110,973.387,55.0822,0,0.000885,0,0
0:3:51.509,974.152,55.1236,0,0.000885,0,0
0:3:51.916,976.265,55.2477,0,0.000885,0,0
0:3:52.311,978.435,55.3649,0,0.000885,0,0
0:3:52.715,979.374,55.4201,0,0.000885,0,0
0:3:53.120,981.429,55.5373,0,0.000885,0,0
0:3:53.522,983.075,55.6338,0,0.000885,0,0
0:3:53.924,985.245,55.751,0,0.000885,0,0
0:3:54.321,986.713,55.8337,0,0.000885,0,0
0:3:54.717,988.297,55.9234,0,0.000885,0,0
0:3:55.126,990.881,56.0751,0,0.000885,0,0
0:3:55.523,992.643,56.1716,0,0.000885,0,0
0:3:55.921,994.462,56.275,0,0.000885,0,0
0:3:56.316,996.161,56.3715,0,0.000885,0,0
0:3:56.714,997.749,56.4612,0,0.000885,0,0
0:3:57.112,998.688,56.5163,0,0.000885,0,0
0:3:57.512,1001.15,56.6542,0,0.000885,0,0
0:3:57.916,1003.32,56.7783,0,0.000885,0,0
0:3:58.321,1005.38,56.8955,0,0.000885,0,0
0:3:58.722,1006.61,56.9645,0,0.000885,0,0
0:3:59.123,1008.14,57.0472,0,0.000885,0,0
0:3:59.522,1010.37,57.1782,0,0.000885,0,0
0:3:59.916,1011.66,57.2472,0,0.000885,0,0
0:4:0.314,1013.54,57.3575,0,0.000885,0,0
0:4:0.719,1015.65,57.4747,0,0.000885,0,0
0:4:1.118,1016.71,57.5367,0,0.000885,0,0
0:4:1.516,1018.47,57.6333,0,0.000885,0,0
0:4:1.911,1020,57.7229,0,0.000885,0,0
0:4:2.316,1021.81,57.8263,0,0.000885,0,0
0:4:2.721,1023.69,57.9298,0,0.000885,0,0
0:4:3.124,1025.75,58.047,0,0.000885,0,0
0:4:3.526,1027.86,58.1642,0,0.000885,0,0
0:4:3.922,1029.86,58.2814,0,0.000885,0,0
0:4:4.329,1031.68,58.3779,0,0.000885,0,0
0:4:4.729,1032.85,58.4469,0,0.000885,0,0
0:4:5.137,1034.61,58.5503,0,0.000885,0,0
0:4:5.535,1036.72,58.6675,0,0.000885,0,0
0:4:5.930,1037.9,58.7364,0,0.000885,0,0
0:4:6.337,1040.42,58.8743,0,0.000885,0,0
0:4:6.736,1041.65,58.9433,0,0.000885,0,0
0:4:7.134,1043.01,59.0191,0,0.000885,0,0
0:4:7.540,1045.06,59.1363,0,0.000885,0,0
0:4:7.944,1047.17,59.2604,0,0.000885,0,0
0:4:8.346,1049.11,59.3708,0,0.000885,0,0
0:4:8.747,1051.05,59.4742,0,0.000885,0,0
0:4:9.145,1052.57,59.5638,0,0.000885,0,0
0:4:9.541,1055.1,59.7086,0,0.000885,0,0
0:4:9.936,1056.39,59.7775,0,0.000885,0,0
0:4:10.334,1058.03,59.8741,0,0.000885,0,0
0:4:10.734,1059.56,59.9568,0,0.000885,0,0
0:4:11.140,1061.26,60.0533,0,0.000885,0,0
0:4:11.535,1062.61,60.1292,0,0.000885,0,0
0:4:11.931,1064.13,60.2188,0,0.000885,0,0
0:4:12.334,1066.02,60.3222,0,0.000885,0,0
0:4:12.739,1068.36,60.4601,0,0.000885,0,0
0:4:13.143,1069.95,60.5498,0,0.000885,0,0
0:4:13.546,1071.83,60.6532,0,0.000885,0,0
0:4:13.943,1073.77,60.7635,0,0.000885,0,0
0:4:14.341,1075.7,60.8738,0,0.000885,0,0
0:4:14.740,1076.93,60.9428,0,0.000885,0,0
0:4:15.136,1079.05,61.06,0,0.000885,0,0
0:4:15.532,1080.57,61.1496,0,0.000885,0,0
0:4:15.928,1082.68,61.2668,0,0.000885,0,0
0:4:16.327,1084.27,61.3564,0,0.000885,0,0
0:4:16.723,1085.62,61.4323,0,0.000885,0,0
0:4:17.120,1087.97,61.5633,0,0.000885,0,0
0:4:17.524,1090.2,61.6943,0,0.000885,0,0
0:4:17.928,1091.66,61.777,0,0.000885,0,0
0:4:18.332,1093.43,61.8736,0,0.000885,0,0
0:4:18.735,1094.84,61.9563,0,0.000885,0,0
0:4:19.132,1096.89,62.0735,0,0.000885,0,0
0:4:19.536,1098.95,62.1907,0,0.000885,0,0
0:4:19.936,1100.59,62.2803,0,0.000885,0,0
0:4:20.335,1102.35,62.3769,0,0.000885,0,0
0:4:20.732,1103.35,62.4389,0,0.000885,0,0
0:4:21.125,1105.23,62.5423,0,0.000885,0,0
0:4:21.522,1107.1,62.6527,0,0.000885,0,0
0:4:21.921,1108.1,62.7078,0,0.000885,0,0
0:4:22.318,1110.86,62.8595,0,0.000885,0,0
0:4:22.722,1112.33,62.9422,0,0.000885,0,0
0:4:23.126,1114.21,63.0526,0,0.000885,0,0
0:4:23.531,1116.14,63.1629,0,0.000885,0,0
0:4:23.934,1117.67,63.2456,0,0.000885,0,0
0:4:24.328,1119.37,63.3421,0,0.000885,0,0
0:4:24.724,1121.6,63.4731,0,0.000885,0,0
0:4:25.119,1123.07,63.5559,0,0.000885,0,0
0:4:25.520,1124.66,63.6455,0,0.000885,0,0
0:4:25.917,1126.65,63.7558,0,0.000885,0,0
0:4:26.311,1128.06,63.8386,0,0.000885,0,0
0:4:26.708,1130,63.942,0,0.000885,0,0
0:4:27.108,1131.88,64.0523,0,0.000885,0,0
0:4:27.505,1133.99,64.1695,0,0.000885,0,0
0:4:27.910,1135.75,64.2729,0,0.000885,0,0
0:4:28.314,1136.63,64.3212,0,0.000885,0,0
0:4:28.716,1139.04,64.4591,0,0.000885,0,0
0:4:29.119,1141.09,64.5694,0,0.000885,0,0
0:4:29.524,1142.33,64.6452,0,0.000885,0,0
0:4:29.921,1144.14,64.7487,0,0.000885,0,0
0:4:30.325,1145.38,64.8176,0,0.000885,0,0
0:4:30.725,1147.73,64.9486,0,0.000885,0,0
0:4:31.124,1149.9,65.0727,0,0.000885,0,0
0:4:31.528,1151.25,65.1486,0,0.000885,0,0
0:4:31.923,1152.77,65.2313,0,0.000885,0,0
0:4:32.328,1155.24,65.3761,0,0.000885,0,0
0:4:32.735,1156,65.4175,0,0.000885,0,0
0:4:33.138,1158.23,65.5416,0,0.000885,0,0
0:4:33.539,1160.46,65.6657,0,0.000885,0,0
0:4:33.934,1162.11,65.7622,0,0.000885,0,0
0:4:34.334,1163.45,65.838,0,0.000885,0,0
0:4:34.730,1165.51,65.9552,0,0.000885,0,0
0:4:35.125,1167.45,66.0656,0,0.000885,0,0
0:4:35.533,1169.27,66.169,0,0.000885,0,0
0:4:35.928,1171.32,66.2862,0,0.000885,0,0
0:4:36.329,1173.37,66.3965,0,0.000885,0,0
0:4:36.725,1174.49,66.4655,0,0.000885,0,0
0:4:37.119,1176.14,66.5551,0,0.000885,0,0
0:4:37.524,1177.84,66.6516,0,0.000885,0,0
0:4:37.929,1180.13,66.7826,0,0.000885,0,0
0:4:38.333,1181.54,66.8585,0,0.000885,0,0
0:4:38.735,1183,66.9412,0,0.000885,0,0
0:4:39.129,1184.88,67.0515,0,0.000885,0,0
0:4:39.528,1185.76,67.0998,0,0.000885,0,0
0:4:39.927,1188.17,67.2377,0,0.000885,0,0
0:4:40.323,1190.17,67.348,0,0.000885,0,0
0:4:40.718,1192.22,67.4652,0,0.000885,0,0
0:4:41.135,1193.8,67.5548,0,0.000885,0,0
0:4:41.536,1195.8,67.6651,0,0.000885,0,0
0:4:41.943,1197.5,67.7617,0,0.000885,0,0
0:4:42.338,1198.97,67.8444,0,0.000885,0,0
0:4:42.743,1200.38,67.9271,0,0.000885,0,0
0:4:43.148,1202.08,68.0237,0,0.000885,0,0
0:4:43.550,1204.19,68.1409,0,0.000885,0,0
0:4:43.954,1206.37,68.265,0,0.000885,0,0
0:4:44.350,1208.19,68.3684,0,0.000885,0,0
0:4:44.745,1210.59,68.5063,0,0.000885,0,0
0:4:45.144,1211.88,68.5753,0,0.000885,0,0
0:4:45.543,1213.41,68.6649,0,0.000885,0,0
0:4:45.939,1215.05,68.7545,0,0.000885,0,0
0:4:46.331,1216.7,68.851,0,0.000885,0,0
0:4:46.729,1218.87,68.9752,0,0.000885,0,0
0:4:47.130,1220.28,69.051,0,0.000885,0,0
0:4:47.537,1222.68,69.1889,0,0.000885,0,0
0:4:47.940,1224.27,69.2785,0,0.000885,0,0
0:4:48.343,1225.09,69.3268,0,0.000885,0,0
0:4:48.742,1226.97,69.4302,0,0.000885,0,0
0:4:49.142,1229.14,69.5543,0,0.000885,0,0
0:4:49.538,1230.55,69.637,0,0.000885,0,0
0:4:49.934,1232.95,69.768,0,0.000885,0,0
0:4:50.341,1234.48,69.8577,0,0.000885,0,0
0:4:50.740,1236.48,69.968,0,0.000885,0,0
0:4:51.136,1237.83,70.0438,0,0.000885,0,0
0:4:51.532,1239.35,70.1335,0,0.000885,0,0
0:4:51.928,1241.41,70.2507,0,0.000885,0,0
0:4:52.329,1243.46,70.3679,0,0.000885,0,0
0:4:52.737,1244.52,70.4231,0,0.000885,0,0
0:4:53.140,1247.1,70.5747,0,0.000885,0,0
0:4:53.541,1249.04,70.6782,0,0.000885,0,0
0:4:53.941,1250.98,70.7885,0,0.000885,0,0
0:4:54.341,1252.5,70.8781,0,0.000885,0,0
0:4:54.739,1253.85,70.9539,0,0.000885,0,0
0:4:55.131,1255.15,71.0298,0,0.000885,0,0
0:4:55.528,1257.73,71.1746,0,0.000885,0,0
0:4:55.938,1259.9,71.2987,0,0.000885,0,0
0:4:56.345,1261.01,71.3607,0,0.000885,0,0
0:4:56.742,1263.42,71.4917,0,0.000885,0,0
0:4:57.137,1264.54,71.5607,0,0.000885,0,0
0:4:57.539,1265.77,71.6296,0,0.000885,0,0
0:4:57.945,1267.41,71.7193,0,0.000885,0,0
0:4:58.348,1269.7,71.8503,0,0.000885,0,0
0:4:58.752,1270.99,71.9261,0,0.000885,0,0
0:4:59.148,1272.69,72.0226,0,0.000885,0,0
0:4:59.549,1275.1,72.1536,0,0.000885,0,0
0:4:59.949,1277.04,72.264,0,0.000885,0,0
0:5:0.343,1278.62,72.3536,0,0.000885,0,0
0:5:0.738,1280.21,72.4432,0,0.000885,0,0
0:5:1.136,1281.97,72.5466,0,0.000885,0,0
0:5:1.532,1283.97,72.657,0,0.000885,0,0
0:5:1.931,1285.79,72.7604,0,0.000885,0,0
0:5:2.326,1287.55,72.8569,0,0.000885,0,0
0:5:2.728,1289.66,72.981,0,0.000885,0,0
0:5:3.137,1291.36,73.0775,0,0.000885,0,0
0:5:3.538,1293.48,73.1947,0,0.000885,0,0
0:5:3.938,1294.77,73.2706,0,0.000885,0,0
0:5:4.336,1296.94,73.3947,0,0.000885,0,0
0:5:4.730,1298.35,73.4705,0,0.000885,0,0
0:5:5.131,1300.17,73.574,0,0.000885,0,0
0:5:5.528,1301.16,73.6291,0,0.000885,0,0
0:5:5.924,1302.87,73.7256,0,0.000885,0,0
0:5:6.320,1304.69,73.8291,0,0.000885,0,0
0:5:6.727,1306.92,73.9532,0,0.000885,0,0
0:5:7.139,1308.44,74.0428,0,0.000885,0,0
0:5:7.545,1310.09,74.1324,0,0.000885,0,0
0:5:7.948,1311.91,74.2359,0,0.000885,0,0
0:5:8.350,1313.72,74.3393,0,0.000885,0,0
0:5:8.751,1315.08,74.4151,0,0.000885,0,0
0:5:9.148,1317.01,74.5254,0,0.000885,0,0
0:5:9.545,1319.07,74.6426,0,0.000885,0,0
0:5:9.940,1321.47,74.7805,0,0.000885,0,0
0:5:10.339,1323.06,74.8702,0,0.000885,0,0
0:5:10.738,1324.88,74.9736,0,0.000885,0,0
0:5:11.130,1326.05,75.0425,0,0.000885,0,0
0:5:11.526,1327.7,75.1322,0,0.000885,0,0
0:5:11.924,1330.04,75.2632,0,0.000885,0,0
0:5:12.323,1332.16,75.3873,0,0.000885,0,0
0:5:12.728,1333.63,75.47,0,0.000885,0,0
0:5:13.131,1335.21,75.5596,0,0.000885,0,0
0:5:13.533,1336.97,75.6562,0,0.000885,0,0
0:5:13.933,1339.26,75.7872,0,0.000885,0,0
0:5:14.332,1340.79,75.8699,0,0.000885,0,0
0:5:14.729,1342.26,75.9526,0,0.000885,0,0
0:5:15.123,1343.55,76.0285,0,0.000885,0,0
0:5:15.521,1345.13,76.1181,0,0.000885,0,0
0:5:15.930,1347.3,76.2422,0,0.000885,0,0
0:5:16.348,1350.06,76.4008,0,0.000885,0,0
0:5:16.743,1350.76,76.4353,0,0.000885,0,0
0:5:17.139,1352.88,76.5594,0,0.000885,0,0
0:5:17.541,1354.23,76.6352,0,0.000885,0,0
0:5:17.947,1355.64,76.7111,0,0.000885,0,0
0:5:18.350,1358.16,76.8559,0,0.000885,0,0
0:5:18.753,1359.8,76.9524,0,0.000885,0,0
0:5:19.151,1361.98,77.0696,0,0.000885,0,0
0:5:19.550,1363.86,77.1799,0,0.000885,0,0
0:5:19.948,1365.38,77.2627,0,0.000885,0,0
0:5:20.343,1366.91,77.3523,0,0.000885,0,0
0:5:20.740,1368.43,77.435,0,0.000885,0,0
0:5:21.140,1370.6,77.5591,0,0.000885,0,0
0:5:21.535,1372.54,77.6694,0,0.000885,0,0
0:5:21.931,1374.3,77.7729,0,0.000885,0,0
0:5:22.325,1376,77.8694,0,0.000885,0,0
0:5:22.729,1377.71,77.959,0,0.000885,0,0
0:5:23.135,1379.23,78.0487,0,0.000885,0,0
0:5:23.540,1381.52,78.1797,0,0.000885,0,0
0:5:23.941,1383.29,78.2762,0,0.000885,0,0
0:5:24.347,1385.22,78.3865,0,0.000885,0,0
0:5:24.745,1386.51,78.4623,0,0.000885,0,0
0:5:25.145,1388.51,78.5727,0,0.000885,0,0
0:5:25.541,1389.8,78.6485,0,0.000885,0,0
0:5:25.933,1391.09,78.7174,0,0.000885,0,0
0:5:26.344,1393.44,78.8553,0,0.000885,0,0
0:5:26.743,1395.55,78.9725,0,0.000885,0,0
0:5:27.139,1396.84,79.0484,0,0.000885,0,0
0:5:27.543,1398.9,79.1587,0,0.000885,0,0
0:5:27.947,1400.31,79.2414,0,0.000885,0,0
0:5:28.349,1402.24,79.3518,0,0.000885,0,0
0:5:28.752,1403.71,79.4345,0,0.000885,0,0
0:5:29.148,1405.71,79.5448,0,0.000885,0,0
0:5:29.544,1408.29,79.6896,0,0.000885,0,0
0:5:29.942,1409.23,79.7448,0,0.000885,0,0
0:5:30.341,1411.11,79.8551,0,0.000885,0,0
0:5:30.747,1413.04,79.9654,0,0.000885,0,0
0:5:31.143,1414.57,80.0481,0,0.000885,0,0
0:5:31.539,1416.51,80.1584,0,0.000885,0,0
0:5:31.936,1418.68,80.2826,0,0.000885,0,0
0:5:32.334,1420.03,80.3584,0,0.000885,0,0
0:5:32.739,1422.26,80.4825,0,0.000885,0,0
0:5:33.143,1423.73,80.5652,0,0.000885,0,0
0:5:33.545,1425.43,80.6618,0,0.000885,0,0
0:5:33.948,1427.07,80.7583,0,0.000885,0,0
0:5:34.343,1429.13,80.8755,0,0.000885,0,0
0:5:34.739,1430.3,80.9376,0,0.000885,0,0
0:5:35.145,1432.12,81.041,0,0.000885,0,0
0:5:35.545,1434.18,81.1582,0,0.000885,0,0
0:5:35.941,1435.88,81.2547,0,0.000885,0,0
0:5:36.334,1437.99,81.3719,0,0.000885,0,0
0:5:36.730,1439.4,81.4547,0,0.000885,0,0
0:5:37.128,1440.93,81.5374,0,0.000885,0,0
0:5:37.528,1442.98,81.6546,0,0.000885,0,0
0:5:37.933,1444.98,81.7718,0,0.000885,0,0
0:5:38.336,1446.97,81.8821,0,0.000885,0,0
0:5:38.740,1448.32,81.958,0,0.000885,0,0
0:5:39.140,1449.91,82.0476,0,0.000885,0,0
0:5:39.547,1451.96,82.1648,0,0.000885,0,0
0:5:39.943,1453.61,82.2545,0,0.000885,0,0
0:5:40.335,1455.48,82.3648,0,0.000885,0,0
0:5:40.734,1457.3,82.4682,0,0.000885,0,0
0:5:41.133,1459.07,82.5647,0,0.000885,0,0
0:5:41.529,1460.71,82.6612,0,0.000885,0,0
0:5:41.924,1462.7,82.7716,0,0.000885,0,0
0:5:42.326,1464.52,82.875,0,0.000885,0,0
0:5:42.732,1466.46,82.9853,0,0.000885,0,0
0:5:43.135,1468.16,83.0818,0,0.000885,0,0
0:5:43.536,1469.34,83.1508,0,0.000885,0,0
0:5:43.931,1471.16,83.2473,0,0.000885,0,0
0:5:44.330,1473.1,83.3576,0,0.000885,0,0
0:5:44.728,1474.68,83.4472,0,0.000885,0,0
0:5:45.125,1476.26,83.5369,0,0.000885,0,0
0:5:45.529,1478.2,83.6472,0,0.000885,0,0
0:5:45.945,1479.79,83.7368,0,0.000885,0,0
0:5:46.344,1481.84,83.854,0,0.000885,0,0
0:5:46.742,1483.5,83.9506,0,0.000885,0,0
0:5:47.134,1485.08,84.0402,0,0.000885,0,0
0:5:47.541,1487.44,84.1712,0,0.000885,0,0
0:5:47.945,1488.91,84.2539,0,0.000885,0,0
0:5:48.347,1490.86,84.3643,0,0.000885,0,0
0:5:48.750,1492.8,84.4746,0,0.000885,0,0
0:5:49.144,1494.21,84.5573,0,0.000885,0,0
0:5:49.541,1495.98,84.6538,0,0.000885,0,0
0:5:49.938,1498.16,84.7779,0,0.000885,0,0
0:5:50.334,1499.34,84.8469,0,0.000885,0,0
0:5:50.729,1501.63,84.9779,0,0.000885,0,0
0:5:51.124,1503.28,85.0675,0,0.000885,0,0
0:5:51.522,1504.75,85.1503,0,0.000885,0,0
0:5:51.921,1506.23,85.233,0,0.000885,0,0
0:5:52.315,1508.11,85.3433,0,0.000885,0,0
0:5:52.719,1509.99,85.4467,0,0.000885,0,0
0:5:53.122,1511.76,85.5501,0,0.000885,0,0
0:5:53.524,1513.65,85.6536,0,0.000885,0,0
0:5:53.926,1515,85.7294,0,0.000885,0,0
0:5:54.330,1517.24,85.8604,0,0.000885,0,0
0:5:54.727,1519.53,85.9845,0,0.000885,0,0
0:5:55.134,1520.53,86.0466,0,0.000885,0,0
0:5:55.533,1522.53,86.1569,0,0.000885,0,0
0:5:55.930,1524.07,86.2465,0,0.000885,0,0
0:5:56.325,1525.78,86.343,0,0.000885,0,0
0:5:56.722,1528.07,86.474,0,0.000885,0,0
0:5:57.121,1529.78,86.5706,0,0.000885,0,0
0:5:57.518,1531.6,86.674,0,0.000885,0,0
0:5:57.922,1533.31,86.7705,0,0.000885,0,0
0:5:58.326,1534.73,86.8464,0,0.000885,0,0
0:5:58.728,1536.49,86.9498,0,0.000885,0,0
0:5:59.131,1538.73,87.0739,0,0.000885,0,0
0:5:59.536,1540.44,87.1704,0,0.000885,0,0
0:5:59.930,1542.15,87.2669,0,0.000885,0,0
0:6:0.338,1543.73,87.3566,0,0.000885,0,0
0:6:0.735,1545.68,87.4669,0,0.000885,0,0
0:6:1.133,1547.56,87.5772,0,0.000885,0,0
0:6:1.527,1548.39,87.6186,0,0.000885,0,0
0:6:1.923,1550.68,87.7496,0,0.000885,0,0
0:6:2.325,1553.03,87.8806,0,0.000885,0,0
0:6:2.731,1554.33,87.9564,0,0.000885,0,0
0:6:3.133,1556.63,88.0874,0,0.000885,0,0
0:6:3.534,1557.69,88.1495,0,0.000885,0,0
0:6:3.930,1559.34,88.2391,0,0.000885,0,0
0:6:4.332,1560.75,88.3218,0,0.000885,0,0
0:6:4.728,1562.81,88.4391,0,0.000885,0,0
0:6:5.132,1565.23,88.5769,0,0.000885,0,0
0:6:5.538,1566.93,88.6735,0,0.000885,0,0
0:6:5.936,1568.23,88.7424,0,0.000885,0,0
0:6:6.345,1570.11,88.8527,0,0.000885,0,0
0:6:6.743,1572.17,88.9699,0,0.000885,0,0
0:6:7.146,1573.53,89.0458,0,0.000885,0,0
0:6:7.549,1575.53,89.1561,0,0.000885,0,0
0:6:7.955,1577.71,89.2802,0,0.000885,0,0
0:6:8.358,1579.65,89.3905,0,0.000885,0,0
0:6:8.759,1581.18,89.4733,0,0.000885,0,0
0:6:9.155,1582.6,89.556,0,0.000885,0,0
0:6:9.554,1584.66,89.6732,0,0.000885,0,0
0:6:9.953,1586.24,89.7628,0,0.000885,0,0
0:6:10.348,1588.42,89.887,0,0.000885,0,0
0:6:10.743,1590.25,89.9904,0,0.000885,0,0
0:6:11.138,1591.25,90.0455,0,0.000885,0,0
0:6:11.539,1593.19,90.1558,0,0.000885,0,0
0:6:11.935,1594.61,90.2386,0,0.000885,0,0
0:6:12.330,1596.43,90.342,0,0.000885,0,0
0:6:12.733,1597.79,90.4178,0,0.000885,0,0
0:6:13.138,1599.61,90.5213,0,0.000885,0,0
0:6:13.545,1601.56,90.6316,0,0.000885,0,0
0:6:13.947,1603.5,90.7419,0,0.000885,0,0
0:6:14.343,1605.91,90.8729,0,0.000885,0,0
0:6:14.739,1607.5,90.9694,0,0.000885,0,0
0:6:15.139,1608.86,91.0453,0,0.000885,0,0
0:6:15.535,1610.86,91.1556,0,0.000885,0,0
0:6:15.930,1612.68,91.259,0,0.000885,0,0
0:6:16.345,1614.39,91.3555,0,0.000885,0,0
0:6:16.744,1616.39,91.4659,0,0.000885,0,0
0:6:17.144,1618.1,91.5693,0,0.000885,0,0
0:6:17.550,1619.87,91.6658,0,0.000885,0,0
0:6:17.954,1621.75,91.7692,0,0.000885,0,0
0:6:18.356,1623.34,91.8657,0,0.000885,0,0
0:6:18.756,1625.46,91.983,0,0.000885,0,0
0:6:19.153,1627.05,92.0726,0,0.000885,0,0
0:6:19.550,1628.76,92.1691,0,0.000885,0,0
0:6:19.945,1630.94,92.2932,0,0.000885,0,0
0:6:20.345,1632.41,92.376,0,0.000885,0,0
0:6:20.753,1634.24,92.4794,0,0.000885,0,0
0:6:21.148,1635.42,92.5483,0,0.000885,0,0
0:6:21.544,1637.06,92.638,0,0.000885,0,0
0:6:21.939,1638.77,92.7345,0,0.000885,0,0
0:6:22.340,1640.83,92.8517,0,0.000885,0,0
0:6:22.748,1642.83,92.962,0,0.000885,0,0
0:6:23.151,1644.89,93.0792,0,0.000885,0,0
0:6:23.553,1646.72,93.1826,0,0.000885,0,0
0:6:23.954,1648.13,93.2654,0,0.000885,0,0
0:6:24.353,1649.66,93.355,0,0.000885,0,0
0:6:24.750,1651.43,93.4515,0,0.000885,0,0
0:6:25.144,1653.08,93.5481,0,0.000885,0,0
0:6:25.540,1654.61,93.6308,0,0.000885,0,0
0:6:25.940,1656.73,93.7549,0,0.000885,0,0
0:6:26.336,1658.91,93.8721,0,0.000885,0,0
0:6:26.731,1661.38,94.0169,0,0.000885,0,0
0:6:27.128,1662.68,94.0859,0,0.000885,0,0
0:6:27.530,1664.32,94.1824,0,0.000885,0,0
0:6:27.936,1665.56,94.2513,0,0.000885,0,0
0:6:28.340,1667.15,94.341,0,0.000885,0,0
0:6:28.744,1668.51,94.4168,0,0.000885,0,0
0:6:29.140,1670.45,94.5271,0,0.000885,0,0
0:6:29.539,1671.98,94.6168,0,0.000885,0,0
0:6:29.938,1673.39,94.6926,0,0.000885,0,0
0:6:30.342,1674.87,94.7753,0,0.000885,0,0
0:6:30.738,1675.98,94.8443,0,0.000885,0,0
0:6:31.137,1678.46,94.9822,0,0.000885,0,0
0:6:31.534,1680.34,95.0856,0,0.000885,0,0
0:6:31.934,1682.22,95.1959,0,0.000885,0,0
0:6:32.337,1683.87,95.2855,0,0.000885,0,0
0:6:32.742,1686.88,95.4579,0,0.000885,0,0
0:6:33.148,1688.7,95.5613,0,0.000885,0,0
0:6:33.549,1690.29,95.651,0,0.000885,0,0
0:6:33.953,1691.35,95.713,0,0.000885,0,0
0:6:34.349,1693.42,95.8302,0,0.000885,0,0
0:6:34.745,1694.88,95.913,0,0.000885,0,0
0:6:35.145,1695.95,95.9681,0,0.000885,0,0
0:6:35.541,1696.36,95.9957,0,0.000885,0,0
0:6:35.935,1698.42,96.1129,0,0.000885,0,0
0:6:36.330,1700.95,96.2508,0,0.000885,0,0
0:6:36.737,1697.12,96.0371,0,0.000885,0,0
0:6:37.134,1698.59,96.1198,0,0.000885,0,0
0:6:37.539,1701.24,96.2715,0,0.000885,0,0
0:6:37.945,1703.48,96.3956,0,0.000885,0,0
0:6:38.346,1702.6,96.3473,0,0.000885,0,0
0:6:38.743,1303.8,73.7808,0,0.000885,0,0
0:6:39.140,1227.14,69.444,0,0.000885,0,0
0:6:39.534,1211.53,68.5615,0,0.000885,0,0
0:6:39.928,1201.38,67.9823,0,0.000885,0,0
0:6:40.327,1196.74,67.7203,0,0.000885,0,0
0:6:40.724,1194.69,67.6031,0,0.000885,0,0
0:6:41.030,1192.87,67.4997,0,0.000885,0,0