File: DataFile2021-06-07_070640.csv
Test ID:,Date Tested:,Time:,Test Type:,Diameter Avg. (mm):,Cyl. Corr. Factor:,Height (mm):,Age (days):,Weight (kN):,Break Type:,Ramp Rate (MPa/s):,Load at Break (kN):,Stress at Break (MPa):
12,6/7/2021,07:06,Cylinder,100,1,200,0,3.6,4,0.24,390.02,49.66
Sample Time,Load (kN),Stress (MPa),Long. Strain,Trans. Strain,Chan1 Deflection (mm),Chan2 Deflection (mm)
0:0:22.031,8.03349,1.02042,0,0.000885,0,0
0:0:22.232,11.6721,1.48927,0,0.000885,0,0
0:0:22.433,14.4879,1.84779,0,0.000885,0,0
0:0:22.625,14.3099,1.82022,0,0.000885,0,0
0:0:22.830,13.6071,1.73058,0,0.000885,0,0
0:0:23.034,13.6071,1.73058,0,0.000885,0,0
0:0:23.233,13.0778,1.66853,0,0.000885,0,0
0:0:23.434,13.0778,1.66853,0,0.000885,0,0
0:0:23.639,12.7264,1.62027,0,0.000885,0,0
0:0:23.840,13.0778,1.66853,0,0.000885,0,0
0:0:24.036,12.8465,1.63406,0,0.000885,0,0
0:0:24.234,12.6685,1.61337,0,0.000885,0,0
0:0:24.435,12.4328,1.58579,0,0.000885,0,0
0:0:24.630,12.4328,1.58579,0,0.000885,0,0
0:0:24.831,12.4328,1.58579,0,0.000885,0,0
0:0:25.037,12.4328,1.58579,0,0.000885,0,0
0:0:25.234,11.9657,1.52374,0,0.000885,0,0
0:0:25.435,12.0235,1.53064,0,0.000885,0,0
0:0:25.630,12.4906,1.59269,0,0.000885,0,0
0:0:25.832,12.0235,1.53064,0,0.000885,0,0
0:0:26.030,13.1356,1.67543,0,0.000885,0,0
0:0:26.235,13.0199,1.65474,0,0.000885,0,0
0:0:26.437,13.4292,1.7099,0,0.000885,0,0
0:0:26.633,13.3135,1.69611,0,0.000885,0,0
0:0:26.832,14.3678,1.82711,0,0.000885,0,0
0:0:27.031,13.8429,1.76506,0,0.000885,0,0
0:0:27.237,14.3678,1.82711,0,0.000885,0,0
0:0:27.439,14.7814,1.88227,0,0.000885,0,0
0:0:27.640,15.2485,1.94432,0,0.000885,0,0
0:0:27.844,15.6577,1.99258,0,0.000885,0,0
0:0:28.047,15.72,1.99948,0,0.000885,0,0
0:0:28.249,16.5963,2.11669,0,0.000885,0,0
0:0:28.450,16.7742,2.13737,0,0.000885,0,0
0:0:28.652,17.9486,2.28216,0,0.000885,0,0
0:0:28.852,18.3578,2.33732,0,0.000885,0,0
0:0:29.054,18.3,2.33043,0,0.000885,0,0
0:0:29.251,18.945,2.41317,0,0.000885,0,0
0:0:29.452,19.3542,2.46143,0,0.000885,0,0
0:0:29.650,19.4699,2.48211,0,0.000885,0,0
0:0:29.850,20.4084,2.59932,0,0.000885,0,0
0:0:30.050,20.8221,2.64759,0,0.000885,0,0
0:0:30.246,21.6406,2.7579,0,0.000885,0,0
0:0:30.447,21.8185,2.77859,0,0.000885,0,0
0:0:30.646,22.637,2.88201,0,0.000885,0,0
0:0:30.845,22.8728,2.90959,0,0.000885,0,0
0:0:31.046,23.5756,2.99922,0,0.000885,0,0
0:0:31.241,23.5756,2.99922,0,0.000885,0,0
0:0:31.441,23.8692,3.04059,0,0.000885,0,0
0:0:31.641,24.5764,3.13022,0,0.000885,0,0
0:0:31.839,24.6921,3.14401,0,0.000885,0,0
0:0:32.041,25.1013,3.19917,0,0.000885,0,0
0:0:32.238,25.1013,3.19917,0,0.000885,0,0
0:0:32.438,25.6885,3.26811,0,0.000885,0,0
0:0:32.639,26.0399,3.31638,0,0.000885,0,0
0:0:32.844,26.7427,3.40601,0,0.000885,0,0
0:0:33.046,26.6271,3.39222,0,0.000885,0,0
0:0:33.246,27.0986,3.44738,0,0.000885,0,0
0:0:33.448,27.5078,3.50254,0,0.000885,0,0
0:0:33.649,28.0371,3.57148,0,0.000885,0,0
0:0:33.851,27.917,3.55769,0,0.000885,0,0
0:0:34.052,28.562,3.63354,0,0.000885,0,0
0:0:34.251,29.207,3.71627,0,0.000885,0,0
0:0:34.449,29.6207,3.77143,0,0.000885,0,0
0:0:34.650,29.9098,3.80591,0,0.000885,0,0
0:0:34.846,30.4392,3.87485,0,0.000885,0,0
0:0:35.046,30.6171,3.89554,0,0.000885,0,0
0:0:35.248,31.3199,3.98517,0,0.000885,0,0
0:0:35.444,31.2621,3.97827,0,0.000885,0,0
0:0:35.646,31.787,4.04722,0,0.000885,0,0
0:0:35.841,31.7292,4.04033,0,0.000885,0,0
0:0:36.042,32.8457,4.18512,0,0.000885,0,0
0:0:36.243,32.9035,4.19201,0,0.000885,0,0
0:0:36.438,33.3706,4.24717,0,0.000885,0,0
0:0:36.641,33.8999,4.31612,0,0.000885,0,0
0:0:36.839,34.2513,4.36438,0,0.000885,0,0
0:0:37.036,34.7806,4.42643,0,0.000885,0,0
0:0:37.238,34.8963,4.44022,0,0.000885,0,0
0:0:37.441,35.4835,4.51607,0,0.000885,0,0
0:0:37.644,35.7192,4.55054,0,0.000885,0,0
0:0:37.845,36.0128,4.58501,0,0.000885,0,0
0:0:38.047,36.422,4.64017,0,0.000885,0,0
0:0:38.250,36.8313,4.68843,0,0.000885,0,0
0:0:38.451,37.3028,4.75049,0,0.000885,0,0
0:0:38.653,37.7698,4.81254,0,0.000885,0,0
0:0:38.853,38.1835,4.8608,0,0.000885,0,0
0:0:39.050,38.4727,4.90217,0,0.000885,0,0
0:0:39.252,38.5349,4.90907,0,0.000885,0,0
0:0:39.450,39.0598,4.97112,0,0.000885,0,0
0:0:39.649,39.3534,5.01249,0,0.000885,0,0
0:0:39.850,40.4121,5.14349,0,0.000885,0,0
0:0:40.044,40.7057,5.18486,0,0.000885,0,0
0:0:40.247,40.9948,5.21933,0,0.000885,0,0
0:0:40.444,41.1727,5.24002,0,0.000885,0,0
0:0:40.644,41.7599,5.31586,0,0.000885,0,0
0:0:40.845,41.9957,5.34344,0,0.000885,0,0
0:0:41.040,42.4049,5.39859,0,0.000885,0,0
0:0:41.242,42.6407,5.42617,0,0.000885,0,0
0:0:41.440,43.1655,5.49512,0,0.000885,0,0
0:0:41.637,43.4591,5.53649,0,0.000885,0,0
0:0:41.840,43.6371,5.55717,0,0.000885,0,0
0:0:42.035,44.3399,5.64681,0,0.000885,0,0
0:0:42.236,44.3977,5.6537,0,0.000885,0,0
0:0:42.438,45.3941,5.77781,0,0.000885,0,0
0:0:42.641,45.9234,5.84675,0,0.000885,0,0
0:0:42.843,46.2748,5.89502,0,0.000885,0,0
0:0:43.044,46.8042,5.95707,0,0.000885,0,0
0:0:43.247,46.6841,5.94328,0,0.000885,0,0
0:0:43.447,47.2134,6.01223,0,0.000885,0,0
0:0:43.648,47.1556,6.00533,0,0.000885,0,0
0:0:43.852,47.6849,6.07428,0,0.000885,0,0
0:0:44.051,48.4456,6.17081,0,0.000885,0,0
0:0:44.247,48.7392,6.20528,0,0.000885,0,0
0:0:44.450,49.1484,6.26044,0,0.000885,0,0
0:0:44.646,49.2062,6.26733,0,0.000885,0,0
0:0:44.849,50.0291,6.37076,0,0.000885,0,0
0:0:45.048,50.3227,6.40523,0,0.000885,0,0
0:0:45.243,50.9099,6.48107,0,0.000885,0,0
0:0:45.445,50.6163,6.4466,0,0.000885,0,0
0:0:45.640,51.2613,6.52934,0,0.000885,0,0
0:0:45.842,51.6127,6.5707,0,0.000885,0,0
0:0:46.042,51.7862,6.59139,0,0.000885,0,0
0:0:46.237,52.5513,6.68791,0,0.000885,0,0
0:0:46.440,52.9605,6.74307,0,0.000885,0,0
0:0:46.636,53.2541,6.77755,0,0.000885,0,0
0:0:46.836,53.7834,6.84649,0,0.000885,0,0
0:0:47.037,54.1349,6.89476,0,0.000885,0,0
0:0:47.232,54.4863,6.93613,0,0.000885,0,0
0:0:47.434,55.4827,7.06713,0,0.000885,0,0
0:0:47.634,55.4248,7.06023,0,0.000885,0,0
0:0:47.838,55.9542,7.12228,0,0.000885,0,0
0:0:48.041,55.8919,7.11539,0,0.000885,0,0
0:0:48.242,56.7148,7.21881,0,0.000885,0,0
0:0:48.444,56.657,7.21192,0,0.000885,0,0
0:0:48.646,57.7112,7.34981,0,0.000885,0,0
0:0:48.846,57.5377,7.32913,0,0.000885,0,0
0:0:49.049,58.1827,7.40497,0,0.000885,0,0
0:0:49.245,58.8277,7.48771,0,0.000885,0,0
0:0:49.445,59.0012,7.51529,0,0.000885,0,0
0:0:49.645,59.237,7.54286,0,0.000885,0,0
0:0:49.842,59.8241,7.61871,0,0.000885,0,0
0:0:50.044,59.882,7.6256,0,0.000885,0,0
0:0:50.242,60.9985,7.7635,0,0.000885,0,0
0:0:50.439,60.8784,7.74971,0,0.000885,0,0
0:0:50.641,61.2876,7.80487,0,0.000885,0,0
0:0:50.836,61.6435,7.84623,0,0.000885,0,0
0:0:51.039,62.0527,7.90139,0,0.000885,0,0
0:0:51.238,62.5198,7.96344,0,0.000885,0,0
0:0:51.434,62.8712,8.00481,0,0.000885,0,0
0:0:51.637,63.227,8.05308,0,0.000885,0,0
0:0:51.842,63.4005,8.07376,0,0.000885,0,0
0:0:52.041,63.9877,8.1496,0,0.000885,0,0
0:0:52.243,64.517,8.21166,0,0.000885,0,0
0:0:52.447,64.9841,8.27371,0,0.000885,0,0
0:0:52.648,65.162,8.29439,0,0.000885,0,0
0:0:52.851,65.7492,8.37024,0,0.000885,0,0
0:0:53.051,65.5134,8.34266,0,0.000885,0,0
0:0:53.254,65.8648,8.38402,0,0.000885,0,0
0:0:53.455,66.1006,8.4185,0,0.000885,0,0
0:0:53.657,67.1548,8.5495,0,0.000885,0,0
0:0:53.854,67.3327,8.57018,0,0.000885,0,0
0:0:54.054,67.742,8.62534,0,0.000885,0,0
0:0:54.254,68.3291,8.70118,0,0.000885,0,0
0:0:54.451,69.4412,8.83908,0,0.000885,0,0
0:0:54.652,69.6769,8.87355,0,0.000885,0,0
0:0:54.850,70.2641,8.94939,0,0.000885,0,0
0:0:55.047,70.144,8.92871,0,0.000885,0,0
0:0:55.249,70.9669,9.03903,0,0.000885,0,0
0:0:55.445,71.2027,9.06661,0,0.000885,0,0
0:0:55.645,71.0826,9.05282,0,0.000885,0,0
0:0:55.843,70.9091,9.02524,0,0.000885,0,0
0:0:56.040,71.7276,9.13555,0,0.000885,0,0
0:0:56.242,71.7276,9.13555,0,0.000885,0,0
0:0:56.440,72.5505,9.23897,0,0.000885,0,0
0:0:56.639,72.7863,9.26655,0,0.000885,0,0
0:0:56.840,73.3111,9.3355,0,0.000885,0,0
0:0:57.035,73.4312,9.34929,0,0.000885,0,0
0:0:57.238,74.1919,9.44582,0,0.000885,0,0
0:0:57.437,74.5433,9.49408,0,0.000885,0,0
0:0:57.641,75.0148,9.54924,0,0.000885,0,0
0:0:57.843,75.5397,9.61819,0,0.000885,0,0
0:0:58.045,75.8956,9.66645,0,0.000885,0,0
0:0:58.246,76.1269,9.69403,0,0.000885,0,0
0:0:58.448,76.3626,9.72161,0,0.000885,0,0
0:0:58.650,77.0076,9.80434,0,0.000885,0,0
0:0:58.852,77.537,9.87329,0,0.000885,0,0
0:0:59.047,78.0618,9.94224,0,0.000885,0,0
0:0:59.248,78.2398,9.96292,0,0.000885,0,0
0:0:59.447,79.0627,10.0663,0,0.000885,0,0
0:0:59.644,78.8269,10.0388,0,0.000885,0,0
0:0:59.847,79.4141,10.1077,0,0.000885,0,0
0:1:0.042,79.939,10.1767,0,0.000885,0,0
0:1:0.241,79.7077,10.1491,0,0.000885,0,0
0:1:0.442,80.6463,10.2663,0,0.000885,0,0
0:1:0.638,80.584,10.2594,0,0.000885,0,0
0:1:0.841,81.1711,10.3352,0,0.000885,0,0
0:1:1.037,81.7005,10.4042,0,0.000885,0,0
0:1:1.235,82.1675,10.4593,0,0.000885,0,0
0:1:1.437,82.2877,10.48,0,0.000885,0,0
0:1:1.634,82.8125,10.5421,0,0.000885,0,0
0:1:1.835,82.9905,10.5697,0,0.000885,0,0
0:1:2.042,83.4575,10.6248,0,0.000885,0,0
0:1:2.239,83.6355,10.6455,0,0.000885,0,0
0:1:2.441,84.2226,10.7213,0,0.000885,0,0
0:1:2.643,84.752,10.7903,0,0.000885,0,0
0:1:2.845,85.2769,10.8592,0,0.000885,0,0
0:1:3.049,85.5704,10.8937,0,0.000885,0,0
0:1:3.250,85.864,10.9351,0,0.000885,0,0
0:1:3.452,86.2733,10.9833,0,0.000885,0,0
0:1:3.654,86.6869,11.0385,0,0.000885,0,0
0:1:3.855,87.3898,11.1281,0,0.000885,0,0
0:1:4.056,87.3319,11.1212,0,0.000885,0,0
0:1:4.251,88.2705,11.2385,0,0.000885,0,0
0:1:4.454,88.6797,11.2936,0,0.000885,0,0
0:1:4.651,88.9733,11.3281,0,0.000885,0,0
0:1:4.850,89.0312,11.335,0,0.000885,0,0
0:1:5.052,89.6183,11.4108,0,0.000885,0,0
0:1:5.248,90.0854,11.4729,0,0.000885,0,0
0:1:5.449,90.1477,11.4798,0,0.000885,0,0
0:1:5.647,90.8505,11.5694,0,0.000885,0,0
0:1:5.845,91.4955,11.6521,0,0.000885,0,0
0:1:6.047,91.3754,11.6315,0,0.000885,0,0
0:1:6.241,91.8469,11.6935,0,0.000885,0,0
0:1:6.442,92.7276,11.8038,0,0.000885,0,0
0:1:6.642,92.9589,11.8383,0,0.000885,0,0
0:1:6.837,92.7855,11.8107,0,0.000885,0,0
0:1:7.040,93.0212,11.8452,0,0.000885,0,0
0:1:7.236,93.7819,11.9417,0,0.000885,0,0
0:1:7.435,94.4268,12.0245,0,0.000885,0,0
0:1:7.637,94.9562,12.0934,0,0.000885,0,0
0:1:7.839,95.6012,12.1692,0,0.000885,0,0
0:1:8.041,95.3076,12.1348,0,0.000885,0,0
0:1:8.244,95.7168,12.1899,0,0.000885,0,0
0:1:8.445,96.0682,12.2313,0,0.000885,0,0
0:1:8.647,96.8912,12.3347,0,0.000885,0,0
0:1:8.847,96.949,12.3416,0,0.000885,0,0
0:1:9.050,97.5362,12.4175,0,0.000885,0,0
0:1:9.249,97.4205,12.4037,0,0.000885,0,0
0:1:9.446,98.1233,12.4933,0,0.000885,0,0
0:1:9.648,98.5326,12.5485,0,0.000885,0,0
0:1:9.843,98.884,12.5898,0,0.000885,0,0
0:1:10.043,99.1775,12.6243,0,0.000885,0,0
0:1:10.245,99.2354,12.6381,0,0.000885,0,0
0:1:10.440,100.468,12.7898,0,0.000885,0,0
0:1:10.642,100.468,12.7898,0,0.000885,0,0
0:1:10.840,100.939,12.8518,0,0.000885,0,0
0:1:11.038,101.993,12.9828,0,0.000885,0,0
0:1:11.238,101.758,12.9552,0,0.000885,0,0
0:1:11.443,101.935,12.9759,0,0.000885,0,0
0:1:11.644,102.58,13.0587,0,0.000885,0,0
0:1:11.841,102.403,13.038,0,0.000885,0,0
0:1:12.038,103.986,13.2379,0,0.000885,0,0
0:1:12.240,103.399,13.1621,0,0.000885,0,0
0:1:12.442,103.87,13.2241,0,0.000885,0,0
0:1:12.645,104.164,13.2655,0,0.000885,0,0
0:1:12.848,105.16,13.3896,0,0.000885,0,0
0:1:13.048,104.515,13.3069,0,0.000885,0,0
0:1:13.250,105.454,13.4241,0,0.000885,0,0
0:1:13.451,106.215,13.5206,0,0.000885,0,0
0:1:13.654,106.686,13.5827,0,0.000885,0,0
0:1:13.853,106.566,13.5689,0,0.000885,0,0
0:1:14.049,107.153,13.6447,0,0.000885,0,0
0:1:14.252,107.625,13.6999,0,0.000885,0,0
0:1:14.449,108.328,13.7895,0,0.000885,0,0
0:1:14.648,108.034,13.755,0,0.000885,0,0
0:1:14.850,108.505,13.8171,0,0.000885,0,0
0:1:15.044,108.915,13.8654,0,0.000885,0,0
0:1:15.245,109.733,13.9688,0,0.000885,0,0
0:1:15.445,110.263,14.0377,0,0.000885,0,0
0:1:15.641,110.147,14.0239,0,0.000885,0,0
0:1:15.844,110.965,14.1274,0,0.000885,0,0
0:1:16.039,111.317,14.1756,0,0.000885,0,0
0:1:16.239,112.082,14.2721,0,0.000885,0,0
0:1:16.440,111.788,14.2308,0,0.000885,0,0
0:1:16.636,112.024,14.2653,0,0.000885,0,0
0:1:16.837,112.024,14.2653,0,0.000885,0,0
0:1:17.043,113.136,14.4031,0,0.000885,0,0
0:1:17.242,113.256,14.4169,0,0.000885,0,0
0:1:17.445,114.075,14.5273,0,0.000885,0,0
0:1:17.646,114.368,14.5617,0,0.000885,0,0
0:1:17.850,114.955,14.6376,0,0.000885,0,0
0:1:18.052,115.658,14.7272,0,0.000885,0,0
0:1:18.253,115.658,14.7272,0,0.000885,0,0
0:1:18.454,115.543,14.7134,0,0.000885,0,0
0:1:18.656,116.481,14.8306,0,0.000885,0,0
0:1:18.858,117.068,14.9065,0,0.000885,0,0
0:1:19.056,117.535,14.9685,0,0.000885,0,0
0:1:19.257,117.713,14.9892,0,0.000885,0,0
0:1:19.456,117.887,15.0099,0,0.000885,0,0
0:1:19.653,117.771,14.9961,0,0.000885,0,0
0:1:19.855,118.123,15.0375,0,0.000885,0,0
0:1:20.052,118.768,15.1202,0,0.000885,0,0
0:1:20.251,119.355,15.196,0,0.000885,0,0
0:1:20.452,120,15.2788,0,0.000885,0,0
0:1:20.648,120.115,15.2926,0,0.000885,0,0
0:1:20.851,120.818,15.3822,0,0.000885,0,0
0:1:21.047,120.702,15.3684,0,0.000885,0,0
0:1:21.245,121.174,15.4305,0,0.000885,0,0
0:1:21.447,122.17,15.5546,0,0.000885,0,0
0:1:21.641,122.286,15.5684,0,0.000885,0,0
0:1:21.843,122.815,15.6373,0,0.000885,0,0
0:1:22.042,122.815,15.6373,0,0.000885,0,0
0:1:22.240,123.927,15.7821,0,0.000885,0,0
0:1:22.442,124.63,15.8717,0,0.000885,0,0
0:1:22.644,123.927,15.7821,0,0.000885,0,0
0:1:22.845,124.63,15.8717,0,0.000885,0,0
0:1:23.048,124.572,15.8579,0,0.000885,0,0
0:1:23.250,125.16,15.9338,0,0.000885,0,0
0:1:23.451,125.862,16.0234,0,0.000885,0,0
0:1:23.652,125.511,15.982,0,0.000885,0,0
0:1:23.854,125.862,16.0234,0,0.000885,0,0
0:1:24.055,127.095,16.182,0,0.000885,0,0
0:1:24.251,127.273,16.2027,0,0.000885,0,0
0:1:24.454,128.033,16.2992,0,0.000885,0,0
0:1:24.650,128.211,16.3268,0,0.000885,0,0
0:1:24.850,128.091,16.3061,0,0.000885,0,0
0:1:25.050,128.327,16.3406,0,0.000885,0,0
0:1:25.244,129.092,16.4371,0,0.000885,0,0
0:1:25.447,130.32,16.5957,0,0.000885,0,0
0:1:25.643,130.026,16.5543,0,0.000885,0,0
0:1:25.843,130.497,16.6164,0,0.000885,0,0
0:1:26.044,131.2,16.706,0,0.000885,0,0
0:1:26.239,131.258,16.7129,0,0.000885,0,0
0:1:26.441,131.378,16.7267,0,0.000885,0,0
0:1:26.639,132.023,16.8094,0,0.000885,0,0
0:1:26.838,132.49,16.8715,0,0.000885,0,0
0:1:27.038,132.904,16.9197,0,0.000885,0,0
0:1:27.230,132.904,16.9197,0,0.000885,0,0
0:1:27.436,133.371,16.9818,0,0.000885,0,0
0:1:27.638,133.958,17.0576,0,0.000885,0,0
0:1:27.841,134.074,17.0714,0,0.000885,0,0
0:1:28.044,134.839,17.1679,0,0.000885,0,0
0:1:28.247,135.542,17.2576,0,0.000885,0,0
0:1:28.447,136.009,17.3196,0,0.000885,0,0
0:1:28.648,135.835,17.2921,0,0.000885,0,0
0:1:28.850,136.187,17.3403,0,0.000885,0,0
0:1:29.051,136.832,17.4231,0,0.000885,0,0
0:1:29.248,136.538,17.3817,0,0.000885,0,0
0:1:29.448,137.068,17.4506,0,0.000885,0,0
0:1:29.647,137.419,17.4989,0,0.000885,0,0
0:1:29.844,138.473,17.6299,0,0.000885,0,0
0:1:30.045,137.828,17.5472,0,0.000885,0,0
0:1:30.241,138.473,17.6299,0,0.000885,0,0
0:1:30.441,138.651,17.6506,0,0.000885,0,0
0:1:30.641,139.705,17.7885,0,0.000885,0,0
0:1:30.838,140.35,17.8712,0,0.000885,0,0
0:1:31.040,140.76,17.9195,0,0.000885,0,0
0:1:31.232,141.818,18.0574,0,0.000885,0,0
0:1:31.431,141.525,18.016,0,0.000885,0,0
0:1:31.633,141.934,18.0712,0,0.000885,0,0
0:1:31.842,141.876,18.0643,0,0.000885,0,0
0:1:32.044,142.579,18.1539,0,0.000885,0,0
0:1:32.239,142.872,18.1884,0,0.000885,0,0
0:1:32.439,142.695,18.1677,0,0.000885,0,0
0:1:32.642,143.753,18.3056,0,0.000885,0,0
0:1:32.844,143.989,18.3332,0,0.000885,0,0
0:1:33.047,144.75,18.4297,0,0.000885,0,0
0:1:33.249,144.865,18.4435,0,0.000885,0,0
0:1:33.451,145.279,18.4986,0,0.000885,0,0
0:1:33.653,145.573,18.5331,0,0.000885,0,0
0:1:33.854,146.155,18.6089,0,0.000885,0,0
0:1:34.055,146.685,18.6779,0,0.000885,0,0
0:1:34.254,147.507,18.7813,0,0.000885,0,0
0:1:34.452,147.917,18.8365,0,0.000885,0,0
0:1:34.653,147.681,18.802,0,0.000885,0,0
0:1:34.849,147.565,18.7882,0,0.000885,0,0
0:1:35.052,148.74,18.9399,0,0.000885,0,0
0:1:35.248,148.268,18.8778,0,0.000885,0,0
0:1:35.447,148.446,18.8985,0,0.000885,0,0
0:1:35.648,149.5,19.0364,0,0.000885,0,0
0:1:35.843,150.323,19.1398,0,0.000885,0,0
0:1:36.047,150.439,19.1536,0,0.000885,0,0
0:1:36.243,150.675,19.1812,0,0.000885,0,0
0:1:36.442,150.968,19.2226,0,0.000885,0,0
0:1:36.644,151.435,19.2846,0,0.000885,0,0
0:1:36.839,152.489,19.4156,0,0.000885,0,0
0:1:37.040,152.374,19.4018,0,0.000885,0,0
0:1:37.237,152.61,19.4294,0,0.000885,0,0
0:1:37.446,153.37,19.526,0,0.000885,0,0
0:1:37.647,154.015,19.6087,0,0.000885,0,0
0:1:37.849,153.37,19.526,0,0.000885,0,0
0:1:38.053,154.251,19.6432,0,0.000885,0,0
0:1:38.255,155.012,19.7397,0,0.000885,0,0
0:1:38.456,155.719,19.8293,0,0.000885,0,0
0:1:38.658,155.247,19.7673,0,0.000885,0,0
0:1:38.860,156.364,19.9121,0,0.000885,0,0
0:1:39.060,156.537,19.9327,0,0.000885,0,0
0:1:39.261,156.128,19.8776,0,0.000885,0,0
0:1:39.458,157.476,20.05,0,0.000885,0,0
0:1:39.660,157.596,20.0637,0,0.000885,0,0
0:1:39.855,157.182,20.0155,0,0.000885,0,0
0:1:40.056,158.357,20.1603,0,0.000885,0,0
0:1:40.255,158.708,20.2085,0,0.000885,0,0
0:1:40.451,159.411,20.2982,0,0.000885,0,0
0:1:40.653,158.886,20.2292,0,0.000885,0,0
0:1:40.850,159.647,20.3257,0,0.000885,0,0
0:1:41.049,160.47,20.4292,0,0.000885,0,0
0:1:41.251,160.643,20.4567,0,0.000885,0,0
0:1:41.444,160.701,20.4636,0,0.000885,0,0
0:1:41.647,161.346,20.5464,0,0.000885,0,0
0:1:41.845,162.284,20.6636,0,0.000885,0,0
0:1:42.041,161.933,20.6153,0,0.000885,0,0
0:1:42.243,162.578,20.6981,0,0.000885,0,0
0:1:42.446,162.698,20.7119,0,0.000885,0,0
0:1:42.648,163.223,20.7808,0,0.000885,0,0
0:1:42.851,163.81,20.8566,0,0.000885,0,0
0:1:43.054,164.455,20.9394,0,0.000885,0,0
0:1:43.254,164.046,20.8842,0,0.000885,0,0
0:1:43.456,164.864,20.9945,0,0.000885,0,0
0:1:43.658,165.745,21.1049,0,0.000885,0,0
0:1:43.859,165.981,21.1324,0,0.000885,0,0
0:1:44.054,165.981,21.1324,0,0.000885,0,0
0:1:44.255,166.568,21.2083,0,0.000885,0,0
0:1:44.454,166.862,21.2427,0,0.000885,0,0
0:1:44.652,166.977,21.2634,0,0.000885,0,0
0:1:44.853,167.622,21.3393,0,0.000885,0,0
0:1:45.048,168.267,21.422,0,0.000885,0,0
0:1:45.250,168.387,21.4427,0,0.000885,0,0
0:1:45.449,168.97,21.5116,0,0.000885,0,0
0:1:45.646,169.851,21.6289,0,0.000885,0,0
0:1:45.848,170.322,21.684,0,0.000885,0,0
0:1:46.042,170.144,21.6633,0,0.000885,0,0
0:1:46.243,169.793,21.622,0,0.000885,0,0
0:1:46.444,170.616,21.7254,0,0.000885,0,0
0:1:46.640,171.377,21.8219,0,0.000885,0,0
0:1:46.842,171.964,21.8977,0,0.000885,0,0
0:1:47.048,171.67,21.8564,0,0.000885,0,0
0:1:47.246,172.2,21.9253,0,0.000885,0,0
0:1:47.447,172.667,21.9874,0,0.000885,0,0
0:1:47.650,172.96,22.0219,0,0.000885,0,0
0:1:47.852,173.432,22.0839,0,0.000885,0,0
0:1:48.054,174.366,22.2011,0,0.000885,0,0
0:1:48.256,174.135,22.1735,0,0.000885,0,0
0:1:48.458,174.602,22.2287,0,0.000885,0,0
0:1:48.659,175.482,22.3459,0,0.000885,0,0
0:1:48.861,175.482,22.3459,0,0.000885,0,0
0:1:49.059,175.834,22.3873,0,0.000885,0,0
0:1:49.257,176.421,22.4631,0,0.000885,0,0
0:1:49.457,176.185,22.4355,0,0.000885,0,0
0:1:49.654,176.888,22.5252,0,0.000885,0,0
0:1:49.853,177.182,22.5596,0,0.000885,0,0
0:1:50.053,178.24,22.6906,0,0.000885,0,0
0:1:50.249,177.827,22.6424,0,0.000885,0,0
0:1:50.450,178.356,22.7113,0,0.000885,0,0
0:1:50.648,179.179,22.8148,0,0.000885,0,0
0:1:50.846,180.175,22.9389,0,0.000885,0,0
0:1:51.047,179.824,22.8975,0,0.000885,0,0
0:1:51.242,180.291,22.9526,0,0.000885,0,0
0:1:51.444,181.172,23.0699,0,0.000885,0,0
0:1:51.643,181.407,23.0974,0,0.000885,0,0
0:1:51.841,181.639,23.125,0,0.000885,0,0
0:1:52.042,181.874,23.1595,0,0.000885,0,0
0:1:52.235,182.346,23.2146,0,0.000885,0,0
0:1:52.435,182.577,23.2491,0,0.000885,0,0
0:1:52.640,182.577,23.2491,0,0.000885,0,0
0:1:52.843,183.694,23.387,0,0.000885,0,0
0:1:53.046,184.397,23.4766,0,0.000885,0,0
0:1:53.247,183.694,23.387,0,0.000885,0,0
0:1:53.449,184.575,23.4973,0,0.000885,0,0
0:1:53.650,184.454,23.4835,0,0.000885,0,0
0:1:53.850,184.926,23.5456,0,0.000885,0,0
0:1:54.052,185.922,23.6697,0,0.000885,0,0
0:1:54.249,186.216,23.7111,0,0.000885,0,0
0:1:54.448,185.98,23.6766,0,0.000885,0,0
0:1:54.649,186.861,23.7938,0,0.000885,0,0
0:1:54.844,186.389,23.7318,0,0.000885,0,0
0:1:55.046,187.212,23.8352,0,0.000885,0,0
0:1:55.244,188.035,23.9386,0,0.000885,0,0
0:1:55.442,188.209,23.9662,0,0.000885,0,0
0:1:55.644,188.68,24.0213,0,0.000885,0,0
0:1:55.850,189.557,24.1385,0,0.000885,0,0
0:1:56.051,189.97,24.1868,0,0.000885,0,0
0:1:56.249,190.028,24.1937,0,0.000885,0,0
0:1:56.445,190.379,24.242,0,0.000885,0,0
0:1:56.647,191.376,24.3661,0,0.000885,0,0
0:1:56.842,191.318,24.3592,0,0.000885,0,0
0:1:57.043,191.082,24.3316,0,0.000885,0,0
0:1:57.243,192.021,24.4488,0,0.000885,0,0
0:1:57.435,192.608,24.5247,0,0.000885,0,0
0:1:57.639,192.724,24.5384,0,0.000885,0,0
0:1:57.840,193.195,24.6005,0,0.000885,0,0
0:1:58.043,193.724,24.6625,0,0.000885,0,0
0:1:58.243,193.604,24.6488,0,0.000885,0,0
0:1:58.444,194.134,24.7177,0,0.000885,0,0
0:1:58.645,195.366,24.8763,0,0.000885,0,0
0:1:58.844,196.011,24.959,0,0.000885,0,0
0:1:59.044,195.424,24.8832,0,0.000885,0,0
0:1:59.244,196.011,24.959,0,0.000885,0,0
0:1:59.447,196.011,24.959,0,0.000885,0,0
0:1:59.647,196.892,25.0693,0,0.000885,0,0
0:1:59.844,197.946,25.2003,0,0.000885,0,0
0:2:0.039,197.359,25.1314,0,0.000885,0,0
0:2:0.239,197.474,25.1452,0,0.000885,0,0
0:2:0.444,197.359,25.1314,0,0.000885,0,0
0:2:0.642,198.475,25.2693,0,0.000885,0,0
0:2:0.841,199.294,25.3727,0,0.000885,0,0
0:2:1.044,200.29,25.5037,0,0.000885,0,0
0:2:1.244,199.939,25.4554,0,0.000885,0,0
0:2:1.442,200.526,25.5313,0,0.000885,0,0
0:2:1.646,199.765,25.4348,0,0.000885,0,0
0:2:1.846,200.819,25.5658,0,0.000885,0,0
0:2:2.040,201.7,25.683,0,0.000885,0,0
0:2:2.240,201.994,25.7174,0,0.000885,0,0
0:2:2.440,202.109,25.7312,0,0.000885,0,0
0:2:2.642,202.639,25.8002,0,0.000885,0,0
0:2:2.842,202.461,25.7795,0,0.000885,0,0
0:2:3.043,202.87,25.8278,0,0.000885,0,0
0:2:3.243,203.929,25.9657,0,0.000885,0,0
0:2:3.442,204.516,26.0415,0,0.000885,0,0
0:2:3.643,204.222,26.0001,0,0.000885,0,0
0:2:3.844,204.925,26.0898,0,0.000885,0,0
0:2:4.039,205.686,26.1863,0,0.000885,0,0
0:2:4.235,205.628,26.1794,0,0.000885,0,0
0:2:4.434,206.215,26.2552,0,0.000885,0,0
0:2:4.640,206.624,26.3104,0,0.000885,0,0
0:2:4.841,206.976,26.3518,0,0.000885,0,0
0:2:5.046,207.683,26.4414,0,0.000885,0,0
0:2:5.242,207.389,26.4069,0,0.000885,0,0
0:2:5.443,207.447,26.4138,0,0.000885,0,0
0:2:5.646,208.386,26.531,0,0.000885,0,0
0:2:5.846,208.795,26.5862,0,0.000885,0,0
0:2:6.043,209.498,26.6758,0,0.000885,0,0
0:2:6.239,209.791,26.7103,0,0.000885,0,0
0:2:6.439,210.263,26.7723,0,0.000885,0,0
0:2:6.632,210.205,26.7654,0,0.000885,0,0
0:2:6.831,210.73,26.8344,0,0.000885,0,0
0:2:7.030,211.553,26.9378,0,0.000885,0,0
0:2:7.235,212.14,27.0137,0,0.000885,0,0
0:2:7.434,211.904,26.9792,0,0.000885,0,0
0:2:7.634,212.785,27.0895,0,0.000885,0,0
0:2:7.836,213.839,27.2274,0,0.000885,0,0
0:2:8.037,213.782,27.2205,0,0.000885,0,0
0:2:8.240,213.194,27.1447,0,0.000885,0,0
0:2:8.441,214.133,27.2619,0,0.000885,0,0
0:2:8.639,214.133,27.2619,0,0.000885,0,0
0:2:8.840,215.307,27.4136,0,0.000885,0,0
0:2:9.036,215.187,27.3998,0,0.000885,0,0
0:2:9.242,215.774,27.4756,0,0.000885,0,0
0:2:9.442,215.952,27.4963,0,0.000885,0,0
0:2:9.648,215.659,27.4618,0,0.000885,0,0
0:2:9.847,216.713,27.5928,0,0.000885,0,0
0:2:10.047,217.122,27.648,0,0.000885,0,0
0:2:10.250,217.945,27.7514,0,0.000885,0,0
0:2:10.448,218.061,27.7652,0,0.000885,0,0
0:2:10.646,218.826,27.8617,0,0.000885,0,0
0:2:10.841,218.003,27.7583,0,0.000885,0,0
0:2:11.041,218.532,27.8272,0,0.000885,0,0
0:2:11.235,219.529,27.9513,0,0.000885,0,0
0:2:11.432,219.707,27.972,0,0.000885,0,0
0:2:11.631,220.231,28.041,0,0.000885,0,0
0:2:11.836,220.761,28.1099,0,0.000885,0,0
0:2:12.036,220.819,28.1168,0,0.000885,0,0
0:2:12.233,221.464,28.1996,0,0.000885,0,0
0:2:12.429,222.46,28.3237,0,0.000885,0,0
0:2:12.630,222.932,28.3857,0,0.000885,0,0
0:2:12.831,222.754,28.365,0,0.000885,0,0
0:2:13.032,223.225,28.4202,0,0.000885,0,0
0:2:13.233,223.399,28.4409,0,0.000885,0,0
0:2:13.434,223.519,28.4616,0,0.000885,0,0
0:2:13.634,224.573,28.5926,0,0.000885,0,0
0:2:13.833,224.222,28.5512,0,0.000885,0,0
0:2:14.034,224.751,28.6132,0,0.000885,0,0
0:2:14.231,225.569,28.7236,0,0.000885,0,0
0:2:14.435,225.102,28.6615,0,0.000885,0,0
0:2:14.636,226.099,28.7856,0,0.000885,0,0
0:2:14.831,226.801,28.8752,0,0.000885,0,0
0:2:15.030,226.334,28.8201,0,0.000885,0,0
0:2:15.229,227.095,28.9166,0,0.000885,0,0
0:2:15.444,227.856,29.0131,0,0.000885,0,0
0:2:15.645,228.852,29.1372,0,0.000885,0,0
0:2:15.838,228.385,29.0821,0,0.000885,0,0
0:2:16.047,229.03,29.1579,0,0.000885,0,0
0:2:16.247,229.266,29.1924,0,0.000885,0,0
0:2:16.442,230.084,29.2958,0,0.000885,0,0
0:2:16.641,230.204,29.3096,0,0.000885,0,0
0:2:16.836,230.614,29.3648,0,0.000885,0,0
0:2:17.031,230.498,29.351,0,0.000885,0,0
0:2:17.232,231.259,29.4475,0,0.000885,0,0
0:2:17.433,231.788,29.5096,0,0.000885,0,0
0:2:17.634,232.255,29.5716,0,0.000885,0,0
0:2:17.835,233.02,29.6681,0,0.000885,0,0
0:2:18.036,233.665,29.7509,0,0.000885,0,0
0:2:18.235,233.314,29.7095,0,0.000885,0,0
0:2:18.434,233.487,29.7302,0,0.000885,0,0
0:2:18.634,233.665,29.7509,0,0.000885,0,0
0:2:18.833,234.777,29.8957,0,0.000885,0,0
0:2:19.037,235.306,29.9577,0,0.000885,0,0
0:2:19.237,234.897,29.9095,0,0.000885,0,0
0:2:19.434,235.364,29.9646,0,0.000885,0,0
0:2:19.642,235.249,29.9508,0,0.000885,0,0
0:2:19.842,236.009,30.0474,0,0.000885,0,0
0:2:20.045,236.832,30.1577,0,0.000885,0,0
0:2:20.245,237.299,30.2128,0,0.000885,0,0
0:2:20.443,237.064,30.1852,0,0.000885,0,0
0:2:20.635,237.709,30.268,0,0.000885,0,0
0:2:20.836,238.416,30.3576,0,0.000885,0,0
0:2:21.030,238.354,30.3507,0,0.000885,0,0
0:2:21.241,239.003,30.4335,0,0.000885,0,0
0:2:21.437,239.412,30.4817,0,0.000885,0,0
0:2:21.643,239.47,30.4886,0,0.000885,0,0
0:2:21.845,240.351,30.5989,0,0.000885,0,0
0:2:22.050,241.054,30.6886,0,0.000885,0,0
0:2:22.248,241.992,30.8127,0,0.000885,0,0
0:2:22.448,241.405,30.7368,0,0.000885,0,0
0:2:22.650,242.108,30.8265,0,0.000885,0,0
0:2:22.851,242.873,30.923,0,0.000885,0,0
0:2:23.052,243.166,30.9575,0,0.000885,0,0
0:2:23.253,243.166,30.9575,0,0.000885,0,0
0:2:23.453,243.691,31.0264,0,0.000885,0,0
0:2:23.651,243.34,30.985,0,0.000885,0,0
0:2:23.853,243.811,31.0402,0,0.000885,0,0
0:2:24.050,244.866,31.1781,0,0.000885,0,0
0:2:24.246,245.395,31.247,0,0.000885,0,0
0:2:24.447,245.626,31.2746,0,0.000885,0,0
0:2:24.641,245.101,31.2057,0,0.000885,0,0
0:2:24.839,245.569,31.2677,0,0.000885,0,0
0:2:25.036,246.334,31.3643,0,0.000885,0,0
0:2:25.241,246.859,31.4332,0,0.000885,0,0
0:2:25.442,247.094,31.4608,0,0.000885,0,0
0:2:25.637,247.797,31.5504,0,0.000885,0,0
0:2:25.845,247.624,31.5297,0,0.000885,0,0
0:2:26.046,248.562,31.6469,0,0.000885,0,0
0:2:26.238,248.971,31.7021,0,0.000885,0,0
0:2:26.438,249.616,31.7848,0,0.000885,0,0
0:2:26.636,249.674,31.7917,0,0.000885,0,0
0:2:26.832,250.319,31.8745,0,0.000885,0,0
0:2:27.033,251.084,31.971,0,0.000885,0,0
0:2:27.237,251.378,32.0055,0,0.000885,0,0
0:2:27.434,251.316,31.9986,0,0.000885,0,0
0:2:27.634,252.668,32.1709,0,0.000885,0,0
0:2:27.836,252.899,32.1985,0,0.000885,0,0
0:2:28.036,252.316,32.1227,0,0.000885,0,0
0:2:28.237,253.193,32.2399,0,0.000885,0,0
0:2:28.436,253.429,32.2675,0,0.000885,0,0
0:2:28.636,253.486,32.2744,0,0.000885,0,0
0:2:28.836,252.784,32.1847,0,0.000885,0,0
0:2:29.036,254.074,32.3502,0,0.000885,0,0
0:2:29.244,254.661,32.426,0,0.000885,0,0
0:2:29.443,255.599,32.5433,0,0.000885,0,0
0:2:29.643,255.128,32.4812,0,0.000885,0,0
0:2:29.846,255.835,32.5708,0,0.000885,0,0
0:2:30.046,256.302,32.6329,0,0.000885,0,0
0:2:30.243,257.419,32.7777,0,0.000885,0,0
0:2:30.448,257.125,32.7363,0,0.000885,0,0
0:2:30.649,257.712,32.8121,0,0.000885,0,0
0:2:30.843,258.179,32.8742,0,0.000885,0,0
0:2:31.042,258.824,32.9569,0,0.000885,0,0
0:2:31.239,259.469,33.0397,0,0.000885,0,0
0:2:31.435,259.469,33.0397,0,0.000885,0,0
0:2:31.635,259.354,33.019,0,0.000885,0,0
0:2:31.838,260.644,33.1845,0,0.000885,0,0
0:2:32.036,260.408,33.1569,0,0.000885,0,0
0:2:32.236,260.466,33.1638,0,0.000885,0,0
0:2:32.437,260.408,33.1569,0,0.000885,0,0
0:2:32.639,261.818,33.3362,0,0.000885,0,0
0:2:32.838,261.756,33.3293,0,0.000885,0,0
0:2:33.039,261.404,33.281,0,0.000885,0,0
0:2:33.240,262.049,33.3637,0,0.000885,0,0
0:2:33.438,262.049,33.3637,0,0.000885,0,0
0:2:33.642,262.814,33.4603,0,0.000885,0,0
0:2:33.849,263.281,33.5223,0,0.000885,0,0
0:2:34.045,263.753,33.5844,0,0.000885,0,0
0:2:34.245,264.807,33.7154,0,0.000885,0,0
0:2:34.438,265.452,33.7981,0,0.000885,0,0
0:2:34.636,265.101,33.7567,0,0.000885,0,0
0:2:34.833,265.746,33.8326,0,0.000885,0,0
0:2:35.048,266.448,33.9222,0,0.000885,0,0
0:2:35.250,267.036,33.998,0,0.000885,0,0
0:2:35.445,267.036,33.998,0,0.000885,0,0
0:2:35.644,267.503,34.0601,0,0.000885,0,0
0:2:35.842,268.441,34.1773,0,0.000885,0,0
0:2:36.034,268.735,34.2187,0,0.000885,0,0
0:2:36.234,268.504,34.1842,0,0.000885,0,0
0:2:36.432,269.149,34.2669,0,0.000885,0,0
0:2:36.637,269.851,34.3566,0,0.000885,0,0
0:2:36.838,269.967,34.3704,0,0.000885,0,0
0:2:37.043,270.79,34.4807,0,0.000885,0,0
0:2:37.240,270.848,34.4876,0,0.000885,0,0
0:2:37.443,271.026,34.5083,0,0.000885,0,0
0:2:37.645,271.551,34.5772,0,0.000885,0,0
0:2:37.845,271.729,34.5979,0,0.000885,0,0
0:2:38.045,272.725,34.722,0,0.000885,0,0
0:2:38.246,271.786,34.6048,0,0.000885,0,0
0:2:38.445,272.725,34.722,0,0.000885,0,0
0:2:38.645,273.192,34.7841,0,0.000885,0,0
0:2:38.845,272.609,34.7082,0,0.000885,0,0
0:2:39.038,273.779,34.8599,0,0.000885,0,0
0:2:39.248,273.663,34.8461,0,0.000885,0,0
0:2:39.445,274.251,34.9219,0,0.000885,0,0
0:2:39.638,274.718,34.9771,0,0.000885,0,0
0:2:39.840,275.776,35.115,0,0.000885,0,0
0:2:40.047,275.776,35.115,0,0.000885,0,0
0:2:40.244,276.715,35.2322,0,0.000885,0,0
0:2:40.444,276.831,35.246,0,0.000885,0,0
0:2:40.637,277.654,35.3494,0,0.000885,0,0
0:2:40.838,277.885,35.3839,0,0.000885,0,0
0:2:41.046,277.769,35.3632,0,0.000885,0,0
0:2:41.239,278.53,35.4666,0,0.000885,0,0
0:2:41.439,278.178,35.4184,0,0.000885,0,0
0:2:41.635,279.295,35.5632,0,0.000885,0,0
0:2:41.833,279.94,35.6459,0,0.000885,0,0
0:2:42.032,280.349,35.6942,0,0.000885,0,0
0:2:42.225,279.998,35.6528,0,0.000885,0,0
0:2:42.425,280.758,35.7493,0,0.000885,0,0
0:2:42.626,281.346,35.8252,0,0.000885,0,0
0:2:42.829,281.933,35.8941,0,0.000885,0,0
0:2:43.030,282.168,35.9286,0,0.000885,0,0
0:2:43.230,282.462,35.9631,0,0.000885,0,0
0:2:43.431,282.578,35.9768,0,0.000885,0,0
0:2:43.630,283.165,36.0527,0,0.000885,0,0
0:2:43.831,283.401,36.0803,0,0.000885,0,0
0:2:44.032,284.219,36.1906,0,0.000885,0,0
0:2:44.235,284.046,36.163,0,0.000885,0,0
0:2:44.435,284.397,36.2113,0,0.000885,0,0
0:2:44.633,285.278,36.3216,0,0.000885,0,0
0:2:44.830,286.038,36.4181,0,0.000885,0,0
0:2:45.032,286.096,36.425,0,0.000885,0,0
0:2:45.235,286.977,36.5422,0,0.000885,0,0
0:2:45.434,287.858,36.6525,0,0.000885,0,0
0:2:45.632,287.328,36.5836,0,0.000885,0,0
0:2:45.825,287.622,36.6181,0,0.000885,0,0
0:2:46.025,287.444,36.5974,0,0.000885,0,0
0:2:46.232,287.858,36.6525,0,0.000885,0,0
0:2:46.431,288.854,36.7766,0,0.000885,0,0
0:2:46.630,289.615,36.8732,0,0.000885,0,0
0:2:46.833,289.615,36.8732,0,0.000885,0,0
0:2:47.034,289.735,36.887,0,0.000885,0,0
0:2:47.239,289.615,36.8732,0,0.000885,0,0
0:2:47.448,290.086,36.9352,0,0.000885,0,0
0:2:47.649,290.611,37.0042,0,0.000885,0,0
0:2:47.851,291.141,37.0662,0,0.000885,0,0
0:2:48.052,291.612,37.1283,0,0.000885,0,0
0:2:48.254,292.431,37.2317,0,0.000885,0,0
0:2:48.454,292.315,37.2179,0,0.000885,0,0
0:2:48.653,292.608,37.2593,0,0.000885,0,0
0:2:48.853,293.311,37.3489,0,0.000885,0,0
0:2:49.055,293.605,37.3834,0,0.000885,0,0
0:2:49.253,293.721,37.3972,0,0.000885,0,0
0:2:49.449,294.134,37.4523,0,0.000885,0,0
0:2:49.649,295.131,37.5764,0,0.000885,0,0
0:2:49.841,295.891,37.673,0,0.000885,0,0
0:2:50.040,295.655,37.6454,0,0.000885,0,0
0:2:50.239,296.127,37.7005,0,0.000885,0,0
0:2:50.445,297.359,37.8591,0,0.000885,0,0
0:2:50.646,297.826,37.9212,0,0.000885,0,0
0:2:50.839,297.008,37.8177,0,0.000885,0,0
0:2:51.036,297.123,37.8315,0,0.000885,0,0
0:2:51.236,297.475,37.8729,0,0.000885,0,0
0:2:51.429,298.178,37.9625,0,0.000885,0,0
0:2:51.631,298.707,38.0315,0,0.000885,0,0
0:2:51.835,298.823,38.0453,0,0.000885,0,0
0:2:52.033,299.174,38.0935,0,0.000885,0,0
0:2:52.235,300.055,38.2039,0,0.000885,0,0
0:2:52.435,300.642,38.2797,0,0.000885,0,0
0:2:52.637,300.758,38.2935,0,0.000885,0,0
0:2:52.838,301.465,38.3831,0,0.000885,0,0
0:2:53.038,301.874,38.4383,0,0.000885,0,0
0:2:53.240,302.403,38.5003,0,0.000885,0,0
0:2:53.438,302.519,38.521,0,0.000885,0,0
0:2:53.639,302.697,38.5417,0,0.000885,0,0
0:2:53.838,303.516,38.6451,0,0.000885,0,0
0:2:54.045,303.751,38.6727,0,0.000885,0,0
0:2:54.245,303.809,38.6796,0,0.000885,0,0
0:2:54.439,304.103,38.721,0,0.000885,0,0
0:2:54.638,305.041,38.8382,0,0.000885,0,0
0:2:54.834,304.863,38.8175,0,0.000885,0,0
0:2:55.029,305.157,38.852,0,0.000885,0,0
0:2:55.230,306.158,38.983,0,0.000885,0,0
0:2:55.435,306.683,39.045,0,0.000885,0,0
0:2:55.635,306.273,38.9967,0,0.000885,0,0
0:2:55.844,307.034,39.0933,0,0.000885,0,0
0:2:56.037,307.915,39.2036,0,0.000885,0,0
0:2:56.238,308.324,39.2587,0,0.000885,0,0
0:2:56.433,308.093,39.2243,0,0.000885,0,0
0:2:56.632,308.386,39.2656,0,0.000885,0,0
0:2:56.830,309.325,39.3829,0,0.000885,0,0
0:2:57.033,309.734,39.438,0,0.000885,0,0
0:2:57.234,309.908,39.4587,0,0.000885,0,0
0:2:57.435,310.321,39.5139,0,0.000885,0,0
0:2:57.635,310.259,39.507,0,0.000885,0,0
0:2:57.837,310.495,39.5345,0,0.000885,0,0
0:2:58.036,311.26,39.6311,0,0.000885,0,0
0:2:58.238,311.785,39.7,0,0.000885,0,0
0:2:58.438,312.021,39.7276,0,0.000885,0,0
0:2:58.637,312.256,39.7552,0,0.000885,0,0
0:2:58.838,312.781,39.8241,0,0.000885,0,0
0:2:59.033,313.368,39.9,0,0.000885,0,0
0:2:59.233,314.013,39.9827,0,0.000885,0,0
0:2:59.438,314.249,40.0103,0,0.000885,0,0
0:2:59.645,314.013,39.9827,0,0.000885,0,0
0:2:59.846,314.894,40.093,0,0.000885,0,0
0:3:0.050,315.423,40.162,0,0.000885,0,0
0:3:0.251,316.242,40.2654,0,0.000885,0,0
0:3:0.445,316.068,40.2447,0,0.000885,0,0
0:3:0.642,316.656,40.3205,0,0.000885,0,0
0:3:0.842,317.18,40.3826,0,0.000885,0,0
0:3:1.047,317.065,40.3688,0,0.000885,0,0
0:3:1.247,317.532,40.4309,0,0.000885,0,0
0:3:1.453,318.297,40.5274,0,0.000885,0,0
0:3:1.649,318.884,40.6032,0,0.000885,0,0
0:3:1.849,318.764,40.5894,0,0.000885,0,0
0:3:2.052,319.115,40.6308,0,0.000885,0,0
0:3:2.252,319.76,40.7135,0,0.000885,0,0
0:3:2.453,320.29,40.7825,0,0.000885,0,0
0:3:2.655,319.823,40.7204,0,0.000885,0,0
0:3:2.856,320.41,40.7963,0,0.000885,0,0
0:3:3.056,321.113,40.8859,0,0.000885,0,0
0:3:3.258,322.051,41.0031,0,0.000885,0,0
0:3:3.457,321.344,40.9135,0,0.000885,0,0
0:3:3.658,322.403,41.0514,0,0.000885,0,0
0:3:3.858,322.928,41.1134,0,0.000885,0,0
0:3:4.054,323.693,41.2169,0,0.000885,0,0
0:3:4.252,323.163,41.1479,0,0.000885,0,0
0:3:4.451,323.808,41.2306,0,0.000885,0,0
0:3:4.645,324.747,41.3479,0,0.000885,0,0
0:3:4.846,324.222,41.2789,0,0.000885,0,0
0:3:5.050,324.983,41.3754,0,0.000885,0,0
0:3:5.248,325.45,41.4375,0,0.000885,0,0
0:3:5.447,325.806,41.4858,0,0.000885,0,0
0:3:5.640,325.863,41.4926,0,0.000885,0,0
0:3:5.841,326.566,41.5823,0,0.000885,0,0
0:3:6.037,326.802,41.6099,0,0.000885,0,0
0:3:6.234,327.447,41.6926,0,0.000885,0,0
0:3:6.434,328.323,41.8029,0,0.000885,0,0
0:3:6.636,328.853,41.8719,0,0.000885,0,0
0:3:6.837,328.092,41.7753,0,0.000885,0,0
0:3:7.033,328.853,41.8719,0,0.000885,0,0
0:3:7.240,329.44,41.9477,0,0.000885,0,0
0:3:7.442,330.085,42.0304,0,0.000885,0,0
0:3:7.646,329.733,41.9822,0,0.000885,0,0
0:3:7.848,330.614,42.0925,0,0.000885,0,0
0:3:8.048,331.139,42.1614,0,0.000885,0,0
0:3:8.248,331.553,42.2166,0,0.000885,0,0
0:3:8.449,331.846,42.2511,0,0.000885,0,0
0:3:8.649,332.078,42.2787,0,0.000885,0,0
0:3:8.848,332.02,42.2718,0,0.000885,0,0
0:3:9.046,332.958,42.3959,0,0.000885,0,0
0:3:9.251,333.43,42.451,0,0.000885,0,0
0:3:9.453,334.368,42.5751,0,0.000885,0,0
0:3:9.646,334.835,42.6303,0,0.000885,0,0
0:3:9.847,334.542,42.5958,0,0.000885,0,0
0:3:10.041,334.484,42.5889,0,0.000885,0,0
0:3:10.247,334.951,42.651,0,0.000885,0,0
0:3:10.449,336.01,42.782,0,0.000885,0,0
0:3:10.642,335.716,42.7475,0,0.000885,0,0
0:3:10.841,336.597,42.8578,0,0.000885,0,0
0:3:11.038,337.536,42.975,0,0.000885,0,0
0:3:11.234,337.767,43.0026,0,0.000885,0,0
0:3:11.434,337.415,42.9612,0,0.000885,0,0
0:3:11.639,337.767,43.0026,0,0.000885,0,0
0:3:11.838,338.532,43.106,0,0.000885,0,0
0:3:12.035,338.883,43.1474,0,0.000885,0,0
0:3:12.239,338.705,43.1267,0,0.000885,0,0
0:3:12.441,339.293,43.2025,0,0.000885,0,0
0:3:12.640,339.702,43.2508,0,0.000885,0,0
0:3:12.843,340.058,43.2991,0,0.000885,0,0
0:3:13.046,340.76,43.3887,0,0.000885,0,0
0:3:13.244,341.228,43.4439,0,0.000885,0,0
0:3:13.447,341.348,43.4645,0,0.000885,0,0
0:3:13.648,342.05,43.5542,0,0.000885,0,0
0:3:13.847,342.344,43.5887,0,0.000885,0,0
0:3:14.047,343.163,43.6921,0,0.000885,0,0
0:3:14.240,343.456,43.7334,0,0.000885,0,0
0:3:14.440,343.75,43.7679,0,0.000885,0,0
0:3:14.638,344.573,43.8713,0,0.000885,0,0
0:3:14.834,344.221,43.83,0,0.000885,0,0
0:3:15.034,344.573,43.8713,0,0.000885,0,0
0:3:15.237,345.275,43.961,0,0.000885,0,0
0:3:15.437,345.863,44.0368,0,0.000885,0,0
0:3:15.646,345.685,44.0161,0,0.000885,0,0
0:3:15.853,345.805,44.0299,0,0.000885,0,0
0:3:16.052,346.33,44.0989,0,0.000885,0,0
0:3:16.246,347.268,44.2161,0,0.000885,0,0
0:3:16.444,348.033,44.3126,0,0.000885,0,0
0:3:16.642,348.62,44.3884,0,0.000885,0,0
0:3:16.837,347.855,44.2919,0,0.000885,0,0
0:3:17.038,348.385,44.3609,0,0.000885,0,0
0:3:17.241,348.91,44.4229,0,0.000885,0,0
0:3:17.441,349.559,44.5057,0,0.000885,0,0
0:3:17.641,349.559,44.5057,0,0.000885,0,0
0:3:17.844,350.32,44.6022,0,0.000885,0,0
0:3:18.048,350.435,44.616,0,0.000885,0,0
0:3:18.249,351.2,44.7194,0,0.000885,0,0
0:3:18.448,351.552,44.7608,0,0.000885,0,0
0:3:18.649,351.668,44.7746,0,0.000885,0,0
0:3:18.847,352.139,44.8366,0,0.000885,0,0
0:3:19.047,352.139,44.8366,0,0.000885,0,0
0:3:19.241,353.135,44.9607,0,0.000885,0,0
0:3:19.440,353.545,45.0159,0,0.000885,0,0
0:3:19.638,353.723,45.0366,0,0.000885,0,0
0:3:19.833,354.016,45.0779,0,0.000885,0,0
0:3:20.033,354.777,45.1744,0,0.000885,0,0
0:3:20.238,354.599,45.1469,0,0.000885,0,0
0:3:20.436,355.186,45.2227,0,0.000885,0,0
0:3:20.634,355.48,45.2641,0,0.000885,0,0
0:3:20.830,355.48,45.2641,0,0.000885,0,0
0:3:21.030,356.538,45.3951,0,0.000885,0,0
0:3:21.235,356.245,45.3606,0,0.000885,0,0
0:3:21.442,357.063,45.464,0,0.000885,0,0
0:3:21.643,357.886,45.5675,0,0.000885,0,0
0:3:21.838,358.002,45.5812,0,0.000885,0,0
0:3:22.036,358.767,45.6778,0,0.000885,0,0
0:3:22.235,358.883,45.6916,0,0.000885,0,0
0:3:22.430,359.879,45.8226,0,0.000885,0,0
0:3:22.630,359.763,45.8088,0,0.000885,0,0
0:3:22.831,359.821,45.8157,0,0.000885,0,0
0:3:23.032,360.288,45.8708,0,0.000885,0,0
0:3:23.234,360.875,45.9467,0,0.000885,0,0
0:3:23.435,361.169,45.988,0,0.000885,0,0
0:3:23.635,361.814,46.0708,0,0.000885,0,0
0:3:23.834,362.285,46.1259,0,0.000885,0,0
0:3:24.033,362.165,46.1121,0,0.000885,0,0
0:3:24.235,363.046,46.2225,0,0.000885,0,0
0:3:24.438,362.81,46.1949,0,0.000885,0,0
0:3:24.638,363.811,46.319,0,0.000885,0,0
0:3:24.844,363.34,46.2638,0,0.000885,0,0
0:3:25.040,364.865,46.4569,0,0.000885,0,0
0:3:25.239,364.336,46.3879,0,0.000885,0,0
0:3:25.436,365.684,46.5603,0,0.000885,0,0
0:3:25.633,365.217,46.4982,0,0.000885,0,0
0:3:25.832,366.565,46.6706,0,0.000885,0,0
0:3:26.026,366.271,46.6361,0,0.000885,0,0
0:3:26.226,367.036,46.7327,0,0.000885,0,0
0:3:26.433,366.858,46.712,0,0.000885,0,0
0:3:26.632,368.268,46.8912,0,0.000885,0,0
0:3:26.829,367.855,46.8361,0,0.000885,0,0
0:3:27.033,368.735,46.9464,0,0.000885,0,0
0:3:27.234,369.145,47.0016,0,0.000885,0,0
0:3:27.433,369.029,46.9878,0,0.000885,0,0
0:3:27.635,369.852,47.0912,0,0.000885,0,0
0:3:27.837,369.616,47.0636,0,0.000885,0,0
0:3:28.036,370.497,47.1739,0,0.000885,0,0
0:3:28.238,370.435,47.167,0,0.000885,0,0
0:3:28.438,370.79,47.2084,0,0.000885,0,0
0:3:28.637,371.315,47.2774,0,0.000885,0,0
0:3:28.838,371.729,47.3325,0,0.000885,0,0
0:3:29.041,371.493,47.298,0,0.000885,0,0
0:3:29.241,372.663,47.4497,0,0.000885,0,0
0:3:29.440,371.96,47.3601,0,0.000885,0,0
0:3:29.635,372.957,47.4842,0,0.000885,0,0
0:3:29.835,373.78,47.5945,0,0.000885,0,0
0:3:30.038,373.895,47.6083,0,0.000885,0,0
0:3:30.248,374.54,47.691,0,0.000885,0,0
0:3:30.448,374.954,47.7393,0,0.000885,0,0
0:3:30.640,375.248,47.7807,0,0.000885,0,0
0:3:30.841,375.599,47.822,0,0.000885,0,0
0:3:31.046,375.893,47.8565,0,0.000885,0,0
0:3:31.243,377.062,48.0082,0,0.000885,0,0
0:3:31.443,376.711,47.9668,0,0.000885,0,0
0:3:31.638,377.534,48.0702,0,0.000885,0,0
0:3:31.837,377.885,48.1116,0,0.000885,0,0
0:3:32.043,377.707,48.0909,0,0.000885,0,0
0:3:32.238,378.415,48.1806,0,0.000885,0,0
0:3:32.440,378.824,48.2357,0,0.000885,0,0
0:3:32.640,378.708,48.215,0,0.000885,0,0
0:3:32.842,379.705,48.346,0,0.000885,0,0
0:3:33.043,379.585,48.3322,0,0.000885,0,0
0:3:33.243,379.705,48.346,0,0.000885,0,0
0:3:33.444,380.407,48.4357,0,0.000885,0,0
0:3:33.644,380.875,48.4977,0,0.000885,0,0
0:3:33.845,381.404,48.5598,0,0.000885,0,0
0:3:34.044,381.697,48.6011,0,0.000885,0,0
0:3:34.251,382.227,48.6632,0,0.000885,0,0
0:3:34.452,382.578,48.7115,0,0.000885,0,0
0:3:34.645,382.93,48.7528,0,0.000885,0,0
0:3:34.843,383.339,48.808,0,0.000885,0,0
0:3:35.044,383.748,48.8631,0,0.000885,0,0
0:3:35.258,383.748,48.8631,0,0.000885,0,0
0:3:35.457,384.455,48.9528,0,0.000885,0,0
0:3:35.653,384.687,48.9804,0,0.000885,0,0
0:3:35.850,385.043,49.0217,0,0.000885,0,0
0:3:36.051,385.216,49.0493,0,0.000885,0,0
0:3:36.244,385.861,49.132,0,0.000885,0,0
0:3:36.442,386.039,49.1527,0,0.000885,0,0
0:3:36.641,386.39,49.1941,0,0.000885,0,0
0:3:36.836,386.915,49.263,0,0.000885,0,0
0:3:37.038,387.329,49.3182,0,0.000885,0,0
0:3:37.233,387.387,49.3251,0,0.000885,0,0
0:3:37.431,387.854,49.3803,0,0.000885,0,0
0:3:37.630,387.854,49.3803,0,0.000885,0,0
0:3:37.833,388.325,49.4423,0,0.000885,0,0
0:3:38.035,389.028,49.5319,0,0.000885,0,0
0:3:38.236,388.912,49.5181,0,0.000885,0,0
0:3:38.436,389.148,49.5457,0,0.000885,0,0
0:3:38.634,389.322,49.5733,0,0.000885,0,0
0:3:38.835,389.557,49.6009,0,0.000885,0,0
0:3:39.036,389.673,49.6147,0,0.000885,0,0
0:3:39.242,390.025,49.6629,0,0.000885,0,0
0:3:39.450,390.082,49.6698,0,0.000885,0,0
0:3:39.650,390.025,49.6629,0,0.000885,0,0
0:3:39.853,389.731,49.6216,0,0.000885,0,0
0:3:40.052,389.086,49.5388,0,0.000885,0,0
0:3:40.251,388.912,49.5181,0,0.000885,0,0
0:3:40.442,386.977,49.2699,0,0.000885,0,0
0:3:40.643,385.1,49.0355,0,0.000885,0,0
0:3:40.838,378.472,48.1875,0,0.000885,0,0
0:3:41.043,371.435,47.2911,0,0.000885,0,0
0:3:41.243,312.55,39.7965,0,0.000885,0,0
0:3:41.353,312.55,39.7965,0,0.000885,0,0