File: DataFile2021-07-03_083004.csv
Test ID:,Date Tested:,Time:,Test Type:,Diameter Avg. (mm):,Cyl. Corr. Factor:,Height (mm):,Age (days):,Weight (kN):,Break Type:,Ramp Rate (MPa/s):,Load at Break (kN):,Stress at Break (MPa):
12,7/3/2021,08:30,Cylinder,100,1,200,0,3.6,Invalid/No Break,0.25,681.65,86.79
Sample Time,Load (kN),Stress (MPa),Long. Strain,Trans. Strain,Chan1 Deflection (mm),Chan2 Deflection (mm)
0:0:16.139,5.21776,0.661897,0,0.000885,0,0
0:0:16.443,6.68568,0.848055,0,0.000885,0,0
0:0:16.753,7.56642,0.965266,0,0.000885,0,0
0:0:17.063,8.15359,1.04111,0,0.000885,0,0
0:0:17.361,9.03434,1.15142,0,0.000885,0,0
0:0:17.661,9.67933,1.23416,0,0.000885,0,0
0:0:17.965,9.67933,1.23416,0,0.000885,0,0
0:0:18.267,9.91064,1.26174,0,0.000885,0,0
0:0:18.562,9.5014,1.20658,0,0.000885,0,0
0:0:18.859,10.0307,1.27553,0,0.000885,0,0
0:0:19.160,11.4942,1.46169,0,0.000885,0,0
0:0:19.463,11.2629,1.43411,0,0.000885,0,0
0:0:19.765,12.4328,1.58579,0,0.000885,0,0
0:0:20.059,12.2015,1.55132,0,0.000885,0,0
0:0:20.360,13.2557,1.68922,0,0.000885,0,0
0:0:20.665,13.3135,1.69611,0,0.000885,0,0
0:0:20.963,14.7814,1.88227,0,0.000885,0,0
0:0:21.262,14.7814,1.88227,0,0.000885,0,0
0:0:21.565,15.4264,1.96501,0,0.000885,0,0
0:0:21.870,15.8357,2.01327,0,0.000885,0,0
0:0:22.172,16.365,2.08222,0,0.000885,0,0
0:0:22.473,17.3614,2.21322,0,0.000885,0,0
0:0:22.777,17.7128,2.25459,0,0.000885,0,0
0:0:23.073,18.3,2.33043,0,0.000885,0,0
0:0:23.375,19.0606,2.42695,0,0.000885,0,0
0:0:23.671,19.9414,2.53727,0,0.000885,0,0
0:0:23.972,20.4084,2.59932,0,0.000885,0,0
0:0:24.268,21.1735,2.69585,0,0.000885,0,0
0:0:24.568,21.8185,2.77859,0,0.000885,0,0
0:0:24.868,22.8149,2.90269,0,0.000885,0,0
0:0:25.162,23.1663,2.95096,0,0.000885,0,0
0:0:25.465,23.7535,3.0268,0,0.000885,0,0
0:0:25.760,23.9893,3.05438,0,0.000885,0,0
0:0:26.060,24.6921,3.14401,0,0.000885,0,0
0:0:26.367,24.9278,3.17159,0,0.000885,0,0
0:0:26.670,25.8664,3.29569,0,0.000885,0,0
0:0:26.974,26.4536,3.36464,0,0.000885,0,0
0:0:27.278,26.8628,3.4198,0,0.000885,0,0
0:0:27.581,27.8014,3.53701,0,0.000885,0,0
0:0:27.882,28.2106,3.59217,0,0.000885,0,0
0:0:28.181,28.9134,3.6818,0,0.000885,0,0
0:0:28.480,29.2648,3.72317,0,0.000885,0,0
0:0:28.776,29.7364,3.78522,0,0.000885,0,0
0:0:29.078,30.6749,3.90243,0,0.000885,0,0
0:0:29.374,31.3199,3.98517,0,0.000885,0,0
0:0:29.674,31.6713,4.03343,0,0.000885,0,0
0:0:29.974,32.432,4.12996,0,0.000885,0,0
0:0:30.268,32.4943,4.13685,0,0.000885,0,0
0:0:30.570,33.4907,4.26096,0,0.000885,0,0
0:0:30.867,34.1357,4.3437,0,0.000885,0,0
0:0:31.166,34.3091,4.37128,0,0.000885,0,0
0:0:31.465,35.1899,4.48159,0,0.000885,0,0
0:0:31.770,36.422,4.64017,0,0.000885,0,0
0:0:32.073,36.422,4.64017,0,0.000885,0,0
0:0:32.376,37.4184,4.76428,0,0.000885,0,0
0:0:32.677,37.712,4.79875,0,0.000885,0,0
0:0:32.979,38.5928,4.91596,0,0.000885,0,0
0:0:33.277,39.4735,5.02628,0,0.000885,0,0
0:0:33.578,39.7048,5.05386,0,0.000885,0,0
0:0:33.873,39.9406,5.08833,0,0.000885,0,0
0:0:34.173,40.5856,5.16417,0,0.000885,0,0
0:0:34.472,41.2306,5.24691,0,0.000885,0,0
0:0:34.768,42.0535,5.35723,0,0.000885,0,0
0:0:35.070,42.4049,5.39859,0,0.000885,0,0
0:0:35.365,43.1077,5.48823,0,0.000885,0,0
0:0:35.667,43.6371,5.55717,0,0.000885,0,0
0:0:35.964,44.1619,5.62612,0,0.000885,0,0
0:0:36.261,44.4555,5.6606,0,0.000885,0,0
0:0:36.571,44.8069,5.70196,0,0.000885,0,0
0:0:36.876,45.9234,5.84675,0,0.000885,0,0
0:0:37.180,46.6263,5.93639,0,0.000885,0,0
0:0:37.483,47.1556,6.00533,0,0.000885,0,0
0:0:37.784,47.5648,6.0536,0,0.000885,0,0
0:0:38.087,47.8584,6.09497,0,0.000885,0,0
0:0:38.384,48.5612,6.1846,0,0.000885,0,0
0:0:38.686,49.6199,6.3156,0,0.000885,0,0
0:0:38.982,49.6777,6.32249,0,0.000885,0,0
0:0:39.281,50.3806,6.41212,0,0.000885,0,0
0:0:39.582,51.377,6.54312,0,0.000885,0,0
0:0:39.877,52.3734,6.66723,0,0.000885,0,0
0:0:40.179,52.5513,6.68791,0,0.000885,0,0
0:0:40.475,52.7248,6.71549,0,0.000885,0,0
0:0:40.775,53.1963,6.77065,0,0.000885,0,0
0:0:41.073,54.0192,6.88097,0,0.000885,0,0
0:0:41.370,55.0156,7.00507,0,0.000885,0,0
0:0:41.671,55.1891,7.02576,0,0.000885,0,0
0:0:41.976,55.7184,7.09471,0,0.000885,0,0
0:0:42.279,56.3056,7.17055,0,0.000885,0,0
0:0:42.582,57.302,7.29465,0,0.000885,0,0
0:0:42.884,57.6534,7.34292,0,0.000885,0,0
0:0:43.185,57.8313,7.3636,0,0.000885,0,0
0:0:43.482,58.4763,7.44634,0,0.000885,0,0
0:0:43.783,58.9434,7.50839,0,0.000885,0,0
0:0:44.080,60.0599,7.64629,0,0.000885,0,0
0:0:44.378,60.8784,7.74971,0,0.000885,0,0
0:0:44.678,61.4655,7.82555,0,0.000885,0,0
0:0:44.974,61.8169,7.87381,0,0.000885,0,0
0:0:45.275,62.0527,7.90139,0,0.000885,0,0
0:0:45.572,63.5206,8.08755,0,0.000885,0,0
0:0:45.872,63.6363,8.10134,0,0.000885,0,0
0:0:46.171,63.9298,8.14271,0,0.000885,0,0
0:0:46.465,64.3391,8.19097,0,0.000885,0,0
0:0:46.767,65.2198,8.30129,0,0.000885,0,0
0:0:47.071,66.2741,8.43918,0,0.000885,0,0
0:0:47.375,66.2741,8.43918,0,0.000885,0,0
0:0:47.678,66.919,8.52192,0,0.000885,0,0
0:0:47.980,67.564,8.60466,0,0.000885,0,0
0:0:48.283,68.7384,8.74945,0,0.000885,0,0
0:0:48.580,69.0898,8.79771,0,0.000885,0,0
0:0:48.880,69.3834,8.83218,0,0.000885,0,0
0:0:49.179,69.5613,8.85976,0,0.000885,0,0
0:0:49.474,70.3219,8.95629,0,0.000885,0,0
0:0:49.777,71.1449,9.05971,0,0.000885,0,0
0:0:50.071,71.5541,9.10797,0,0.000885,0,0
0:0:50.373,72.3147,9.2045,0,0.000885,0,0
0:0:50.669,73.0798,9.30792,0,0.000885,0,0
0:0:50.969,73.667,9.37687,0,0.000885,0,0
0:0:51.269,74.1919,9.44582,0,0.000885,0,0
0:0:51.573,74.3698,9.4665,0,0.000885,0,0
0:0:51.876,75.1305,9.56303,0,0.000885,0,0
0:0:52.179,75.6598,9.63198,0,0.000885,0,0
0:0:52.481,76.8341,9.78366,0,0.000885,0,0
0:0:52.785,77.359,9.85261,0,0.000885,0,0
0:0:53.081,77.8305,9.90777,0,0.000885,0,0
0:0:53.384,78.0618,9.94224,0,0.000885,0,0
0:0:53.677,78.649,10.0112,0,0.000885,0,0
0:0:53.979,79.1205,10.0732,0,0.000885,0,0
0:0:54.276,79.7655,10.156,0,0.000885,0,0
0:0:54.576,80.5262,10.2525,0,0.000885,0,0
0:0:54.875,81.1133,10.3283,0,0.000885,0,0
0:0:55.170,82.0519,10.4456,0,0.000885,0,0
0:0:55.473,82.6969,10.5283,0,0.000885,0,0
0:0:55.769,83.0483,10.5766,0,0.000885,0,0
0:0:56.067,83.8134,10.6731,0,0.000885,0,0
0:0:56.365,83.8134,10.6731,0,0.000885,0,0
0:0:56.667,84.3961,10.7489,0,0.000885,0,0
0:0:56.972,85.1034,10.8386,0,0.000885,0,0
0:0:57.275,85.397,10.873,0,0.000885,0,0
0:0:57.579,86.3355,10.9902,0,0.000885,0,0
0:0:57.881,87.3319,11.1212,0,0.000885,0,0
0:0:58.180,87.9191,11.1971,0,0.000885,0,0
0:0:58.481,88.3283,11.2453,0,0.000885,0,0
0:0:58.777,88.444,11.2591,0,0.000885,0,0
0:0:59.078,89.4404,11.3901,0,0.000885,0,0
0:0:59.374,90.0276,11.466,0,0.000885,0,0
0:0:59.674,89.9119,11.4453,0,0.000885,0,0
0:0:59.971,91.2019,11.6108,0,0.000885,0,0
0:1:0.268,91.4376,11.6452,0,0.000885,0,0
0:1:0.569,92.1983,11.7418,0,0.000885,0,0
0:1:0.866,92.8433,11.8245,0,0.000885,0,0
0:1:1.166,93.6662,11.9279,0,0.000885,0,0
0:1:1.463,94.2534,12.0038,0,0.000885,0,0
0:1:1.765,94.5425,12.0382,0,0.000885,0,0
0:1:2.071,95.7747,12.1968,0,0.000885,0,0
0:1:2.374,96.0682,12.2313,0,0.000885,0,0
0:1:2.676,96.4197,12.2796,0,0.000885,0,0
0:1:2.978,97.3004,12.3899,0,0.000885,0,0
0:1:3.277,97.4783,12.4106,0,0.000885,0,0
0:1:3.577,98.4169,12.5278,0,0.000885,0,0
0:1:3.873,98.9418,12.5967,0,0.000885,0,0
0:1:4.175,99.2932,12.645,0,0.000885,0,0
0:1:4.470,100.294,12.7691,0,0.000885,0,0
0:1:4.770,100.939,12.8518,0,0.000885,0,0
0:1:5.068,100.819,12.838,0,0.000885,0,0
0:1:5.364,101.464,12.9208,0,0.000885,0,0
0:1:5.665,102.523,13.0518,0,0.000885,0,0
0:1:5.969,102.874,13.1,0,0.000885,0,0
0:1:6.272,103.813,13.2172,0,0.000885,0,0
0:1:6.566,104.106,13.2517,0,0.000885,0,0
0:1:6.871,104.631,13.3207,0,0.000885,0,0
0:1:7.174,105.512,13.431,0,0.000885,0,0
0:1:7.478,105.983,13.493,0,0.000885,0,0
0:1:7.780,106.628,13.5758,0,0.000885,0,0
0:1:8.083,106.98,13.624,0,0.000885,0,0
0:1:8.385,107.447,13.6792,0,0.000885,0,0
0:1:8.682,107.976,13.7481,0,0.000885,0,0
0:1:8.978,108.443,13.8102,0,0.000885,0,0
0:1:9.280,109.324,13.9205,0,0.000885,0,0
0:1:9.574,109.969,14.0033,0,0.000885,0,0
0:1:9.876,110.614,14.086,0,0.000885,0,0
0:1:10.172,111.379,14.1825,0,0.000885,0,0
0:1:10.473,111.904,14.2515,0,0.000885,0,0
0:1:10.770,112.842,14.3687,0,0.000885,0,0
0:1:11.067,113.02,14.3894,0,0.000885,0,0
0:1:11.368,113.723,14.479,0,0.000885,0,0
0:1:11.672,113.901,14.4997,0,0.000885,0,0
0:1:11.976,114.955,14.6376,0,0.000885,0,0
0:1:12.279,115.485,14.7065,0,0.000885,0,0
0:1:12.581,116.067,14.7755,0,0.000885,0,0
0:1:12.883,117.126,14.9134,0,0.000885,0,0
0:1:13.177,117.593,14.9754,0,0.000885,0,0
0:1:13.480,118.296,15.065,0,0.000885,0,0
0:1:13.774,118.065,15.0306,0,0.000885,0,0
0:1:14.073,118.71,15.1133,0,0.000885,0,0
0:1:14.373,119.355,15.196,0,0.000885,0,0
0:1:14.670,120.293,15.3133,0,0.000885,0,0
0:1:14.970,120.293,15.3133,0,0.000885,0,0
0:1:15.272,121.054,15.4098,0,0.000885,0,0
0:1:15.575,121.29,15.4443,0,0.000885,0,0
0:1:15.872,122.228,15.5615,0,0.000885,0,0
0:1:16.169,122.58,15.6097,0,0.000885,0,0
0:1:16.470,123.46,15.72,0,0.000885,0,0
0:1:16.771,124.105,15.8028,0,0.000885,0,0
0:1:17.076,124.808,15.8924,0,0.000885,0,0
0:1:17.379,125.453,15.9752,0,0.000885,0,0
0:1:17.680,126.04,16.051,0,0.000885,0,0
0:1:17.982,127.037,16.1751,0,0.000885,0,0
0:1:18.279,127.152,16.1889,0,0.000885,0,0
0:1:18.580,128.033,16.2992,0,0.000885,0,0
0:1:18.875,128.505,16.3613,0,0.000885,0,0
0:1:19.176,128.678,16.3819,0,0.000885,0,0
0:1:19.474,129.265,16.4578,0,0.000885,0,0
0:1:19.773,130.146,16.5681,0,0.000885,0,0
0:1:20.072,130.44,16.6095,0,0.000885,0,0
0:1:20.368,131.027,16.6853,0,0.000885,0,0
0:1:20.669,132.023,16.8094,0,0.000885,0,0
0:1:20.966,132.842,16.9128,0,0.000885,0,0
0:1:21.264,132.726,16.8991,0,0.000885,0,0
0:1:21.572,133.722,17.0232,0,0.000885,0,0
0:1:21.874,133.78,17.0369,0,0.000885,0,0
0:1:22.179,134.074,17.0714,0,0.000885,0,0
0:1:22.482,135.133,17.2024,0,0.000885,0,0
0:1:22.784,136.071,17.3265,0,0.000885,0,0
0:1:23.088,136.48,17.3748,0,0.000885,0,0
0:1:23.385,137.068,17.4506,0,0.000885,0,0
0:1:23.686,137.77,17.5403,0,0.000885,0,0
0:1:23.982,138.473,17.6299,0,0.000885,0,0
0:1:24.283,138.415,17.623,0,0.000885,0,0
0:1:24.578,139.647,17.7816,0,0.000885,0,0
0:1:24.876,139.59,17.7747,0,0.000885,0,0
0:1:25.177,140.76,17.9195,0,0.000885,0,0
0:1:25.473,140.937,17.9471,0,0.000885,0,0
0:1:25.774,141.467,18.0091,0,0.000885,0,0
0:1:26.069,142.405,18.1332,0,0.000885,0,0
0:1:26.371,142.757,18.1746,0,0.000885,0,0
0:1:26.675,143.989,18.3332,0,0.000885,0,0
0:1:26.979,145.043,18.4642,0,0.000885,0,0
0:1:27.281,144.75,18.4297,0,0.000885,0,0
0:1:27.584,145.395,18.5124,0,0.000885,0,0
0:1:27.886,146.04,18.5952,0,0.000885,0,0
0:1:28.183,146.862,18.6986,0,0.000885,0,0
0:1:28.482,147.214,18.7468,0,0.000885,0,0
0:1:28.780,148.095,18.8572,0,0.000885,0,0
0:1:29.075,148.032,18.8503,0,0.000885,0,0
0:1:29.376,148.095,18.8572,0,0.000885,0,0
0:1:29.672,149.149,18.9882,0,0.000885,0,0
0:1:29.974,150.203,19.1261,0,0.000885,0,0
0:1:30.270,150.555,19.1674,0,0.000885,0,0
0:1:30.568,151.377,19.2708,0,0.000885,0,0
0:1:30.877,152.196,19.3812,0,0.000885,0,0
0:1:31.172,152.903,19.4708,0,0.000885,0,0
0:1:31.474,153.255,19.5122,0,0.000885,0,0
0:1:31.778,153.49,19.5397,0,0.000885,0,0
0:1:32.080,153.779,19.5811,0,0.000885,0,0
0:1:32.384,154.309,19.6501,0,0.000885,0,0
0:1:32.686,155.541,19.8017,0,0.000885,0,0
0:1:32.988,155.835,19.8431,0,0.000885,0,0
0:1:33.283,156.364,19.9121,0,0.000885,0,0
0:1:33.585,157.24,20.0224,0,0.000885,0,0
0:1:33.881,158.005,20.1189,0,0.000885,0,0
0:1:34.179,158.592,20.1947,0,0.000885,0,0
0:1:34.478,159.18,20.2637,0,0.000885,0,0
0:1:34.774,159.295,20.2844,0,0.000885,0,0
0:1:35.076,159.998,20.374,0,0.000885,0,0
0:1:35.372,160.47,20.4292,0,0.000885,0,0
0:1:35.671,161.346,20.5464,0,0.000885,0,0
0:1:35.970,162.111,20.6429,0,0.000885,0,0
0:1:36.263,162.227,20.6567,0,0.000885,0,0
0:1:36.568,163.517,20.8222,0,0.000885,0,0
0:1:36.872,163.752,20.8497,0,0.000885,0,0
0:1:37.176,164.162,20.9049,0,0.000885,0,0
0:1:37.478,164.513,20.9463,0,0.000885,0,0
0:1:37.780,165.336,21.0497,0,0.000885,0,0
0:1:38.083,165.745,21.1049,0,0.000885,0,0
0:1:38.379,166.862,21.2427,0,0.000885,0,0
0:1:38.678,167.387,21.3117,0,0.000885,0,0
0:1:38.977,167.565,21.3324,0,0.000885,0,0
0:1:39.275,168.739,21.4841,0,0.000885,0,0
0:1:39.575,168.912,21.5047,0,0.000885,0,0
0:1:39.872,169.032,21.5185,0,0.000885,0,0
0:1:40.172,169.793,21.622,0,0.000885,0,0
0:1:40.468,170.674,21.7323,0,0.000885,0,0
0:1:40.767,171.261,21.8081,0,0.000885,0,0
0:1:41.068,172.022,21.9046,0,0.000885,0,0
0:1:41.372,172.079,21.9115,0,0.000885,0,0
0:1:41.674,172.845,22.0081,0,0.000885,0,0
0:1:41.978,173.783,22.1253,0,0.000885,0,0
0:1:42.282,174.602,22.2287,0,0.000885,0,0
0:1:42.584,175.189,22.3045,0,0.000885,0,0
0:1:42.884,175.425,22.339,0,0.000885,0,0
0:1:43.187,175.834,22.3873,0,0.000885,0,0
0:1:43.482,176.421,22.4631,0,0.000885,0,0
0:1:43.784,176.599,22.4838,0,0.000885,0,0
0:1:44.080,178.062,22.67,0,0.000885,0,0
0:1:44.380,178.592,22.7389,0,0.000885,0,0
0:1:44.677,178.765,22.7596,0,0.000885,0,0
0:1:44.974,179.352,22.8354,0,0.000885,0,0
0:1:45.274,179.824,22.8975,0,0.000885,0,0
0:1:45.570,180.117,22.932,0,0.000885,0,0
0:1:45.871,181.172,23.0699,0,0.000885,0,0
0:1:46.169,182.226,23.2009,0,0.000885,0,0
0:1:46.467,182.168,23.194,0,0.000885,0,0
0:1:46.764,182.813,23.2767,0,0.000885,0,0
0:1:47.070,183.636,23.3801,0,0.000885,0,0
0:1:47.374,183.867,23.4077,0,0.000885,0,0
0:1:47.676,184.748,23.5249,0,0.000885,0,0
0:1:47.978,186.096,23.6973,0,0.000885,0,0
0:1:48.281,186.861,23.7938,0,0.000885,0,0
0:1:48.577,187.034,23.8145,0,0.000885,0,0
0:1:48.880,188.387,23.9869,0,0.000885,0,0
0:1:49.174,188.444,23.9938,0,0.000885,0,0
0:1:49.475,188.68,24.0213,0,0.000885,0,0
0:1:49.773,188.854,24.0489,0,0.000885,0,0
0:1:50.068,188.738,24.0282,0,0.000885,0,0
0:1:50.370,189.912,24.1799,0,0.000885,0,0
0:1:50.662,190.379,24.242,0,0.000885,0,0
0:1:50.964,191.14,24.3385,0,0.000885,0,0
0:1:51.260,191.612,24.3937,0,0.000885,0,0
0:1:51.561,192.199,24.4695,0,0.000885,0,0
0:1:51.869,193.137,24.5936,0,0.000885,0,0
0:1:52.169,194.192,24.7246,0,0.000885,0,0
0:1:52.470,194.485,24.766,0,0.000885,0,0
0:1:52.767,194.601,24.7798,0,0.000885,0,0
0:1:53.064,195.717,24.9177,0,0.000885,0,0
0:1:53.373,195.953,24.9521,0,0.000885,0,0
0:1:53.663,196.011,24.959,0,0.000885,0,0
0:1:53.964,196.829,25.0624,0,0.000885,0,0
0:1:54.268,197.83,25.1865,0,0.000885,0,0
0:1:54.562,198.533,25.2762,0,0.000885,0,0
0:1:54.871,199.351,25.3796,0,0.000885,0,0
0:1:55.174,198.942,25.3313,0,0.000885,0,0
0:1:55.473,199.645,25.421,0,0.000885,0,0
0:1:55.764,200.877,25.5795,0,0.000885,0,0
0:1:56.064,201.58,25.6692,0,0.000885,0,0
0:1:56.371,202.109,25.7312,0,0.000885,0,0
0:1:56.673,202.287,25.7588,0,0.000885,0,0
0:1:56.974,202.697,25.8071,0,0.000885,0,0
0:1:57.276,204.102,25.9863,0,0.000885,0,0
0:1:57.575,204.809,26.076,0,0.000885,0,0
0:1:57.876,204.867,26.0829,0,0.000885,0,0
0:1:58.172,205.628,26.1794,0,0.000885,0,0
0:1:58.470,206.567,26.3035,0,0.000885,0,0
0:1:58.772,206.802,26.3311,0,0.000885,0,0
0:1:59.071,207.332,26.4,0,0.000885,0,0
0:1:59.365,207.856,26.4621,0,0.000885,0,0
0:1:59.671,208.444,26.5379,0,0.000885,0,0
0:1:59.969,208.915,26.6,0,0.000885,0,0
0:2:0.260,209.498,26.6758,0,0.000885,0,0
0:2:0.560,210.263,26.7723,0,0.000885,0,0
0:2:0.875,210.321,26.7792,0,0.000885,0,0
0:2:1.172,210.788,26.8413,0,0.000885,0,0
0:2:1.469,211.726,26.9585,0,0.000885,0,0
0:2:1.771,212.02,26.993,0,0.000885,0,0
0:2:2.072,212.901,27.1102,0,0.000885,0,0
0:2:2.373,213.604,27.1998,0,0.000885,0,0
0:2:2.673,214.72,27.3377,0,0.000885,0,0
0:2:2.973,215.014,27.3791,0,0.000885,0,0
0:2:3.269,215.481,27.4342,0,0.000885,0,0
0:2:3.568,215.832,27.4825,0,0.000885,0,0
0:2:3.878,216.246,27.5308,0,0.000885,0,0
0:2:4.178,216.949,27.6204,0,0.000885,0,0
0:2:4.473,217.767,27.7238,0,0.000885,0,0
0:2:4.770,218.474,27.8135,0,0.000885,0,0
0:2:5.064,218.648,27.841,0,0.000885,0,0
0:2:5.358,218.768,27.8548,0,0.000885,0,0
0:2:5.659,220,28.0134,0,0.000885,0,0
0:2:5.959,221.112,28.1513,0,0.000885,0,0
0:2:6.259,221.642,28.2202,0,0.000885,0,0
0:2:6.554,221.815,28.2409,0,0.000885,0,0
0:2:6.854,222.344,28.3099,0,0.000885,0,0
0:2:7.157,223.167,28.4133,0,0.000885,0,0
0:2:7.457,223.634,28.4753,0,0.000885,0,0
0:2:7.757,224.337,28.565,0,0.000885,0,0
0:2:8.055,225.334,28.6891,0,0.000885,0,0
0:2:8.354,226.156,28.7925,0,0.000885,0,0
0:2:8.650,226.392,28.827,0,0.000885,0,0
0:2:8.955,226.508,28.8408,0,0.000885,0,0
0:2:9.255,226.979,28.9028,0,0.000885,0,0
0:2:9.556,227.446,28.958,0,0.000885,0,0
0:2:9.856,227.976,29.0269,0,0.000885,0,0
0:2:10.160,228.501,29.0959,0,0.000885,0,0
0:2:10.456,229.853,29.2682,0,0.000885,0,0
0:2:10.753,230.436,29.3372,0,0.000885,0,0
0:2:11.065,230.729,29.3786,0,0.000885,0,0
0:2:11.366,231.494,29.4751,0,0.000885,0,0
0:2:11.670,231.668,29.4958,0,0.000885,0,0
0:2:11.972,232.082,29.5509,0,0.000885,0,0
0:2:12.271,233.02,29.6681,0,0.000885,0,0
0:2:12.571,233.839,29.7716,0,0.000885,0,0
0:2:12.870,234.719,29.8888,0,0.000885,0,0
0:2:13.172,235.013,29.9232,0,0.000885,0,0
0:2:13.472,235.422,29.9784,0,0.000885,0,0
0:2:13.765,236.596,30.1232,0,0.000885,0,0
0:2:14.062,236.481,30.1094,0,0.000885,0,0
0:2:14.370,236.712,30.137,0,0.000885,0,0
0:2:14.660,237.709,30.268,0,0.000885,0,0
0:2:14.959,238.416,30.3576,0,0.000885,0,0
0:2:15.252,238.883,30.4128,0,0.000885,0,0
0:2:15.551,239.648,30.5093,0,0.000885,0,0
0:2:15.856,240.057,30.5645,0,0.000885,0,0
0:2:16.160,240.057,30.5645,0,0.000885,0,0
0:2:16.459,241.169,30.7092,0,0.000885,0,0
0:2:16.760,241.583,30.7575,0,0.000885,0,0
0:2:17.062,242.521,30.8816,0,0.000885,0,0
0:2:17.362,243.046,30.9437,0,0.000885,0,0
0:2:17.664,243.869,31.0471,0,0.000885,0,0
0:2:17.963,244.514,31.1298,0,0.000885,0,0
0:2:18.257,244.63,31.1505,0,0.000885,0,0
0:2:18.556,244.688,31.1574,0,0.000885,0,0
0:2:18.872,246.156,31.3436,0,0.000885,0,0
0:2:19.167,246.801,31.4263,0,0.000885,0,0
0:2:19.476,247.566,31.5228,0,0.000885,0,0
0:2:19.779,247.681,31.5366,0,0.000885,0,0
0:2:20.078,248.62,31.6538,0,0.000885,0,0
0:2:20.371,249.087,31.7159,0,0.000885,0,0
0:2:20.671,249.968,31.8262,0,0.000885,0,0
0:2:20.973,250.319,31.8745,0,0.000885,0,0
0:2:21.270,250.439,31.8883,0,0.000885,0,0
0:2:21.577,251.667,32.0468,0,0.000885,0,0
0:2:21.879,251.667,32.0468,0,0.000885,0,0
0:2:22.181,252.899,32.1985,0,0.000885,0,0
0:2:22.482,253.486,32.2744,0,0.000885,0,0
0:2:22.781,253.255,32.2468,0,0.000885,0,0
0:2:23.079,254.189,32.364,0,0.000885,0,0
0:2:23.375,255.128,32.4812,0,0.000885,0,0
0:2:23.675,255.951,32.5915,0,0.000885,0,0
0:2:23.976,256.244,32.626,0,0.000885,0,0
0:2:24.275,256.302,32.6329,0,0.000885,0,0
0:2:24.570,257.183,32.7432,0,0.000885,0,0
0:2:24.876,257.712,32.8121,0,0.000885,0,0
0:2:25.174,259.06,32.9845,0,0.000885,0,0
0:2:25.476,259.296,33.0121,0,0.000885,0,0
0:2:25.777,259.705,33.0673,0,0.000885,0,0
0:2:26.079,260.408,33.1569,0,0.000885,0,0
0:2:26.376,260.644,33.1845,0,0.000885,0,0
0:2:26.672,260.995,33.2327,0,0.000885,0,0
0:2:26.974,261.818,33.3362,0,0.000885,0,0
0:2:27.276,262.401,33.412,0,0.000885,0,0
0:2:27.578,263.166,33.5085,0,0.000885,0,0
0:2:27.877,263.575,33.5568,0,0.000885,0,0
0:2:28.178,263.459,33.543,0,0.000885,0,0
0:2:28.473,264.629,33.6947,0,0.000885,0,0
0:2:28.781,265.63,33.8188,0,0.000885,0,0
0:2:29.074,266.039,33.8739,0,0.000885,0,0
0:2:29.374,266.8,33.9705,0,0.000885,0,0
0:2:29.675,267.738,34.0877,0,0.000885,0,0
0:2:29.975,268.441,34.1773,0,0.000885,0,0
0:2:30.268,268.619,34.2049,0,0.000885,0,0
0:2:30.563,268.855,34.2325,0,0.000885,0,0
0:2:30.862,269.673,34.3359,0,0.000885,0,0
0:2:31.164,270.612,34.4531,0,0.000885,0,0
0:2:31.465,271.026,34.5083,0,0.000885,0,0
0:2:31.767,271.671,34.591,0,0.000885,0,0
0:2:32.067,272.253,34.6668,0,0.000885,0,0
0:2:32.368,272.431,34.6875,0,0.000885,0,0
0:2:32.667,272.547,34.7013,0,0.000885,0,0
0:2:32.967,273.663,34.8461,0,0.000885,0,0
0:2:33.262,273.957,34.8806,0,0.000885,0,0
0:2:33.559,274.544,34.9564,0,0.000885,0,0
0:2:33.864,275.305,35.0529,0,0.000885,0,0
0:2:34.169,275.776,35.115,0,0.000885,0,0
0:2:34.479,276.831,35.246,0,0.000885,0,0
0:2:34.772,276.773,35.2391,0,0.000885,0,0
0:2:35.068,277.827,35.377,0,0.000885,0,0
0:2:35.363,278.588,35.4735,0,0.000885,0,0
0:2:35.669,279.175,35.5425,0,0.000885,0,0
0:2:35.978,279.94,35.6459,0,0.000885,0,0
0:2:36.272,279.94,35.6459,0,0.000885,0,0
0:2:36.568,280.879,35.7631,0,0.000885,0,0
0:2:36.874,281.288,35.8114,0,0.000885,0,0
0:2:37.174,281.817,35.8803,0,0.000885,0,0
0:2:37.475,282.636,35.9837,0,0.000885,0,0
0:2:37.774,282.578,35.9768,0,0.000885,0,0
0:2:38.074,283.632,36.1147,0,0.000885,0,0
0:2:38.378,284.103,36.1699,0,0.000885,0,0
0:2:38.677,285.042,36.294,0,0.000885,0,0
0:2:38.979,285.393,36.3354,0,0.000885,0,0
0:2:39.275,285.745,36.3836,0,0.000885,0,0
0:2:39.573,286.568,36.4871,0,0.000885,0,0
0:2:39.877,287.506,36.6043,0,0.000885,0,0
0:2:40.175,288.445,36.7284,0,0.000885,0,0
0:2:40.478,288.089,36.6801,0,0.000885,0,0
0:2:40.777,288.912,36.7835,0,0.000885,0,0
0:2:41.073,290.144,36.9421,0,0.000885,0,0
0:2:41.366,291.025,37.0524,0,0.000885,0,0
0:2:41.664,290.847,37.0317,0,0.000885,0,0
0:2:41.965,290.967,37.0455,0,0.000885,0,0
0:2:42.268,291.728,37.1421,0,0.000885,0,0
0:2:42.569,292.373,37.2248,0,0.000885,0,0
0:2:42.869,293.721,37.3972,0,0.000885,0,0
0:2:43.169,293.721,37.3972,0,0.000885,0,0
0:2:43.473,293.956,37.4247,0,0.000885,0,0
0:2:43.772,295.188,37.5833,0,0.000885,0,0
0:2:44.076,296.127,37.7005,0,0.000885,0,0
0:2:44.374,296.594,37.7626,0,0.000885,0,0
0:2:44.679,296.83,37.7902,0,0.000885,0,0
0:2:44.975,297.475,37.8729,0,0.000885,0,0
0:2:45.269,298.529,38.0108,0,0.000885,0,0
0:2:45.574,298.471,38.0039,0,0.000885,0,0
0:2:45.873,298.529,38.0108,0,0.000885,0,0
0:2:46.177,298.765,38.0384,0,0.000885,0,0
0:2:46.477,299.761,38.1694,0,0.000885,0,0
0:2:46.780,300.055,38.2039,0,0.000885,0,0
0:2:47.080,300.936,38.3142,0,0.000885,0,0
0:2:47.380,301.758,38.4176,0,0.000885,0,0
0:2:47.679,302.11,38.4659,0,0.000885,0,0
0:2:47.979,302.928,38.5693,0,0.000885,0,0
0:2:48.275,304.281,38.7416,0,0.000885,0,0
0:2:48.579,304.281,38.7416,0,0.000885,0,0
0:2:48.876,305.099,38.8451,0,0.000885,0,0
0:2:49.168,305.98,38.9554,0,0.000885,0,0
0:2:49.467,306.918,39.0795,0,0.000885,0,0
0:2:49.760,307.27,39.1209,0,0.000885,0,0
0:2:50.058,307.385,39.1346,0,0.000885,0,0
0:2:50.365,308.093,39.2243,0,0.000885,0,0
0:2:50.679,308.618,39.2932,0,0.000885,0,0
0:2:50.978,309.498,39.4035,0,0.000885,0,0
0:2:51.270,309.97,39.4656,0,0.000885,0,0
0:2:51.573,310.259,39.507,0,0.000885,0,0
0:2:51.877,310.201,39.4932,0,0.000885,0,0
0:2:52.178,311.553,39.6655,0,0.000885,0,0
0:2:52.478,311.785,39.7,0,0.000885,0,0
0:2:52.777,313.075,39.8655,0,0.000885,0,0
0:2:53.077,313.195,39.8793,0,0.000885,0,0
0:2:53.370,314.307,40.0172,0,0.000885,0,0
0:2:53.678,314.076,39.9896,0,0.000885,0,0
0:2:53.974,314.836,40.0861,0,0.000885,0,0
0:2:54.277,315.717,40.1964,0,0.000885,0,0
0:2:54.577,316.242,40.2654,0,0.000885,0,0
0:2:54.879,317.301,40.3964,0,0.000885,0,0
0:2:55.177,317.768,40.4584,0,0.000885,0,0
0:2:55.469,317.71,40.4515,0,0.000885,0,0
0:2:55.777,318.119,40.5067,0,0.000885,0,0
0:2:56.074,318.826,40.5963,0,0.000885,0,0
0:2:56.366,319.703,40.7066,0,0.000885,0,0
0:2:56.666,320.174,40.7687,0,0.000885,0,0
0:2:56.967,320.819,40.8445,0,0.000885,0,0
0:2:57.268,320.761,40.8376,0,0.000885,0,0
0:2:57.569,321.758,40.9686,0,0.000885,0,0
0:2:57.867,322.576,41.0721,0,0.000885,0,0
0:2:58.167,323.341,41.1686,0,0.000885,0,0
0:2:58.461,323.577,41.1962,0,0.000885,0,0
0:2:58.759,324.222,41.2789,0,0.000885,0,0
0:2:59.064,325.04,41.3823,0,0.000885,0,0
0:2:59.368,326.273,41.5409,0,0.000885,0,0
0:2:59.667,326.682,41.5961,0,0.000885,0,0
0:2:59.959,326.215,41.534,0,0.000885,0,0
0:3:0.259,327.211,41.665,0,0.000885,0,0
0:3:0.563,327.741,41.7271,0,0.000885,0,0
0:3:0.868,328.737,41.8581,0,0.000885,0,0
0:3:1.178,329.324,41.9339,0,0.000885,0,0
0:3:1.480,329.555,41.9615,0,0.000885,0,0
0:3:1.781,330.556,42.0856,0,0.000885,0,0
0:3:2.082,330.436,42.0718,0,0.000885,0,0
0:3:2.384,331.433,42.2028,0,0.000885,0,0
0:3:2.684,332.255,42.3062,0,0.000885,0,0
0:3:2.985,332.785,42.3683,0,0.000885,0,0
0:3:3.285,333.252,42.4303,0,0.000885,0,0
0:3:3.579,333.488,42.4579,0,0.000885,0,0
0:3:3.875,334.248,42.5613,0,0.000885,0,0
0:3:4.170,335.071,42.6648,0,0.000885,0,0
0:3:4.465,335.774,42.7544,0,0.000885,0,0
0:3:4.763,335.774,42.7544,0,0.000885,0,0
0:3:5.057,336.77,42.8785,0,0.000885,0,0
0:3:5.355,337.825,43.0164,0,0.000885,0,0
0:3:5.667,337.767,43.0026,0,0.000885,0,0
0:3:5.963,338.354,43.0784,0,0.000885,0,0
0:3:6.262,339.119,43.175,0,0.000885,0,0
0:3:6.563,340.115,43.306,0,0.000885,0,0
0:3:6.866,340.289,43.3267,0,0.000885,0,0
0:3:7.167,341.054,43.4232,0,0.000885,0,0
0:3:7.466,341.17,43.437,0,0.000885,0,0
0:3:7.767,342.224,43.5749,0,0.000885,0,0
0:3:8.081,342.989,43.6714,0,0.000885,0,0
0:3:8.380,343.34,43.7128,0,0.000885,0,0
0:3:8.671,344.337,43.8438,0,0.000885,0,0
0:3:8.969,344.688,43.8851,0,0.000885,0,0
0:3:9.264,344.746,43.892,0,0.000885,0,0
0:3:9.570,345.391,43.9748,0,0.000885,0,0
0:3:9.868,346.098,44.0644,0,0.000885,0,0
0:3:10.159,346.272,44.092,0,0.000885,0,0
0:3:10.469,347.326,44.223,0,0.000885,0,0
0:3:10.776,348.149,44.3264,0,0.000885,0,0
0:3:11.079,347.913,44.2988,0,0.000885,0,0
0:3:11.379,349.323,44.4781,0,0.000885,0,0
0:3:11.681,349.145,44.4574,0,0.000885,0,0
0:3:11.982,350.32,44.6022,0,0.000885,0,0
0:3:12.282,351.023,44.6918,0,0.000885,0,0
0:3:12.581,351.903,44.809,0,0.000885,0,0
0:3:12.882,352.019,44.8228,0,0.000885,0,0
0:3:13.177,352.197,44.8435,0,0.000885,0,0
0:3:13.476,352.9,44.9331,0,0.000885,0,0
0:3:13.770,353.723,45.0366,0,0.000885,0,0
0:3:14.077,354.31,45.1124,0,0.000885,0,0
0:3:14.374,354.892,45.1882,0,0.000885,0,0
0:3:14.678,355.951,45.3192,0,0.000885,0,0
0:3:14.978,356.303,45.3675,0,0.000885,0,0
0:3:15.280,356.36,45.3744,0,0.000885,0,0
0:3:15.577,357.299,45.4916,0,0.000885,0,0
0:3:15.873,358.531,45.6502,0,0.000885,0,0
0:3:16.166,358.705,45.6709,0,0.000885,0,0
0:3:16.467,359.176,45.7329,0,0.000885,0,0
0:3:16.770,360.057,45.8432,0,0.000885,0,0
0:3:17.071,360.817,45.9398,0,0.000885,0,0
0:3:17.371,361.227,45.9949,0,0.000885,0,0
0:3:17.670,361.169,45.988,0,0.000885,0,0
0:3:17.971,362.228,46.119,0,0.000885,0,0
0:3:18.273,362.401,46.1397,0,0.000885,0,0
0:3:18.572,363.575,46.2914,0,0.000885,0,0
0:3:18.877,363.691,46.3052,0,0.000885,0,0
0:3:19.173,364.042,46.3535,0,0.000885,0,0
0:3:19.471,365.395,46.5258,0,0.000885,0,0
0:3:19.773,366.213,46.6292,0,0.000885,0,0
0:3:20.072,366.098,46.6155,0,0.000885,0,0
0:3:20.378,366.565,46.6706,0,0.000885,0,0
0:3:20.672,367.388,46.774,0,0.000885,0,0
0:3:20.968,368.148,46.8775,0,0.000885,0,0
0:3:21.263,368.971,46.9809,0,0.000885,0,0
0:3:21.562,368.971,46.9809,0,0.000885,0,0
0:3:21.865,370.083,47.1188,0,0.000885,0,0
0:3:22.167,370.497,47.1739,0,0.000885,0,0
0:3:22.467,371.022,47.2429,0,0.000885,0,0
0:3:22.767,371.609,47.3118,0,0.000885,0,0
0:3:23.066,371.845,47.3463,0,0.000885,0,0
0:3:23.369,371.902,47.3532,0,0.000885,0,0
0:3:23.669,373.135,47.5118,0,0.000885,0,0
0:3:23.963,374.073,47.629,0,0.000885,0,0
0:3:24.270,374.309,47.6566,0,0.000885,0,0
0:3:24.579,374.776,47.7186,0,0.000885,0,0
0:3:24.882,375.893,47.8565,0,0.000885,0,0
0:3:25.181,376.831,47.9806,0,0.000885,0,0
0:3:25.472,377.183,48.022,0,0.000885,0,0
0:3:25.771,377.062,48.0082,0,0.000885,0,0
0:3:26.077,377.707,48.0909,0,0.000885,0,0
0:3:26.372,378.646,48.2081,0,0.000885,0,0
0:3:26.680,379.291,48.2909,0,0.000885,0,0
0:3:26.983,379.705,48.346,0,0.000885,0,0
0:3:27.285,380.292,48.4219,0,0.000885,0,0
0:3:27.585,380.581,48.4564,0,0.000885,0,0
0:3:27.885,381.346,48.5529,0,0.000885,0,0
0:3:28.185,382.049,48.6425,0,0.000885,0,0
0:3:28.480,382.285,48.677,0,0.000885,0,0
0:3:28.779,383.281,48.8011,0,0.000885,0,0
0:3:29.069,384.162,48.9114,0,0.000885,0,0
0:3:29.368,384.629,48.9735,0,0.000885,0,0
0:3:29.664,384.807,48.9941,0,0.000885,0,0
0:3:29.980,385.919,49.1389,0,0.000885,0,0
0:3:30.277,386.039,49.1527,0,0.000885,0,0
0:3:30.581,386.506,49.2148,0,0.000885,0,0
0:3:30.880,387.565,49.3458,0,0.000885,0,0
0:3:31.171,388.383,49.4492,0,0.000885,0,0
0:3:31.472,388.619,49.4837,0,0.000885,0,0
0:3:31.774,389.615,49.6078,0,0.000885,0,0
0:3:32.078,390.26,49.6905,0,0.000885,0,0
0:3:32.375,390.26,49.6905,0,0.000885,0,0
0:3:32.675,390.732,49.7526,0,0.000885,0,0
0:3:32.974,391.55,49.856,0,0.000885,0,0
0:3:33.269,391.902,49.8974,0,0.000885,0,0
0:3:33.564,392.431,49.9663,0,0.000885,0,0
0:3:33.871,393.192,50.0628,0,0.000885,0,0
0:3:34.174,393.894,50.1525,0,0.000885,0,0
0:3:34.474,393.957,50.1594,0,0.000885,0,0
0:3:34.780,395.011,50.2973,0,0.000885,0,0
0:3:35.078,396.185,50.442,0,0.000885,0,0
0:3:35.383,396.185,50.442,0,0.000885,0,0
0:3:35.675,396.888,50.5317,0,0.000885,0,0
0:3:35.974,397.533,50.6144,0,0.000885,0,0
0:3:36.267,398.236,50.704,0,0.000885,0,0
0:3:36.567,398.294,50.7109,0,0.000885,0,0
0:3:36.870,399.704,50.8902,0,0.000885,0,0
0:3:37.171,399.352,50.8488,0,0.000885,0,0
0:3:37.470,399.94,50.9247,0,0.000885,0,0
0:3:37.769,401.287,51.0902,0,0.000885,0,0
0:3:38.068,401.287,51.0902,0,0.000885,0,0
0:3:38.371,402.577,51.2556,0,0.000885,0,0
0:3:38.668,402.813,51.2901,0,0.000885,0,0
0:3:38.965,403.165,51.3315,0,0.000885,0,0
0:3:39.270,403.983,51.4349,0,0.000885,0,0
0:3:39.568,404.512,51.5038,0,0.000885,0,0
0:3:39.871,405.1,51.5797,0,0.000885,0,0
0:3:40.170,406.038,51.6969,0,0.000885,0,0
0:3:40.465,406.39,51.7452,0,0.000885,0,0
0:3:40.762,406.799,51.7934,0,0.000885,0,0
0:3:41.058,407.795,51.9244,0,0.000885,0,0
0:3:41.353,407.444,51.8762,0,0.000885,0,0
0:3:41.652,408.44,52.0072,0,0.000885,0,0
0:3:41.956,409.672,52.1588,0,0.000885,0,0
0:3:42.257,409.379,52.1244,0,0.000885,0,0
0:3:42.558,410.38,52.2485,0,0.000885,0,0
0:3:42.855,410.789,52.3036,0,0.000885,0,0
0:3:43.156,411.314,52.3726,0,0.000885,0,0
0:3:43.461,412.43,52.5105,0,0.000885,0,0
0:3:43.759,412.666,52.5449,0,0.000885,0,0
0:3:44.063,413.369,52.6346,0,0.000885,0,0
0:3:44.368,414.25,52.7449,0,0.000885,0,0
0:3:44.667,413.898,52.6966,0,0.000885,0,0
0:3:44.969,415.482,52.9035,0,0.000885,0,0
0:3:45.268,415.13,52.8552,0,0.000885,0,0
0:3:45.571,416.42,53.0207,0,0.000885,0,0
0:3:45.869,417.003,53.0965,0,0.000885,0,0
0:3:46.174,417.474,53.1517,0,0.000885,0,0
0:3:46.470,418.235,53.2482,0,0.000885,0,0
0:3:46.769,418.529,53.2896,0,0.000885,0,0
0:3:47.070,419.409,53.3999,0,0.000885,0,0
0:3:47.371,419.645,53.4275,0,0.000885,0,0
0:3:47.671,420.464,53.5378,0,0.000885,0,0
0:3:47.969,420.642,53.5585,0,0.000885,0,0
0:3:48.269,421.344,53.6481,0,0.000885,0,0
0:3:48.563,422.399,53.7791,0,0.000885,0,0
0:3:48.863,422.519,53.7998,0,0.000885,0,0
0:3:49.166,423.693,53.9446,0,0.000885,0,0
0:3:49.464,423.337,53.9032,0,0.000885,0,0
0:3:49.768,424.454,54.0411,0,0.000885,0,0
0:3:50.072,424.69,54.0756,0,0.000885,0,0
0:3:50.382,425.802,54.2135,0,0.000885,0,0
0:3:50.673,426.331,54.2824,0,0.000885,0,0
0:3:50.972,427.034,54.3721,0,0.000885,0,0
0:3:51.266,427.269,54.3996,0,0.000885,0,0
0:3:51.568,428.15,54.5168,0,0.000885,0,0
0:3:51.870,428.733,54.5858,0,0.000885,0,0
0:3:52.170,428.853,54.6065,0,0.000885,0,0
0:3:52.469,430.027,54.7513,0,0.000885,0,0
0:3:52.768,430.672,54.834,0,0.000885,0,0
0:3:53.067,431.375,54.9236,0,0.000885,0,0
0:3:53.371,430.904,54.8616,0,0.000885,0,0
0:3:53.675,432.136,55.0202,0,0.000885,0,0
0:3:53.974,433.017,55.1305,0,0.000885,0,0
0:3:54.277,433.132,55.1512,0,0.000885,0,0
0:3:54.576,433.546,55.1994,0,0.000885,0,0
0:3:54.870,434.484,55.3166,0,0.000885,0,0
0:3:55.168,434.894,55.3718,0,0.000885,0,0
0:3:55.465,436.068,55.5235,0,0.000885,0,0
0:3:55.768,436.477,55.5717,0,0.000885,0,0
0:3:56.067,437.007,55.6407,0,0.000885,0,0
0:3:56.371,437.652,55.7234,0,0.000885,0,0
0:3:56.672,438.061,55.7786,0,0.000885,0,0
0:3:56.974,438.884,55.882,0,0.000885,0,0
0:3:57.276,438.942,55.8889,0,0.000885,0,0
0:3:57.576,439.938,56.013,0,0.000885,0,0
0:3:57.876,440.232,56.0544,0,0.000885,0,0
0:3:58.175,441.112,56.1647,0,0.000885,0,0
0:3:58.471,441.464,56.2061,0,0.000885,0,0
0:3:58.776,441.873,56.2612,0,0.000885,0,0
0:3:59.085,442.869,56.3853,0,0.000885,0,0
0:3:59.380,443.221,56.4336,0,0.000885,0,0
0:3:59.680,443.808,56.5094,0,0.000885,0,0
0:3:59.982,444.689,56.6197,0,0.000885,0,0
0:4:0.281,445.04,56.6611,0,0.000885,0,0
0:4:0.575,445.569,56.7301,0,0.000885,0,0
0:4:0.882,446.508,56.8542,0,0.000885,0,0
0:4:1.178,446.859,56.8955,0,0.000885,0,0
0:4:1.471,447.033,56.9162,0,0.000885,0,0
0:4:1.772,448.207,57.0679,0,0.000885,0,0
0:4:2.076,448.794,57.1437,0,0.000885,0,0
0:4:2.376,449.261,57.1989,0,0.000885,0,0
0:4:2.678,450.32,57.3368,0,0.000885,0,0
0:4:2.977,450.903,57.4126,0,0.000885,0,0
0:4:3.277,451.139,57.4402,0,0.000885,0,0
0:4:3.582,452.019,57.5505,0,0.000885,0,0
0:4:3.878,452.371,57.5988,0,0.000885,0,0
0:4:4.184,452.135,57.5712,0,0.000885,0,0
0:4:4.478,453.194,57.7022,0,0.000885,0,0
0:4:4.775,453.719,57.7712,0,0.000885,0,0
0:4:5.069,454.248,57.8332,0,0.000885,0,0
0:4:5.369,455.009,57.9366,0,0.000885,0,0
0:4:5.672,455.654,58.0125,0,0.000885,0,0
0:4:5.970,456.299,58.0952,0,0.000885,0,0
0:4:6.267,456.886,58.1711,0,0.000885,0,0
0:4:6.569,457.593,58.2607,0,0.000885,0,0
0:4:6.872,458.002,58.3159,0,0.000885,0,0
0:4:7.173,458.469,58.371,0,0.000885,0,0
0:4:7.474,459.292,58.4813,0,0.000885,0,0
0:4:7.774,460.289,58.6054,0,0.000885,0,0
0:4:8.078,460.76,58.6675,0,0.000885,0,0
0:4:8.379,460.934,58.6882,0,0.000885,0,0
0:4:8.682,461.285,58.7295,0,0.000885,0,0
0:4:8.979,461.988,58.8192,0,0.000885,0,0
0:4:9.276,462.811,58.9295,0,0.000885,0,0
0:4:9.569,463.514,59.0191,0,0.000885,0,0
0:4:9.869,464.337,59.1225,0,0.000885,0,0
0:4:10.162,464.572,59.1501,0,0.000885,0,0
0:4:10.461,464.982,59.2053,0,0.000885,0,0
0:4:10.765,465.626,59.288,0,0.000885,0,0
0:4:11.062,466.449,59.3914,0,0.000885,0,0
0:4:11.360,466.623,59.4121,0,0.000885,0,0
0:4:11.664,467.152,59.4811,0,0.000885,0,0
0:4:11.966,468.091,59.5983,0,0.000885,0,0
0:4:12.267,468.909,59.7017,0,0.000885,0,0
0:4:12.567,469.439,59.7707,0,0.000885,0,0
0:4:12.868,469.732,59.8051,0,0.000885,0,0
0:4:13.170,470.141,59.8603,0,0.000885,0,0
0:4:13.472,471.138,59.9844,0,0.000885,0,0
0:4:13.786,471.783,60.0671,0,0.000885,0,0
0:4:14.083,472.312,60.1361,0,0.000885,0,0
0:4:14.389,472.664,60.1843,0,0.000885,0,0
0:4:14.684,473.722,60.3153,0,0.000885,0,0
0:4:14.983,473.954,60.3429,0,0.000885,0,0
0:4:15.287,474.599,60.4257,0,0.000885,0,0
0:4:15.585,475.421,60.5291,0,0.000885,0,0
0:4:15.879,475.831,60.5842,0,0.000885,0,0
0:4:16.184,476.418,60.6601,0,0.000885,0,0
0:4:16.482,476.596,60.6808,0,0.000885,0,0
0:4:16.785,477.299,60.7704,0,0.000885,0,0
0:4:17.087,477.708,60.8255,0,0.000885,0,0
0:4:17.389,478.704,60.9497,0,0.000885,0,0
0:4:17.688,479.469,61.0462,0,0.000885,0,0
0:4:17.990,479.701,61.0807,0,0.000885,0,0
0:4:18.284,480.702,61.2048,0,0.000885,0,0
0:4:18.583,480.759,61.2117,0,0.000885,0,0
0:4:18.888,481.756,61.3358,0,0.000885,0,0
0:4:19.183,482.165,61.3909,0,0.000885,0,0
0:4:19.479,482.459,61.4254,0,0.000885,0,0
0:4:19.774,483.046,61.5012,0,0.000885,0,0
0:4:20.074,483.749,61.5909,0,0.000885,0,0
0:4:20.377,484.629,61.7081,0,0.000885,0,0
0:4:20.673,485.452,61.8115,0,0.000885,0,0
0:4:20.979,485.51,61.8184,0,0.000885,0,0
0:4:21.284,486.097,61.8942,0,0.000885,0,0
0:4:21.585,486.8,61.9839,0,0.000885,0,0
0:4:21.887,487.739,62.1011,0,0.000885,0,0
0:4:22.189,488.384,62.1838,0,0.000885,0,0
0:4:22.490,488.384,62.1838,0,0.000885,0,0
0:4:22.790,489.029,62.2666,0,0.000885,0,0
0:4:23.092,490.025,62.3907,0,0.000885,0,0
0:4:23.386,490.319,62.432,0,0.000885,0,0
0:4:23.692,491.021,62.5217,0,0.000885,0,0
0:4:23.987,491.609,62.5906,0,0.000885,0,0
0:4:24.283,492.369,62.694,0,0.000885,0,0
0:4:24.583,493.076,62.7837,0,0.000885,0,0
0:4:24.885,493.837,62.8802,0,0.000885,0,0
0:4:25.184,494.131,62.9147,0,0.000885,0,0
0:4:25.488,494.482,62.956,0,0.000885,0,0
0:4:25.792,495.069,63.0319,0,0.000885,0,0
0:4:26.089,495.479,63.087,0,0.000885,0,0
0:4:26.384,496.008,63.156,0,0.000885,0,0
0:4:26.685,497.062,63.287,0,0.000885,0,0
0:4:26.989,497.885,63.3904,0,0.000885,0,0
0:4:27.290,498.352,63.4525,0,0.000885,0,0
0:4:27.592,498.881,63.5214,0,0.000885,0,0
0:4:27.890,499.175,63.5559,0,0.000885,0,0
0:4:28.190,500.056,63.6662,0,0.000885,0,0
0:4:28.484,500.759,63.7558,0,0.000885,0,0
0:4:28.783,501.226,63.8179,0,0.000885,0,0
0:4:29.076,501.461,63.8455,0,0.000885,0,0
0:4:29.373,502.222,63.942,0,0.000885,0,0
0:4:29.670,502.929,64.0316,0,0.000885,0,0
0:4:29.973,503.806,64.1488,0,0.000885,0,0
0:4:30.274,503.868,64.1557,0,0.000885,0,0
0:4:30.578,504.335,64.2109,0,0.000885,0,0
0:4:30.874,505.1,64.3143,0,0.000885,0,0
0:4:31.179,505.683,64.3832,0,0.000885,0,0
0:4:31.474,506.212,64.4522,0,0.000885,0,0
0:4:31.776,506.799,64.528,0,0.000885,0,0
0:4:32.078,507.622,64.6315,0,0.000885,0,0
0:4:32.379,507.853,64.659,0,0.000885,0,0
0:4:32.679,508.498,64.7418,0,0.000885,0,0
0:4:32.978,509.615,64.8866,0,0.000885,0,0
0:4:33.277,509.851,64.9141,0,0.000885,0,0
0:4:33.584,510.26,64.9693,0,0.000885,0,0
0:4:33.891,510.905,65.052,0,0.000885,0,0
0:4:34.186,511.959,65.183,0,0.000885,0,0
0:4:34.490,511.959,65.183,0,0.000885,0,0
0:4:34.790,512.546,65.2589,0,0.000885,0,0
0:4:35.080,513.191,65.3416,0,0.000885,0,0
0:4:35.381,513.836,65.4244,0,0.000885,0,0
0:4:35.675,514.366,65.4933,0,0.000885,0,0
0:4:35.972,514.953,65.5622,0,0.000885,0,0
0:4:36.278,515.184,65.5967,0,0.000885,0,0
0:4:36.579,515.949,65.6932,0,0.000885,0,0
0:4:36.884,516.768,65.7967,0,0.000885,0,0
0:4:37.186,517.591,65.9001,0,0.000885,0,0
0:4:37.486,517.884,65.9415,0,0.000885,0,0
0:4:37.787,518.765,66.0518,0,0.000885,0,0
0:4:38.090,519.29,66.1207,0,0.000885,0,0
0:4:38.390,519.997,66.2104,0,0.000885,0,0
0:4:38.679,520.7,66.3,0,0.000885,0,0
0:4:38.980,520.642,66.2931,0,0.000885,0,0
0:4:39.274,521.345,66.3827,0,0.000885,0,0
0:4:39.581,522.871,66.5758,0,0.000885,0,0
0:4:39.888,523.222,66.6171,0,0.000885,0,0
0:4:40.192,523.453,66.6516,0,0.000885,0,0
0:4:40.491,523.867,66.6999,0,0.000885,0,0
0:4:40.782,524.979,66.8447,0,0.000885,0,0
0:4:41.080,525.393,66.8929,0,0.000885,0,0
0:4:41.376,525.744,66.9412,0,0.000885,0,0
0:4:41.677,526.447,67.0308,0,0.000885,0,0
0:4:41.980,527.034,67.1067,0,0.000885,0,0
0:4:42.281,527.621,67.1756,0,0.000885,0,0
0:4:42.580,527.679,67.1894,0,0.000885,0,0
0:4:42.880,528.56,67.2997,0,0.000885,0,0
0:4:43.190,529.263,67.3894,0,0.000885,0,0
0:4:43.487,530.437,67.5341,0,0.000885,0,0
0:4:43.778,530.553,67.5548,0,0.000885,0,0
0:4:44.078,531.14,67.6238,0,0.000885,0,0
0:4:44.373,531.549,67.6789,0,0.000885,0,0
0:4:44.670,532.136,67.7548,0,0.000885,0,0
0:4:44.976,533.604,67.9409,0,0.000885,0,0
0:4:45.272,533.893,67.9754,0,0.000885,0,0
0:4:45.579,534.249,68.0237,0,0.000885,0,0
0:4:45.893,534.716,68.0788,0,0.000885,0,0
0:4:46.190,534.894,68.1064,0,0.000885,0,0
0:4:46.486,536.3,68.2857,0,0.000885,0,0
0:4:46.787,536.358,68.2926,0,0.000885,0,0
0:4:47.090,536.887,68.3615,0,0.000885,0,0
0:4:47.391,537.238,68.4029,0,0.000885,0,0
0:4:47.691,538.355,68.5477,0,0.000885,0,0
0:4:47.990,538.586,68.5753,0,0.000885,0,0
0:4:48.288,538.764,68.5959,0,0.000885,0,0
0:4:48.586,539.583,68.6994,0,0.000885,0,0
0:4:48.889,540.463,68.8166,0,0.000885,0,0
0:4:49.189,541.166,68.9062,0,0.000885,0,0
0:4:49.490,541.402,68.9338,0,0.000885,0,0
0:4:49.790,542.105,69.0234,0,0.000885,0,0
0:4:50.083,542.692,69.0993,0,0.000885,0,0
0:4:50.390,543.515,69.2027,0,0.000885,0,0
0:4:50.689,543.337,69.182,0,0.000885,0,0
0:4:50.991,544.396,69.313,0,0.000885,0,0
0:4:51.290,544.453,69.3199,0,0.000885,0,0
0:4:51.582,545.628,69.4716,0,0.000885,0,0
0:4:51.882,546.21,69.5474,0,0.000885,0,0
0:4:52.188,546.918,69.637,0,0.000885,0,0
0:4:52.488,546.976,69.6439,0,0.000885,0,0
0:4:52.789,548.501,69.837,0,0.000885,0,0
0:4:53.089,548.617,69.8508,0,0.000885,0,0
0:4:53.388,549.44,69.9542,0,0.000885,0,0
0:4:53.679,549.965,70.0232,0,0.000885,0,0
0:4:53.977,550.143,70.0438,0,0.000885,0,0
0:4:54.273,551.023,70.1611,0,0.000885,0,0
0:4:54.576,551.548,70.2231,0,0.000885,0,0
0:4:54.875,552.193,70.3058,0,0.000885,0,0
0:4:55.179,553.074,70.4162,0,0.000885,0,0
0:4:55.478,553.483,70.4713,0,0.000885,0,0
0:4:55.782,553.541,70.4782,0,0.000885,0,0
0:4:56.079,554.306,70.5747,0,0.000885,0,0
0:4:56.377,555.36,70.7126,0,0.000885,0,0
0:4:56.680,556.126,70.8092,0,0.000885,0,0
0:4:56.982,557.002,70.9195,0,0.000885,0,0
0:4:57.281,557.002,70.9195,0,0.000885,0,0
0:4:57.582,557.473,70.9815,0,0.000885,0,0
0:4:57.881,558.528,71.1125,0,0.000885,0,0
0:4:58.176,558.821,71.1539,0,0.000885,0,0
0:4:58.475,558.999,71.1746,0,0.000885,0,0
0:4:58.778,559.524,71.2435,0,0.000885,0,0
0:4:59.077,560.463,71.3607,0,0.000885,0,0
0:4:59.372,561.17,71.4504,0,0.000885,0,0
0:4:59.676,561.521,71.4917,0,0.000885,0,0
0:4:59.974,562.108,71.5676,0,0.000885,0,0
0:5:0.289,562.633,71.6365,0,0.000885,0,0
0:5:0.589,563.163,71.7055,0,0.000885,0,0
0:5:0.892,563.865,71.7951,0,0.000885,0,0
0:5:1.189,564.746,71.9054,0,0.000885,0,0
0:5:1.487,565.276,71.9744,0,0.000885,0,0
0:5:1.784,565.627,72.0157,0,0.000885,0,0
0:5:2.090,565.921,72.0571,0,0.000885,0,0
0:5:2.390,566.739,72.1605,0,0.000885,0,0
0:5:2.689,566.975,72.1881,0,0.000885,0,0
0:5:2.990,568.149,72.3398,0,0.000885,0,0
0:5:3.283,568.968,72.4432,0,0.000885,0,0
0:5:3.582,569.261,72.4777,0,0.000885,0,0
0:5:3.884,569.67,72.5328,0,0.000885,0,0
0:5:4.183,570.845,72.6845,0,0.000885,0,0
0:5:4.489,571.138,72.719,0,0.000885,0,0
0:5:4.785,571.316,72.7397,0,0.000885,0,0
0:5:5.081,571.668,72.788,0,0.000885,0,0
0:5:5.376,572.838,72.9327,0,0.000885,0,0
0:5:5.675,573.073,72.9672,0,0.000885,0,0
0:5:5.976,574.19,73.1051,0,0.000885,0,0
0:5:6.275,574.305,73.1258,0,0.000885,0,0
0:5:6.570,574.715,73.1741,0,0.000885,0,0
0:5:6.871,575.066,73.2223,0,0.000885,0,0
0:5:7.174,576.24,73.3671,0,0.000885,0,0
0:5:7.476,576.592,73.4154,0,0.000885,0,0
0:5:7.777,576.885,73.4498,0,0.000885,0,0
0:5:8.076,578.002,73.5946,0,0.000885,0,0
0:5:8.373,578.175,73.6153,0,0.000885,0,0
0:5:8.668,579.172,73.7394,0,0.000885,0,0
0:5:8.963,580.053,73.8566,0,0.000885,0,0
0:5:9.261,580.524,73.9118,0,0.000885,0,0
0:5:9.554,580.818,73.9532,0,0.000885,0,0
0:5:9.854,581.049,73.9807,0,0.000885,0,0
0:5:10.146,581.93,74.0911,0,0.000885,0,0
0:5:10.444,582.459,74.16,0,0.000885,0,0
0:5:10.740,582.984,74.229,0,0.000885,0,0
0:5:11.035,583.571,74.3048,0,0.000885,0,0
0:5:11.333,584.043,74.36,0,0.000885,0,0
0:5:11.637,585.039,74.491,0,0.000885,0,0
0:5:11.938,585.275,74.5185,0,0.000885,0,0
0:5:12.239,585.92,74.6013,0,0.000885,0,0
0:5:12.538,587.21,74.7667,0,0.000885,0,0
0:5:12.839,587.797,74.8426,0,0.000885,0,0
0:5:13.134,588.5,74.9322,0,0.000885,0,0
0:5:13.435,588.793,74.9667,0,0.000885,0,0
0:5:13.729,589.438,75.0494,0,0.000885,0,0
0:5:14.028,589.91,75.1115,0,0.000885,0,0
0:5:14.325,590.906,75.2356,0,0.000885,0,0
0:5:14.620,591.2,75.277,0,0.000885,0,0
0:5:14.920,591.315,75.2907,0,0.000885,0,0
0:5:15.214,591.729,75.339,0,0.000885,0,0
0:5:15.515,592.552,75.4424,0,0.000885,0,0
0:5:15.810,593.077,75.5114,0,0.000885,0,0
0:5:16.109,593.664,75.5872,0,0.000885,0,0
0:5:16.407,594.487,75.6906,0,0.000885,0,0
0:5:16.710,595.19,75.7803,0,0.000885,0,0
0:5:17.013,595.132,75.7734,0,0.000885,0,0
0:5:17.315,596.306,75.9251,0,0.000885,0,0
0:5:17.617,596.778,75.9871,0,0.000885,0,0
0:5:17.920,597.423,76.063,0,0.000885,0,0
0:5:18.215,597.481,76.0768,0,0.000885,0,0
0:5:18.517,598.539,76.2078,0,0.000885,0,0
0:5:18.809,598.833,76.2422,0,0.000885,0,0
0:5:19.108,599.829,76.3732,0,0.000885,0,0
0:5:19.406,600.359,76.4422,0,0.000885,0,0
0:5:19.703,600.71,76.4835,0,0.000885,0,0
0:5:20.001,601.297,76.5594,0,0.000885,0,0
0:5:20.296,602.12,76.6628,0,0.000885,0,0
0:5:20.597,602.351,76.6973,0,0.000885,0,0
0:5:20.891,603.174,76.8007,0,0.000885,0,0
0:5:21.190,603.762,76.8765,0,0.000885,0,0
0:5:21.486,604.055,76.911,0,0.000885,0,0
0:5:21.790,604.758,77.0006,0,0.000885,0,0
0:5:22.094,605.523,77.0972,0,0.000885,0,0
0:5:22.397,605.995,77.1592,0,0.000885,0,0
0:5:22.697,606.404,77.2075,0,0.000885,0,0
0:5:22.998,607.107,77.2971,0,0.000885,0,0
0:5:23.296,607.578,77.3592,0,0.000885,0,0
0:5:23.593,608.281,77.4488,0,0.000885,0,0
0:5:23.890,609.046,77.5453,0,0.000885,0,0
0:5:24.190,609.633,77.6212,0,0.000885,0,0
0:5:24.482,610.336,77.7108,0,0.000885,0,0
0:5:24.784,610.63,77.7453,0,0.000885,0,0
0:5:25.078,611.217,77.8211,0,0.000885,0,0
0:5:25.376,611.862,77.9039,0,0.000885,0,0
0:5:25.682,612.685,78.0073,0,0.000885,0,0
0:5:25.979,612.685,78.0073,0,0.000885,0,0
0:5:26.278,613.388,78.0969,0,0.000885,0,0
0:5:26.582,613.508,78.1107,0,0.000885,0,0
0:5:26.885,614.033,78.1797,0,0.000885,0,0
0:5:27.190,614.976,78.3038,0,0.000885,0,0
0:5:27.490,615.736,78.4003,0,0.000885,0,0
0:5:27.793,616.323,78.4761,0,0.000885,0,0
0:5:28.087,617.026,78.5658,0,0.000885,0,0
0:5:28.387,617.44,78.614,0,0.000885,0,0
0:5:28.682,617.907,78.6761,0,0.000885,0,0
0:5:28.980,618.436,78.745,0,0.000885,0,0
0:5:29.278,618.788,78.7864,0,0.000885,0,0
0:5:29.574,619.495,78.876,0,0.000885,0,0
0:5:29.876,620.082,78.9519,0,0.000885,0,0
0:5:30.171,621.021,79.0691,0,0.000885,0,0
0:5:30.472,621.546,79.138,0,0.000885,0,0
0:5:30.768,621.959,79.1932,0,0.000885,0,0
0:5:31.066,622.546,79.2621,0,0.000885,0,0
0:5:31.365,623.427,79.3793,0,0.000885,0,0
0:5:31.668,623.894,79.4345,0,0.000885,0,0
0:5:31.972,624.308,79.4897,0,0.000885,0,0
0:5:32.274,624.424,79.5034,0,0.000885,0,0
0:5:32.576,625.069,79.5862,0,0.000885,0,0
0:5:32.879,626.185,79.731,0,0.000885,0,0
0:5:33.184,626.657,79.7861,0,0.000885,0,0
0:5:33.486,627.181,79.8551,0,0.000885,0,0
0:5:33.780,627.826,79.9378,0,0.000885,0,0
0:5:34.080,628.592,80.0343,0,0.000885,0,0
0:5:34.378,628.827,80.0619,0,0.000885,0,0
0:5:34.673,629.294,80.124,0,0.000885,0,0
0:5:34.973,629.944,80.2067,0,0.000885,0,0
0:5:35.268,630.527,80.2826,0,0.000885,0,0
0:5:35.569,631.176,80.3653,0,0.000885,0,0
0:5:35.864,631.349,80.386,0,0.000885,0,0
0:5:36.163,632.115,80.4825,0,0.000885,0,0
0:5:36.462,632.995,80.5928,0,0.000885,0,0
0:5:36.764,633.405,80.648,0,0.000885,0,0
0:5:37.069,633.876,80.71,0,0.000885,0,0
0:5:37.370,634.285,80.7583,0,0.000885,0,0
0:5:37.672,635.166,80.8686,0,0.000885,0,0
0:5:37.974,635.517,80.9169,0,0.000885,0,0
0:5:38.270,636.105,80.9927,0,0.000885,0,0
0:5:38.570,636.692,81.0686,0,0.000885,0,0
0:5:38.876,637.043,81.1099,0,0.000885,0,0
0:5:39.178,637.337,81.1513,0,0.000885,0,0
0:5:39.473,637.572,81.1789,0,0.000885,0,0
0:5:39.773,638.453,81.2892,0,0.000885,0,0
0:5:40.081,639.04,81.365,0,0.000885,0,0
0:5:40.385,639.156,81.3788,0,0.000885,0,0
0:5:40.686,639.921,81.4753,0,0.000885,0,0
0:5:40.981,640.45,81.5443,0,0.000885,0,0
0:5:41.281,641.038,81.6201,0,0.000885,0,0
0:5:41.578,641.74,81.7098,0,0.000885,0,0
0:5:41.879,642.092,81.7511,0,0.000885,0,0
0:5:42.183,642.621,81.8201,0,0.000885,0,0
0:5:42.485,643.382,81.9166,0,0.000885,0,0
0:5:42.788,643.853,81.9787,0,0.000885,0,0
0:5:43.091,644.441,82.0545,0,0.000885,0,0
0:5:43.389,644.912,82.1097,0,0.000885,0,0
0:5:43.687,645.673,82.2062,0,0.000885,0,0
0:5:43.995,646.082,82.2613,0,0.000885,0,0
0:5:44.296,646.847,82.3579,0,0.000885,0,0
0:5:44.587,647.376,82.4268,0,0.000885,0,0
0:5:44.899,648.431,82.5578,0,0.000885,0,0
0:5:45.198,648.493,82.5716,0,0.000885,0,0
0:5:45.493,648.902,82.6199,0,0.000885,0,0
0:5:45.794,649.431,82.6888,0,0.000885,0,0
0:5:46.086,649.725,82.7233,0,0.000885,0,0
0:5:46.392,650.428,82.8129,0,0.000885,0,0
0:5:46.696,651.309,82.9301,0,0.000885,0,0
0:5:47.000,651.776,82.9853,0,0.000885,0,0
0:5:47.302,652.483,83.0749,0,0.000885,0,0
0:5:47.602,653.306,83.1784,0,0.000885,0,0
0:5:47.905,654.067,83.2818,0,0.000885,0,0
0:5:48.203,654.538,83.3369,0,0.000885,0,0
0:5:48.499,655.063,83.4059,0,0.000885,0,0
0:5:48.799,655.886,83.5093,0,0.000885,0,0
0:5:49.094,656.593,83.5989,0,0.000885,0,0
0:5:49.396,657.06,83.661,0,0.000885,0,0
0:5:49.700,658.119,83.792,0,0.000885,0,0
0:5:49.998,658.528,83.8471,0,0.000885,0,0
0:5:50.298,658.822,83.8816,0,0.000885,0,0
0:5:50.594,659.88,84.0195,0,0.000885,0,0
0:5:50.895,660.347,84.0747,0,0.000885,0,0
0:5:51.200,661.286,84.1988,0,0.000885,0,0
0:5:51.501,661.931,84.2815,0,0.000885,0,0
0:5:51.806,663.105,84.4263,0,0.000885,0,0
0:5:52.109,663.75,84.509,0,0.000885,0,0
0:5:52.410,664.458,84.5987,0,0.000885,0,0
0:5:52.713,665.338,84.7159,0,0.000885,0,0
0:5:53.013,666.219,84.8262,0,0.000885,0,0
0:5:53.312,666.45,84.8538,0,0.000885,0,0
0:5:53.608,667.038,84.9296,0,0.000885,0,0
0:5:53.909,667.687,85.0124,0,0.000885,0,0
0:5:54.204,668.038,85.0537,0,0.000885,0,0
0:5:54.505,668.861,85.164,0,0.000885,0,0
0:5:54.801,669.916,85.295,0,0.000885,0,0
0:5:55.098,670.267,85.3433,0,0.000885,0,0
0:5:55.398,670.912,85.426,0,0.000885,0,0
0:5:55.694,671.441,85.4881,0,0.000885,0,0
0:5:55.996,672.5,85.626,0,0.000885,0,0
0:5:56.300,672.851,85.6674,0,0.000885,0,0
0:5:56.601,673.848,85.7984,0,0.000885,0,0
0:5:56.906,674.319,85.8535,0,0.000885,0,0
0:5:57.209,675.2,85.9707,0,0.000885,0,0
0:5:57.511,675.961,86.0673,0,0.000885,0,0
0:5:57.811,676.49,86.1362,0,0.000885,0,0
0:5:58.112,677.135,86.2189,0,0.000885,0,0
0:5:58.411,677.429,86.2534,0,0.000885,0,0
0:5:58.705,677.78,86.2948,0,0.000885,0,0
0:5:59.006,678.194,86.3499,0,0.000885,0,0
0:5:59.299,678.425,86.3775,0,0.000885,0,0
0:5:59.598,678.661,86.412,0,0.000885,0,0
0:5:59.896,679.248,86.4878,0,0.000885,0,0
0:6:0.203,679.893,86.5637,0,0.000885,0,0
0:6:0.502,680.542,86.6464,0,0.000885,0,0
0:6:0.796,680.952,86.7016,0,0.000885,0,0
0:6:1.098,681.361,86.7567,0,0.000885,0,0
0:6:1.395,681.654,86.7912,0,0.000885,0,0
0:6:1.697,681.539,86.7774,0,0.000885,0,0
0:6:2.000,680.952,86.7016,0,0.000885,0,0
0:6:2.302,678.603,86.4051,0,0.000885,0,0
0:6:2.604,675.08,85.9569,0,0.000885,0,0
0:6:2.905,651.366,82.937,0,0.000885,0,0
0:6:3.203,644.325,82.0407,0,0.000885,0,0
0:6:3.502,623.779,79.4207,0,0.000885,0,0
0:6:3.793,559.115,71.1884,0,0.000885,0,0
0:6:4.094,541.051,68.8855,0,0.000885,0,0
0:6:4.357,530.726,67.5755,0,0.000885,0,0