File: DataFile2021-06-29_052514.csv
Test ID:,Date Tested:,Time:,Test Type:,Diameter Avg. (mm):,Cyl. Corr. Factor:,Height (mm):,Age (days):,Weight (kN):,Break Type:,Ramp Rate (MPa/s):,Load at Break (kN):,Stress at Break (MPa):
12,6/29/2021,05:25,Cylinder,100,1,200,0,3.6,3,0.23,260.47,33.16
Sample Time,Load (kN),Stress (MPa),Long. Strain,Trans. Strain,Chan1 Deflection (mm),Chan2 Deflection (mm)
0:0:18.742,6.04068,0.772213,0,0.000885,0,0
0:0:18.937,8.62065,1.09627,0,0.000885,0,0
0:0:19.136,12.9621,1.64785,0,0.000885,0,0
0:0:19.337,13.0778,1.66853,0,0.000885,0,0
0:0:19.532,12.4906,1.59269,0,0.000885,0,0
0:0:19.734,12.0235,1.53064,0,0.000885,0,0
0:0:19.930,11.1428,1.42032,0,0.000885,0,0
0:0:20.128,10.9693,1.39964,0,0.000885,0,0
0:0:20.329,10.7336,1.36516,0,0.000885,0,0
0:0:20.524,10.6757,1.35827,0,0.000885,0,0
0:0:20.723,10.6179,1.35137,0,0.000885,0,0
0:0:20.921,10.3821,1.32379,0,0.000885,0,0
0:0:21.117,10.3243,1.3169,0,0.000885,0,0
0:0:21.319,10.44,1.33069,0,0.000885,0,0
0:0:21.515,10.6757,1.35827,0,0.000885,0,0
0:0:21.713,10.4978,1.33758,0,0.000885,0,0
0:0:21.912,10.3821,1.32379,0,0.000885,0,0
0:0:22.107,10.6179,1.35137,0,0.000885,0,0
0:0:22.308,10.8492,1.37895,0,0.000885,0,0
0:0:22.505,11.3786,1.4479,0,0.000885,0,0
0:0:22.703,11.9079,1.51685,0,0.000885,0,0
0:0:22.903,12.0235,1.53064,0,0.000885,0,0
0:0:23.098,11.9079,1.51685,0,0.000885,0,0
0:0:23.298,13.0778,1.66853,0,0.000885,0,0
0:0:23.498,13.7228,1.74437,0,0.000885,0,0
0:0:23.696,14.7192,1.87537,0,0.000885,0,0
0:0:23.898,14.8393,1.88916,0,0.000885,0,0
0:0:24.101,15.5421,1.9788,0,0.000885,0,0
0:0:24.303,15.6577,1.99258,0,0.000885,0,0
0:0:24.507,16.2449,2.06843,0,0.000885,0,0
0:0:24.708,16.2449,2.06843,0,0.000885,0,0
0:0:24.910,17.2413,2.19253,0,0.000885,0,0
0:0:25.112,17.3036,2.20632,0,0.000885,0,0
0:0:25.314,18.3,2.33043,0,0.000885,0,0
0:0:25.514,18.2422,2.32353,0,0.000885,0,0
0:0:25.711,19.2964,2.45453,0,0.000885,0,0
0:0:25.913,19.2386,2.44764,0,0.000885,0,0
0:0:26.108,19.4699,2.48211,0,0.000885,0,0
0:0:26.308,20.2928,2.58553,0,0.000885,0,0
0:0:26.509,20.3506,2.59243,0,0.000885,0,0
0:0:26.705,20.9956,2.67517,0,0.000885,0,0
0:0:26.907,21.4671,2.73032,0,0.000885,0,0
0:0:27.104,21.9342,2.79238,0,0.000885,0,0
0:0:27.303,21.992,2.79927,0,0.000885,0,0
0:0:27.505,22.2856,2.84064,0,0.000885,0,0
0:0:27.700,22.6993,2.8889,0,0.000885,0,0
0:0:27.902,24.0471,3.06127,0,0.000885,0,0
0:0:28.100,23.9314,3.04748,0,0.000885,0,0
0:0:28.297,24.9278,3.17159,0,0.000885,0,0
0:0:28.499,25.0435,3.18538,0,0.000885,0,0
0:0:28.697,25.7463,3.27501,0,0.000885,0,0
0:0:28.897,25.6307,3.26122,0,0.000885,0,0
0:0:29.097,25.9821,3.30948,0,0.000885,0,0
0:0:29.300,26.2178,3.33706,0,0.000885,0,0
0:0:29.503,26.9206,3.42669,0,0.000885,0,0
0:0:29.706,26.9785,3.43359,0,0.000885,0,0
0:0:29.908,27.3299,3.48185,0,0.000885,0,0
0:0:30.108,27.9749,3.56459,0,0.000885,0,0
0:0:30.311,28.5042,3.62664,0,0.000885,0,0
0:0:30.513,28.5042,3.62664,0,0.000885,0,0
0:0:30.710,28.9134,3.6818,0,0.000885,0,0
0:0:30.909,29.5584,3.76454,0,0.000885,0,0
0:0:31.110,29.852,3.79901,0,0.000885,0,0
0:0:31.307,30.2657,3.85417,0,0.000885,0,0
0:0:31.508,30.2657,3.85417,0,0.000885,0,0
0:0:31.706,30.7906,3.92312,0,0.000885,0,0
0:0:31.903,31.142,3.96449,0,0.000885,0,0
0:0:32.104,31.6713,4.03343,0,0.000885,0,0
0:0:32.301,32.0806,4.0817,0,0.000885,0,0
0:0:32.502,32.3163,4.11617,0,0.000885,0,0
0:0:32.702,32.7256,4.16443,0,0.000885,0,0
0:0:32.898,33.077,4.2127,0,0.000885,0,0
0:0:33.100,33.3706,4.24717,0,0.000885,0,0
0:0:33.298,34.1357,4.3437,0,0.000885,0,0
0:0:33.497,34.3714,4.37817,0,0.000885,0,0
0:0:33.697,34.9541,4.45401,0,0.000885,0,0
0:0:33.892,35.1899,4.48159,0,0.000885,0,0
0:0:34.094,35.6614,4.54365,0,0.000885,0,0
0:0:34.294,35.8927,4.57122,0,0.000885,0,0
0:0:34.497,36.1863,4.6057,0,0.000885,0,0
0:0:34.701,36.7734,4.68154,0,0.000885,0,0
0:0:34.902,36.9514,4.70222,0,0.000885,0,0
0:0:35.104,37.1249,4.7298,0,0.000885,0,0
0:0:35.306,37.5385,4.77807,0,0.000885,0,0
0:0:35.508,38.2992,4.87459,0,0.000885,0,0
0:0:35.710,38.6506,4.92286,0,0.000885,0,0
0:0:35.908,38.8864,4.95044,0,0.000885,0,0
0:0:36.107,39.2956,5.00559,0,0.000885,0,0
0:0:36.309,39.8828,5.07454,0,0.000885,0,0
0:0:36.504,40.2342,5.1228,0,0.000885,0,0
0:0:36.707,40.8213,5.19865,0,0.000885,0,0
0:0:36.904,41.0571,5.22623,0,0.000885,0,0
0:0:37.103,41.582,5.29517,0,0.000885,0,0
0:0:37.304,41.8177,5.32275,0,0.000885,0,0
0:0:37.500,41.9334,5.33654,0,0.000885,0,0
0:0:37.702,42.5784,5.41928,0,0.000885,0,0
0:0:37.899,42.8141,5.45375,0,0.000885,0,0
0:0:38.097,43.3435,5.51581,0,0.000885,0,0
0:0:38.298,43.2856,5.50891,0,0.000885,0,0
0:0:38.495,43.6949,5.56407,0,0.000885,0,0
0:0:38.696,44.1041,5.61233,0,0.000885,0,0
0:0:38.894,44.2242,5.63302,0,0.000885,0,0
0:0:39.090,44.8692,5.71575,0,0.000885,0,0
0:0:39.292,45.6299,5.81228,0,0.000885,0,0
0:0:39.493,45.6299,5.81228,0,0.000885,0,0
0:0:39.697,46.3327,5.90191,0,0.000885,0,0
0:0:39.899,46.3327,5.90191,0,0.000885,0,0
0:0:40.102,47.2713,6.01912,0,0.000885,0,0
0:0:40.303,47.6227,6.06049,0,0.000885,0,0
0:0:40.504,48.0363,6.11565,0,0.000885,0,0
0:0:40.706,48.6813,6.19839,0,0.000885,0,0
0:0:40.907,48.9749,6.23286,0,0.000885,0,0
0:0:41.103,49.3263,6.28112,0,0.000885,0,0
0:0:41.304,49.4998,6.30181,0,0.000885,0,0
0:0:41.502,49.7934,6.34318,0,0.000885,0,0
0:0:41.700,50.1448,6.38455,0,0.000885,0,0
0:0:41.901,50.0291,6.37076,0,0.000885,0,0
0:0:42.097,50.6741,6.45349,0,0.000885,0,0
0:0:42.298,51.4348,6.55002,0,0.000885,0,0
0:0:42.497,51.9063,6.61207,0,0.000885,0,0
0:0:42.695,52.4935,6.68102,0,0.000885,0,0
0:0:42.898,53.0184,6.74997,0,0.000885,0,0
0:0:43.095,53.3698,6.79823,0,0.000885,0,0
0:0:43.293,53.432,6.80513,0,0.000885,0,0
0:0:43.493,53.8413,6.85339,0,0.000885,0,0
0:0:43.690,54.1349,6.89476,0,0.000885,0,0
0:0:43.892,54.7798,6.97749,0,0.000885,0,0
0:0:44.093,54.8955,6.99128,0,0.000885,0,0
0:0:44.297,55.6028,7.08092,0,0.000885,0,0
0:0:44.500,55.6606,7.08781,0,0.000885,0,0
0:0:44.702,55.7763,7.1016,0,0.000885,0,0
0:0:44.903,56.3056,7.17055,0,0.000885,0,0
0:0:45.105,56.9506,7.25328,0,0.000885,0,0
0:0:45.307,57.4755,7.31534,0,0.000885,0,0
0:0:45.509,58.2406,7.41876,0,0.000885,0,0
0:0:45.704,58.1827,7.40497,0,0.000885,0,0
0:0:45.906,58.7076,7.47392,0,0.000885,0,0
0:0:46.106,59.1791,7.53597,0,0.000885,0,0
0:0:46.302,59.6462,7.59113,0,0.000885,0,0
0:0:46.503,59.7663,7.61181,0,0.000885,0,0
0:0:46.701,60.4691,7.70144,0,0.000885,0,0
0:0:46.901,60.8205,7.74281,0,0.000885,0,0
0:0:47.101,60.7627,7.73592,0,0.000885,0,0
0:0:47.296,60.7627,7.73592,0,0.000885,0,0
0:0:47.498,61.5234,7.83244,0,0.000885,0,0
0:0:47.696,61.937,7.8876,0,0.000885,0,0
0:0:47.894,62.4041,7.94276,0,0.000885,0,0
0:0:48.096,62.9913,8.0186,0,0.000885,0,0
0:0:48.290,63.5784,8.09445,0,0.000885,0,0
0:0:48.492,63.6941,8.10823,0,0.000885,0,0
0:0:48.689,64.1656,8.17029,0,0.000885,0,0
0:0:48.887,64.2234,8.17718,0,0.000885,0,0
0:0:49.089,64.6327,8.23234,0,0.000885,0,0
0:0:49.292,65.3355,8.32197,0,0.000885,0,0
0:0:49.495,65.6869,8.36334,0,0.000885,0,0
0:0:49.697,65.9805,8.39781,0,0.000885,0,0
0:0:49.900,66.452,8.45987,0,0.000885,0,0
0:0:50.101,67.2705,8.56329,0,0.000885,0,0
0:0:50.303,66.919,8.52192,0,0.000885,0,0
0:0:50.504,67.742,8.62534,0,0.000885,0,0
0:0:50.705,67.9777,8.65292,0,0.000885,0,0
0:0:50.901,68.209,8.68739,0,0.000885,0,0
0:0:51.103,68.3291,8.70118,0,0.000885,0,0
0:0:51.301,68.7962,8.75634,0,0.000885,0,0
0:0:51.500,68.9741,8.78392,0,0.000885,0,0
0:0:51.702,69.7926,8.88734,0,0.000885,0,0
0:0:51.896,70.4999,8.97697,0,0.000885,0,0
0:0:52.098,70.7312,9.00455,0,0.000885,0,0
0:0:52.298,71.1449,9.05971,0,0.000885,0,0
0:0:52.496,71.6697,9.12866,0,0.000885,0,0
0:0:52.697,71.7898,9.14245,0,0.000885,0,0
0:0:52.893,72.1413,9.18382,0,0.000885,0,0
0:0:53.093,72.9597,9.28724,0,0.000885,0,0
0:0:53.293,73.1955,9.32171,0,0.000885,0,0
0:0:53.490,73.3111,9.3355,0,0.000885,0,0
0:0:53.692,74.0762,9.43203,0,0.000885,0,0
0:0:53.889,74.1919,9.44582,0,0.000885,0,0
0:0:54.087,74.4276,9.4734,0,0.000885,0,0
0:0:54.288,74.6056,9.50098,0,0.000885,0,0
0:0:54.491,75.0726,9.55613,0,0.000885,0,0
0:0:54.695,75.9534,9.67334,0,0.000885,0,0
0:0:54.897,76.5984,9.75608,0,0.000885,0,0
0:0:55.098,76.892,9.79056,0,0.000885,0,0
0:0:55.301,77.3012,9.84571,0,0.000885,0,0
0:0:55.502,77.537,9.87329,0,0.000885,0,0
0:0:55.704,77.8305,9.90777,0,0.000885,0,0
0:0:55.903,78.1819,9.95603,0,0.000885,0,0
0:0:56.101,78.3554,9.97671,0,0.000885,0,0
0:0:56.303,78.9426,10.0526,0,0.000885,0,0
0:0:56.499,79.294,10.0939,0,0.000885,0,0
0:0:56.700,79.7077,10.1491,0,0.000885,0,0
0:0:56.900,79.8812,10.1698,0,0.000885,0,0
0:0:57.096,80.5262,10.2525,0,0.000885,0,0
0:0:57.298,81.1133,10.3283,0,0.000885,0,0
0:0:57.497,81.3491,10.3559,0,0.000885,0,0
0:0:57.695,82.2298,10.4662,0,0.000885,0,0
0:0:57.896,82.2298,10.4662,0,0.000885,0,0
0:0:58.092,82.3455,10.4869,0,0.000885,0,0
0:0:58.293,82.4033,10.4938,0,0.000885,0,0
0:0:58.491,83.1061,10.5835,0,0.000885,0,0
0:0:58.690,83.2841,10.6041,0,0.000885,0,0
0:0:58.892,84.0447,10.7007,0,0.000885,0,0
0:0:59.094,84.2226,10.7213,0,0.000885,0,0
0:0:59.299,84.9254,10.811,0,0.000885,0,0
0:0:59.501,84.9833,10.8179,0,0.000885,0,0
0:0:59.702,85.6905,10.9075,0,0.000885,0,0
0:0:59.904,86.042,10.9558,0,0.000885,0,0
0:1:0.106,86.6869,11.0385,0,0.000885,0,0
0:1:0.306,87.0962,11.0868,0,0.000885,0,0
0:1:0.507,87.7412,11.1695,0,0.000885,0,0
0:1:0.703,87.9769,11.204,0,0.000885,0,0
0:1:0.904,88.444,11.2591,0,0.000885,0,0
0:1:1.101,88.3283,11.2453,0,0.000885,0,0
0:1:1.301,88.8577,11.3143,0,0.000885,0,0
0:1:1.502,89.2091,11.3557,0,0.000885,0,0
0:1:1.699,89.9697,11.4522,0,0.000885,0,0
0:1:1.900,90.6725,11.5418,0,0.000885,0,0
0:1:2.098,90.9083,11.5763,0,0.000885,0,0
0:1:2.296,90.2633,11.4936,0,0.000885,0,0
0:1:2.497,91.1441,11.6039,0,0.000885,0,0
0:1:2.693,91.3175,11.6246,0,0.000885,0,0
0:1:2.894,92.0826,11.7211,0,0.000885,0,0
0:1:3.093,92.3139,11.7556,0,0.000885,0,0
0:1:3.289,92.8433,11.8245,0,0.000885,0,0
0:1:3.492,93.3726,11.8866,0,0.000885,0,0
0:1:3.688,94.0176,11.9693,0,0.000885,0,0
0:1:3.888,93.8397,11.9486,0,0.000885,0,0
0:1:4.089,93.8975,11.9555,0,0.000885,0,0
0:1:4.292,94.8361,12.0727,0,0.000885,0,0
0:1:4.495,94.4847,12.0314,0,0.000885,0,0
0:1:4.697,95.4232,12.1486,0,0.000885,0,0
0:1:4.899,95.4232,12.1486,0,0.000885,0,0
0:1:5.100,96.5398,12.2934,0,0.000885,0,0
0:1:5.302,96.5398,12.2934,0,0.000885,0,0
0:1:5.504,97.1269,12.3692,0,0.000885,0,0
0:1:5.703,97.7719,12.4519,0,0.000885,0,0
0:1:5.900,98.1811,12.5002,0,0.000885,0,0
0:1:6.102,98.6482,12.5622,0,0.000885,0,0
0:1:6.299,99.1197,12.6174,0,0.000885,0,0
0:1:6.498,99.0041,12.6036,0,0.000885,0,0
0:1:6.698,99.4133,12.6588,0,0.000885,0,0
0:1:6.895,99.4711,12.6657,0,0.000885,0,0
0:1:7.096,100,12.7346,0,0.000885,0,0
0:1:7.294,100.174,12.7553,0,0.000885,0,0
0:1:7.492,100.703,12.8242,0,0.000885,0,0
0:1:7.694,101.642,12.9415,0,0.000885,0,0
0:1:7.888,101.526,12.9277,0,0.000885,0,0
0:1:8.090,102.403,13.038,0,0.000885,0,0
0:1:8.289,102.696,13.0725,0,0.000885,0,0
0:1:8.487,103.283,13.1483,0,0.000885,0,0
0:1:8.688,103.11,13.1276,0,0.000885,0,0
0:1:8.884,103.755,13.2104,0,0.000885,0,0
0:1:9.085,104.515,13.3069,0,0.000885,0,0
0:1:9.286,104.925,13.362,0,0.000885,0,0
0:1:9.489,104.631,13.3207,0,0.000885,0,0
0:1:9.692,105.045,13.3758,0,0.000885,0,0
0:1:9.894,105.396,13.4172,0,0.000885,0,0
0:1:10.096,105.863,13.4793,0,0.000885,0,0
0:1:10.297,106.335,13.5413,0,0.000885,0,0
0:1:10.499,106.393,13.5482,0,0.000885,0,0
0:1:10.700,106.98,13.624,0,0.000885,0,0
0:1:10.898,107.095,13.6378,0,0.000885,0,0
0:1:11.096,107.74,13.7206,0,0.000885,0,0
0:1:11.298,108.15,13.7688,0,0.000885,0,0
0:1:11.493,108.563,13.824,0,0.000885,0,0
0:1:11.695,108.857,13.8585,0,0.000885,0,0
0:1:11.894,109.795,13.9826,0,0.000885,0,0
0:1:12.090,109.795,13.9826,0,0.000885,0,0
0:1:12.292,110.792,14.1067,0,0.000885,0,0
0:1:12.490,111.023,14.1343,0,0.000885,0,0
0:1:12.691,111.904,14.2515,0,0.000885,0,0
0:1:12.889,111.846,14.2377,0,0.000885,0,0
0:1:13.086,112.024,14.2653,0,0.000885,0,0
0:1:13.288,112.082,14.2721,0,0.000885,0,0
0:1:13.485,113.02,14.3894,0,0.000885,0,0
0:1:13.686,113.078,14.3963,0,0.000885,0,0
0:1:13.886,113.608,14.4652,0,0.000885,0,0
0:1:14.081,113.372,14.4376,0,0.000885,0,0
0:1:14.283,114.132,14.5341,0,0.000885,0,0
0:1:14.485,114.484,14.5755,0,0.000885,0,0
0:1:14.689,115.307,14.6789,0,0.000885,0,0
0:1:14.892,115.952,14.7617,0,0.000885,0,0
0:1:15.092,116.423,14.8237,0,0.000885,0,0
0:1:15.294,116.833,14.8789,0,0.000885,0,0
0:1:15.495,117.126,14.9134,0,0.000885,0,0
0:1:15.696,117.184,14.9203,0,0.000885,0,0
0:1:15.898,117.42,14.9478,0,0.000885,0,0
0:1:16.093,117.593,14.9754,0,0.000885,0,0
0:1:16.295,118.416,15.0788,0,0.000885,0,0
0:1:16.492,118.532,15.0926,0,0.000885,0,0
0:1:16.691,119.235,15.1823,0,0.000885,0,0
0:1:16.893,119.822,15.2581,0,0.000885,0,0
0:1:17.088,119.47,15.2098,0,0.000885,0,0
0:1:17.289,119.822,15.2581,0,0.000885,0,0
0:1:17.487,120.467,15.3408,0,0.000885,0,0
0:1:17.685,120.88,15.3891,0,0.000885,0,0
0:1:17.887,121.232,15.4374,0,0.000885,0,0
0:1:18.083,121.641,15.4856,0,0.000885,0,0
0:1:18.282,121.992,15.5339,0,0.000885,0,0
0:1:18.483,122.402,15.5822,0,0.000885,0,0
0:1:18.680,123.109,15.6718,0,0.000885,0,0
0:1:18.881,123.518,15.7269,0,0.000885,0,0
0:1:19.083,123.692,15.7476,0,0.000885,0,0
0:1:19.287,124.457,15.8442,0,0.000885,0,0
0:1:19.490,124.221,15.8166,0,0.000885,0,0
0:1:19.692,124.693,15.8786,0,0.000885,0,0
0:1:19.893,125.28,15.9476,0,0.000885,0,0
0:1:20.095,125.862,16.0234,0,0.000885,0,0
0:1:20.297,125.983,16.0372,0,0.000885,0,0
0:1:20.499,126.921,16.1613,0,0.000885,0,0
0:1:20.694,126.801,16.1475,0,0.000885,0,0
0:1:20.893,127.33,16.2096,0,0.000885,0,0
0:1:21.094,127.566,16.244,0,0.000885,0,0
0:1:21.290,127.797,16.2716,0,0.000885,0,0
0:1:21.491,128.385,16.3475,0,0.000885,0,0
0:1:21.688,128.211,16.3268,0,0.000885,0,0
0:1:21.887,129.03,16.4302,0,0.000885,0,0
0:1:22.088,129.501,16.4854,0,0.000885,0,0
0:1:22.284,130.088,16.5612,0,0.000885,0,0
0:1:22.485,129.968,16.5474,0,0.000885,0,0
0:1:22.683,130.791,16.6508,0,0.000885,0,0
0:1:22.879,130.613,16.6302,0,0.000885,0,0
0:1:23.081,131.436,16.7336,0,0.000885,0,0
0:1:23.279,131.672,16.768,0,0.000885,0,0
0:1:23.478,132.432,16.8646,0,0.000885,0,0
0:1:23.678,132.61,16.8853,0,0.000885,0,0
0:1:23.873,133.313,16.9749,0,0.000885,0,0
0:1:24.075,133.255,16.968,0,0.000885,0,0
0:1:24.277,133.9,17.0507,0,0.000885,0,0
0:1:24.481,134.661,17.1473,0,0.000885,0,0
0:1:24.683,134.839,17.1679,0,0.000885,0,0
0:1:24.886,135.6,17.2645,0,0.000885,0,0
0:1:25.088,135.484,17.2507,0,0.000885,0,0
0:1:25.288,135.484,17.2507,0,0.000885,0,0
0:1:25.490,136.071,17.3265,0,0.000885,0,0
0:1:25.692,136.245,17.3472,0,0.000885,0,0
0:1:25.888,137.125,17.4575,0,0.000885,0,0
0:1:26.089,137.241,17.4713,0,0.000885,0,0
0:1:26.289,137.828,17.5472,0,0.000885,0,0
0:1:26.486,138.415,17.623,0,0.000885,0,0
0:1:26.687,138.473,17.6299,0,0.000885,0,0
0:1:26.883,139.002,17.6988,0,0.000885,0,0
0:1:27.084,139.47,17.7609,0,0.000885,0,0
0:1:27.282,139.883,17.8092,0,0.000885,0,0
0:1:27.480,140.35,17.8712,0,0.000885,0,0
0:1:27.681,140.76,17.9195,0,0.000885,0,0
0:1:27.877,141.173,17.9746,0,0.000885,0,0
0:1:28.076,141.934,18.0712,0,0.000885,0,0
0:1:28.277,142.05,18.0849,0,0.000885,0,0
0:1:28.472,142.285,18.1194,0,0.000885,0,0
0:1:28.674,142.637,18.1608,0,0.000885,0,0
0:1:28.872,142.872,18.1884,0,0.000885,0,0
0:1:29.070,143.753,18.3056,0,0.000885,0,0
0:1:29.271,143.402,18.2573,0,0.000885,0,0
0:1:29.474,143.869,18.3194,0,0.000885,0,0
0:1:29.677,144.105,18.3469,0,0.000885,0,0
0:1:29.880,144.75,18.4297,0,0.000885,0,0
0:1:30.082,145.159,18.4848,0,0.000885,0,0
0:1:30.283,145.395,18.5124,0,0.000885,0,0
0:1:30.484,146.217,18.6158,0,0.000885,0,0
0:1:30.687,146.627,18.671,0,0.000885,0,0
0:1:30.887,146.862,18.6986,0,0.000885,0,0
0:1:31.084,147.445,18.7744,0,0.000885,0,0
0:1:31.285,147.507,18.7813,0,0.000885,0,0
0:1:31.482,148.504,18.9054,0,0.000885,0,0
0:1:31.682,148.326,18.8847,0,0.000885,0,0
0:1:31.881,148.446,18.8985,0,0.000885,0,0
0:1:32.077,149.149,18.9882,0,0.000885,0,0
0:1:32.279,149.558,19.0433,0,0.000885,0,0
0:1:32.476,150.03,19.1054,0,0.000885,0,0
0:1:32.676,150.732,19.195,0,0.000885,0,0
0:1:32.877,150.79,19.2019,0,0.000885,0,0
0:1:33.071,151.026,19.2295,0,0.000885,0,0
0:1:33.273,151.493,19.2915,0,0.000885,0,0
0:1:33.471,152.022,19.3536,0,0.000885,0,0
0:1:33.670,152.196,19.3812,0,0.000885,0,0
0:1:33.872,153.197,19.5053,0,0.000885,0,0
0:1:34.074,153.077,19.4915,0,0.000885,0,0
0:1:34.277,153.197,19.5053,0,0.000885,0,0
0:1:34.480,153.779,19.5811,0,0.000885,0,0
0:1:34.681,154.367,19.657,0,0.000885,0,0
0:1:34.882,154.66,19.6914,0,0.000885,0,0
0:1:35.084,155.305,19.7742,0,0.000885,0,0
0:1:35.286,155.425,19.788,0,0.000885,0,0
0:1:35.484,155.305,19.7742,0,0.000885,0,0
0:1:35.680,156.657,19.9465,0,0.000885,0,0
0:1:35.881,156.364,19.9121,0,0.000885,0,0
0:1:36.080,156.657,19.9465,0,0.000885,0,0
0:1:36.278,157.125,20.0086,0,0.000885,0,0
0:1:36.479,157.418,20.0431,0,0.000885,0,0
0:1:36.674,157.947,20.112,0,0.000885,0,0
0:1:36.875,158.65,20.2016,0,0.000885,0,0
0:1:37.074,158.886,20.2292,0,0.000885,0,0
0:1:37.271,159.469,20.3051,0,0.000885,0,0
0:1:37.473,160.114,20.3878,0,0.000885,0,0
0:1:37.668,160.47,20.4292,0,0.000885,0,0
0:1:37.868,160.643,20.4567,0,0.000885,0,0
0:1:38.068,160.763,20.4705,0,0.000885,0,0
0:1:38.263,161.466,20.5602,0,0.000885,0,0
0:1:38.465,161.639,20.5809,0,0.000885,0,0
0:1:38.661,162.227,20.6567,0,0.000885,0,0
0:1:38.860,162.169,20.6498,0,0.000885,0,0
0:1:39.062,163.223,20.7808,0,0.000885,0,0
0:1:39.265,163.05,20.7601,0,0.000885,0,0
0:1:39.468,163.81,20.8566,0,0.000885,0,0
0:1:39.670,163.752,20.8497,0,0.000885,0,0
0:1:39.871,164.691,20.967,0,0.000885,0,0
0:1:40.073,164.575,20.9532,0,0.000885,0,0
0:1:40.275,165.572,21.0842,0,0.000885,0,0
0:1:40.477,165.687,21.098,0,0.000885,0,0
0:1:40.676,166.275,21.1738,0,0.000885,0,0
0:1:40.873,166.51,21.2014,0,0.000885,0,0
0:1:41.076,167.271,21.2979,0,0.000885,0,0
0:1:41.271,167.622,21.3393,0,0.000885,0,0
0:1:41.471,167.8,21.3669,0,0.000885,0,0
0:1:41.670,168.209,21.4151,0,0.000885,0,0
0:1:41.865,168.325,21.4289,0,0.000885,0,0
0:1:42.068,168.97,21.5116,0,0.000885,0,0
0:1:42.264,169.557,21.5875,0,0.000885,0,0
0:1:42.463,169.735,21.6082,0,0.000885,0,0
0:1:42.663,169.615,21.5944,0,0.000885,0,0
0:1:42.858,170.029,21.6495,0,0.000885,0,0
0:1:43.059,170.38,21.6909,0,0.000885,0,0
0:1:43.259,171.025,21.7736,0,0.000885,0,0
0:1:43.455,171.434,21.8288,0,0.000885,0,0
0:1:43.658,171.906,21.8909,0,0.000885,0,0
0:1:43.862,172.609,21.9805,0,0.000885,0,0
0:1:44.063,172.96,22.0219,0,0.000885,0,0
0:1:44.265,173.076,22.0356,0,0.000885,0,0
0:1:44.468,173.721,22.1184,0,0.000885,0,0
0:1:44.671,173.663,22.1115,0,0.000885,0,0
0:1:44.873,174.308,22.1942,0,0.000885,0,0
0:1:45.075,174.486,22.2149,0,0.000885,0,0
0:1:45.277,174.953,22.277,0,0.000885,0,0
0:1:45.477,175.482,22.3459,0,0.000885,0,0
0:1:45.680,175.776,22.3804,0,0.000885,0,0
0:1:45.878,176.537,22.4769,0,0.000885,0,0
0:1:46.077,176.657,22.4907,0,0.000885,0,0
0:1:46.278,177.244,22.5665,0,0.000885,0,0
0:1:46.474,177.653,22.6217,0,0.000885,0,0
0:1:46.675,178.062,22.67,0,0.000885,0,0
0:1:46.873,178.12,22.6769,0,0.000885,0,0
0:1:47.071,178.943,22.7803,0,0.000885,0,0
0:1:47.272,178.765,22.7596,0,0.000885,0,0
0:1:47.467,179.704,22.8837,0,0.000885,0,0
0:1:47.668,179.882,22.9044,0,0.000885,0,0
0:1:47.865,180.175,22.9389,0,0.000885,0,0
0:1:48.063,181.172,23.0699,0,0.000885,0,0
0:1:48.264,181.287,23.0836,0,0.000885,0,0
0:1:48.461,181.759,23.1388,0,0.000885,0,0
0:1:48.661,182.168,23.194,0,0.000885,0,0
0:1:48.863,181.817,23.1526,0,0.000885,0,0
0:1:49.065,182.462,23.2284,0,0.000885,0,0
0:1:49.268,183.4,23.3525,0,0.000885,0,0
0:1:49.470,183.516,23.3663,0,0.000885,0,0
0:1:49.671,183.285,23.3388,0,0.000885,0,0
0:1:49.873,184.161,23.4491,0,0.000885,0,0
0:1:50.074,184.161,23.4491,0,0.000885,0,0
0:1:50.277,184.748,23.5249,0,0.000885,0,0
0:1:50.472,185.099,23.5663,0,0.000885,0,0
0:1:50.671,185.513,23.6214,0,0.000885,0,0
0:1:50.873,185.98,23.6766,0,0.000885,0,0
0:1:51.068,186.274,23.718,0,0.000885,0,0
0:1:51.269,186.919,23.8007,0,0.000885,0,0
0:1:51.465,187.154,23.8283,0,0.000885,0,0
0:1:51.663,188.035,23.9386,0,0.000885,0,0
0:1:51.865,188.151,23.9593,0,0.000885,0,0
0:1:52.061,188.267,23.9731,0,0.000885,0,0
0:1:52.261,188.912,24.0558,0,0.000885,0,0
0:1:52.460,189.147,24.0834,0,0.000885,0,0
0:1:52.655,189.441,24.1179,0,0.000885,0,0
0:1:52.857,189.912,24.1799,0,0.000885,0,0
0:1:53.063,190.264,24.2282,0,0.000885,0,0
0:1:53.262,190.909,24.304,0,0.000885,0,0
0:1:53.463,190.846,24.2971,0,0.000885,0,0
0:1:53.657,191.963,24.4419,0,0.000885,0,0
0:1:53.858,191.905,24.435,0,0.000885,0,0
0:1:54.059,192.608,24.5247,0,0.000885,0,0
0:1:54.260,192.55,24.5178,0,0.000885,0,0
0:1:54.463,193.782,24.6763,0,0.000885,0,0
0:1:54.663,193.782,24.6763,0,0.000885,0,0
0:1:54.864,194.249,24.7315,0,0.000885,0,0
0:1:55.062,194.663,24.7867,0,0.000885,0,0
0:1:55.263,195.366,24.8763,0,0.000885,0,0
0:1:55.463,195.482,24.8901,0,0.000885,0,0
0:1:55.658,195.366,24.8763,0,0.000885,0,0
0:1:55.855,195.891,24.9452,0,0.000885,0,0
0:1:56.056,196.656,25.0418,0,0.000885,0,0
0:1:56.259,196.949,25.0762,0,0.000885,0,0
0:1:56.460,197.123,25.0969,0,0.000885,0,0
0:1:56.655,197.301,25.1176,0,0.000885,0,0
0:1:56.860,197.243,25.1107,0,0.000885,0,0
0:1:57.061,198.297,25.2486,0,0.000885,0,0
0:1:57.256,198.884,25.3244,0,0.000885,0,0
0:1:57.452,198.707,25.2969,0,0.000885,0,0
0:1:57.649,199.472,25.4003,0,0.000885,0,0
0:1:57.845,199.881,25.4485,0,0.000885,0,0
0:1:58.045,199.765,25.4348,0,0.000885,0,0
0:1:58.241,201.171,25.614,0,0.000885,0,0
0:1:58.439,200.641,25.5451,0,0.000885,0,0
0:1:58.638,201.286,25.6278,0,0.000885,0,0
0:1:58.841,201.171,25.614,0,0.000885,0,0
0:1:59.041,201.58,25.6692,0,0.000885,0,0
0:1:59.240,202.403,25.7726,0,0.000885,0,0
0:1:59.442,202.697,25.8071,0,0.000885,0,0
0:1:59.644,203.342,25.8898,0,0.000885,0,0
0:1:59.844,203.693,25.9381,0,0.000885,0,0
0:2:0.044,204.516,26.0415,0,0.000885,0,0
0:2:0.244,204.574,26.0484,0,0.000885,0,0
0:2:0.444,205.512,26.1656,0,0.000885,0,0
0:2:0.645,205.334,26.1449,0,0.000885,0,0
0:2:0.860,205.864,26.2139,0,0.000885,0,0
0:2:1.060,205.686,26.1863,0,0.000885,0,0
0:2:1.257,206.331,26.269,0,0.000885,0,0
0:2:1.452,206.509,26.2966,0,0.000885,0,0
0:2:1.653,207.154,26.3724,0,0.000885,0,0
0:2:1.858,207.505,26.4207,0,0.000885,0,0
0:2:2.056,207.505,26.4207,0,0.000885,0,0
0:2:2.263,208.15,26.5034,0,0.000885,0,0
0:2:2.460,208.679,26.5724,0,0.000885,0,0
0:2:2.661,209.146,26.6276,0,0.000885,0,0
0:2:2.856,209.791,26.7103,0,0.000885,0,0
0:2:3.052,210.027,26.7448,0,0.000885,0,0
0:2:3.262,210.499,26.7999,0,0.000885,0,0
0:2:3.458,210.908,26.8551,0,0.000885,0,0
0:2:3.660,211.611,26.9447,0,0.000885,0,0
0:2:3.863,212.082,26.9999,0,0.000885,0,0
0:2:4.063,212.492,27.055,0,0.000885,0,0
0:2:4.263,212.959,27.1171,0,0.000885,0,0
0:2:4.467,213.546,27.1929,0,0.000885,0,0
0:2:4.665,213.372,27.1653,0,0.000885,0,0
0:2:4.867,213.604,27.1998,0,0.000885,0,0
0:2:5.067,213.604,27.1998,0,0.000885,0,0
0:2:5.268,214.191,27.2688,0,0.000885,0,0
0:2:5.469,214.311,27.2894,0,0.000885,0,0
0:2:5.669,214.6,27.3239,0,0.000885,0,0
0:2:5.867,215.481,27.4342,0,0.000885,0,0
0:2:6.062,215.659,27.4618,0,0.000885,0,0
0:2:6.262,216.477,27.5652,0,0.000885,0,0
0:2:6.456,215.952,27.4963,0,0.000885,0,0
0:2:6.653,217.358,27.6756,0,0.000885,0,0
0:2:6.862,217.122,27.648,0,0.000885,0,0
0:2:7.060,217.887,27.7445,0,0.000885,0,0
0:2:7.259,217.594,27.7031,0,0.000885,0,0
0:2:7.463,218.706,27.8479,0,0.000885,0,0
0:2:7.663,218.532,27.8272,0,0.000885,0,0
0:2:7.861,219.235,27.9169,0,0.000885,0,0
0:2:8.057,219.644,27.9651,0,0.000885,0,0
0:2:8.257,220.231,28.041,0,0.000885,0,0
0:2:8.460,220.289,28.0479,0,0.000885,0,0
0:2:8.659,220.876,28.1237,0,0.000885,0,0
0:2:8.858,221.112,28.1513,0,0.000885,0,0
0:2:9.050,221.757,28.234,0,0.000885,0,0
0:2:9.252,221.993,28.2616,0,0.000885,0,0
0:2:9.452,222.229,28.2961,0,0.000885,0,0
0:2:9.658,222.696,28.3512,0,0.000885,0,0
0:2:9.859,223.167,28.4133,0,0.000885,0,0
0:2:10.059,223.634,28.4753,0,0.000885,0,0
0:2:10.260,223.341,28.434,0,0.000885,0,0
0:2:10.460,224.457,28.5788,0,0.000885,0,0
0:2:10.661,224.751,28.6132,0,0.000885,0,0
0:2:10.862,225.627,28.7305,0,0.000885,0,0
0:2:11.065,225.805,28.7511,0,0.000885,0,0
0:2:11.267,226.041,28.7787,0,0.000885,0,0
0:2:11.462,226.744,28.8683,0,0.000885,0,0
0:2:11.658,227.095,28.9166,0,0.000885,0,0
0:2:11.859,227.682,28.9925,0,0.000885,0,0
0:2:12.052,227.976,29.0269,0,0.000885,0,0
0:2:12.251,228.149,29.0476,0,0.000885,0,0
0:2:12.450,228.794,29.1303,0,0.000885,0,0
0:2:12.667,228.736,29.1235,0,0.000885,0,0
0:2:12.865,229.324,29.1993,0,0.000885,0,0
0:2:13.060,229.266,29.1924,0,0.000885,0,0
0:2:13.259,230.262,29.3165,0,0.000885,0,0
0:2:13.458,230.084,29.2958,0,0.000885,0,0
0:2:13.661,230.792,29.3855,0,0.000885,0,0
0:2:13.862,231.143,29.4268,0,0.000885,0,0
0:2:14.061,231.494,29.4751,0,0.000885,0,0
0:2:14.264,232.255,29.5716,0,0.000885,0,0
0:2:14.465,231.788,29.5096,0,0.000885,0,0
0:2:14.667,232.669,29.6268,0,0.000885,0,0
0:2:14.865,233.194,29.6888,0,0.000885,0,0
0:2:15.065,233.314,29.7095,0,0.000885,0,0
0:2:15.265,233.896,29.7785,0,0.000885,0,0
0:2:15.465,234.074,29.806,0,0.000885,0,0
0:2:15.661,234.426,29.8474,0,0.000885,0,0
0:2:15.860,235.306,29.9577,0,0.000885,0,0
0:2:16.058,235.422,29.9784,0,0.000885,0,0
0:2:16.263,236.009,30.0474,0,0.000885,0,0
0:2:16.464,236.187,30.0749,0,0.000885,0,0
0:2:16.659,236.303,30.0887,0,0.000885,0,0
0:2:16.868,236.712,30.137,0,0.000885,0,0
0:2:17.067,237.241,30.2059,0,0.000885,0,0
0:2:17.260,237.651,30.2611,0,0.000885,0,0
0:2:17.460,237.709,30.268,0,0.000885,0,0
0:2:17.658,238.238,30.33,0,0.000885,0,0
0:2:17.865,238.941,30.4197,0,0.000885,0,0
0:2:18.063,239.234,30.461,0,0.000885,0,0
0:2:18.258,239.706,30.5231,0,0.000885,0,0
0:2:18.457,239.999,30.5576,0,0.000885,0,0
0:2:18.665,240.587,30.6334,0,0.000885,0,0
0:2:18.863,240.876,30.6679,0,0.000885,0,0
0:2:19.063,240.938,30.6748,0,0.000885,0,0
0:2:19.265,241.289,30.723,0,0.000885,0,0
0:2:19.467,241.463,30.7437,0,0.000885,0,0
0:2:19.668,242.286,30.8471,0,0.000885,0,0
0:2:19.869,242.401,30.8609,0,0.000885,0,0
0:2:20.070,242.637,30.8954,0,0.000885,0,0
0:2:20.270,243.046,30.9437,0,0.000885,0,0
0:2:20.471,243.398,30.9919,0,0.000885,0,0
0:2:20.669,244.163,31.0885,0,0.000885,0,0
0:2:20.865,244.808,31.1712,0,0.000885,0,0
0:2:21.065,244.688,31.1574,0,0.000885,0,0
0:2:21.258,245.337,31.2401,0,0.000885,0,0
0:2:21.458,245.689,31.2815,0,0.000885,0,0
0:2:21.655,246.271,31.3574,0,0.000885,0,0
0:2:21.863,246.271,31.3574,0,0.000885,0,0
0:2:22.064,247.272,31.4815,0,0.000885,0,0
0:2:22.265,247.272,31.4815,0,0.000885,0,0
0:2:22.464,247.272,31.4815,0,0.000885,0,0
0:2:22.663,248.033,31.578,0,0.000885,0,0
0:2:22.859,248.091,31.5849,0,0.000885,0,0
0:2:23.060,248.269,31.6125,0,0.000885,0,0
0:2:23.264,248.793,31.6745,0,0.000885,0,0
0:2:23.463,249.559,31.7779,0,0.000885,0,0
0:2:23.661,249.794,31.8055,0,0.000885,0,0
0:2:23.855,249.91,31.8193,0,0.000885,0,0
0:2:24.055,250.261,31.8676,0,0.000885,0,0
0:2:24.259,250.555,31.902,0,0.000885,0,0
0:2:24.462,251.084,31.971,0,0.000885,0,0
0:2:24.664,251.378,32.0055,0,0.000885,0,0
0:2:24.863,251.729,32.0537,0,0.000885,0,0
0:2:25.064,252.374,32.1365,0,0.000885,0,0
0:2:25.264,252.726,32.1778,0,0.000885,0,0
0:2:25.463,252.726,32.1778,0,0.000885,0,0
0:2:25.662,253.313,32.2537,0,0.000885,0,0
0:2:25.868,253.958,32.3364,0,0.000885,0,0
0:2:26.065,253.78,32.3157,0,0.000885,0,0
0:2:26.263,254.367,32.3847,0,0.000885,0,0
0:2:26.460,254.425,32.3916,0,0.000885,0,0
0:2:26.659,254.719,32.4329,0,0.000885,0,0
0:2:26.862,255.07,32.4743,0,0.000885,0,0
0:2:27.064,255.835,32.5708,0,0.000885,0,0
0:2:27.260,255.773,32.5639,0,0.000885,0,0
0:2:27.466,256.418,32.6467,0,0.000885,0,0
0:2:27.666,256.538,32.6605,0,0.000885,0,0
0:2:27.859,256.711,32.688,0,0.000885,0,0
0:2:28.060,257.419,32.7777,0,0.000885,0,0
0:2:28.267,257.65,32.8053,0,0.000885,0,0
0:2:28.464,258.357,32.8949,0,0.000885,0,0
0:2:28.663,258.237,32.8811,0,0.000885,0,0
0:2:28.866,259.118,32.9914,0,0.000885,0,0
0:2:29.065,259.002,32.9776,0,0.000885,0,0
0:2:29.266,259.469,33.0397,0,0.000885,0,0
0:2:29.469,259.354,33.019,0,0.000885,0,0
0:2:29.669,259.527,33.0466,0,0.000885,0,0
0:2:29.870,259.821,33.081,0,0.000885,0,0
0:2:30.071,259.821,33.081,0,0.000885,0,0
0:2:30.271,260.172,33.1293,0,0.000885,0,0
0:2:30.472,260.466,33.1638,0,0.000885,0,0
0:2:30.672,260.879,33.2189,0,0.000885,0,0
0:2:30.868,260.234,33.1362,0,0.000885,0,0
0:2:31.065,260.523,33.1707,0,0.000885,0,0
0:2:31.263,260.114,33.1155,0,0.000885,0,0
0:2:31.467,259.821,33.081,0,0.000885,0,0
0:2:31.668,259.296,33.0121,0,0.000885,0,0
0:2:31.872,258.357,32.8949,0,0.000885,0,0
0:2:32.069,256.653,32.6811,0,0.000885,0,0
0:2:32.269,255.599,32.5433,0,0.000885,0,0
0:2:32.462,246.685,31.4056,0,0.000885,0,0
0:2:32.662,239.176,30.4541,0,0.000885,0,0
0:2:32.859,230.556,29.3579,0,0.000885,0,0
0:2:33.064,214.017,27.2481,0,0.000885,0,0
0:2:33.264,206.682,26.3173,0,0.000885,0,0
0:2:33.468,194.249,24.7315,0,0.000885,0,0
0:2:33.668,189.97,24.1868,0,0.000885,0,0
0:2:33.808,185.513,23.6214,0,0.000885,0,0