File: DataFile2021-06-07_065231.csv
Test ID:,Date Tested:,Time:,Test Type:,Diameter Avg. (mm):,Cyl. Corr. Factor:,Height (mm):,Age (days):,Weight (kN):,Break Type:,Ramp Rate (MPa/s):,Load at Break (kN):,Stress at Break (MPa):
12,6/7/2021,06:52,Cylinder,100,1,200,0,3.6,3,0.24,302.34,38.49
Sample Time,Load (kN),Stress (MPa),Long. Strain,Trans. Strain,Chan1 Deflection (mm),Chan2 Deflection (mm)
0:0:17.435,6.39209,0.813581,0,0.000885,0,0
0:0:17.636,8.79858,1.11695,0,0.000885,0,0
0:0:17.832,10.0307,1.27553,0,0.000885,0,0
0:0:18.033,10.0307,1.27553,0,0.000885,0,0
0:0:18.230,9.38575,1.19279,0,0.000885,0,0
0:0:18.426,9.26565,1.179,0,0.000885,0,0
0:0:18.626,9.44357,1.19969,0,0.000885,0,0
0:0:18.821,9.44357,1.19969,0,0.000885,0,0
0:0:19.024,9.26565,1.179,0,0.000885,0,0
0:0:19.220,9.55923,1.22037,0,0.000885,0,0
0:0:19.418,9.09216,1.15832,0,0.000885,0,0
0:0:19.618,8.85641,1.13074,0,0.000885,0,0
0:0:19.813,9.67933,1.23416,0,0.000885,0,0
0:0:20.015,9.67933,1.23416,0,0.000885,0,0
0:0:20.213,9.67933,1.23416,0,0.000885,0,0
0:0:20.407,9.85281,1.25485,0,0.000885,0,0
0:0:20.608,9.96846,1.26864,0,0.000885,0,0
0:0:20.805,10.44,1.33069,0,0.000885,0,0
0:0:21.006,10.5556,1.34448,0,0.000885,0,0
0:0:21.206,12.2015,1.55132,0,0.000885,0,0
0:0:21.401,12.5529,1.59958,0,0.000885,0,0
0:0:21.603,12.8465,1.63406,0,0.000885,0,0
0:0:21.801,13.0199,1.65474,0,0.000885,0,0
0:0:22.000,14.0163,1.78574,0,0.000885,0,0
0:0:22.200,14.0163,1.78574,0,0.000885,0,0
0:0:22.394,14.43,1.83401,0,0.000885,0,0
0:0:22.596,14.7814,1.88227,0,0.000885,0,0
0:0:22.797,15.4843,1.9719,0,0.000885,0,0
0:0:22.999,15.8935,2.02706,0,0.000885,0,0
0:0:23.202,16.4807,2.09601,0,0.000885,0,0
0:0:23.404,16.8321,2.14427,0,0.000885,0,0
0:0:23.606,17.7128,2.25459,0,0.000885,0,0
0:0:23.808,17.8285,2.26838,0,0.000885,0,0
0:0:24.008,18.1221,2.30974,0,0.000885,0,0
0:0:24.209,18.8871,2.40627,0,0.000885,0,0
0:0:24.411,19.412,2.47522,0,0.000885,0,0
0:0:24.611,19.9992,2.54417,0,0.000885,0,0
0:0:24.810,20.3506,2.59243,0,0.000885,0,0
0:0:25.007,20.702,2.6338,0,0.000885,0,0
0:0:25.207,20.5285,2.61311,0,0.000885,0,0
0:0:25.404,21.5828,2.75101,0,0.000885,0,0
0:0:25.603,22.0543,2.80617,0,0.000885,0,0
0:0:25.805,22.2856,2.84064,0,0.000885,0,0
0:0:26.000,22.5213,2.86822,0,0.000885,0,0
0:0:26.202,22.7571,2.8958,0,0.000885,0,0
0:0:26.402,23.1085,2.94406,0,0.000885,0,0
0:0:26.600,23.2242,2.95785,0,0.000885,0,0
0:0:26.801,23.5177,2.99232,0,0.000885,0,0
0:0:26.997,23.9314,3.04748,0,0.000885,0,0
0:0:27.196,24.2828,3.08885,0,0.000885,0,0
0:0:27.399,24.9857,3.17848,0,0.000885,0,0
0:0:27.594,25.1013,3.19917,0,0.000885,0,0
0:0:27.795,25.3371,3.22675,0,0.000885,0,0
0:0:27.997,25.2214,3.21296,0,0.000885,0,0
0:0:28.202,26.3335,3.35085,0,0.000885,0,0
0:0:28.405,26.6849,3.39912,0,0.000885,0,0
0:0:28.607,26.8628,3.4198,0,0.000885,0,0
0:0:28.809,27.272,3.47496,0,0.000885,0,0
0:0:29.010,28.3886,3.61285,0,0.000885,0,0
0:0:29.213,28.5042,3.62664,0,0.000885,0,0
0:0:29.415,29.0914,3.70248,0,0.000885,0,0
0:0:29.611,29.4428,3.75075,0,0.000885,0,0
0:0:29.812,29.6207,3.77143,0,0.000885,0,0
0:0:30.010,29.9098,3.80591,0,0.000885,0,0
0:0:30.207,30.2657,3.85417,0,0.000885,0,0
0:0:30.410,31.0842,3.95759,0,0.000885,0,0
0:0:30.606,31.4356,4.00585,0,0.000885,0,0
0:0:30.807,31.6135,4.02654,0,0.000885,0,0
0:0:31.007,31.8493,4.05412,0,0.000885,0,0
0:0:31.204,32.3742,4.12306,0,0.000885,0,0
0:0:31.405,32.4943,4.13685,0,0.000885,0,0
0:0:31.601,32.9613,4.19891,0,0.000885,0,0
0:0:31.801,33.4328,4.25407,0,0.000885,0,0
0:0:32.002,34.3714,4.37817,0,0.000885,0,0
0:0:32.196,34.2513,4.36438,0,0.000885,0,0
0:0:32.399,34.7806,4.42643,0,0.000885,0,0
0:0:32.596,34.8963,4.44022,0,0.000885,0,0
0:0:32.796,35.6614,4.54365,0,0.000885,0,0
0:0:32.998,35.7192,4.55054,0,0.000885,0,0
0:0:33.199,36.1863,4.6057,0,0.000885,0,0
0:0:33.403,36.8313,4.68843,0,0.000885,0,0
0:0:33.606,37.3606,4.75738,0,0.000885,0,0
0:0:33.807,37.067,4.72291,0,0.000885,0,0
0:0:34.009,37.5385,4.77807,0,0.000885,0,0
0:0:34.209,37.712,4.79875,0,0.000885,0,0
0:0:34.410,38.4727,4.90217,0,0.000885,0,0
0:0:34.611,38.7663,4.93665,0,0.000885,0,0
0:0:34.809,39.0598,4.97112,0,0.000885,0,0
0:0:35.011,39.4735,5.02628,0,0.000885,0,0
0:0:35.206,39.5313,5.03317,0,0.000885,0,0
0:0:35.406,40.3498,5.13659,0,0.000885,0,0
0:0:35.604,40.8213,5.19865,0,0.000885,0,0
0:0:35.802,41.4085,5.27449,0,0.000885,0,0
0:0:36.005,41.8177,5.32275,0,0.000885,0,0
0:0:36.201,42.0535,5.35723,0,0.000885,0,0
0:0:36.399,42.3471,5.3917,0,0.000885,0,0
0:0:36.602,43.0499,5.48133,0,0.000885,0,0
0:0:36.798,43.1077,5.48823,0,0.000885,0,0
0:0:36.999,43.8105,5.57786,0,0.000885,0,0
0:0:37.198,43.8105,5.57786,0,0.000885,0,0
0:0:37.395,44.6335,5.68128,0,0.000885,0,0
0:0:37.596,44.8069,5.70196,0,0.000885,0,0
0:0:37.798,45.3941,5.77781,0,0.000885,0,0
0:0:38.002,45.7455,5.82607,0,0.000885,0,0
0:0:38.206,46.6263,5.93639,0,0.000885,0,0
0:0:38.407,46.862,5.96397,0,0.000885,0,0
0:0:38.609,47.3291,6.02602,0,0.000885,0,0
0:0:38.810,47.1556,6.00533,0,0.000885,0,0
0:0:39.012,47.6227,6.06049,0,0.000885,0,0
0:0:39.214,47.5648,6.0536,0,0.000885,0,0
0:0:39.409,48.4456,6.17081,0,0.000885,0,0
0:0:39.612,48.797,6.21218,0,0.000885,0,0
0:0:39.808,49.2062,6.26733,0,0.000885,0,0
0:0:40.007,49.6199,6.3156,0,0.000885,0,0
0:0:40.210,49.9713,6.36386,0,0.000885,0,0
0:0:40.405,50.5585,6.4397,0,0.000885,0,0
0:0:40.607,50.9099,6.48107,0,0.000885,0,0
0:0:40.805,51.2035,6.52244,0,0.000885,0,0
0:0:41.002,51.4348,6.55002,0,0.000885,0,0
0:0:41.205,51.8485,6.59828,0,0.000885,0,0
0:0:41.400,52.022,6.62586,0,0.000885,0,0
0:0:41.601,52.7248,6.71549,0,0.000885,0,0
0:0:41.801,53.432,6.80513,0,0.000885,0,0
0:0:41.999,53.6633,6.8327,0,0.000885,0,0
0:0:42.200,54.3706,6.92234,0,0.000885,0,0
0:0:42.397,54.6642,6.95681,0,0.000885,0,0
0:0:42.596,55.1891,7.02576,0,0.000885,0,0
0:0:42.796,55.1891,7.02576,0,0.000885,0,0
0:0:42.999,55.6606,7.08781,0,0.000885,0,0
0:0:43.203,55.5405,7.07402,0,0.000885,0,0
0:0:43.406,56.0698,7.13607,0,0.000885,0,0
0:0:43.607,56.7148,7.21881,0,0.000885,0,0
0:0:43.809,57.1863,7.28086,0,0.000885,0,0
0:0:44.012,57.5377,7.32913,0,0.000885,0,0
0:0:44.213,58.1827,7.40497,0,0.000885,0,0
0:0:44.412,58.0048,7.38429,0,0.000885,0,0
0:0:44.609,58.592,7.46013,0,0.000885,0,0
0:0:44.811,58.592,7.46013,0,0.000885,0,0
0:0:45.006,59.9398,7.6325,0,0.000885,0,0
0:0:45.207,59.882,7.6256,0,0.000885,0,0
0:0:45.407,59.9398,7.6325,0,0.000885,0,0
0:0:45.602,60.3535,7.68076,0,0.000885,0,0
0:0:45.805,60.8784,7.74971,0,0.000885,0,0
0:0:46.001,61.3499,7.81176,0,0.000885,0,0
0:0:46.200,61.8169,7.87381,0,0.000885,0,0
0:0:46.402,61.8748,7.88071,0,0.000885,0,0
0:0:46.597,62.6399,7.97723,0,0.000885,0,0
0:0:46.798,62.9913,8.0186,0,0.000885,0,0
0:0:46.997,63.5784,8.09445,0,0.000885,0,0
0:0:47.194,63.6941,8.10823,0,0.000885,0,0
0:0:47.396,64.3969,8.19787,0,0.000885,0,0
0:0:47.594,64.5748,8.21855,0,0.000885,0,0
0:0:47.792,64.517,8.21166,0,0.000885,0,0
0:0:47.995,64.9841,8.27371,0,0.000885,0,0
0:0:48.199,65.4556,8.33576,0,0.000885,0,0
0:0:48.402,65.6291,8.35645,0,0.000885,0,0
0:0:48.603,66.1584,8.42539,0,0.000885,0,0
0:0:48.805,66.6255,8.48055,0,0.000885,0,0
0:0:49.005,67.2705,8.56329,0,0.000885,0,0
0:0:49.208,67.742,8.62534,0,0.000885,0,0
0:0:49.410,68.1512,8.6805,0,0.000885,0,0
0:0:49.607,68.7384,8.74945,0,0.000885,0,0
0:0:49.808,69.2677,8.81839,0,0.000885,0,0
0:0:50.008,69.6191,8.86666,0,0.000885,0,0
0:0:50.201,69.3255,8.82529,0,0.000885,0,0
0:0:50.404,69.9127,8.90113,0,0.000885,0,0
0:0:50.602,70.2063,8.93561,0,0.000885,0,0
0:0:50.800,71.0826,9.05282,0,0.000885,0,0
0:0:51.001,70.9091,9.02524,0,0.000885,0,0
0:0:51.197,71.4384,9.09418,0,0.000885,0,0
0:0:51.398,71.4963,9.10108,0,0.000885,0,0
0:0:51.598,72.1413,9.18382,0,0.000885,0,0
0:0:51.796,72.6083,9.24587,0,0.000885,0,0
0:0:51.997,73.5469,9.36308,0,0.000885,0,0
0:0:52.193,73.5469,9.36308,0,0.000885,0,0
0:0:52.391,73.7827,9.39755,0,0.000885,0,0
0:0:52.594,74.4855,9.48719,0,0.000885,0,0
0:0:52.797,74.7212,9.51477,0,0.000885,0,0
0:0:53.001,75.3084,9.59061,0,0.000885,0,0
0:0:53.203,75.5397,9.61819,0,0.000885,0,0
0:0:53.405,75.602,9.62508,0,0.000885,0,0
0:0:53.608,76.1891,9.70092,0,0.000885,0,0
0:0:53.808,76.5984,9.75608,0,0.000885,0,0
0:0:54.010,76.9498,9.79745,0,0.000885,0,0
0:0:54.208,77.4168,9.8595,0,0.000885,0,0
0:0:54.406,77.4168,9.8595,0,0.000885,0,0
0:0:54.608,78.0618,9.94224,0,0.000885,0,0
0:0:54.804,78.4755,9.9905,0,0.000885,0,0
0:0:55.006,79.2362,10.087,0,0.000885,0,0
0:0:55.204,79.4141,10.1077,0,0.000885,0,0
0:0:55.402,80.1747,10.2111,0,0.000885,0,0
0:0:55.603,80.4683,10.2456,0,0.000885,0,0
0:0:55.801,80.584,10.2594,0,0.000885,0,0
0:0:56.000,80.7041,10.2732,0,0.000885,0,0
0:0:56.201,81.229,10.3421,0,0.000885,0,0
0:0:56.396,81.4069,10.3628,0,0.000885,0,0
0:0:56.598,82.6391,10.5214,0,0.000885,0,0
0:0:56.796,82.4033,10.4938,0,0.000885,0,0
0:0:56.996,83.0483,10.5766,0,0.000885,0,0
0:0:57.196,83.3419,10.611,0,0.000885,0,0
0:0:57.392,83.5776,10.6386,0,0.000885,0,0
0:0:57.593,83.9869,10.6938,0,0.000885,0,0
0:0:57.796,84.5162,10.7627,0,0.000885,0,0
0:0:57.998,85.219,10.8523,0,0.000885,0,0
0:0:58.200,85.219,10.8523,0,0.000885,0,0
0:0:58.403,85.9218,10.942,0,0.000885,0,0
0:0:58.605,86.1576,10.9696,0,0.000885,0,0
0:0:58.805,86.3355,10.9902,0,0.000885,0,0
0:0:59.007,86.7448,11.0454,0,0.000885,0,0
0:0:59.209,87.2741,11.1143,0,0.000885,0,0
0:0:59.404,87.5054,11.1419,0,0.000885,0,0
0:0:59.604,87.8568,11.1833,0,0.000885,0,0
0:0:59.803,88.0926,11.2178,0,0.000885,0,0
0:1:0.002,89.1468,11.3488,0,0.000885,0,0
0:1:0.205,89.2669,11.3626,0,0.000885,0,0
0:1:0.401,89.7918,11.4315,0,0.000885,0,0
0:1:0.599,90.2633,11.4936,0,0.000885,0,0
0:1:0.800,90.7304,11.5556,0,0.000885,0,0
0:1:0.994,90.4412,11.5142,0,0.000885,0,0
0:1:1.196,91.0862,11.597,0,0.000885,0,0
0:1:1.395,91.024,11.5901,0,0.000885,0,0
0:1:1.593,91.7312,11.6797,0,0.000885,0,0
0:1:1.795,92.2561,11.7487,0,0.000885,0,0
0:1:1.990,92.434,11.7694,0,0.000885,0,0
0:1:2.191,92.8433,11.8245,0,0.000885,0,0
0:1:2.391,93.3726,11.8866,0,0.000885,0,0
0:1:2.587,93.7819,11.9417,0,0.000885,0,0
0:1:2.788,94.7783,12.0658,0,0.000885,0,0
0:1:2.991,94.8984,12.0796,0,0.000885,0,0
0:1:3.194,95.0718,12.1072,0,0.000885,0,0
0:1:3.397,95.3076,12.1348,0,0.000885,0,0
0:1:3.599,95.7747,12.1968,0,0.000885,0,0
0:1:3.799,96.2462,12.252,0,0.000885,0,0
0:1:4.001,96.5398,12.2934,0,0.000885,0,0
0:1:4.203,97.0646,12.3623,0,0.000885,0,0
0:1:4.405,97.5362,12.4175,0,0.000885,0,0
0:1:4.599,97.7719,12.4519,0,0.000885,0,0
0:1:4.801,98.4169,12.5278,0,0.000885,0,0
0:1:4.999,98.4747,12.5416,0,0.000885,0,0
0:1:5.197,98.8261,12.5829,0,0.000885,0,0
0:1:5.398,99.529,12.6726,0,0.000885,0,0
0:1:5.595,99.8225,12.707,0,0.000885,0,0
0:1:5.796,100.41,12.7829,0,0.000885,0,0
0:1:5.995,100.819,12.838,0,0.000885,0,0
0:1:6.191,101.055,12.8656,0,0.000885,0,0
0:1:6.394,101.758,12.9552,0,0.000885,0,0
0:1:6.591,102.171,13.0104,0,0.000885,0,0
0:1:6.790,102.229,13.0173,0,0.000885,0,0
0:1:6.990,102.403,13.038,0,0.000885,0,0
0:1:7.186,102.46,13.0449,0,0.000885,0,0
0:1:7.387,102.754,13.0862,0,0.000885,0,0
0:1:7.586,103.283,13.1483,0,0.000885,0,0
0:1:7.784,103.635,13.1966,0,0.000885,0,0
0:1:7.986,104.337,13.2862,0,0.000885,0,0
0:1:8.190,105.16,13.3896,0,0.000885,0,0
0:1:8.393,105.454,13.4241,0,0.000885,0,0
0:1:8.595,105.805,13.4724,0,0.000885,0,0
0:1:8.798,106.508,13.562,0,0.000885,0,0
0:1:8.998,106.335,13.5413,0,0.000885,0,0
0:1:9.201,106.802,13.5965,0,0.000885,0,0
0:1:9.402,107.567,13.693,0,0.000885,0,0
0:1:9.601,107.625,13.6999,0,0.000885,0,0
0:1:9.800,108.092,13.7619,0,0.000885,0,0
0:1:10.001,108.505,13.8171,0,0.000885,0,0
0:1:10.196,109.088,13.8929,0,0.000885,0,0
0:1:10.398,109.324,13.9205,0,0.000885,0,0
0:1:10.597,109.853,13.9895,0,0.000885,0,0
0:1:10.796,110.027,14.0101,0,0.000885,0,0
0:1:10.997,110.498,14.0722,0,0.000885,0,0
0:1:11.191,110.378,14.0515,0,0.000885,0,0
0:1:11.393,111.259,14.1687,0,0.000885,0,0
0:1:11.592,111.317,14.1756,0,0.000885,0,0
0:1:11.790,112.255,14.2928,0,0.000885,0,0
0:1:11.992,112.255,14.2928,0,0.000885,0,0
0:1:12.187,112.963,14.3825,0,0.000885,0,0
0:1:12.389,113.136,14.4031,0,0.000885,0,0
0:1:12.586,113.545,14.4583,0,0.000885,0,0
0:1:12.785,113.665,14.4721,0,0.000885,0,0
0:1:12.988,114.368,14.5617,0,0.000885,0,0
0:1:13.190,115.129,14.6583,0,0.000885,0,0
0:1:13.393,115.485,14.7065,0,0.000885,0,0
0:1:13.595,115.716,14.7341,0,0.000885,0,0
0:1:13.796,116.13,14.7893,0,0.000885,0,0
0:1:13.998,116.13,14.7893,0,0.000885,0,0
0:1:14.198,116.655,14.8513,0,0.000885,0,0
0:1:14.399,116.89,14.8858,0,0.000885,0,0
0:1:14.601,117.478,14.9547,0,0.000885,0,0
0:1:14.797,117.829,15.003,0,0.000885,0,0
0:1:14.998,118.065,15.0306,0,0.000885,0,0
0:1:15.197,118.59,15.0995,0,0.000885,0,0
0:1:15.396,119.061,15.1616,0,0.000885,0,0
0:1:15.596,120.058,15.2857,0,0.000885,0,0
0:1:15.792,120,15.2788,0,0.000885,0,0
0:1:15.994,120.587,15.3546,0,0.000885,0,0
0:1:16.193,120.409,15.3339,0,0.000885,0,0
0:1:16.390,121.174,15.4305,0,0.000885,0,0
0:1:16.591,121.583,15.4787,0,0.000885,0,0
0:1:16.787,121.877,15.5201,0,0.000885,0,0
0:1:16.987,122.402,15.5822,0,0.000885,0,0
0:1:17.187,122.758,15.6304,0,0.000885,0,0
0:1:17.384,122.989,15.658,0,0.000885,0,0
0:1:17.587,123.634,15.7407,0,0.000885,0,0
0:1:17.790,123.692,15.7476,0,0.000885,0,0
0:1:17.993,123.634,15.7407,0,0.000885,0,0
0:1:18.195,124.221,15.8166,0,0.000885,0,0
0:1:18.396,124.279,15.8235,0,0.000885,0,0
0:1:18.598,125.044,15.92,0,0.000885,0,0
0:1:18.799,125.338,15.9614,0,0.000885,0,0
0:1:19.002,125.569,15.9889,0,0.000885,0,0
0:1:19.202,125.983,16.0372,0,0.000885,0,0
0:1:19.398,126.921,16.1613,0,0.000885,0,0
0:1:19.600,127.74,16.2647,0,0.000885,0,0
0:1:19.796,128.153,16.3199,0,0.000885,0,0
0:1:19.995,128.505,16.3613,0,0.000885,0,0
0:1:20.197,128.972,16.4233,0,0.000885,0,0
0:1:20.394,128.856,16.4095,0,0.000885,0,0
0:1:20.595,129.092,16.4371,0,0.000885,0,0
0:1:20.792,129.443,16.4785,0,0.000885,0,0
0:1:20.992,130.146,16.5681,0,0.000885,0,0
0:1:21.192,130.026,16.5543,0,0.000885,0,0
0:1:21.389,130.555,16.6233,0,0.000885,0,0
0:1:21.590,130.497,16.6164,0,0.000885,0,0
0:1:21.786,131.903,16.7956,0,0.000885,0,0
0:1:21.986,131.787,16.7818,0,0.000885,0,0
0:1:22.186,132.197,16.8301,0,0.000885,0,0
0:1:22.383,132.668,16.8922,0,0.000885,0,0
0:1:22.585,133.429,16.9887,0,0.000885,0,0
0:1:22.787,133.843,17.0438,0,0.000885,0,0
0:1:22.992,134.661,17.1473,0,0.000885,0,0
0:1:23.194,134.719,17.1542,0,0.000885,0,0
0:1:23.396,134.897,17.1748,0,0.000885,0,0
0:1:23.597,135.426,17.2438,0,0.000885,0,0
0:1:23.798,135.6,17.2645,0,0.000885,0,0
0:1:24.000,135.835,17.2921,0,0.000885,0,0
0:1:24.200,136.36,17.361,0,0.000885,0,0
0:1:24.396,136.654,17.4024,0,0.000885,0,0
0:1:24.599,137.241,17.4713,0,0.000885,0,0
0:1:24.797,137.361,17.492,0,0.000885,0,0
0:1:24.993,137.299,17.4851,0,0.000885,0,0
0:1:25.196,138.122,17.5885,0,0.000885,0,0
0:1:25.392,138.825,17.6782,0,0.000885,0,0
0:1:25.592,139.06,17.7057,0,0.000885,0,0
0:1:25.793,139.176,17.7195,0,0.000885,0,0
0:1:25.989,140.057,17.8298,0,0.000885,0,0
0:1:26.190,139.705,17.7885,0,0.000885,0,0
0:1:26.387,140.466,17.885,0,0.000885,0,0
0:1:26.586,140.88,17.9402,0,0.000885,0,0
0:1:26.788,141.231,17.9815,0,0.000885,0,0
0:1:26.984,142.05,18.0849,0,0.000885,0,0
0:1:27.187,142.579,18.1539,0,0.000885,0,0
0:1:27.383,142.872,18.1884,0,0.000885,0,0
0:1:27.581,143.811,18.3125,0,0.000885,0,0
0:1:27.784,143.46,18.2642,0,0.000885,0,0
0:1:27.985,143.811,18.3125,0,0.000885,0,0
0:1:28.189,144.278,18.3676,0,0.000885,0,0
0:1:28.391,144.692,18.4228,0,0.000885,0,0
0:1:28.594,144.928,18.4504,0,0.000885,0,0
0:1:28.795,145.217,18.4917,0,0.000885,0,0
0:1:28.996,145.279,18.4986,0,0.000885,0,0
0:1:29.198,146.449,18.6434,0,0.000885,0,0
0:1:29.398,146.275,18.6227,0,0.000885,0,0
0:1:29.593,146.862,18.6986,0,0.000885,0,0
0:1:29.796,147.507,18.7813,0,0.000885,0,0
0:1:29.994,147.387,18.7675,0,0.000885,0,0
0:1:30.194,147.801,18.8158,0,0.000885,0,0
0:1:30.394,148.21,18.871,0,0.000885,0,0
0:1:30.588,148.797,18.9468,0,0.000885,0,0
0:1:30.791,149.322,19.0157,0,0.000885,0,0
0:1:30.988,149.736,19.064,0,0.000885,0,0
0:1:31.187,149.442,19.0295,0,0.000885,0,0
0:1:31.388,149.794,19.0709,0,0.000885,0,0
0:1:31.583,150.906,19.2157,0,0.000885,0,0
0:1:31.785,151.32,19.264,0,0.000885,0,0
0:1:31.983,151.907,19.3398,0,0.000885,0,0
0:1:32.190,152.196,19.3812,0,0.000885,0,0
0:1:32.393,152.489,19.4156,0,0.000885,0,0
0:1:32.589,153.428,19.5328,0,0.000885,0,0
0:1:32.788,153.37,19.526,0,0.000885,0,0
0:1:32.990,154.135,19.6225,0,0.000885,0,0
0:1:33.193,154.602,19.6845,0,0.000885,0,0
0:1:33.396,154.602,19.6845,0,0.000885,0,0
0:1:33.597,153.9,19.5949,0,0.000885,0,0
0:1:33.798,155.012,19.7397,0,0.000885,0,0
0:1:34.001,155.483,19.7948,0,0.000885,0,0
0:1:34.201,155.835,19.8431,0,0.000885,0,0
0:1:34.403,156.364,19.9121,0,0.000885,0,0
0:1:34.602,156.595,19.9396,0,0.000885,0,0
0:1:34.801,156.889,19.9741,0,0.000885,0,0
0:1:35.001,157.534,20.0568,0,0.000885,0,0
0:1:35.198,157.77,20.0913,0,0.000885,0,0
0:1:35.400,157.827,20.0982,0,0.000885,0,0
0:1:35.599,158.708,20.2085,0,0.000885,0,0
0:1:35.795,159.18,20.2637,0,0.000885,0,0
0:1:35.998,159.589,20.3188,0,0.000885,0,0
0:1:36.195,159.998,20.374,0,0.000885,0,0
0:1:36.395,160.407,20.4223,0,0.000885,0,0
0:1:36.594,160.349,20.4154,0,0.000885,0,0
0:1:36.791,161.408,20.5533,0,0.000885,0,0
0:1:36.992,161.76,20.5946,0,0.000885,0,0
0:1:37.191,162.227,20.6567,0,0.000885,0,0
0:1:37.390,162.169,20.6498,0,0.000885,0,0
0:1:37.592,162.578,20.6981,0,0.000885,0,0
0:1:37.794,162.814,20.7325,0,0.000885,0,0
0:1:37.997,163.459,20.8153,0,0.000885,0,0
0:1:38.200,164.104,20.8911,0,0.000885,0,0
0:1:38.402,164.864,20.9945,0,0.000885,0,0
0:1:38.602,164.513,20.9463,0,0.000885,0,0
0:1:38.804,164.864,20.9945,0,0.000885,0,0
0:1:39.006,165.278,21.0428,0,0.000885,0,0
0:1:39.204,165.923,21.1255,0,0.000885,0,0
0:1:39.403,165.865,21.1186,0,0.000885,0,0
0:1:39.605,166.51,21.2014,0,0.000885,0,0
0:1:39.800,167.271,21.2979,0,0.000885,0,0
0:1:40.001,167.035,21.2703,0,0.000885,0,0
0:1:40.200,167.916,21.3806,0,0.000885,0,0
0:1:40.397,168.094,21.4013,0,0.000885,0,0
0:1:40.599,168.267,21.422,0,0.000885,0,0
0:1:40.795,168.912,21.5047,0,0.000885,0,0
0:1:40.995,169.557,21.5875,0,0.000885,0,0
0:1:41.195,169.442,21.5737,0,0.000885,0,0
0:1:41.391,170.144,21.6633,0,0.000885,0,0
0:1:41.593,170.616,21.7254,0,0.000885,0,0
0:1:41.792,171.141,21.7874,0,0.000885,0,0
0:1:41.989,171.612,21.8495,0,0.000885,0,0
0:1:42.191,171.786,21.8702,0,0.000885,0,0
0:1:42.386,171.906,21.8909,0,0.000885,0,0
0:1:42.586,172.315,21.9391,0,0.000885,0,0
0:1:42.788,173.196,22.0494,0,0.000885,0,0
0:1:42.991,173.254,22.0563,0,0.000885,0,0
0:1:43.194,173.663,22.1115,0,0.000885,0,0
0:1:43.397,173.605,22.1046,0,0.000885,0,0
0:1:43.598,174.192,22.1804,0,0.000885,0,0
0:1:43.800,175.367,22.3252,0,0.000885,0,0
0:1:44.000,175.189,22.3045,0,0.000885,0,0
0:1:44.203,175.66,22.3666,0,0.000885,0,0
0:1:44.401,176.305,22.4493,0,0.000885,0,0
0:1:44.599,176.012,22.408,0,0.000885,0,0
0:1:44.801,176.421,22.4631,0,0.000885,0,0
0:1:44.997,177.008,22.539,0,0.000885,0,0
0:1:45.197,177.359,22.5803,0,0.000885,0,0
0:1:45.395,177.417,22.5872,0,0.000885,0,0
0:1:45.594,177.711,22.6286,0,0.000885,0,0
0:1:45.794,178.414,22.7182,0,0.000885,0,0
0:1:45.992,178.885,22.7734,0,0.000885,0,0
0:1:46.193,179.117,22.8079,0,0.000885,0,0
0:1:46.391,179.646,22.8699,0,0.000885,0,0
0:1:46.587,179.939,22.9113,0,0.000885,0,0
0:1:46.790,180.584,22.994,0,0.000885,0,0
0:1:46.987,181.35,23.0905,0,0.000885,0,0
0:1:47.187,182.168,23.194,0,0.000885,0,0
0:1:47.388,182.284,23.2078,0,0.000885,0,0
0:1:47.592,182.519,23.2422,0,0.000885,0,0
0:1:47.794,182.933,23.2905,0,0.000885,0,0
0:1:47.996,183.049,23.3043,0,0.000885,0,0
0:1:48.199,183.222,23.3319,0,0.000885,0,0
0:1:48.402,183.752,23.3939,0,0.000885,0,0
0:1:48.605,184.69,23.518,0,0.000885,0,0
0:1:48.807,185.393,23.6076,0,0.000885,0,0
0:1:49.007,184.984,23.5525,0,0.000885,0,0
0:1:49.209,185.687,23.6421,0,0.000885,0,0
0:1:49.410,186.332,23.7249,0,0.000885,0,0
0:1:49.605,185.98,23.6766,0,0.000885,0,0
0:1:49.806,186.038,23.6904,0,0.000885,0,0
0:1:50.006,187.034,23.8145,0,0.000885,0,0
0:1:50.203,187.684,23.8972,0,0.000885,0,0
0:1:50.405,187.506,23.8765,0,0.000885,0,0
0:1:50.601,187.915,23.9248,0,0.000885,0,0
0:1:50.799,188.796,24.0351,0,0.000885,0,0
0:1:51.000,189.147,24.0834,0,0.000885,0,0
0:1:51.196,189.147,24.0834,0,0.000885,0,0
0:1:51.398,189.325,24.1041,0,0.000885,0,0
0:1:51.595,189.912,24.1799,0,0.000885,0,0
0:1:51.794,190.495,24.2558,0,0.000885,0,0
0:1:51.995,191.082,24.3316,0,0.000885,0,0
0:1:52.192,191.785,24.4212,0,0.000885,0,0
0:1:52.393,191.554,24.3868,0,0.000885,0,0
0:1:52.591,192.55,24.5178,0,0.000885,0,0
0:1:52.788,193.08,24.5867,0,0.000885,0,0
0:1:52.990,192.372,24.4971,0,0.000885,0,0
0:1:53.190,193.253,24.6074,0,0.000885,0,0
0:1:53.392,194.014,24.7039,0,0.000885,0,0
0:1:53.594,194.134,24.7177,0,0.000885,0,0
0:1:53.793,193.898,24.6901,0,0.000885,0,0
0:1:53.993,194.307,24.7384,0,0.000885,0,0
0:1:54.194,195.188,24.8556,0,0.000885,0,0
0:1:54.393,195.366,24.8763,0,0.000885,0,0
0:1:54.593,195.482,24.8901,0,0.000885,0,0
0:1:54.786,196.069,24.9659,0,0.000885,0,0
0:1:54.988,196.892,25.0693,0,0.000885,0,0
0:1:55.184,197.359,25.1314,0,0.000885,0,0
0:1:55.379,198.004,25.2072,0,0.000885,0,0
0:1:55.579,198.004,25.2072,0,0.000885,0,0
0:1:55.793,197.946,25.2003,0,0.000885,0,0
0:1:55.993,198.475,25.2693,0,0.000885,0,0
0:1:56.190,199.058,25.3451,0,0.000885,0,0
0:1:56.387,199.939,25.4554,0,0.000885,0,0
0:1:56.587,200.29,25.5037,0,0.000885,0,0
0:1:56.780,200.232,25.4968,0,0.000885,0,0
0:1:56.979,200.526,25.5313,0,0.000885,0,0
0:1:57.176,201.171,25.614,0,0.000885,0,0
0:1:57.373,201.816,25.6968,0,0.000885,0,0
0:1:57.572,201.522,25.6554,0,0.000885,0,0
0:1:57.773,202.167,25.7381,0,0.000885,0,0
0:1:57.976,202.754,25.814,0,0.000885,0,0
0:1:58.178,203.164,25.8691,0,0.000885,0,0
0:1:58.376,203.399,25.8967,0,0.000885,0,0
0:1:58.577,204.222,26.0001,0,0.000885,0,0
0:1:58.777,203.929,25.9657,0,0.000885,0,0
0:1:58.977,204.516,26.0415,0,0.000885,0,0
0:1:59.176,205.392,26.1518,0,0.000885,0,0
0:1:59.370,205.454,26.1587,0,0.000885,0,0
0:1:59.571,205.512,26.1656,0,0.000885,0,0
0:1:59.768,206.037,26.2346,0,0.000885,0,0
0:1:59.965,206.451,26.2828,0,0.000885,0,0
0:2:0.165,206.509,26.2966,0,0.000885,0,0
0:2:0.359,207.505,26.4207,0,0.000885,0,0
0:2:0.558,207.799,26.4552,0,0.000885,0,0
0:2:0.756,208.034,26.4897,0,0.000885,0,0
0:2:0.952,208.501,26.5448,0,0.000885,0,0
0:2:1.153,209.089,26.6207,0,0.000885,0,0
0:2:1.346,209.204,26.6344,0,0.000885,0,0
0:2:1.546,209.676,26.6965,0,0.000885,0,0
0:2:1.744,210.263,26.7723,0,0.000885,0,0
0:2:1.940,210.499,26.7999,0,0.000885,0,0
0:2:2.140,211.081,26.8758,0,0.000885,0,0
0:2:2.334,210.672,26.8206,0,0.000885,0,0
0:2:2.533,211.433,26.924,0,0.000885,0,0
0:2:2.734,211.669,26.9516,0,0.000885,0,0
0:2:2.936,212.549,27.0619,0,0.000885,0,0
0:2:3.137,212.492,27.055,0,0.000885,0,0
0:2:3.338,212.959,27.1171,0,0.000885,0,0
0:2:3.538,213.43,27.1722,0,0.000885,0,0
0:2:3.737,214.075,27.255,0,0.000885,0,0
0:2:3.937,214.484,27.3101,0,0.000885,0,0
0:2:4.138,214.836,27.3515,0,0.000885,0,0
0:2:4.335,215.072,27.386,0,0.000885,0,0
0:2:4.532,215.601,27.448,0,0.000885,0,0
0:2:4.732,215.894,27.4894,0,0.000885,0,0
0:2:4.927,216.184,27.5239,0,0.000885,0,0
0:2:5.127,216.419,27.5583,0,0.000885,0,0
0:2:5.324,217.064,27.6342,0,0.000885,0,0
0:2:5.519,217.242,27.6618,0,0.000885,0,0
0:2:5.721,217.945,27.7514,0,0.000885,0,0
0:2:5.914,218.123,27.7721,0,0.000885,0,0
0:2:6.114,218.768,27.8548,0,0.000885,0,0
0:2:6.313,219.062,27.8893,0,0.000885,0,0
0:2:6.508,218.999,27.8824,0,0.000885,0,0
0:2:6.709,219.764,27.9789,0,0.000885,0,0
0:2:6.901,219.764,27.9789,0,0.000885,0,0
0:2:7.100,220.761,28.1099,0,0.000885,0,0
0:2:7.301,221.054,28.1444,0,0.000885,0,0
0:2:7.494,221.348,28.1858,0,0.000885,0,0
0:2:7.695,221.642,28.2202,0,0.000885,0,0
0:2:7.896,222.402,28.3168,0,0.000885,0,0
0:2:8.100,222.518,28.3306,0,0.000885,0,0
0:2:8.300,222.811,28.3719,0,0.000885,0,0
0:2:8.500,223.341,28.434,0,0.000885,0,0
0:2:8.700,223.692,28.4822,0,0.000885,0,0
0:2:8.900,224.515,28.5857,0,0.000885,0,0
0:2:9.098,224.337,28.565,0,0.000885,0,0
0:2:9.298,224.751,28.6132,0,0.000885,0,0
0:2:9.493,225.334,28.6891,0,0.000885,0,0
0:2:9.694,225.805,28.7511,0,0.000885,0,0
0:2:9.889,226.041,28.7787,0,0.000885,0,0
0:2:10.087,226.801,28.8752,0,0.000885,0,0
0:2:10.287,226.744,28.8683,0,0.000885,0,0
0:2:10.479,227.389,28.9511,0,0.000885,0,0
0:2:10.679,227.682,28.9925,0,0.000885,0,0
0:2:10.876,228.034,29.0338,0,0.000885,0,0
0:2:11.071,228.794,29.1303,0,0.000885,0,0
0:2:11.271,228.794,29.1303,0,0.000885,0,0
0:2:11.476,228.621,29.1097,0,0.000885,0,0
0:2:11.676,229.381,29.2062,0,0.000885,0,0
0:2:11.875,229.733,29.2476,0,0.000885,0,0
0:2:12.068,229.617,29.2338,0,0.000885,0,0
0:2:12.269,230.671,29.3717,0,0.000885,0,0
0:2:12.465,230.849,29.3924,0,0.000885,0,0
0:2:12.664,231.143,29.4268,0,0.000885,0,0
0:2:12.864,231.316,29.4544,0,0.000885,0,0
0:2:13.066,232.197,29.5647,0,0.000885,0,0
0:2:13.267,232.549,29.6061,0,0.000885,0,0
0:2:13.468,232.784,29.6406,0,0.000885,0,0
0:2:13.667,233.839,29.7716,0,0.000885,0,0
0:2:13.868,234.016,29.7991,0,0.000885,0,0
0:2:14.067,233.896,29.7785,0,0.000885,0,0
0:2:14.267,234.835,29.9026,0,0.000885,0,0
0:2:14.472,234.835,29.9026,0,0.000885,0,0
0:2:14.671,235.186,29.9439,0,0.000885,0,0
0:2:14.870,235.716,30.0129,0,0.000885,0,0
0:2:15.073,236.187,30.0749,0,0.000885,0,0
0:2:15.274,236.89,30.1646,0,0.000885,0,0
0:2:15.479,237.184,30.199,0,0.000885,0,0
0:2:15.688,237.771,30.2749,0,0.000885,0,0
0:2:15.888,238.18,30.3231,0,0.000885,0,0
0:2:16.080,237.944,30.2956,0,0.000885,0,0
0:2:16.280,238.531,30.3714,0,0.000885,0,0
0:2:16.488,239.292,30.4679,0,0.000885,0,0
0:2:16.686,239.528,30.4955,0,0.000885,0,0
0:2:16.887,239.879,30.5438,0,0.000885,0,0
0:2:17.091,240.409,30.6127,0,0.000885,0,0
0:2:17.289,240.231,30.5851,0,0.000885,0,0
0:2:17.486,240.818,30.661,0,0.000885,0,0
0:2:17.680,241.463,30.7437,0,0.000885,0,0
0:2:17.880,241.876,30.7989,0,0.000885,0,0
0:2:18.082,242.286,30.8471,0,0.000885,0,0
0:2:18.286,242.228,30.8402,0,0.000885,0,0
0:2:18.486,242.753,30.9092,0,0.000885,0,0
0:2:18.687,243.282,30.9781,0,0.000885,0,0
0:2:18.888,244.043,31.0747,0,0.000885,0,0
0:2:19.086,243.691,31.0264,0,0.000885,0,0
0:2:19.288,244.399,31.116,0,0.000885,0,0
0:2:19.487,244.514,31.1298,0,0.000885,0,0
0:2:19.680,245.101,31.2057,0,0.000885,0,0
0:2:19.882,245.746,31.2884,0,0.000885,0,0
0:2:20.076,246.214,31.3505,0,0.000885,0,0
0:2:20.274,246.565,31.3918,0,0.000885,0,0
0:2:20.474,246.979,31.447,0,0.000885,0,0
0:2:20.688,246.743,31.4194,0,0.000885,0,0
0:2:20.888,247.094,31.4608,0,0.000885,0,0
0:2:21.094,247.388,31.4953,0,0.000885,0,0
0:2:21.294,248.562,31.6469,0,0.000885,0,0
0:2:21.493,248.736,31.6676,0,0.000885,0,0
0:2:21.686,249.207,31.7297,0,0.000885,0,0
0:2:21.887,249.794,31.8055,0,0.000885,0,0
0:2:22.082,249.616,31.7848,0,0.000885,0,0
0:2:22.290,250.204,31.8538,0,0.000885,0,0
0:2:22.491,250.906,31.9434,0,0.000885,0,0
0:2:22.693,250.849,31.9365,0,0.000885,0,0
0:2:22.894,251.142,31.9779,0,0.000885,0,0
0:2:23.096,252.139,32.102,0,0.000885,0,0
0:2:23.295,252.606,32.164,0,0.000885,0,0
0:2:23.496,253.193,32.2399,0,0.000885,0,0
0:2:23.696,253.429,32.2675,0,0.000885,0,0
0:2:23.897,254.016,32.3433,0,0.000885,0,0
0:2:24.094,253.958,32.3364,0,0.000885,0,0
0:2:24.290,254.425,32.3916,0,0.000885,0,0
0:2:24.491,254.719,32.4329,0,0.000885,0,0
0:2:24.694,254.954,32.4605,0,0.000885,0,0
0:2:24.894,255.484,32.5295,0,0.000885,0,0
0:2:25.092,256.422,32.6467,0,0.000885,0,0
0:2:25.287,256.066,32.6053,0,0.000885,0,0
0:2:25.488,256.653,32.6811,0,0.000885,0,0
0:2:25.681,257.005,32.7225,0,0.000885,0,0
0:2:25.877,257.241,32.7501,0,0.000885,0,0
0:2:26.077,257.712,32.8121,0,0.000885,0,0
0:2:26.272,257.77,32.819,0,0.000885,0,0
0:2:26.473,258.709,32.9363,0,0.000885,0,0
0:2:26.671,259.002,32.9776,0,0.000885,0,0
0:2:26.876,259.06,32.9845,0,0.000885,0,0
0:2:27.077,259.821,33.081,0,0.000885,0,0
0:2:27.292,259.941,33.0948,0,0.000885,0,0
0:2:27.491,260.35,33.15,0,0.000885,0,0
0:2:27.692,260.759,33.1983,0,0.000885,0,0
0:2:27.895,261.053,33.2396,0,0.000885,0,0
0:2:28.096,261.346,33.2741,0,0.000885,0,0
0:2:28.296,261.462,33.2879,0,0.000885,0,0
0:2:28.496,261.818,33.3362,0,0.000885,0,0
0:2:28.696,262.169,33.3775,0,0.000885,0,0
0:2:28.895,263.046,33.4947,0,0.000885,0,0
0:2:29.095,263.984,33.6119,0,0.000885,0,0
0:2:29.291,264.278,33.6464,0,0.000885,0,0
0:2:29.488,264.278,33.6464,0,0.000885,0,0
0:2:29.688,264.749,33.7085,0,0.000885,0,0
0:2:29.893,265.043,33.7429,0,0.000885,0,0
0:2:30.094,265.63,33.8188,0,0.000885,0,0
0:2:30.290,265.981,33.867,0,0.000885,0,0
0:2:30.487,266.039,33.8739,0,0.000885,0,0
0:2:30.687,266.626,33.9498,0,0.000885,0,0
0:2:30.891,267.093,34.0049,0,0.000885,0,0
0:2:31.089,267.796,34.0946,0,0.000885,0,0
0:2:31.287,268.326,34.1635,0,0.000885,0,0
0:2:31.481,268.619,34.2049,0,0.000885,0,0
0:2:31.682,268.971,34.2463,0,0.000885,0,0
0:2:31.878,269.736,34.3428,0,0.000885,0,0
0:2:32.076,269.736,34.3428,0,0.000885,0,0
0:2:32.274,270.318,34.4186,0,0.000885,0,0
0:2:32.468,270.612,34.4531,0,0.000885,0,0
0:2:32.670,271.084,34.5152,0,0.000885,0,0
0:2:32.869,271.377,34.5496,0,0.000885,0,0
0:2:33.072,272.138,34.6531,0,0.000885,0,0
0:2:33.273,272.022,34.6324,0,0.000885,0,0
0:2:33.474,272.609,34.7082,0,0.000885,0,0
0:2:33.676,272.783,34.7289,0,0.000885,0,0
0:2:33.874,273.018,34.7634,0,0.000885,0,0
0:2:34.075,273.428,34.8116,0,0.000885,0,0
0:2:34.277,274.131,34.9013,0,0.000885,0,0
0:2:34.471,274.193,34.9082,0,0.000885,0,0
0:2:34.670,274.544,34.9564,0,0.000885,0,0
0:2:34.869,274.896,34.9978,0,0.000885,0,0
0:2:35.074,275.131,35.0323,0,0.000885,0,0
0:2:35.274,275.131,35.0323,0,0.000885,0,0
0:2:35.477,275.834,35.1219,0,0.000885,0,0
0:2:35.687,276.359,35.1839,0,0.000885,0,0
0:2:35.887,276.831,35.246,0,0.000885,0,0
0:2:36.091,277.24,35.3012,0,0.000885,0,0
0:2:36.292,277.654,35.3494,0,0.000885,0,0
0:2:36.488,278.299,35.4322,0,0.000885,0,0
0:2:36.683,278.472,35.4528,0,0.000885,0,0
0:2:36.883,279.059,35.5287,0,0.000885,0,0
0:2:37.090,279.526,35.5907,0,0.000885,0,0
0:2:37.290,279.589,35.5976,0,0.000885,0,0
0:2:37.484,280.056,35.6597,0,0.000885,0,0
0:2:37.678,280.465,35.7079,0,0.000885,0,0
0:2:37.879,280.936,35.77,0,0.000885,0,0
0:2:38.079,281.403,35.8321,0,0.000885,0,0
0:2:38.281,281.991,35.901,0,0.000885,0,0
0:2:38.483,282.578,35.9768,0,0.000885,0,0
0:2:38.683,282.52,35.9699,0,0.000885,0,0
0:2:38.883,282.871,36.0182,0,0.000885,0,0
0:2:39.083,283.338,36.0734,0,0.000885,0,0
0:2:39.284,283.574,36.1078,0,0.000885,0,0
0:2:39.484,283.868,36.1423,0,0.000885,0,0
0:2:39.678,284.397,36.2113,0,0.000885,0,0
0:2:39.878,284.513,36.2251,0,0.000885,0,0
0:2:40.083,284.806,36.2595,0,0.000885,0,0
0:2:40.292,285.1,36.3009,0,0.000885,0,0
0:2:40.493,285.861,36.3974,0,0.000885,0,0
0:2:40.695,286.216,36.4388,0,0.000885,0,0
0:2:40.896,286.977,36.5422,0,0.000885,0,0
0:2:41.092,287.035,36.5491,0,0.000885,0,0
0:2:41.289,287.155,36.5629,0,0.000885,0,0
0:2:41.491,287.622,36.6181,0,0.000885,0,0
0:2:41.693,288.151,36.687,0,0.000885,0,0
0:2:41.894,288.383,36.7215,0,0.000885,0,0
0:2:42.091,288.97,36.7904,0,0.000885,0,0
0:2:42.286,289.793,36.9007,0,0.000885,0,0
0:2:42.489,290.086,36.9352,0,0.000885,0,0
0:2:42.689,290.26,36.9559,0,0.000885,0,0
0:2:42.890,290.496,36.9904,0,0.000885,0,0
0:2:43.092,290.731,37.018,0,0.000885,0,0
0:2:43.293,290.905,37.0386,0,0.000885,0,0
0:2:43.492,291.434,37.1076,0,0.000885,0,0
0:2:43.693,292.195,37.2041,0,0.000885,0,0
0:2:43.892,292.373,37.2248,0,0.000885,0,0
0:2:44.092,292.666,37.2662,0,0.000885,0,0
0:2:44.283,292.902,37.2937,0,0.000885,0,0
0:2:44.483,293.076,37.3144,0,0.000885,0,0
0:2:44.683,293.721,37.3972,0,0.000885,0,0
0:2:44.879,294.014,37.4385,0,0.000885,0,0
0:2:45.078,294.486,37.4937,0,0.000885,0,0
0:2:45.282,295.011,37.5626,0,0.000885,0,0
0:2:45.480,295.011,37.5626,0,0.000885,0,0
0:2:45.679,295.482,37.6247,0,0.000885,0,0
0:2:45.884,295.776,37.6592,0,0.000885,0,0
0:2:46.085,295.833,37.6661,0,0.000885,0,0
0:2:46.289,295.833,37.6661,0,0.000885,0,0
0:2:46.486,296.243,37.7212,0,0.000885,0,0
0:2:46.686,296.594,37.7626,0,0.000885,0,0
0:2:46.891,296.3,37.7281,0,0.000885,0,0
0:2:47.092,296.421,37.7419,0,0.000885,0,0
0:2:47.284,296.83,37.7902,0,0.000885,0,0
0:2:47.482,296.888,37.804,0,0.000885,0,0
0:2:47.683,297.711,37.9074,0,0.000885,0,0
0:2:47.883,298.004,37.9418,0,0.000885,0,0
0:2:48.085,298.529,38.0108,0,0.000885,0,0
0:2:48.285,298.885,38.0522,0,0.000885,0,0
0:2:48.485,299.468,38.128,0,0.000885,0,0
0:2:48.685,299.823,38.1763,0,0.000885,0,0
0:2:48.886,300.406,38.2521,0,0.000885,0,0
0:2:49.087,300.406,38.2521,0,0.000885,0,0
0:2:49.284,300.584,38.2728,0,0.000885,0,0
0:2:49.478,301.287,38.3624,0,0.000885,0,0
0:2:49.678,301.696,38.4107,0,0.000885,0,0
0:2:49.875,301.581,38.3969,0,0.000885,0,0
0:2:50.071,302.052,38.459,0,0.000885,0,0
0:2:50.271,302.283,38.4865,0,0.000885,0,0
0:2:50.464,302.226,38.4796,0,0.000885,0,0
0:2:50.664,302.519,38.521,0,0.000885,0,0
0:2:50.863,302.168,38.4727,0,0.000885,0,0
0:2:51.059,302.697,38.5417,0,0.000885,0,0
0:2:51.257,302.168,38.4727,0,0.000885,0,0
0:2:51.452,302.403,38.5003,0,0.000885,0,0
0:2:51.648,301.758,38.4176,0,0.000885,0,0
0:2:51.848,301.051,38.328,0,0.000885,0,0
0:2:52.042,298.707,38.0315,0,0.000885,0,0
0:2:52.241,296.007,37.6867,0,0.000885,0,0
0:2:52.437,284.161,36.1837,0,0.000885,0,0
0:2:52.633,272.253,34.6668,0,0.000885,0,0
0:2:52.834,228.269,29.0614,0,0.000885,0,0
0:2:52.924,228.269,29.0614,0,0.000885,0,0