File: DataFile2021-06-30_051847.csv
Test ID:,Date Tested:,Time:,Test Type:,Diameter Avg. (mm):,Cyl. Corr. Factor:,Height (mm):,Age (days):,Weight (kN):,Break Type:,Ramp Rate (MPa/s):,Load at Break (kN):,Stress at Break (MPa):
12,6/30/2021,05:18,Cylinder,150,1,300,0,3.6,3,0.24,671.26,37.98
Sample Time,Load (kN),Stress (MPa),Long. Strain,Trans. Strain,Chan1 Deflection (mm),Chan2 Deflection (mm)
0:0:15.266,8.62065,0.489528,0,0.000885,0,0
0:0:15.467,14.5457,0.820476,0,0.000885,0,0
0:0:15.666,18.2422,1.03421,0,0.000885,0,0
0:0:15.864,18.0642,1.02042,0,0.000885,0,0
0:0:16.064,17.7128,0.99974,0,0.000885,0,0
0:0:16.260,17.5972,0.992845,0,0.000885,0,0
0:0:16.459,17.3614,0.979056,0,0.000885,0,0
0:0:16.657,17.1257,0.972161,0,0.000885,0,0
0:0:16.854,16.7164,0.944582,0,0.000885,0,0
0:0:17.056,16.8321,0.951477,0,0.000885,0,0
0:0:17.251,16.9522,0.958371,0,0.000885,0,0
0:0:17.450,16.6586,0.944582,0,0.000885,0,0
0:0:17.650,16.5385,0.937687,0,0.000885,0,0
0:0:17.855,17.0678,0.965266,0,0.000885,0,0
0:0:18.056,17.4192,0.98595,0,0.000885,0,0
0:0:18.253,17.8285,1.00663,0,0.000885,0,0
0:0:18.450,18.3,1.03421,0,0.000885,0,0
0:0:18.652,18.767,1.06179,0,0.000885,0,0
0:0:18.857,19.4699,1.10316,0,0.000885,0,0
0:0:19.059,20.4084,1.15832,0,0.000885,0,0
0:0:19.257,21.0534,1.19279,0,0.000885,0,0
0:0:19.453,21.9342,1.24106,0,0.000885,0,0
0:0:19.656,22.6993,1.28242,0,0.000885,0,0
0:0:19.852,24.87,1.40653,0,0.000885,0,0
0:0:20.052,25.3949,1.43411,0,0.000885,0,0
0:0:20.253,27.3877,1.55132,0,0.000885,0,0
0:0:20.445,28.4464,1.60648,0,0.000885,0,0
0:0:20.647,30.0878,1.70301,0,0.000885,0,0
0:0:20.852,31.142,1.76506,0,0.000885,0,0
0:0:21.053,32.9035,1.86158,0,0.000885,0,0
0:0:21.257,33.3127,1.88227,0,0.000885,0,0
0:0:21.460,34.9541,1.9788,0,0.000885,0,0
0:0:21.660,35.5413,2.01327,0,0.000885,0,0
0:0:21.862,36.6,2.06843,0,0.000885,0,0
0:0:22.063,37.067,2.09601,0,0.000885,0,0
0:0:22.264,37.067,2.09601,0,0.000885,0,0
0:0:22.462,37.8277,2.13737,0,0.000885,0,0
0:0:22.664,38.8864,2.19943,0,0.000885,0,0
0:0:22.861,39.1221,2.21322,0,0.000885,0,0
0:0:23.059,39.7671,2.24769,0,0.000885,0,0
0:0:23.260,39.9984,2.26148,0,0.000885,0,0
0:0:23.458,41.582,2.35111,0,0.000885,0,0
0:0:23.658,42.1113,2.38559,0,0.000885,0,0
0:0:23.857,42.9342,2.42695,0,0.000885,0,0
0:0:24.053,43.6371,2.46832,0,0.000885,0,0
0:0:24.256,44.5756,2.52348,0,0.000885,0,0
0:0:24.455,45.7455,2.58553,0,0.000885,0,0
0:0:24.653,46.5106,2.6338,0,0.000885,0,0
0:0:24.854,48.2677,2.73032,0,0.000885,0,0
0:0:25.059,49.0327,2.77169,0,0.000885,0,0
0:0:25.260,50.087,2.83375,0,0.000885,0,0
0:0:25.459,50.7898,2.87511,0,0.000885,0,0
0:0:25.658,52.022,2.94406,0,0.000885,0,0
0:0:25.859,52.5513,2.97164,0,0.000885,0,0
0:0:26.062,53.0184,2.99922,0,0.000885,0,0
0:0:26.266,53.7256,3.04059,0,0.000885,0,0
0:0:26.468,55.0156,3.11643,0,0.000885,0,0
0:0:26.669,55.7763,3.1578,0,0.000885,0,0
0:0:26.870,56.8928,3.21985,0,0.000885,0,0
0:0:27.073,57.4176,3.24743,0,0.000885,0,0
0:0:27.275,58.8277,3.33017,0,0.000885,0,0
0:0:27.474,59.5305,3.37154,0,0.000885,0,0
0:0:27.673,60.5848,3.42669,0,0.000885,0,0
0:0:27.874,61.2876,3.46806,0,0.000885,0,0
0:0:28.069,62.8133,3.55769,0,0.000885,0,0
0:0:28.270,63.6363,3.59906,0,0.000885,0,0
0:0:28.471,64.3391,3.64043,0,0.000885,0,0
0:0:28.667,64.9262,3.67491,0,0.000885,0,0
0:0:28.870,65.3355,3.69559,0,0.000885,0,0
0:0:29.065,66.452,3.75764,0,0.000885,0,0
0:0:29.265,67.2126,3.80591,0,0.000885,0,0
0:0:29.465,68.4448,3.87485,0,0.000885,0,0
0:0:29.662,68.9163,3.90243,0,0.000885,0,0
0:0:29.865,69.499,3.93001,0,0.000885,0,0
0:0:30.061,70.2063,3.97138,0,0.000885,0,0
0:0:30.261,71.8477,4.06791,0,0.000885,0,0
0:0:30.461,72.7284,4.11617,0,0.000885,0,0
0:0:30.660,73.3111,4.15064,0,0.000885,0,0
0:0:30.861,74.0184,4.18512,0,0.000885,0,0
0:0:31.064,75.424,4.26785,0,0.000885,0,0
0:0:31.267,76.1269,4.30922,0,0.000885,0,0
0:0:31.471,77.537,4.38507,0,0.000885,0,0
0:0:31.673,78.4177,4.44022,0,0.000885,0,0
0:0:31.874,79.6454,4.50917,0,0.000885,0,0
0:0:32.075,79.7655,4.51607,0,0.000885,0,0
0:0:32.277,80.7619,4.57122,0,0.000885,0,0
0:0:32.478,81.3491,4.6057,0,0.000885,0,0
0:0:32.675,82.5812,4.67465,0,0.000885,0,0
0:0:32.876,82.8748,4.68843,0,0.000885,0,0
0:0:33.074,84.2226,4.76428,0,0.000885,0,0
0:0:33.273,84.5162,4.78496,0,0.000885,0,0
0:0:33.475,86.1576,4.87459,0,0.000885,0,0
0:0:33.670,86.9183,4.91596,0,0.000885,0,0
0:0:33.872,88.1504,4.9918,0,0.000885,0,0
0:0:34.070,88.8577,5.02628,0,0.000885,0,0
0:0:34.269,89.6761,5.07454,0,0.000885,0,0
0:0:34.470,90.4991,5.1228,0,0.000885,0,0
0:0:34.665,91.3754,5.17107,0,0.000885,0,0
0:0:34.866,92.5497,5.24002,0,0.000885,0,0
0:0:35.066,92.4919,5.23312,0,0.000885,0,0
0:0:35.264,94.0176,5.32275,0,0.000885,0,0
0:0:35.465,95.1919,5.38481,0,0.000885,0,0
0:0:35.668,95.9526,5.43307,0,0.000885,0,0
0:0:35.872,96.6554,5.46754,0,0.000885,0,0
0:0:36.074,97.4205,5.51581,0,0.000885,0,0
0:0:36.275,97.9454,5.54338,0,0.000885,0,0
0:0:36.478,98.9418,5.59854,0,0.000885,0,0
0:0:36.679,99.5868,5.63302,0,0.000885,0,0
0:0:36.882,101.17,5.72265,0,0.000885,0,0
0:0:37.083,101.7,5.75712,0,0.000885,0,0
0:0:37.280,102.874,5.81918,0,0.000885,0,0
0:0:37.482,103.341,5.84675,0,0.000885,0,0
0:0:37.678,104.573,5.9157,0,0.000885,0,0
0:0:37.878,105.16,5.95018,0,0.000885,0,0
0:0:38.079,106.86,6.0467,0,0.000885,0,0
0:0:38.275,107.625,6.08807,0,0.000885,0,0
0:0:38.477,108.737,6.15012,0,0.000885,0,0
0:0:38.674,109.208,6.1777,0,0.000885,0,0
0:0:38.873,109.911,6.21907,0,0.000885,0,0
0:0:39.074,110.734,6.26733,0,0.000885,0,0
0:0:39.270,111.085,6.28802,0,0.000885,0,0
0:0:39.473,112.491,6.36386,0,0.000885,0,0
0:0:39.670,113.194,6.40523,0,0.000885,0,0
0:0:39.869,114.075,6.45349,0,0.000885,0,0
0:0:40.069,114.898,6.50176,0,0.000885,0,0
0:0:40.267,116.245,6.5776,0,0.000885,0,0
0:0:40.470,117.068,6.62586,0,0.000885,0,0
0:0:40.672,118.007,6.68102,0,0.000885,0,0
0:0:40.875,118.652,6.71549,0,0.000885,0,0
0:0:41.078,119.528,6.76376,0,0.000885,0,0
0:0:41.280,120.351,6.81202,0,0.000885,0,0
0:0:41.483,121.757,6.88786,0,0.000885,0,0
0:0:41.683,122.464,6.92923,0,0.000885,0,0
0:0:41.886,123.576,6.99128,0,0.000885,0,0
0:0:42.087,123.87,7.01197,0,0.000885,0,0
0:0:42.283,125.217,7.08781,0,0.000885,0,0
0:0:42.486,125.511,7.1016,0,0.000885,0,0
0:0:42.684,126.507,7.15676,0,0.000885,0,0
0:0:42.882,126.979,7.18434,0,0.000885,0,0
0:0:43.083,128.033,7.24639,0,0.000885,0,0
0:0:43.279,128.62,7.28086,0,0.000885,0,0
0:0:43.481,130.026,7.35671,0,0.000885,0,0
0:0:43.678,130.849,7.40497,0,0.000885,0,0
0:0:43.876,132.139,7.48081,0,0.000885,0,0
0:0:44.078,132.842,7.51529,0,0.000885,0,0
0:0:44.274,133.9,7.57734,0,0.000885,0,0
0:0:44.476,134.777,7.6256,0,0.000885,0,0
0:0:44.676,135.07,7.64629,0,0.000885,0,0
0:0:44.873,136.48,7.72213,0,0.000885,0,0
0:0:45.075,137.592,7.78418,0,0.000885,0,0
0:0:45.270,138.237,7.82555,0,0.000885,0,0
0:0:45.471,138.945,7.86002,0,0.000885,0,0
0:0:45.672,140.528,7.94966,0,0.000885,0,0
0:0:45.875,140.76,7.96344,0,0.000885,0,0
0:0:46.078,141.76,8.0186,0,0.000885,0,0
0:0:46.280,142.343,8.05308,0,0.000885,0,0
0:0:46.482,143.575,8.12202,0,0.000885,0,0
0:0:46.683,143.927,8.14271,0,0.000885,0,0
0:0:46.885,145.337,8.22545,0,0.000885,0,0
0:0:47.087,145.746,8.24613,0,0.000885,0,0
0:0:47.285,146.8,8.30818,0,0.000885,0,0
0:0:47.485,147.387,8.34266,0,0.000885,0,0
0:0:47.687,148.74,8.4185,0,0.000885,0,0
0:0:47.882,149.442,8.45987,0,0.000885,0,0
0:0:48.084,150.732,8.52881,0,0.000885,0,0
0:0:48.280,151.2,8.55639,0,0.000885,0,0
0:0:48.480,152.667,8.63913,0,0.000885,0,0
0:0:48.682,152.903,8.65292,0,0.000885,0,0
0:0:48.877,154.251,8.72876,0,0.000885,0,0
0:0:49.080,154.896,8.76324,0,0.000885,0,0
0:0:49.277,155.719,8.8115,0,0.000885,0,0
0:0:49.475,156.831,8.87355,0,0.000885,0,0
0:0:49.677,157.596,8.91492,0,0.000885,0,0
0:0:49.873,158.824,8.99076,0,0.000885,0,0
0:0:50.074,159.469,9.02524,0,0.000885,0,0
0:0:50.273,160.527,9.08729,0,0.000885,0,0
0:0:50.471,160.937,9.10797,0,0.000885,0,0
0:0:50.672,161.991,9.17003,0,0.000885,0,0
0:0:50.874,162.636,9.2045,0,0.000885,0,0
0:0:51.078,163.81,9.26655,0,0.000885,0,0
0:0:51.280,164.513,9.30792,0,0.000885,0,0
0:0:51.483,165.63,9.36998,0,0.000885,0,0
0:0:51.684,166.159,9.40445,0,0.000885,0,0
0:0:51.885,167.449,9.4734,0,0.000885,0,0
0:0:52.087,167.916,9.50098,0,0.000885,0,0
0:0:52.288,169.206,9.57682,0,0.000885,0,0
0:0:52.485,169.971,9.61819,0,0.000885,0,0
0:0:52.687,170.674,9.65955,0,0.000885,0,0
0:0:52.883,171.67,9.71471,0,0.000885,0,0
0:0:53.083,172.315,9.74919,0,0.000885,0,0
0:0:53.284,172.96,9.79056,0,0.000885,0,0
0:0:53.479,174.659,9.88708,0,0.000885,0,0
0:0:53.681,175.304,9.92156,0,0.000885,0,0
0:0:53.878,176.243,9.97671,0,0.000885,0,0
0:0:54.078,177.302,10.0319,0,0.000885,0,0
0:0:54.279,177.827,10.0663,0,0.000885,0,0
0:0:54.475,178.592,10.1077,0,0.000885,0,0
0:0:54.675,179.352,10.1491,0,0.000885,0,0
0:0:54.874,180.7,10.2249,0,0.000885,0,0
0:0:55.072,181.759,10.287,0,0.000885,0,0
0:0:55.274,182.64,10.3352,0,0.000885,0,0
0:0:55.470,183.107,10.3628,0,0.000885,0,0
0:0:55.671,184.454,10.4387,0,0.000885,0,0
0:0:55.872,184.868,10.4593,0,0.000885,0,0
0:0:56.076,185.864,10.5145,0,0.000885,0,0
0:0:56.279,186.625,10.5628,0,0.000885,0,0
0:0:56.481,187.328,10.6041,0,0.000885,0,0
0:0:56.682,187.915,10.6317,0,0.000885,0,0
0:0:56.884,189.032,10.6938,0,0.000885,0,0
0:0:57.085,189.85,10.742,0,0.000885,0,0
0:0:57.288,191.376,10.8317,0,0.000885,0,0
0:0:57.486,191.963,10.8661,0,0.000885,0,0
0:0:57.682,192.959,10.9213,0,0.000885,0,0
0:0:57.882,193.489,10.9489,0,0.000885,0,0
0:0:58.076,195.366,11.0523,0,0.000885,0,0
0:0:58.277,196.127,11.1006,0,0.000885,0,0
0:0:58.476,196.536,11.1212,0,0.000885,0,0
0:0:58.670,197.83,11.1971,0,0.000885,0,0
0:0:58.871,198.297,11.2247,0,0.000885,0,0
0:0:59.065,199.351,11.2798,0,0.000885,0,0
0:0:59.264,199.996,11.3143,0,0.000885,0,0
0:0:59.465,201.171,11.3832,0,0.000885,0,0
0:0:59.658,201.58,11.4039,0,0.000885,0,0
0:0:59.859,202.812,11.4798,0,0.000885,0,0
0:1:0.056,203.457,11.5142,0,0.000885,0,0
0:1:0.250,204.747,11.5832,0,0.000885,0,0
0:1:0.451,205.219,11.6108,0,0.000885,0,0
0:1:0.655,206.331,11.6728,0,0.000885,0,0
0:1:0.856,206.802,11.7004,0,0.000885,0,0
0:1:1.058,208.092,11.7762,0,0.000885,0,0
0:1:1.259,208.853,11.8176,0,0.000885,0,0
0:1:1.459,210.027,11.8866,0,0.000885,0,0
0:1:1.659,211.024,11.9417,0,0.000885,0,0
0:1:1.860,211.081,11.9417,0,0.000885,0,0
0:1:2.057,212.198,12.0107,0,0.000885,0,0
0:1:2.250,212.727,12.0382,0,0.000885,0,0
0:1:2.450,213.724,12.0934,0,0.000885,0,0
0:1:2.659,214.484,12.1348,0,0.000885,0,0
0:1:2.856,215.601,12.2037,0,0.000885,0,0
0:1:3.057,216.419,12.2451,0,0.000885,0,0
0:1:3.259,217.536,12.3071,0,0.000885,0,0
0:1:3.460,218.123,12.3416,0,0.000885,0,0
0:1:3.657,219.235,12.4037,0,0.000885,0,0
0:1:3.851,219.88,12.445,0,0.000885,0,0
0:1:4.054,221.112,12.514,0,0.000885,0,0
0:1:4.256,221.993,12.5622,0,0.000885,0,0
0:1:4.457,222.58,12.5967,0,0.000885,0,0
0:1:4.655,222.932,12.6174,0,0.000885,0,0
0:1:4.859,224.279,12.6932,0,0.000885,0,0
0:1:5.060,225.04,12.7346,0,0.000885,0,0
0:1:5.256,226.566,12.8242,0,0.000885,0,0
0:1:5.454,227.095,12.8518,0,0.000885,0,0
0:1:5.655,228.385,12.9208,0,0.000885,0,0
0:1:5.856,228.794,12.9484,0,0.000885,0,0
0:1:6.057,230.32,13.0311,0,0.000885,0,0
0:1:6.258,230.907,13.0656,0,0.000885,0,0
0:1:6.460,232.549,13.1621,0,0.000885,0,0
0:1:6.658,232.958,13.1828,0,0.000885,0,0
0:1:6.859,233.487,13.2104,0,0.000885,0,0
0:1:7.060,234.897,13.2931,0,0.000885,0,0
0:1:7.256,235.364,13.3207,0,0.000885,0,0
0:1:7.454,236.245,13.3689,0,0.000885,0,0
0:1:7.651,236.832,13.4034,0,0.000885,0,0
0:1:7.857,238.238,13.4793,0,0.000885,0,0
0:1:8.058,238.647,13.5068,0,0.000885,0,0
0:1:8.255,240.231,13.5965,0,0.000885,0,0
0:1:8.449,240.587,13.6171,0,0.000885,0,0
0:1:8.649,241.814,13.6861,0,0.000885,0,0
0:1:8.844,242.286,13.7137,0,0.000885,0,0
0:1:9.043,243.166,13.7619,0,0.000885,0,0
0:1:9.241,244.105,13.8102,0,0.000885,0,0
0:1:9.445,245.333,13.886,0,0.000885,0,0
0:1:9.645,245.333,13.886,0,0.000885,0,0
0:1:9.851,246.627,13.955,0,0.000885,0,0
0:1:10.050,247.388,13.9964,0,0.000885,0,0
0:1:10.249,248.562,14.0653,0,0.000885,0,0
0:1:10.443,249.087,14.0929,0,0.000885,0,0
0:1:10.643,249.501,14.1205,0,0.000885,0,0
0:1:10.843,250.791,14.1894,0,0.000885,0,0
0:1:11.045,251.729,14.2446,0,0.000885,0,0
0:1:11.248,252.841,14.3066,0,0.000885,0,0
0:1:11.448,253.313,14.3342,0,0.000885,0,0
0:1:11.649,254.545,14.4031,0,0.000885,0,0
0:1:11.849,255.128,14.4376,0,0.000885,0,0
0:1:12.048,256.244,14.4997,0,0.000885,0,0
0:1:12.249,256.947,14.541,0,0.000885,0,0
0:1:12.443,258.295,14.6169,0,0.000885,0,0
0:1:12.642,258.94,14.6514,0,0.000885,0,0
0:1:12.840,260.234,14.7272,0,0.000885,0,0
0:1:13.044,260.879,14.7617,0,0.000885,0,0
0:1:13.245,262.343,14.8444,0,0.000885,0,0
0:1:13.442,262.694,14.8651,0,0.000885,0,0
0:1:13.648,263.869,14.934,0,0.000885,0,0
0:1:13.848,264.571,14.9685,0,0.000885,0,0
0:1:14.043,265.63,15.0306,0,0.000885,0,0
0:1:14.241,266.155,15.0581,0,0.000885,0,0
0:1:14.440,267.503,15.1409,0,0.000885,0,0
0:1:14.636,268.383,15.1892,0,0.000885,0,0
0:1:14.836,268.797,15.2098,0,0.000885,0,0
0:1:15.049,269.851,15.2719,0,0.000885,0,0
0:1:15.249,270.318,15.2995,0,0.000885,0,0
0:1:15.447,271.902,15.3891,0,0.000885,0,0
0:1:15.652,272.374,15.4098,0,0.000885,0,0
0:1:15.855,273.076,15.4512,0,0.000885,0,0
0:1:16.056,273.721,15.4925,0,0.000885,0,0
0:1:16.260,274.838,15.5546,0,0.000885,0,0
0:1:16.460,275.714,15.6028,0,0.000885,0,0
0:1:16.661,277.004,15.6787,0,0.000885,0,0
0:1:16.861,277.124,15.6787,0,0.000885,0,0
0:1:17.061,278.121,15.7407,0,0.000885,0,0
0:1:17.260,278.708,15.7683,0,0.000885,0,0
0:1:17.461,279.998,15.8442,0,0.000885,0,0
0:1:17.665,280.879,15.8924,0,0.000885,0,0
0:1:17.865,281.933,15.9545,0,0.000885,0,0
0:1:18.061,282.756,16.0027,0,0.000885,0,0
0:1:18.257,284.161,16.0786,0,0.000885,0,0
0:1:18.458,284.984,16.1268,0,0.000885,0,0
0:1:18.651,285.629,16.1613,0,0.000885,0,0
0:1:18.850,285.861,16.1751,0,0.000885,0,0
0:1:19.047,287.506,16.2716,0,0.000885,0,0
0:1:19.251,288.325,16.313,0,0.000885,0,0
0:1:19.453,289.557,16.3888,0,0.000885,0,0
0:1:19.647,290.086,16.4164,0,0.000885,0,0
0:1:19.846,291.198,16.4785,0,0.000885,0,0
0:1:20.045,291.786,16.5129,0,0.000885,0,0
0:1:20.240,292.666,16.5612,0,0.000885,0,0
0:1:20.439,293.311,16.5957,0,0.000885,0,0
0:1:20.639,293.956,16.637,0,0.000885,0,0
0:1:20.841,294.717,16.6784,0,0.000885,0,0
0:1:21.043,295.833,16.7405,0,0.000885,0,0
0:1:21.244,297.123,16.8163,0,0.000885,0,0
0:1:21.444,297.533,16.837,0,0.000885,0,0
0:1:21.644,298.471,16.8922,0,0.000885,0,0
0:1:21.844,299.116,16.9266,0,0.000885,0,0
0:1:22.044,300.526,17.0094,0,0.000885,0,0
0:1:22.259,301.171,17.0438,0,0.000885,0,0
0:1:22.460,302.577,17.1197,0,0.000885,0,0
0:1:22.657,303.106,17.1542,0,0.000885,0,0
0:1:22.863,304.805,17.2507,0,0.000885,0,0
0:1:23.064,305.157,17.2714,0,0.000885,0,0
0:1:23.258,306.216,17.3265,0,0.000885,0,0
0:1:23.458,306.74,17.361,0,0.000885,0,0
0:1:23.656,308.386,17.4506,0,0.000885,0,0
0:1:23.849,309.031,17.4851,0,0.000885,0,0
0:1:24.051,309.734,17.5265,0,0.000885,0,0
0:1:24.257,310.615,17.5747,0,0.000885,0,0
0:1:24.465,311.727,17.6368,0,0.000885,0,0
0:1:24.663,312.372,17.6782,0,0.000885,0,0
0:1:24.860,313.017,17.7126,0,0.000885,0,0
0:1:25.060,313.426,17.7333,0,0.000885,0,0
0:1:25.256,314.133,17.7747,0,0.000885,0,0
0:1:25.451,315.366,17.8436,0,0.000885,0,0
0:1:25.651,315.659,17.8643,0,0.000885,0,0
0:1:25.852,317.243,17.9539,0,0.000885,0,0
0:1:26.057,317.888,17.9884,0,0.000885,0,0
0:1:26.258,319.178,18.0643,0,0.000885,0,0
0:1:26.459,319.471,18.0781,0,0.000885,0,0
0:1:26.660,321.113,18.1746,0,0.000885,0,0
0:1:26.859,321.873,18.2159,0,0.000885,0,0
0:1:27.060,323.048,18.278,0,0.000885,0,0
0:1:27.258,323.457,18.3056,0,0.000885,0,0
0:1:27.462,324.747,18.3745,0,0.000885,0,0
0:1:27.663,325.218,18.4021,0,0.000885,0,0
0:1:27.858,326.451,18.4711,0,0.000885,0,0
0:1:28.057,326.975,18.5055,0,0.000885,0,0
0:1:28.258,327.914,18.5538,0,0.000885,0,0
0:1:28.460,328.559,18.5952,0,0.000885,0,0
0:1:28.661,329.907,18.671,0,0.000885,0,0
0:1:28.858,330.494,18.7055,0,0.000885,0,0
0:1:29.053,331.61,18.7675,0,0.000885,0,0
0:1:29.254,332.313,18.802,0,0.000885,0,0
0:1:29.460,333.31,18.8641,0,0.000885,0,0
0:1:29.659,333.723,18.8847,0,0.000885,0,0
0:1:29.853,335.245,18.9744,0,0.000885,0,0
0:1:30.050,336.125,19.0226,0,0.000885,0,0
0:1:30.251,336.535,19.0433,0,0.000885,0,0
0:1:30.446,338.003,19.1261,0,0.000885,0,0
0:1:30.645,338.763,19.1674,0,0.000885,0,0
0:1:30.846,339.995,19.2433,0,0.000885,0,0
0:1:31.049,340.231,19.2502,0,0.000885,0,0
0:1:31.249,341.993,19.3536,0,0.000885,0,0
0:1:31.450,342.695,19.395,0,0.000885,0,0
0:1:31.650,342.869,19.4018,0,0.000885,0,0
0:1:31.850,343.75,19.4501,0,0.000885,0,0
0:1:32.051,345.275,19.5397,0,0.000885,0,0
0:1:32.250,345.569,19.5535,0,0.000885,0,0
0:1:32.447,346.681,19.6156,0,0.000885,0,0
0:1:32.646,347.153,19.6432,0,0.000885,0,0
0:1:32.844,348.265,19.7052,0,0.000885,0,0
0:1:33.049,348.91,19.7466,0,0.000885,0,0
0:1:33.251,350.204,19.8155,0,0.000885,0,0
0:1:33.445,350.849,19.8569,0,0.000885,0,0
0:1:33.645,351.432,19.8845,0,0.000885,0,0
0:1:33.842,352.784,19.9603,0,0.000885,0,0
0:1:34.046,353.193,19.9879,0,0.000885,0,0
0:1:34.247,354.541,20.0637,0,0.000885,0,0
0:1:34.453,355.013,20.0913,0,0.000885,0,0
0:1:34.651,356.182,20.1534,0,0.000885,0,0
0:1:34.850,356.538,20.1741,0,0.000885,0,0
0:1:35.045,358.238,20.2706,0,0.000885,0,0
0:1:35.245,358.473,20.2844,0,0.000885,0,0
0:1:35.442,360.173,20.3809,0,0.000885,0,0
0:1:35.640,360.408,20.3947,0,0.000885,0,0
0:1:35.840,361.227,20.443,0,0.000885,0,0
0:1:36.040,362.517,20.5119,0,0.000885,0,0
0:1:36.242,363.34,20.5602,0,0.000885,0,0
0:1:36.444,364.22,20.6084,0,0.000885,0,0
0:1:36.645,365.453,20.6774,0,0.000885,0,0
0:1:36.845,366.507,20.7394,0,0.000885,0,0
0:1:37.046,367.152,20.7739,0,0.000885,0,0
0:1:37.246,367.739,20.8084,0,0.000885,0,0
0:1:37.444,368.442,20.8497,0,0.000885,0,0
0:1:37.642,369.207,20.8911,0,0.000885,0,0
0:1:37.843,370.964,20.9945,0,0.000885,0,0
0:1:38.037,371.551,21.0221,0,0.000885,0,0
0:1:38.236,371.787,21.0359,0,0.000885,0,0
0:1:38.434,372.841,21.098,0,0.000885,0,0
0:1:38.630,373.664,21.1462,0,0.000885,0,0
0:1:38.830,374.776,21.2083,0,0.000885,0,0
0:1:39.025,375.541,21.2496,0,0.000885,0,0
0:1:39.223,376.538,21.3048,0,0.000885,0,0
0:1:39.422,376.889,21.3255,0,0.000885,0,0
0:1:39.617,378.237,21.4013,0,0.000885,0,0
0:1:39.817,378.708,21.4289,0,0.000885,0,0
0:1:40.015,379.998,21.5047,0,0.000885,0,0
0:1:40.212,380.759,21.5461,0,0.000885,0,0
0:1:40.412,381.346,21.5806,0,0.000885,0,0
0:1:40.615,382.694,21.6564,0,0.000885,0,0
0:1:40.816,383.339,21.6909,0,0.000885,0,0
0:1:41.018,384.455,21.753,0,0.000885,0,0
0:1:41.217,384.922,21.7805,0,0.000885,0,0
0:1:41.418,386.097,21.8495,0,0.000885,0,0
0:1:41.619,386.977,21.8977,0,0.000885,0,0
0:1:41.820,387.565,21.9322,0,0.000885,0,0
0:1:42.017,388.09,21.9598,0,0.000885,0,0
0:1:42.214,389.557,22.0425,0,0.000885,0,0
0:1:42.415,390.202,22.0839,0,0.000885,0,0
0:1:42.608,391.844,22.1735,0,0.000885,0,0
0:1:42.808,392.431,22.208,0,0.000885,0,0
0:1:43.007,393.663,22.277,0,0.000885,0,0
0:1:43.203,394.015,22.2976,0,0.000885,0,0
0:1:43.404,395.127,22.3597,0,0.000885,0,0
0:1:43.596,395.834,22.4011,0,0.000885,0,0
0:1:43.796,396.888,22.4562,0,0.000885,0,0
0:1:43.996,397.182,22.4769,0,0.000885,0,0
0:1:44.190,397.827,22.5114,0,0.000885,0,0
0:1:44.392,399.117,22.5872,0,0.000885,0,0
0:1:44.587,399.997,22.6355,0,0.000885,0,0
0:1:44.787,401.287,22.7113,0,0.000885,0,0
0:1:44.986,402.284,22.7665,0,0.000885,0,0
0:1:45.180,403.107,22.8079,0,0.000885,0,0
0:1:45.381,403.574,22.8354,0,0.000885,0,0
0:1:45.583,405.1,22.9251,0,0.000885,0,0
0:1:45.784,405.393,22.9389,0,0.000885,0,0
0:1:45.986,406.625,23.0078,0,0.000885,0,0
0:1:46.186,406.567,23.0078,0,0.000885,0,0
0:1:46.386,407.915,23.0836,0,0.000885,0,0
0:1:46.586,408.734,23.1319,0,0.000885,0,0
0:1:46.787,409.614,23.1802,0,0.000885,0,0
0:1:46.987,410.611,23.2353,0,0.000885,0,0
0:1:47.182,411.67,23.2974,0,0.000885,0,0
0:1:47.383,412.021,23.3181,0,0.000885,0,0
0:1:47.579,412.839,23.3594,0,0.000885,0,0
0:1:47.776,414.072,23.4284,0,0.000885,0,0
0:1:47.977,414.717,23.4698,0,0.000885,0,0
0:1:48.172,416.42,23.5663,0,0.000885,0,0
0:1:48.371,416.714,23.5801,0,0.000885,0,0
0:1:48.570,417.884,23.649,0,0.000885,0,0
0:1:48.764,418.413,23.6766,0,0.000885,0,0
0:1:48.966,419.352,23.7318,0,0.000885,0,0
0:1:49.161,420.17,23.78,0,0.000885,0,0
0:1:49.359,421.051,23.8283,0,0.000885,0,0
0:1:49.560,422.167,23.8903,0,0.000885,0,0
0:1:49.752,423.337,23.9593,0,0.000885,0,0
0:1:49.953,423.982,23.9938,0,0.000885,0,0
0:1:50.160,425.041,24.0489,0,0.000885,0,0
0:1:50.355,425.686,24.0903,0,0.000885,0,0
0:1:50.556,426.273,24.1248,0,0.000885,0,0
0:1:50.760,427.621,24.2006,0,0.000885,0,0
0:1:50.960,428.382,24.242,0,0.000885,0,0
0:1:51.162,429.262,24.2902,0,0.000885,0,0
0:1:51.364,429.498,24.304,0,0.000885,0,0
0:1:51.563,430.494,24.3592,0,0.000885,0,0
0:1:51.762,431.611,24.4212,0,0.000885,0,0
0:1:51.963,432.959,24.4971,0,0.000885,0,0
0:1:52.162,433.31,24.5178,0,0.000885,0,0
0:1:52.359,434.364,24.5798,0,0.000885,0,0
0:1:52.559,434.716,24.6005,0,0.000885,0,0
0:1:52.753,436.362,24.6901,0,0.000885,0,0
0:1:52.952,436.593,24.7039,0,0.000885,0,0
0:1:53.149,437.883,24.7798,0,0.000885,0,0
0:1:53.353,438.942,24.8418,0,0.000885,0,0
0:1:53.554,439.76,24.8832,0,0.000885,0,0
0:1:53.750,440.583,24.9314,0,0.000885,0,0
0:1:53.949,441.989,25.0142,0,0.000885,0,0
0:1:54.147,442.634,25.0487,0,0.000885,0,0
0:1:54.342,443.105,25.0762,0,0.000885,0,0
0:1:54.542,444.159,25.1314,0,0.000885,0,0
0:1:54.748,444.511,25.1521,0,0.000885,0,0
0:1:54.947,446.037,25.2417,0,0.000885,0,0
0:1:55.147,446.859,25.29,0,0.000885,0,0
0:1:55.362,447.972,25.352,0,0.000885,0,0
0:1:55.562,448.501,25.3796,0,0.000885,0,0
0:1:55.762,449.204,25.421,0,0.000885,0,0
0:1:55.964,449.969,25.4623,0,0.000885,0,0
0:1:56.166,451.374,25.5451,0,0.000885,0,0
0:1:56.366,452.019,25.5795,0,0.000885,0,0
0:1:56.567,452.842,25.6278,0,0.000885,0,0
0:1:56.768,453.545,25.6623,0,0.000885,0,0
0:1:56.967,454.306,25.7105,0,0.000885,0,0
0:1:57.168,454.835,25.7381,0,0.000885,0,0
0:1:57.362,456.77,25.8484,0,0.000885,0,0
0:1:57.561,457.531,25.8898,0,0.000885,0,0
0:1:57.760,459.114,25.9794,0,0.000885,0,0
0:1:57.953,458.999,25.9726,0,0.000885,0,0
0:1:58.155,460.173,26.0415,0,0.000885,0,0
0:1:58.361,461.049,26.0898,0,0.000885,0,0
0:1:58.556,462.281,26.1587,0,0.000885,0,0
0:1:58.755,462.869,26.1932,0,0.000885,0,0
0:1:58.950,464.101,26.2621,0,0.000885,0,0
0:1:59.151,464.51,26.2828,0,0.000885,0,0
0:1:59.347,465.155,26.3242,0,0.000885,0,0
0:1:59.543,466.214,26.3793,0,0.000885,0,0
0:1:59.743,466.801,26.4138,0,0.000885,0,0
0:1:59.938,468.091,26.4897,0,0.000885,0,0
0:2:0.138,468.442,26.5103,0,0.000885,0,0
0:2:0.336,469.674,26.5793,0,0.000885,0,0
0:2:0.531,470.262,26.6138,0,0.000885,0,0
0:2:0.730,471.489,26.6827,0,0.000885,0,0
0:2:0.932,472.076,26.7172,0,0.000885,0,0
0:2:1.135,473.309,26.7861,0,0.000885,0,0
0:2:1.337,473.544,26.7999,0,0.000885,0,0
0:2:1.538,475.07,26.8827,0,0.000885,0,0
0:2:1.739,475.537,26.9102,0,0.000885,0,0
0:2:1.940,477.005,26.993,0,0.000885,0,0
0:2:2.138,477.766,27.0343,0,0.000885,0,0
0:2:2.339,478.882,27.0964,0,0.000885,0,0
0:2:2.534,479.527,27.1378,0,0.000885,0,0
0:2:2.734,480.172,27.1722,0,0.000885,0,0
0:2:2.929,480.817,27.2067,0,0.000885,0,0
0:2:3.126,481.636,27.255,0,0.000885,0,0
0:2:3.326,483.455,27.3584,0,0.000885,0,0
0:2:3.522,483.806,27.3791,0,0.000885,0,0
0:2:3.721,485.452,27.4687,0,0.000885,0,0
0:2:3.919,485.804,27.4894,0,0.000885,0,0
0:2:4.113,486.742,27.5446,0,0.000885,0,0
0:2:4.314,487.503,27.5859,0,0.000885,0,0
0:2:4.511,488.441,27.6411,0,0.000885,0,0
0:2:4.709,489.144,27.6825,0,0.000885,0,0
0:2:4.908,490.261,27.7445,0,0.000885,0,0
0:2:5.102,490.319,27.7445,0,0.000885,0,0
0:2:5.303,490.906,27.779,0,0.000885,0,0
0:2:5.503,492.431,27.8686,0,0.000885,0,0
0:2:5.705,493.134,27.9031,0,0.000885,0,0
0:2:5.907,494.598,27.9858,0,0.000885,0,0
0:2:6.108,495.363,28.0341,0,0.000885,0,0
0:2:6.309,496.711,28.1099,0,0.000885,0,0
0:2:6.509,496.946,28.1237,0,0.000885,0,0
0:2:6.710,497.591,28.1582,0,0.000885,0,0
0:2:6.911,498.236,28.1927,0,0.000885,0,0
0:2:7.106,499.642,28.2754,0,0.000885,0,0
0:2:7.305,499.936,28.2892,0,0.000885,0,0
0:2:7.506,500.816,28.3375,0,0.000885,0,0
0:2:7.700,501.226,28.365,0,0.000885,0,0
0:2:7.901,502.751,28.4478,0,0.000885,0,0
0:2:8.096,503.396,28.4891,0,0.000885,0,0
0:2:8.293,504.864,28.5719,0,0.000885,0,0
0:2:8.493,505.509,28.6063,0,0.000885,0,0
0:2:8.688,507.329,28.7098,0,0.000885,0,0
0:2:8.889,507.622,28.7236,0,0.000885,0,0
0:2:9.085,508.734,28.7856,0,0.000885,0,0
0:2:9.281,509.851,28.8546,0,0.000885,0,0
0:2:9.482,510.082,28.8615,0,0.000885,0,0
0:2:9.678,511.021,28.9166,0,0.000885,0,0
0:2:9.876,511.55,28.9511,0,0.000885,0,0
0:2:10.075,512.956,29.0269,0,0.000885,0,0
0:2:10.270,513.663,29.0683,0,0.000885,0,0
0:2:10.471,514.775,29.1303,0,0.000885,0,0
0:2:10.672,514.891,29.1372,0,0.000885,0,0
0:2:10.873,516.007,29.1993,0,0.000885,0,0
0:2:11.075,516.71,29.2407,0,0.000885,0,0
0:2:11.276,518.12,29.3165,0,0.000885,0,0
0:2:11.478,518.765,29.3579,0,0.000885,0,0
0:2:11.677,519.877,29.4199,0,0.000885,0,0
0:2:11.878,520.406,29.4475,0,0.000885,0,0
0:2:12.079,521.932,29.5371,0,0.000885,0,0
0:2:12.273,522.226,29.5509,0,0.000885,0,0
0:2:12.471,523.28,29.613,0,0.000885,0,0
0:2:12.670,524.454,29.675,0,0.000885,0,0
0:2:12.865,524.863,29.7026,0,0.000885,0,0
0:2:13.067,526.269,29.7785,0,0.000885,0,0
0:2:13.262,526.798,29.8129,0,0.000885,0,0
0:2:13.458,527.559,29.8543,0,0.000885,0,0
0:2:13.658,528.266,29.8957,0,0.000885,0,0
0:2:13.853,529.614,29.9715,0,0.000885,0,0
0:2:14.053,530.259,30.006,0,0.000885,0,0
0:2:14.261,531.433,30.0749,0,0.000885,0,0
0:2:14.467,532.31,30.1232,0,0.000885,0,0
0:2:14.668,533.368,30.1852,0,0.000885,0,0
0:2:14.862,534.187,30.2266,0,0.000885,0,0
0:2:15.063,535.246,30.2887,0,0.000885,0,0
0:2:15.269,535.77,30.3162,0,0.000885,0,0
0:2:15.466,536.829,30.3783,0,0.000885,0,0
0:2:15.665,537.826,30.4335,0,0.000885,0,0
0:2:15.867,538.528,30.4748,0,0.000885,0,0
0:2:16.068,539.058,30.5024,0,0.000885,0,0
0:2:16.270,540.228,30.5714,0,0.000885,0,0
0:2:16.471,540.583,30.592,0,0.000885,0,0
0:2:16.672,542.518,30.7024,0,0.000885,0,0
0:2:16.870,542.928,30.723,0,0.000885,0,0
0:2:17.071,542.986,30.7299,0,0.000885,0,0
0:2:17.272,543.924,30.7782,0,0.000885,0,0
0:2:17.465,544.747,30.8265,0,0.000885,0,0
0:2:17.666,545.801,30.8885,0,0.000885,0,0
0:2:17.864,546.624,30.9299,0,0.000885,0,0
0:2:18.058,547.914,31.0057,0,0.000885,0,0
0:2:18.258,548.439,31.0333,0,0.000885,0,0
0:2:18.465,549.729,31.1091,0,0.000885,0,0
0:2:18.664,550.143,31.1298,0,0.000885,0,0
0:2:18.861,551.548,31.2126,0,0.000885,0,0
0:2:19.054,552.313,31.2539,0,0.000885,0,0
0:2:19.256,553.546,31.3229,0,0.000885,0,0
0:2:19.452,554.013,31.3505,0,0.000885,0,0
0:2:19.651,555.596,31.4401,0,0.000885,0,0
0:2:19.849,556.708,31.5021,0,0.000885,0,0
0:2:20.043,557.064,31.5228,0,0.000885,0,0
0:2:20.244,558.118,31.5849,0,0.000885,0,0
0:2:20.444,558.648,31.6125,0,0.000885,0,0
0:2:20.648,560.053,31.6952,0,0.000885,0,0
0:2:20.847,560.053,31.6952,0,0.000885,0,0
0:2:21.049,561.108,31.7504,0,0.000885,0,0
0:2:21.250,561.753,31.7917,0,0.000885,0,0
0:2:21.449,562.811,31.8469,0,0.000885,0,0
0:2:21.649,563.22,31.8745,0,0.000885,0,0
0:2:21.850,564.982,31.971,0,0.000885,0,0
0:2:22.054,565.449,31.9986,0,0.000885,0,0
0:2:22.252,566.388,32.0537,0,0.000885,0,0
0:2:22.452,566.859,32.0744,0,0.000885,0,0
0:2:22.656,567.971,32.1434,0,0.000885,0,0
0:2:22.858,568.794,32.1847,0,0.000885,0,0
0:2:23.053,569.906,32.2468,0,0.000885,0,0
0:2:23.251,570.787,32.3019,0,0.000885,0,0
0:2:23.451,571.49,32.3364,0,0.000885,0,0
0:2:23.645,572.37,32.3916,0,0.000885,0,0
0:2:23.847,574.248,32.495,0,0.000885,0,0
0:2:24.044,574.893,32.5295,0,0.000885,0,0
0:2:24.241,575.244,32.5501,0,0.000885,0,0
0:2:24.440,576.005,32.5984,0,0.000885,0,0
0:2:24.635,576.77,32.6398,0,0.000885,0,0
0:2:24.836,578.06,32.7087,0,0.000885,0,0
0:2:25.031,578.763,32.7501,0,0.000885,0,0
0:2:25.228,579.528,32.7915,0,0.000885,0,0
0:2:25.429,580.288,32.8397,0,0.000885,0,0
0:2:25.629,581.756,32.9225,0,0.000885,0,0
0:2:25.831,582.575,32.9638,0,0.000885,0,0
0:2:26.034,582.984,32.9914,0,0.000885,0,0
0:2:26.235,583.629,33.0259,0,0.000885,0,0
0:2:26.436,584.803,33.0948,0,0.000885,0,0
0:2:26.637,585.626,33.1362,0,0.000885,0,0
0:2:26.838,587.032,33.2189,0,0.000885,0,0
0:2:27.038,587.268,33.2327,0,0.000885,0,0
0:2:27.232,588.264,33.2879,0,0.000885,0,0
0:2:27.431,588.793,33.3155,0,0.000885,0,0
0:2:27.629,589.612,33.3637,0,0.000885,0,0
0:2:27.827,590.848,33.4327,0,0.000885,0,0
0:2:28.028,592.081,33.5016,0,0.000885,0,0
0:2:28.224,592.726,33.543,0,0.000885,0,0
0:2:28.423,593.193,33.5706,0,0.000885,0,0
0:2:28.623,594.718,33.6533,0,0.000885,0,0
0:2:28.818,595.835,33.7154,0,0.000885,0,0
0:2:29.020,596.658,33.7636,0,0.000885,0,0
0:2:29.217,597.418,33.805,0,0.000885,0,0
0:2:29.415,598.655,33.8739,0,0.000885,0,0
0:2:29.616,599.064,33.9015,0,0.000885,0,0
0:2:29.812,600.239,33.9636,0,0.000885,0,0
0:2:30.013,600.884,34.0049,0,0.000885,0,0
0:2:30.211,601.649,34.0463,0,0.000885,0,0
0:2:30.408,602.409,34.0877,0,0.000885,0,0
0:2:30.610,603.406,34.1428,0,0.000885,0,0
0:2:30.813,603.935,34.1773,0,0.000885,0,0
0:2:31.015,605.345,34.2532,0,0.000885,0,0
0:2:31.218,606.284,34.3083,0,0.000885,0,0
0:2:31.420,607.574,34.3842,0,0.000885,0,0
0:2:31.620,608.103,34.4117,0,0.000885,0,0
0:2:31.820,608.984,34.46,0,0.000885,0,0
0:2:32.022,609.865,34.5083,0,0.000885,0,0
0:2:32.223,610.394,34.5427,0,0.000885,0,0
0:2:32.419,611.51,34.6048,0,0.000885,0,0
0:2:32.619,611.92,34.6255,0,0.000885,0,0
0:2:32.817,613.21,34.7013,0,0.000885,0,0
0:2:33.016,613.623,34.722,0,0.000885,0,0
0:2:33.218,614.798,34.7909,0,0.000885,0,0
0:2:33.412,615.087,34.8047,0,0.000885,0,0
0:2:33.613,616.323,34.8737,0,0.000885,0,0
0:2:33.811,616.911,34.9082,0,0.000885,0,0
0:2:34.009,618.143,34.9771,0,0.000885,0,0
0:2:34.211,618.73,35.0116,0,0.000885,0,0
0:2:34.406,620.02,35.0874,0,0.000885,0,0
0:2:34.605,620.785,35.1288,0,0.000885,0,0
0:2:34.805,621.839,35.1908,0,0.000885,0,0
0:2:35.002,622.836,35.246,0,0.000885,0,0
0:2:35.202,623.423,35.2805,0,0.000885,0,0
0:2:35.404,624.361,35.3287,0,0.000885,0,0
0:2:35.607,625.069,35.3701,0,0.000885,0,0
0:2:35.810,626.243,35.4391,0,0.000885,0,0
0:2:36.012,626.946,35.4804,0,0.000885,0,0
0:2:36.213,627.942,35.5356,0,0.000885,0,0
0:2:36.413,628.471,35.5632,0,0.000885,0,0
0:2:36.615,629.588,35.6252,0,0.000885,0,0
0:2:36.816,630.411,35.6735,0,0.000885,0,0
0:2:37.012,631.585,35.7424,0,0.000885,0,0
0:2:37.212,631.994,35.7631,0,0.000885,0,0
0:2:37.412,633.227,35.8321,0,0.000885,0,0
0:2:37.607,633.462,35.8458,0,0.000885,0,0
0:2:37.809,634.872,35.9286,0,0.000885,0,0
0:2:38.005,635.753,35.9768,0,0.000885,0,0
0:2:38.205,636.807,36.0389,0,0.000885,0,0
0:2:38.405,637.63,36.0803,0,0.000885,0,0
0:2:38.600,638.569,36.1354,0,0.000885,0,0
0:2:38.802,639.392,36.1837,0,0.000885,0,0
0:2:38.999,640.446,36.2388,0,0.000885,0,0
0:2:39.198,640.975,36.2733,0,0.000885,0,0
0:2:39.400,642.092,36.3354,0,0.000885,0,0
0:2:39.594,642.795,36.3767,0,0.000885,0,0
0:2:39.795,643.791,36.4319,0,0.000885,0,0
0:2:39.992,644.441,36.4664,0,0.000885,0,0
0:2:40.189,645.379,36.5215,0,0.000885,0,0
0:2:40.392,646.26,36.5698,0,0.000885,0,0
0:2:40.593,647.198,36.625,0,0.000885,0,0
0:2:40.797,648.373,36.687,0,0.000885,0,0
0:2:41.000,648.724,36.7077,0,0.000885,0,0
0:2:41.201,649.721,36.7697,0,0.000885,0,0
0:2:41.404,650.601,36.818,0,0.000885,0,0
0:2:41.605,651.833,36.887,0,0.000885,0,0
0:2:41.807,652.363,36.9145,0,0.000885,0,0
0:2:42.007,653.186,36.9628,0,0.000885,0,0
0:2:42.203,653.773,36.9973,0,0.000885,0,0
0:2:42.405,655.121,37.0731,0,0.000885,0,0
0:2:42.602,655.65,37.1007,0,0.000885,0,0
0:2:42.801,656.531,37.149,0,0.000885,0,0
0:2:43.001,657.412,37.2041,0,0.000885,0,0
0:2:43.196,658.172,37.2455,0,0.000885,0,0
0:2:43.397,658.937,37.2868,0,0.000885,0,0
0:2:43.596,659.818,37.3351,0,0.000885,0,0
0:2:43.793,660.641,37.3834,0,0.000885,0,0
0:2:43.995,661.637,37.4385,0,0.000885,0,0
0:2:44.189,662.225,37.473,0,0.000885,0,0
0:2:44.390,663.163,37.5282,0,0.000885,0,0
0:2:44.590,663.75,37.5626,0,0.000885,0,0
0:2:44.786,664.453,37.5971,0,0.000885,0,0
0:2:44.988,665.69,37.673,0,0.000885,0,0
0:2:45.185,666.099,37.6936,0,0.000885,0,0
0:2:45.383,667.273,37.7626,0,0.000885,0,0
0:2:45.586,667.86,37.7902,0,0.000885,0,0
0:2:45.788,669.093,37.866,0,0.000885,0,0
0:2:45.991,669.208,37.8729,0,0.000885,0,0
0:2:46.192,669.622,37.8936,0,0.000885,0,0
0:2:46.392,669.56,37.8867,0,0.000885,0,0
0:2:46.594,670.618,37.9487,0,0.000885,0,0
0:2:46.795,670.796,37.9625,0,0.000885,0,0
0:2:46.998,671.793,38.0177,0,0.000885,0,0
0:2:47.194,671.677,38.0108,0,0.000885,0,0
0:2:47.390,671.441,37.997,0,0.000885,0,0
0:2:47.590,671.557,38.0039,0,0.000885,0,0
0:2:47.787,671.09,37.9763,0,0.000885,0,0
0:2:47.987,670.267,37.9281,0,0.000885,0,0
0:2:48.185,668.034,37.804,0,0.000885,0,0
0:2:48.380,666.98,37.7419,0,0.000885,0,0
0:2:48.582,665.396,37.6523,0,0.000885,0,0
0:2:48.778,660.992,37.4041,0,0.000885,0,0
0:2:48.976,658.114,37.2386,0,0.000885,0,0
0:2:49.177,649.369,36.7491,0,0.000885,0,0
0:2:49.371,644.85,36.494,0,0.000885,0,0
0:2:49.571,636.75,36.032,0,0.000885,0,0
0:2:49.770,633.405,35.8458,0,0.000885,0,0
0:2:49.967,628.004,35.5356,0,0.000885,0,0
0:2:50.168,626.065,35.4253,0,0.000885,0,0
0:2:50.369,622.311,35.2184,0,0.000885,0,0
0:2:50.572,620.078,35.0874,0,0.000885,0,0
0:2:50.774,616.145,34.8668,0,0.000885,0,0
0:2:50.975,613.445,34.7151,0,0.000885,0,0
0:2:51.175,608.045,34.4117,0,0.000885,0,0
0:2:51.376,604.816,34.2256,0,0.000885,0,0
0:2:51.576,594.781,33.6602,0,0.000885,0,0
0:2:51.775,589.732,33.3706,0,0.000885,0,0
0:2:51.971,585.39,33.1293,0,0.000885,0,0
0:2:52.170,569.613,32.233,0,0.000885,0,0
0:2:52.366,561.459,31.771,0,0.000885,0,0
0:2:52.572,549.32,31.0885,0,0.000885,0,0
0:2:52.772,544.16,30.792,0,0.000885,0,0
0:2:52.966,532.666,30.1439,0,0.000885,0,0
0:2:53.166,529.499,29.9646,0,0.000885,0,0
0:2:53.372,524.512,29.6819,0,0.000885,0,0
0:2:53.567,522.341,29.5578,0,0.000885,0,0
0:2:53.767,518.996,29.3717,0,0.000885,0,0
0:2:53.970,517.061,29.2613,0,0.000885,0,0
0:2:54.169,514.072,29.089,0,0.000885,0,0
0:2:54.368,512.489,28.9993,0,0.000885,0,0
0:2:54.560,509.264,28.8201,0,0.000885,0,0
0:2:54.760,507.853,28.7373,0,0.000885,0,0
0:2:54.955,505.389,28.5995,0,0.000885,0,0
0:2:55.152,504.161,28.5305,0,0.000885,0,0
0:2:55.353,502.694,28.4478,0,0.000885,0,0
0:2:55.555,499.526,28.2685,0,0.000885,0,0
0:2:55.757,496.711,28.1099,0,0.000885,0,0
0:2:55.956,487.503,27.5859,0,0.000885,0,0
0:2:56.157,484.451,27.4136,0,0.000885,0,0
0:2:56.356,479.349,27.124,0,0.000885,0,0
0:2:56.556,476.534,26.9654,0,0.000885,0,0
0:2:56.755,472.139,26.7172,0,0.000885,0,0
0:2:56.962,470.262,26.6138,0,0.000885,0,0
0:2:56.974,470.262,26.6138,0,0.000885,0,0