File: DataFile2021-06-07_040612.csv
Test ID:,Date Tested:,Time:,Test Type:,Diameter Avg. (mm):,Cyl. Corr. Factor:,Height (mm):,Age (days):,Weight (kN):,Break Type:,Ramp Rate (MPa/s):,Load at Break (kN):,Stress at Break (MPa):
12,6/7/2021,04:06,Cylinder,100,1,200,0,3.6,3,0.25,691.63,88.06
Sample Time,Load (kN),Stress (MPa),Long. Strain,Trans. Strain,Chan1 Deflection (mm),Chan2 Deflection (mm)
0:0:23.872,5.04428,0.641212,0,0.000885,0,0
0:0:24.171,6.92143,0.882529,0,0.000885,0,0
0:0:24.467,8.79858,1.11695,0,0.000885,0,0
0:0:24.767,9.55923,1.22037,0,0.000885,0,0
0:0:25.063,9.55923,1.22037,0,0.000885,0,0
0:0:25.361,8.97206,1.14453,0,0.000885,0,0
0:0:25.659,8.91424,1.13763,0,0.000885,0,0
0:0:25.954,9.09216,1.15832,0,0.000885,0,0
0:0:26.256,9.91064,1.26174,0,0.000885,0,0
0:0:26.549,10.0307,1.27553,0,0.000885,0,0
0:0:26.851,10.907,1.38585,0,0.000885,0,0
0:0:27.147,10.9693,1.39964,0,0.000885,0,0
0:0:27.445,11.552,1.46858,0,0.000885,0,0
0:0:27.744,12.7264,1.62027,0,0.000885,0,0
0:0:28.040,12.9621,1.64785,0,0.000885,0,0
0:0:28.343,13.5493,1.72369,0,0.000885,0,0
0:0:28.637,13.9585,1.77885,0,0.000885,0,0
0:0:28.937,14.6613,1.86848,0,0.000885,0,0
0:0:29.236,15.6577,1.99258,0,0.000885,0,0
0:0:29.538,15.8935,2.02706,0,0.000885,0,0
0:0:29.843,16.365,2.08222,0,0.000885,0,0
0:0:30.146,17.1257,2.17874,0,0.000885,0,0
0:0:30.449,18.0064,2.29595,0,0.000885,0,0
0:0:30.751,18.1221,2.30974,0,0.000885,0,0
0:0:31.051,19.1185,2.43385,0,0.000885,0,0
0:0:31.348,19.6478,2.5028,0,0.000885,0,0
0:0:31.645,20.4707,2.60622,0,0.000885,0,0
0:0:31.947,20.9378,2.66827,0,0.000885,0,0
0:0:32.242,21.8185,2.77859,0,0.000885,0,0
0:0:32.544,22.4635,2.86132,0,0.000885,0,0
0:0:32.842,23.4021,2.97854,0,0.000885,0,0
0:0:33.138,24.0471,3.06127,0,0.000885,0,0
0:0:33.439,24.6343,3.13711,0,0.000885,0,0
0:0:33.734,25.1591,3.20606,0,0.000885,0,0
0:0:34.037,25.8041,3.2888,0,0.000885,0,0
0:0:34.342,25.8041,3.2888,0,0.000885,0,0
0:0:34.646,27.0986,3.44738,0,0.000885,0,0
0:0:34.948,27.3877,3.48875,0,0.000885,0,0
0:0:35.251,28.2106,3.59217,0,0.000885,0,0
0:0:35.554,28.095,3.57838,0,0.000885,0,0
0:0:35.849,29.0914,3.70248,0,0.000885,0,0
0:0:36.149,29.6785,3.77833,0,0.000885,0,0
0:0:36.446,29.9721,3.8128,0,0.000885,0,0
0:0:36.744,30.497,3.88175,0,0.000885,0,0
0:0:37.045,30.5548,3.88864,0,0.000885,0,0
0:0:37.341,31.3778,3.99206,0,0.000885,0,0
0:0:37.641,32.2007,4.10238,0,0.000885,0,0
0:0:37.938,32.9613,4.19891,0,0.000885,0,0
0:0:38.236,33.722,4.29543,0,0.000885,0,0
0:0:38.536,33.9577,4.32301,0,0.000885,0,0
0:0:38.834,34.3091,4.37128,0,0.000885,0,0
0:0:39.135,35.1321,4.4747,0,0.000885,0,0
0:0:39.439,36.0128,4.58501,0,0.000885,0,0
0:0:39.744,36.4799,4.64707,0,0.000885,0,0
0:0:40.047,36.9514,4.70222,0,0.000885,0,0
0:0:40.349,37.4763,4.77117,0,0.000885,0,0
0:0:40.653,38.2992,4.87459,0,0.000885,0,0
0:0:40.947,38.9442,4.95733,0,0.000885,0,0
0:0:41.249,39.3534,5.01249,0,0.000885,0,0
0:0:41.545,39.9406,5.08833,0,0.000885,0,0
0:0:41.844,40.4699,5.15038,0,0.000885,0,0
0:0:42.143,41.6398,5.30207,0,0.000885,0,0
0:0:42.438,41.6398,5.30207,0,0.000885,0,0
0:0:42.741,42.2848,5.38481,0,0.000885,0,0
0:0:43.036,42.9342,5.46754,0,0.000885,0,0
0:0:43.337,43.2234,5.50202,0,0.000885,0,0
0:0:43.634,43.517,5.54338,0,0.000885,0,0
0:0:43.929,44.5756,5.67439,0,0.000885,0,0
0:0:44.231,45.1005,5.74333,0,0.000885,0,0
0:0:44.535,45.8656,5.83986,0,0.000885,0,0
0:0:44.839,46.0391,5.86054,0,0.000885,0,0
0:0:45.141,46.5684,5.92949,0,0.000885,0,0
0:0:45.445,47.6227,6.06049,0,0.000885,0,0
0:0:45.747,48.152,6.12944,0,0.000885,0,0
0:0:46.042,48.6191,6.19149,0,0.000885,0,0
0:0:46.344,49.3842,6.28802,0,0.000885,0,0
0:0:46.640,50.4384,6.41902,0,0.000885,0,0
0:0:46.941,51.5549,6.56381,0,0.000885,0,0
0:0:47.237,51.9641,6.61897,0,0.000885,0,0
0:0:47.535,52.2577,6.65344,0,0.000885,0,0
0:0:47.834,52.4356,6.67413,0,0.000885,0,0
0:0:48.128,53.0806,6.75686,0,0.000885,0,0
0:0:48.431,53.2541,6.77755,0,0.000885,0,0
0:0:48.726,53.9569,6.86718,0,0.000885,0,0
0:0:49.026,54.1927,6.90165,0,0.000885,0,0
0:0:49.324,54.5441,6.94302,0,0.000885,0,0
0:0:49.627,55.4827,7.06713,0,0.000885,0,0
0:0:49.933,56.4212,7.18434,0,0.000885,0,0
0:0:50.236,56.8305,7.2395,0,0.000885,0,0
0:0:50.539,57.5377,7.32913,0,0.000885,0,0
0:0:50.841,58.3562,7.43255,0,0.000885,0,0
0:0:51.140,59.0012,7.51529,0,0.000885,0,0
0:0:51.440,59.5305,7.57734,0,0.000885,0,0
0:0:51.736,59.882,7.6256,0,0.000885,0,0
0:0:52.037,60.527,7.70834,0,0.000885,0,0
0:0:52.332,61.0563,7.77039,0,0.000885,0,0
0:0:52.633,62.1105,7.90829,0,0.000885,0,0
0:0:52.929,61.937,7.8876,0,0.000885,0,0
0:0:53.225,63.1069,8.03239,0,0.000885,0,0
0:0:53.526,63.5206,8.08755,0,0.000885,0,0
0:0:53.821,63.7519,8.11513,0,0.000885,0,0
0:0:54.124,65.0419,8.2806,0,0.000885,0,0
0:0:54.429,65.2777,8.30818,0,0.000885,0,0
0:0:54.732,66.1006,8.4185,0,0.000885,0,0
0:0:55.035,66.452,8.45987,0,0.000885,0,0
0:0:55.336,67.1548,8.5495,0,0.000885,0,0
0:0:55.639,67.6841,8.61845,0,0.000885,0,0
0:0:55.934,67.9777,8.65292,0,0.000885,0,0
0:0:56.235,68.854,8.77013,0,0.000885,0,0
0:0:56.531,68.9741,8.78392,0,0.000885,0,0
0:0:56.828,69.7348,8.88045,0,0.000885,0,0
0:0:57.129,70.3798,8.96318,0,0.000885,0,0
0:0:57.424,71.3183,9.0804,0,0.000885,0,0
0:0:57.725,71.7276,9.13555,0,0.000885,0,0
0:0:58.023,72.7863,9.26655,0,0.000885,0,0
0:0:58.321,73.022,9.29413,0,0.000885,0,0
0:0:58.620,73.4891,9.35619,0,0.000885,0,0
0:0:58.916,73.4891,9.35619,0,0.000885,0,0
0:0:59.217,73.9561,9.41824,0,0.000885,0,0
0:0:59.523,75.0726,9.55613,0,0.000885,0,0
0:0:59.826,75.602,9.62508,0,0.000885,0,0
0:1:0.129,76.0112,9.68024,0,0.000885,0,0
0:1:0.432,77.0076,9.80434,0,0.000885,0,0
0:1:0.736,77.7727,9.90087,0,0.000885,0,0
0:1:1.030,78.0618,9.94224,0,0.000885,0,0
0:1:1.333,78.9426,10.0526,0,0.000885,0,0
0:1:1.628,79.7077,10.1491,0,0.000885,0,0
0:1:1.926,80.0013,10.1836,0,0.000885,0,0
0:1:2.225,80.8776,10.3008,0,0.000885,0,0
0:1:2.521,81.3491,10.3559,0,0.000885,0,0
0:1:2.824,82.4033,10.4938,0,0.000885,0,0
0:1:3.118,82.4611,10.5007,0,0.000885,0,0
0:1:3.419,82.9905,10.5697,0,0.000885,0,0
0:1:3.716,83.5198,10.6317,0,0.000885,0,0
0:1:4.011,83.8134,10.6731,0,0.000885,0,0
0:1:4.311,84.5162,10.7627,0,0.000885,0,0
0:1:4.619,85.397,10.873,0,0.000885,0,0
0:1:4.921,85.9797,10.9489,0,0.000885,0,0
0:1:5.225,86.8026,11.0523,0,0.000885,0,0
0:1:5.528,87.6255,11.1557,0,0.000885,0,0
0:1:5.831,87.6833,11.1626,0,0.000885,0,0
0:1:6.127,88.3283,11.2453,0,0.000885,0,0
0:1:6.430,89.0312,11.335,0,0.000885,0,0
0:1:6.725,89.5605,11.4039,0,0.000885,0,0
0:1:7.023,90.0854,11.4729,0,0.000885,0,0
0:1:7.322,90.6725,11.5418,0,0.000885,0,0
0:1:7.619,91.0862,11.597,0,0.000885,0,0
0:1:7.921,91.669,11.6728,0,0.000885,0,0
0:1:8.212,92.0248,11.7142,0,0.000885,0,0
0:1:8.518,92.6075,11.79,0,0.000885,0,0
0:1:8.824,93.6662,11.9279,0,0.000885,0,0
0:1:9.128,94.0176,11.9693,0,0.000885,0,0
0:1:9.433,94.8984,12.0796,0,0.000885,0,0
0:1:9.735,95.2498,12.1279,0,0.000885,0,0
0:1:10.037,95.3654,12.1417,0,0.000885,0,0
0:1:10.340,96.0682,12.2313,0,0.000885,0,0
0:1:10.639,97.0068,12.3485,0,0.000885,0,0
0:1:10.940,97.594,12.4244,0,0.000885,0,0
0:1:11.237,98.3591,12.5209,0,0.000885,0,0
0:1:11.539,98.884,12.5898,0,0.000885,0,0
0:1:11.834,99.529,12.6726,0,0.000885,0,0
0:1:12.136,99.8804,12.7139,0,0.000885,0,0
0:1:12.432,100.525,12.7967,0,0.000885,0,0
0:1:12.731,100.939,12.8518,0,0.000885,0,0
0:1:13.031,101.7,12.9484,0,0.000885,0,0
0:1:13.325,102.638,13.0656,0,0.000885,0,0
0:1:13.628,102.874,13.1,0,0.000885,0,0
0:1:13.924,103.283,13.1483,0,0.000885,0,0
0:1:14.228,103.813,13.2172,0,0.000885,0,0
0:1:14.533,105.103,13.3827,0,0.000885,0,0
0:1:14.838,105.218,13.3965,0,0.000885,0,0
0:1:15.139,105.748,13.4655,0,0.000885,0,0
0:1:15.441,105.921,13.4861,0,0.000885,0,0
0:1:15.743,107.095,13.6378,0,0.000885,0,0
0:1:16.041,108.27,13.7826,0,0.000885,0,0
0:1:16.339,108.505,13.8171,0,0.000885,0,0
0:1:16.638,109.324,13.9205,0,0.000885,0,0
0:1:16.934,109.324,13.9205,0,0.000885,0,0
0:1:17.235,109.969,14.0033,0,0.000885,0,0
0:1:17.531,110.792,14.1067,0,0.000885,0,0
0:1:17.831,111.028,14.1343,0,0.000885,0,0
0:1:18.128,111.553,14.2032,0,0.000885,0,0
0:1:18.426,111.962,14.2584,0,0.000885,0,0
0:1:18.727,113.194,14.41,0,0.000885,0,0
0:1:19.023,113.487,14.4514,0,0.000885,0,0
0:1:19.324,114.075,14.5273,0,0.000885,0,0
0:1:19.629,114.426,14.5686,0,0.000885,0,0
0:1:19.933,115.485,14.7065,0,0.000885,0,0
0:1:20.237,116.188,14.7961,0,0.000885,0,0
0:1:20.538,116.303,14.8099,0,0.000885,0,0
0:1:20.842,116.89,14.8858,0,0.000885,0,0
0:1:21.136,117.535,14.9685,0,0.000885,0,0
0:1:21.438,118.238,15.0581,0,0.000885,0,0
0:1:21.736,119.119,15.1685,0,0.000885,0,0
0:1:22.032,119.59,15.2236,0,0.000885,0,0
0:1:22.334,120.235,15.3064,0,0.000885,0,0
0:1:22.629,120.938,15.396,0,0.000885,0,0
0:1:22.932,121.232,15.4374,0,0.000885,0,0
0:1:23.227,121.699,15.4925,0,0.000885,0,0
0:1:23.526,122.108,15.5477,0,0.000885,0,0
0:1:23.826,122.637,15.6166,0,0.000885,0,0
0:1:24.121,122.989,15.658,0,0.000885,0,0
0:1:24.424,124.279,15.8235,0,0.000885,0,0
0:1:24.729,124.924,15.9062,0,0.000885,0,0
0:1:25.032,124.924,15.9062,0,0.000885,0,0
0:1:25.336,125.689,16.0027,0,0.000885,0,0
0:1:25.638,126.628,16.1199,0,0.000885,0,0
0:1:25.942,127.33,16.2096,0,0.000885,0,0
0:1:26.236,127.624,16.2509,0,0.000885,0,0
0:1:26.538,128.505,16.3613,0,0.000885,0,0
0:1:26.836,128.972,16.4233,0,0.000885,0,0
0:1:27.135,129.617,16.506,0,0.000885,0,0
0:1:27.436,130.382,16.6026,0,0.000885,0,0
0:1:27.731,130.849,16.6577,0,0.000885,0,0
0:1:28.034,131.027,16.6853,0,0.000885,0,0
0:1:28.329,132.081,16.8163,0,0.000885,0,0
0:1:28.627,132.548,16.8784,0,0.000885,0,0
0:1:28.928,132.842,16.9128,0,0.000885,0,0
0:1:29.231,133.255,16.968,0,0.000885,0,0
0:1:29.537,133.843,17.0438,0,0.000885,0,0
0:1:29.839,134.661,17.1473,0,0.000885,0,0
0:1:30.143,135.364,17.2369,0,0.000885,0,0
0:1:30.445,135.778,17.2852,0,0.000885,0,0
0:1:30.742,136.48,17.3748,0,0.000885,0,0
0:1:31.044,137.01,17.4437,0,0.000885,0,0
0:1:31.341,137.712,17.5334,0,0.000885,0,0
0:1:31.641,138.122,17.5885,0,0.000885,0,0
0:1:31.939,139.118,17.7126,0,0.000885,0,0
0:1:32.238,139.763,17.7954,0,0.000885,0,0
0:1:32.537,139.883,17.8092,0,0.000885,0,0
0:1:32.833,140.995,17.9539,0,0.000885,0,0
0:1:33.135,141.467,18.0091,0,0.000885,0,0
0:1:33.433,141.934,18.0712,0,0.000885,0,0
0:1:33.729,142.285,18.1194,0,0.000885,0,0
0:1:34.029,143.166,18.2297,0,0.000885,0,0
0:1:34.334,143.753,18.3056,0,0.000885,0,0
0:1:34.639,143.811,18.3125,0,0.000885,0,0
0:1:34.941,144.928,18.4504,0,0.000885,0,0
0:1:35.245,145.746,18.5538,0,0.000885,0,0
0:1:35.548,145.982,18.5883,0,0.000885,0,0
0:1:35.844,146.511,18.6572,0,0.000885,0,0
0:1:36.147,146.685,18.6779,0,0.000885,0,0
0:1:36.445,147.801,18.8158,0,0.000885,0,0
0:1:36.745,148.326,18.8847,0,0.000885,0,0
0:1:37.043,148.971,18.9675,0,0.000885,0,0
0:1:37.341,149.385,19.0226,0,0.000885,0,0
0:1:37.643,150.145,19.1192,0,0.000885,0,0
0:1:37.938,150.497,19.1605,0,0.000885,0,0
0:1:38.237,151.084,19.2364,0,0.000885,0,0
0:1:38.536,151.787,19.326,0,0.000885,0,0
0:1:38.834,152.489,19.4156,0,0.000885,0,0
0:1:39.134,153.255,19.5122,0,0.000885,0,0
0:1:39.439,154.015,19.6087,0,0.000885,0,0
0:1:39.744,154.66,19.6914,0,0.000885,0,0
0:1:40.047,155.19,19.7604,0,0.000885,0,0
0:1:40.348,155.19,19.7604,0,0.000885,0,0
0:1:40.652,155.892,19.85,0,0.000885,0,0
0:1:40.949,156.595,19.9396,0,0.000885,0,0
0:1:41.249,156.947,19.981,0,0.000885,0,0
0:1:41.546,157.712,20.0775,0,0.000885,0,0
0:1:41.844,157.885,20.1051,0,0.000885,0,0
0:1:42.146,159.002,20.243,0,0.000885,0,0
0:1:42.440,159.411,20.2982,0,0.000885,0,0
0:1:42.744,160.056,20.3809,0,0.000885,0,0
0:1:43.039,160.114,20.3878,0,0.000885,0,0
0:1:43.339,161.466,20.5602,0,0.000885,0,0
0:1:43.638,161.697,20.5877,0,0.000885,0,0
0:1:43.935,162.636,20.705,0,0.000885,0,0
0:1:44.237,163.05,20.7601,0,0.000885,0,0
0:1:44.542,163.343,20.7946,0,0.000885,0,0
0:1:44.846,164.397,20.9325,0,0.000885,0,0
0:1:45.149,164.864,20.9945,0,0.000885,0,0
0:1:45.450,165.514,21.0704,0,0.000885,0,0
0:1:45.753,165.687,21.098,0,0.000885,0,0
0:1:46.050,166.626,21.2152,0,0.000885,0,0
0:1:46.349,167.097,21.2772,0,0.000885,0,0
0:1:46.648,167.916,21.3806,0,0.000885,0,0
0:1:46.945,168.209,21.4151,0,0.000885,0,0
0:1:47.246,168.797,21.491,0,0.000885,0,0
0:1:47.543,169.677,21.6013,0,0.000885,0,0
0:1:47.844,170.029,21.6495,0,0.000885,0,0
0:1:48.142,170.789,21.7461,0,0.000885,0,0
0:1:48.440,171.434,21.8288,0,0.000885,0,0
0:1:48.740,171.728,21.8633,0,0.000885,0,0
0:1:49.035,172.2,21.9253,0,0.000885,0,0
0:1:49.339,173.138,22.0425,0,0.000885,0,0
0:1:49.645,173.899,22.1391,0,0.000885,0,0
0:1:49.948,174.544,22.2218,0,0.000885,0,0
0:1:50.249,175.011,22.2839,0,0.000885,0,0
0:1:50.554,175.834,22.3873,0,0.000885,0,0
0:1:50.857,176.127,22.4286,0,0.000885,0,0
0:1:51.153,176.772,22.5045,0,0.000885,0,0
0:1:51.454,177.595,22.6148,0,0.000885,0,0
0:1:51.754,177.947,22.6562,0,0.000885,0,0
0:1:52.047,178.534,22.732,0,0.000885,0,0
0:1:52.350,179.294,22.8285,0,0.000885,0,0
0:1:52.645,179.53,22.8561,0,0.000885,0,0
0:1:52.946,180.055,22.9251,0,0.000885,0,0
0:1:53.245,180.469,22.9802,0,0.000885,0,0
0:1:53.543,181.287,23.0836,0,0.000885,0,0
0:1:53.844,181.995,23.1733,0,0.000885,0,0
0:1:54.137,182.284,23.2078,0,0.000885,0,0
0:1:54.440,183.164,23.3181,0,0.000885,0,0
0:1:54.745,183.867,23.4077,0,0.000885,0,0
0:1:55.049,184.397,23.4766,0,0.000885,0,0
0:1:55.353,184.984,23.5525,0,0.000885,0,0
0:1:55.656,185.744,23.649,0,0.000885,0,0
0:1:55.960,186.038,23.6904,0,0.000885,0,0
0:1:56.257,186.274,23.718,0,0.000885,0,0
0:1:56.556,187.097,23.8214,0,0.000885,0,0
0:1:56.856,187.857,23.9179,0,0.000885,0,0
0:1:57.150,188.267,23.9731,0,0.000885,0,0
0:1:57.453,188.68,24.0213,0,0.000885,0,0
0:1:57.748,189.441,24.1179,0,0.000885,0,0
0:1:58.048,189.677,24.1523,0,0.000885,0,0
0:1:58.345,190.202,24.2144,0,0.000885,0,0
0:1:58.645,191.024,24.3247,0,0.000885,0,0
0:1:58.945,191.963,24.4419,0,0.000885,0,0
0:1:59.250,192.492,24.5109,0,0.000885,0,0
0:1:59.554,193.195,24.6005,0,0.000885,0,0
0:1:59.856,193.724,24.6625,0,0.000885,0,0
0:2:0.156,194.307,24.7384,0,0.000885,0,0
0:2:0.457,194.894,24.8142,0,0.000885,0,0
0:2:0.750,195.308,24.8694,0,0.000885,0,0
0:2:1.053,195.891,24.9452,0,0.000885,0,0
0:2:1.344,196.536,25.0211,0,0.000885,0,0
0:2:1.643,197.181,25.1038,0,0.000885,0,0
0:2:1.939,197.83,25.1865,0,0.000885,0,0
0:2:2.234,198.004,25.2072,0,0.000885,0,0
0:2:2.533,198.413,25.2624,0,0.000885,0,0
0:2:2.827,199.765,25.4348,0,0.000885,0,0
0:2:3.128,200.29,25.5037,0,0.000885,0,0
0:2:3.430,200.526,25.5313,0,0.000885,0,0
0:2:3.727,201.349,25.6347,0,0.000885,0,0
0:2:4.024,201.7,25.683,0,0.000885,0,0
0:2:4.327,202.754,25.814,0,0.000885,0,0
0:2:4.629,203.164,25.8691,0,0.000885,0,0
0:2:4.931,203.809,25.9519,0,0.000885,0,0
0:2:5.232,204.454,26.0346,0,0.000885,0,0
0:2:5.534,204.983,26.0967,0,0.000885,0,0
0:2:5.829,205.512,26.1656,0,0.000885,0,0
0:2:6.126,205.686,26.1863,0,0.000885,0,0
0:2:6.430,206.451,26.2828,0,0.000885,0,0
0:2:6.731,207.447,26.4138,0,0.000885,0,0
0:2:7.024,208.15,26.5034,0,0.000885,0,0
0:2:7.323,208.208,26.5103,0,0.000885,0,0
0:2:7.616,208.444,26.5379,0,0.000885,0,0
0:2:7.912,209.44,26.6689,0,0.000885,0,0
0:2:8.209,209.618,26.6896,0,0.000885,0,0
0:2:8.505,210.436,26.793,0,0.000885,0,0
0:2:8.804,211.553,26.9378,0,0.000885,0,0
0:2:9.117,212.02,26.993,0,0.000885,0,0
0:2:9.419,212.256,27.0274,0,0.000885,0,0
0:2:9.723,213.016,27.124,0,0.000885,0,0
0:2:10.025,213.372,27.1653,0,0.000885,0,0
0:2:10.326,214.017,27.2481,0,0.000885,0,0
0:2:10.627,214.662,27.3308,0,0.000885,0,0
0:2:10.925,215.187,27.3998,0,0.000885,0,0
0:2:11.230,216.126,27.517,0,0.000885,0,0
0:2:11.527,216.477,27.5652,0,0.000885,0,0
0:2:11.825,217.416,27.6825,0,0.000885,0,0
0:2:12.116,217.594,27.7031,0,0.000885,0,0
0:2:12.416,218.239,27.7859,0,0.000885,0,0
0:2:12.710,219.119,27.8962,0,0.000885,0,0
0:2:13.007,219.764,27.9789,0,0.000885,0,0
0:2:13.304,220.352,28.0548,0,0.000885,0,0
0:2:13.600,220.467,28.0686,0,0.000885,0,0
0:2:13.900,220.876,28.1237,0,0.000885,0,0
0:2:14.193,221.464,28.1996,0,0.000885,0,0
0:2:14.493,221.873,28.2478,0,0.000885,0,0
0:2:14.796,222.754,28.365,0,0.000885,0,0
0:2:15.098,223.283,28.4271,0,0.000885,0,0
0:2:15.399,224.164,28.5443,0,0.000885,0,0
0:2:15.699,224.689,28.6063,0,0.000885,0,0
0:2:16.001,225.569,28.7236,0,0.000885,0,0
0:2:16.313,226.45,28.8339,0,0.000885,0,0
0:2:16.610,226.508,28.8408,0,0.000885,0,0
0:2:16.908,227.211,28.9304,0,0.000885,0,0
0:2:17.212,227.562,28.9718,0,0.000885,0,0
0:2:17.512,228.269,29.0614,0,0.000885,0,0
0:2:17.807,228.914,29.1441,0,0.000885,0,0
0:2:18.107,229.969,29.282,0,0.000885,0,0
0:2:18.402,230.849,29.3924,0,0.000885,0,0
0:2:18.698,230.671,29.3717,0,0.000885,0,0
0:2:18.996,231.143,29.4268,0,0.000885,0,0
0:2:19.298,231.961,29.5371,0,0.000885,0,0
0:2:19.602,232.549,29.6061,0,0.000885,0,0
0:2:19.902,233.136,29.6819,0,0.000885,0,0
0:2:20.203,233.487,29.7302,0,0.000885,0,0
0:2:20.505,234.074,29.806,0,0.000885,0,0
0:2:20.808,234.835,29.9026,0,0.000885,0,0
0:2:21.108,235.186,29.9439,0,0.000885,0,0
0:2:21.399,235.774,30.0198,0,0.000885,0,0
0:2:21.708,236.245,30.0818,0,0.000885,0,0
0:2:22.013,237.006,30.1784,0,0.000885,0,0
0:2:22.309,237.709,30.268,0,0.000885,0,0
0:2:22.607,238.18,30.3231,0,0.000885,0,0
0:2:22.901,238.709,30.3921,0,0.000885,0,0
0:2:23.201,239.412,30.4817,0,0.000885,0,0
0:2:23.496,240.115,30.5714,0,0.000885,0,0
0:2:23.793,240.818,30.661,0,0.000885,0,0
0:2:24.088,241.289,30.723,0,0.000885,0,0
0:2:24.390,241.934,30.8058,0,0.000885,0,0
0:2:24.693,242.108,30.8265,0,0.000885,0,0
0:2:24.994,242.989,30.9368,0,0.000885,0,0
0:2:25.295,243.398,30.9919,0,0.000885,0,0
0:2:25.596,243.869,31.0471,0,0.000885,0,0
0:2:25.893,244.75,31.1643,0,0.000885,0,0
0:2:26.189,244.981,31.1919,0,0.000885,0,0
0:2:26.484,245.569,31.2677,0,0.000885,0,0
0:2:26.783,246.214,31.3505,0,0.000885,0,0
0:2:27.076,246.859,31.4332,0,0.000885,0,0
0:2:27.376,247.624,31.5297,0,0.000885,0,0
0:2:27.673,248.269,31.6125,0,0.000885,0,0
0:2:27.967,248.793,31.6745,0,0.000885,0,0
0:2:28.266,249.732,31.7986,0,0.000885,0,0
0:2:28.559,249.91,31.8193,0,0.000885,0,0
0:2:28.858,250.319,31.8745,0,0.000885,0,0
0:2:29.150,250.791,31.9296,0,0.000885,0,0
0:2:29.452,251.258,31.9917,0,0.000885,0,0
0:2:29.756,251.845,32.0675,0,0.000885,0,0
0:2:30.057,252.316,32.1227,0,0.000885,0,0
0:2:30.359,252.841,32.1916,0,0.000885,0,0
0:2:30.658,252.784,32.1847,0,0.000885,0,0
0:2:30.959,253.9,32.3295,0,0.000885,0,0
0:2:31.253,254.425,32.3916,0,0.000885,0,0
0:2:31.549,254.425,32.3916,0,0.000885,0,0
0:2:31.847,255.012,32.4674,0,0.000885,0,0
0:2:32.141,255.599,32.5433,0,0.000885,0,0
0:2:32.441,256.302,32.6329,0,0.000885,0,0
0:2:32.735,257.476,32.7846,0,0.000885,0,0
0:2:33.033,258.531,32.9156,0,0.000885,0,0
0:2:33.327,258.651,32.9294,0,0.000885,0,0
0:2:33.625,259.118,32.9914,0,0.000885,0,0
0:2:33.921,260.523,33.1707,0,0.000885,0,0
0:2:34.221,260.234,33.1362,0,0.000885,0,0
0:2:34.526,261.462,33.2879,0,0.000885,0,0
0:2:34.828,262.049,33.3637,0,0.000885,0,0
0:2:35.128,262.107,33.3706,0,0.000885,0,0
0:2:35.430,262.988,33.4878,0,0.000885,0,0
0:2:35.725,263.691,33.5775,0,0.000885,0,0
0:2:36.022,264.336,33.6533,0,0.000885,0,0
0:2:36.326,265.043,33.7429,0,0.000885,0,0
0:2:36.626,265.101,33.7567,0,0.000885,0,0
0:2:36.919,266.213,33.8946,0,0.000885,0,0
0:2:37.216,266.92,33.9843,0,0.000885,0,0
0:2:37.513,267.036,33.998,0,0.000885,0,0
0:2:37.818,267.738,34.0877,0,0.000885,0,0
0:2:38.116,267.796,34.0946,0,0.000885,0,0
0:2:38.420,268.561,34.1911,0,0.000885,0,0
0:2:38.717,269.206,34.2738,0,0.000885,0,0
0:2:39.014,269.794,34.3497,0,0.000885,0,0
0:2:39.317,270.439,34.4324,0,0.000885,0,0
0:2:39.619,271.026,34.5083,0,0.000885,0,0
0:2:39.920,271.319,34.5427,0,0.000885,0,0
0:2:40.218,272.022,34.6324,0,0.000885,0,0
0:2:40.519,272.431,34.6875,0,0.000885,0,0
0:2:40.826,273.018,34.7634,0,0.000885,0,0
0:2:41.126,273.957,34.8806,0,0.000885,0,0
0:2:41.418,274.424,34.9426,0,0.000885,0,0
0:2:41.717,275.421,35.0667,0,0.000885,0,0
0:2:42.009,275.598,35.0874,0,0.000885,0,0
0:2:42.309,275.95,35.1357,0,0.000885,0,0
0:2:42.614,276.359,35.1839,0,0.000885,0,0
0:2:42.918,276.653,35.2253,0,0.000885,0,0
0:2:43.217,277.476,35.3287,0,0.000885,0,0
0:2:43.533,278.472,35.4528,0,0.000885,0,0
0:2:43.832,279.882,35.6321,0,0.000885,0,0
0:2:44.126,280.527,35.7148,0,0.000885,0,0
0:2:44.427,280.936,35.77,0,0.000885,0,0
0:2:44.730,281.346,35.8252,0,0.000885,0,0
0:2:45.033,283.165,36.0527,0,0.000885,0,0
0:2:45.333,284.571,36.2319,0,0.000885,0,0
0:2:45.635,284.922,36.2802,0,0.000885,0,0
0:2:45.933,286.038,36.4181,0,0.000885,0,0
0:2:46.228,286.861,36.5215,0,0.000885,0,0
0:2:46.522,287.916,36.6594,0,0.000885,0,0
0:2:46.820,288.618,36.7491,0,0.000885,0,0
0:2:47.114,289.263,36.8318,0,0.000885,0,0
0:2:47.414,290.202,36.949,0,0.000885,0,0
0:2:47.708,290.905,37.0386,0,0.000885,0,0
0:2:48.013,291.198,37.08,0,0.000885,0,0
0:2:48.309,291.612,37.1283,0,0.000885,0,0
0:2:48.605,292.137,37.1972,0,0.000885,0,0
0:2:48.905,292.782,37.28,0,0.000885,0,0
0:2:49.209,292.431,37.2317,0,0.000885,0,0
0:2:49.510,292.96,37.3006,0,0.000885,0,0
0:2:49.809,293.018,37.3075,0,0.000885,0,0
0:2:50.110,293.778,37.4041,0,0.000885,0,0
0:2:50.410,293.427,37.3627,0,0.000885,0,0
0:2:50.704,293.898,37.4178,0,0.000885,0,0
0:2:51.004,294.486,37.4937,0,0.000885,0,0
0:2:51.317,295.073,37.5695,0,0.000885,0,0
0:2:51.622,295.188,37.5833,0,0.000885,0,0
0:2:51.920,295.891,37.673,0,0.000885,0,0
0:2:52.215,296.714,37.7764,0,0.000885,0,0
0:2:52.514,297.066,37.8246,0,0.000885,0,0
0:2:52.807,297.59,37.8936,0,0.000885,0,0
0:2:53.115,298.004,37.9418,0,0.000885,0,0
0:2:53.420,299.116,38.0866,0,0.000885,0,0
0:2:53.714,299.703,38.1625,0,0.000885,0,0
0:2:54.014,300.055,38.2039,0,0.000885,0,0
0:2:54.315,300.233,38.2245,0,0.000885,0,0
0:2:54.617,301.229,38.3555,0,0.000885,0,0
0:2:54.916,301.581,38.3969,0,0.000885,0,0
0:2:55.217,301.99,38.4521,0,0.000885,0,0
0:2:55.517,302.577,38.5279,0,0.000885,0,0
0:2:55.831,303.458,38.6382,0,0.000885,0,0
0:2:56.132,304.103,38.721,0,0.000885,0,0
0:2:56.434,305.277,38.8657,0,0.000885,0,0
0:2:56.731,305.45,38.8933,0,0.000885,0,0
0:2:57.026,305.628,38.914,0,0.000885,0,0
0:2:57.321,306.74,39.0588,0,0.000885,0,0
0:2:57.618,307.27,39.1209,0,0.000885,0,0
0:2:57.921,307.799,39.1898,0,0.000885,0,0
0:2:58.220,308.151,39.2381,0,0.000885,0,0
0:2:58.537,309.498,39.4035,0,0.000885,0,0
0:2:58.833,309.734,39.438,0,0.000885,0,0
0:2:59.129,310.259,39.507,0,0.000885,0,0
0:2:59.431,310.788,39.569,0,0.000885,0,0
0:2:59.733,311.14,39.6173,0,0.000885,0,0
0:3:0.035,311.905,39.7138,0,0.000885,0,0
0:3:0.335,312.608,39.8034,0,0.000885,0,0
0:3:0.637,312.959,39.8448,0,0.000885,0,0
0:3:0.931,313.368,39.9,0,0.000885,0,0
0:3:1.229,313.72,39.9413,0,0.000885,0,0
0:3:1.522,315.245,40.1413,0,0.000885,0,0
0:3:1.821,315.717,40.1964,0,0.000885,0,0
0:3:2.134,315.833,40.2102,0,0.000885,0,0
0:3:2.433,316.304,40.2723,0,0.000885,0,0
0:3:2.729,316.829,40.3412,0,0.000885,0,0
0:3:3.021,317.532,40.4309,0,0.000885,0,0
0:3:3.320,318.297,40.5274,0,0.000885,0,0
0:3:3.614,318.884,40.6032,0,0.000885,0,0
0:3:3.912,319.115,40.6308,0,0.000885,0,0
0:3:4.217,319.703,40.7066,0,0.000885,0,0
0:3:4.516,320.819,40.8445,0,0.000885,0,0
0:3:4.821,321.286,40.9066,0,0.000885,0,0
0:3:5.121,321.873,40.9824,0,0.000885,0,0
0:3:5.422,322.225,41.0238,0,0.000885,0,0
0:3:5.723,323.341,41.1686,0,0.000885,0,0
0:3:6.021,323.866,41.2375,0,0.000885,0,0
0:3:6.317,324.222,41.2789,0,0.000885,0,0
0:3:6.632,324.395,41.3065,0,0.000885,0,0
0:3:6.933,324.983,41.3754,0,0.000885,0,0
0:3:7.224,325.685,41.4651,0,0.000885,0,0
0:3:7.522,326.33,41.5478,0,0.000885,0,0
0:3:7.820,326.86,41.6168,0,0.000885,0,0
0:3:8.114,327.505,41.6995,0,0.000885,0,0
0:3:8.411,328.034,41.7684,0,0.000885,0,0
0:3:8.705,328.559,41.8305,0,0.000885,0,0
0:3:9.005,329.324,41.9339,0,0.000885,0,0
0:3:9.308,329.675,41.9753,0,0.000885,0,0
0:3:9.609,330.2,42.0442,0,0.000885,0,0
0:3:9.911,330.908,42.1339,0,0.000885,0,0
0:3:10.210,331.846,42.2511,0,0.000885,0,0
0:3:10.511,332.313,42.3131,0,0.000885,0,0
0:3:10.805,333.252,42.4303,0,0.000885,0,0
0:3:11.114,333.661,42.4855,0,0.000885,0,0
0:3:11.408,334.426,42.582,0,0.000885,0,0
0:3:11.704,335.071,42.6648,0,0.000885,0,0
0:3:12.001,335.307,42.6923,0,0.000885,0,0
0:3:12.295,335.952,42.7751,0,0.000885,0,0
0:3:12.595,336.535,42.8509,0,0.000885,0,0
0:3:12.887,337.064,42.913,0,0.000885,0,0
0:3:13.188,337.767,43.0026,0,0.000885,0,0
0:3:13.485,338.532,43.106,0,0.000885,0,0
0:3:13.779,339.177,43.1819,0,0.000885,0,0
0:3:14.078,339.408,43.2163,0,0.000885,0,0
0:3:14.379,340.467,43.3473,0,0.000885,0,0
0:3:14.682,340.992,43.4163,0,0.000885,0,0
0:3:14.983,341.405,43.4714,0,0.000885,0,0
0:3:15.283,341.993,43.5404,0,0.000885,0,0
0:3:15.584,342.46,43.6024,0,0.000885,0,0
0:3:15.879,343.163,43.6921,0,0.000885,0,0
0:3:16.179,343.87,43.7817,0,0.000885,0,0
0:3:16.472,344.573,43.8713,0,0.000885,0,0
0:3:16.771,345.097,43.9403,0,0.000885,0,0
0:3:17.065,345.453,43.9817,0,0.000885,0,0
0:3:17.364,345.863,44.0368,0,0.000885,0,0
0:3:17.660,346.392,44.1058,0,0.000885,0,0
0:3:17.953,347.037,44.1885,0,0.000885,0,0
0:3:18.253,347.682,44.2712,0,0.000885,0,0
0:3:18.544,347.74,44.2781,0,0.000885,0,0
0:3:18.844,348.385,44.3609,0,0.000885,0,0
0:3:19.138,349.265,44.4712,0,0.000885,0,0
0:3:19.439,349.675,44.5194,0,0.000885,0,0
0:3:19.742,350.493,44.6298,0,0.000885,0,0
0:3:20.043,351.023,44.6918,0,0.000885,0,0
0:3:20.345,352.077,44.8297,0,0.000885,0,0
0:3:20.646,352.255,44.8504,0,0.000885,0,0
0:3:20.944,352.957,44.94,0,0.000885,0,0
0:3:21.239,353.251,44.9745,0,0.000885,0,0
0:3:21.534,353.896,45.0572,0,0.000885,0,0
0:3:21.833,355.07,45.2089,0,0.000885,0,0
0:3:22.135,355.422,45.2503,0,0.000885,0,0
0:3:22.436,356.009,45.3261,0,0.000885,0,0
0:3:22.730,356.654,45.4089,0,0.000885,0,0
0:3:23.024,356.77,45.4227,0,0.000885,0,0
0:3:23.334,357.593,45.533,0,0.000885,0,0
0:3:23.626,358.295,45.6226,0,0.000885,0,0
0:3:23.926,358.705,45.6709,0,0.000885,0,0
0:3:24.230,358.998,45.7122,0,0.000885,0,0
0:3:24.533,359.937,45.8295,0,0.000885,0,0
0:3:24.833,360.582,45.9122,0,0.000885,0,0
0:3:25.132,360.875,45.9467,0,0.000885,0,0
0:3:25.432,361.934,46.0846,0,0.000885,0,0
0:3:25.734,362.695,46.1811,0,0.000885,0,0
0:3:26.033,363.046,46.2225,0,0.000885,0,0
0:3:26.325,363.397,46.2707,0,0.000885,0,0
0:3:26.633,364.042,46.3535,0,0.000885,0,0
0:3:26.931,364.394,46.3948,0,0.000885,0,0
0:3:27.233,365.51,46.5396,0,0.000885,0,0
0:3:27.534,366.271,46.6361,0,0.000885,0,0
0:3:27.837,366.622,46.6775,0,0.000885,0,0
0:3:28.134,367.036,46.7327,0,0.000885,0,0
0:3:28.430,367.681,46.8154,0,0.000885,0,0
0:3:28.723,368.033,46.8568,0,0.000885,0,0
0:3:29.022,368.851,46.9671,0,0.000885,0,0
0:3:29.325,369.558,47.0567,0,0.000885,0,0
0:3:29.626,370.203,47.1326,0,0.000885,0,0
0:3:29.930,370.906,47.2222,0,0.000885,0,0
0:3:30.226,370.79,47.2084,0,0.000885,0,0
0:3:30.527,371.609,47.3118,0,0.000885,0,0
0:3:30.830,372.138,47.3808,0,0.000885,0,0
0:3:31.132,372.49,47.429,0,0.000885,0,0
0:3:31.425,373.958,47.6152,0,0.000885,0,0
0:3:31.733,373.428,47.5462,0,0.000885,0,0
0:3:32.039,374.482,47.6841,0,0.000885,0,0
0:3:32.333,375.185,47.7669,0,0.000885,0,0
0:3:32.633,375.83,47.8496,0,0.000885,0,0
0:3:32.934,376.417,47.9255,0,0.000885,0,0
0:3:33.234,376.653,47.9599,0,0.000885,0,0
0:3:33.527,377.062,48.0082,0,0.000885,0,0
0:3:33.833,377.943,48.1185,0,0.000885,0,0
0:3:34.131,378.882,48.2426,0,0.000885,0,0
0:3:34.433,379.291,48.2909,0,0.000885,0,0
0:3:34.735,379.878,48.3667,0,0.000885,0,0
0:3:35.036,380.35,48.4288,0,0.000885,0,0
0:3:35.336,381.168,48.5322,0,0.000885,0,0
0:3:35.638,381.755,48.608,0,0.000885,0,0
0:3:35.934,382.227,48.6632,0,0.000885,0,0
0:3:36.233,382.752,48.7321,0,0.000885,0,0
0:3:36.525,382.93,48.7528,0,0.000885,0,0
0:3:36.825,384.277,48.9252,0,0.000885,0,0
0:3:37.139,384.749,48.9873,0,0.000885,0,0
0:3:37.436,385.394,49.07,0,0.000885,0,0
0:3:37.735,386.212,49.1734,0,0.000885,0,0
0:3:38.036,386.684,49.2355,0,0.000885,0,0
0:3:38.337,387.209,49.3044,0,0.000885,0,0
0:3:38.628,387.916,49.394,0,0.000885,0,0
0:3:38.928,388.499,49.463,0,0.000885,0,0
0:3:39.234,389.028,49.5319,0,0.000885,0,0
0:3:39.536,389.264,49.5595,0,0.000885,0,0
0:3:39.837,389.731,49.6216,0,0.000885,0,0
0:3:40.136,390.79,49.7595,0,0.000885,0,0
0:3:40.435,391.315,49.8215,0,0.000885,0,0
0:3:40.739,391.786,49.8836,0,0.000885,0,0
0:3:41.036,392.195,49.9387,0,0.000885,0,0
0:3:41.334,393.018,50.0421,0,0.000885,0,0
0:3:41.637,393.249,50.0697,0,0.000885,0,0
0:3:41.938,394.25,50.2007,0,0.000885,0,0
0:3:42.228,394.833,50.2697,0,0.000885,0,0
0:3:42.538,395.189,50.3179,0,0.000885,0,0
0:3:42.834,395.772,50.3938,0,0.000885,0,0
0:3:43.138,396.595,50.4972,0,0.000885,0,0
0:3:43.437,396.888,50.5317,0,0.000885,0,0
0:3:43.732,397.885,50.6627,0,0.000885,0,0
0:3:44.033,398.356,50.7178,0,0.000885,0,0
0:3:44.337,399.175,50.8213,0,0.000885,0,0
0:3:44.637,399.352,50.8488,0,0.000885,0,0
0:3:44.938,400.171,50.9523,0,0.000885,0,0
0:3:45.238,400.758,51.0281,0,0.000885,0,0
0:3:45.538,401.167,51.0764,0,0.000885,0,0
0:3:45.840,401.581,51.1315,0,0.000885,0,0
0:3:46.140,402.168,51.2074,0,0.000885,0,0
0:3:46.435,403.044,51.3177,0,0.000885,0,0
0:3:46.739,403.983,51.4349,0,0.000885,0,0
0:3:47.038,404.397,51.49,0,0.000885,0,0
0:3:47.333,405.042,51.5728,0,0.000885,0,0
0:3:47.633,405.687,51.6555,0,0.000885,0,0
0:3:47.937,406.096,51.7038,0,0.000885,0,0
0:3:48.234,406.39,51.7452,0,0.000885,0,0
0:3:48.540,407.035,51.8279,0,0.000885,0,0
0:3:48.833,407.795,51.9244,0,0.000885,0,0
0:3:49.133,408.325,51.9865,0,0.000885,0,0
0:3:49.436,408.796,52.0485,0,0.000885,0,0
0:3:49.738,409.085,52.0899,0,0.000885,0,0
0:3:50.038,409.73,52.1657,0,0.000885,0,0
0:3:50.338,410.259,52.2347,0,0.000885,0,0
0:3:50.641,411.376,52.3795,0,0.000885,0,0
0:3:50.933,411.492,52.3933,0,0.000885,0,0
0:3:51.233,412.194,52.4829,0,0.000885,0,0
0:3:51.537,413.075,52.5932,0,0.000885,0,0
0:3:51.833,413.484,52.6484,0,0.000885,0,0
0:3:52.140,414.307,52.7518,0,0.000885,0,0
0:3:52.436,415.068,52.8483,0,0.000885,0,0
0:3:52.736,416.007,52.9655,0,0.000885,0,0
0:3:53.038,416.064,52.9724,0,0.000885,0,0
0:3:53.339,416.714,53.0552,0,0.000885,0,0
0:3:53.634,416.772,53.0621,0,0.000885,0,0
0:3:53.935,417.648,53.1793,0,0.000885,0,0
0:3:54.239,418.529,53.2896,0,0.000885,0,0
0:3:54.539,419.294,53.3861,0,0.000885,0,0
0:3:54.839,419.645,53.4275,0,0.000885,0,0
0:3:55.139,419.819,53.4551,0,0.000885,0,0
0:3:55.435,420.526,53.5447,0,0.000885,0,0
0:3:55.734,420.935,53.5929,0,0.000885,0,0
0:3:56.037,421.816,53.7102,0,0.000885,0,0
0:3:56.337,422.461,53.786,0,0.000885,0,0
0:3:56.641,422.928,53.8481,0,0.000885,0,0
0:3:56.939,423.573,53.9308,0,0.000885,0,0
0:3:57.233,424.16,54.0066,0,0.000885,0,0
0:3:57.539,424.69,54.0756,0,0.000885,0,0
0:3:57.839,425.277,54.1445,0,0.000885,0,0
0:3:58.141,426.095,54.2548,0,0.000885,0,0
0:3:58.441,427.034,54.3721,0,0.000885,0,0
0:3:58.735,427.327,54.4065,0,0.000885,0,0
0:3:59.035,427.679,54.4548,0,0.000885,0,0
0:3:59.339,428.208,54.5237,0,0.000885,0,0
0:3:59.639,428.853,54.6065,0,0.000885,0,0
0:3:59.939,429.382,54.6685,0,0.000885,0,0
0:4:0.239,430.201,54.772,0,0.000885,0,0
0:4:0.538,430.61,54.8271,0,0.000885,0,0
0:4:0.834,431.024,54.8823,0,0.000885,0,0
0:4:1.139,431.669,54.965,0,0.000885,0,0
0:4:1.438,432.429,55.0615,0,0.000885,0,0
0:4:1.739,432.839,55.1098,0,0.000885,0,0
0:4:2.039,433.368,55.1787,0,0.000885,0,0
0:4:2.343,433.777,55.227,0,0.000885,0,0
0:4:2.639,434.836,55.3649,0,0.000885,0,0
0:4:2.938,435.423,55.4407,0,0.000885,0,0
0:4:3.241,436.068,55.5235,0,0.000885,0,0
0:4:3.542,436.535,55.5786,0,0.000885,0,0
0:4:3.831,436.944,55.6338,0,0.000885,0,0
0:4:4.135,437.709,55.7303,0,0.000885,0,0
0:4:4.439,438.061,55.7786,0,0.000885,0,0
0:4:4.740,438.942,55.8889,0,0.000885,0,0
0:4:5.041,439.702,55.9854,0,0.000885,0,0
0:4:5.340,439.76,55.9923,0,0.000885,0,0
0:4:5.641,440.756,56.1164,0,0.000885,0,0
0:4:5.937,441.228,56.1785,0,0.000885,0,0
0:4:6.234,441.873,56.2612,0,0.000885,0,0
0:4:6.529,442.518,56.344,0,0.000885,0,0
0:4:6.821,442.985,56.406,0,0.000885,0,0
0:4:7.121,443.514,56.4681,0,0.000885,0,0
0:4:7.417,444.159,56.5508,0,0.000885,0,0
0:4:7.714,444.862,56.6404,0,0.000885,0,0
0:4:8.009,445.507,56.7232,0,0.000885,0,0
0:4:8.305,445.801,56.7645,0,0.000885,0,0
0:4:8.606,446.917,56.9024,0,0.000885,0,0
0:4:8.899,447.327,56.9576,0,0.000885,0,0
0:4:9.198,447.504,56.9783,0,0.000885,0,0
0:4:9.501,448.616,57.1231,0,0.000885,0,0
0:4:9.803,448.737,57.1369,0,0.000885,0,0
0:4:10.105,449.146,57.1851,0,0.000885,0,0
0:4:10.404,449.849,57.2747,0,0.000885,0,0
0:4:10.705,450.965,57.4195,0,0.000885,0,0
0:4:10.999,451.196,57.4471,0,0.000885,0,0
0:4:11.294,451.784,57.523,0,0.000885,0,0
0:4:11.593,452.429,57.6057,0,0.000885,0,0
0:4:11.886,452.78,57.6471,0,0.000885,0,0
0:4:12.186,453.016,57.6815,0,0.000885,0,0
0:4:12.479,453.954,57.7988,0,0.000885,0,0
0:4:12.778,454.657,57.8884,0,0.000885,0,0
0:4:13.074,455.538,57.9987,0,0.000885,0,0
0:4:13.368,455.716,58.0263,0,0.000885,0,0
0:4:13.668,456.419,58.1159,0,0.000885,0,0
0:4:13.963,456.712,58.1504,0,0.000885,0,0
0:4:14.262,457.179,58.2124,0,0.000885,0,0
0:4:14.567,458.176,58.3365,0,0.000885,0,0
0:4:14.868,458.589,58.3917,0,0.000885,0,0
0:4:15.169,458.763,58.4124,0,0.000885,0,0
0:4:15.468,459.528,58.5089,0,0.000885,0,0
0:4:15.769,460.346,58.6123,0,0.000885,0,0
0:4:16.064,461.054,58.702,0,0.000885,0,0
0:4:16.360,461.93,58.8123,0,0.000885,0,0
0:4:16.658,461.988,58.8192,0,0.000885,0,0
0:4:16.950,462.695,58.9088,0,0.000885,0,0
0:4:17.250,463.22,58.9778,0,0.000885,0,0
0:4:17.543,464.159,59.1019,0,0.000885,0,0
0:4:17.843,465.039,59.2122,0,0.000885,0,0
0:4:18.139,465.391,59.2535,0,0.000885,0,0
0:4:18.443,465.978,59.3294,0,0.000885,0,0
0:4:18.741,466.271,59.3708,0,0.000885,0,0
0:4:19.043,467.032,59.4673,0,0.000885,0,0
0:4:19.345,467.032,59.4673,0,0.000885,0,0
0:4:19.647,467.971,59.5845,0,0.000885,0,0
0:4:19.947,468.442,59.6465,0,0.000885,0,0
0:4:20.249,469.323,59.7569,0,0.000885,0,0
0:4:20.543,469.732,59.8051,0,0.000885,0,0
0:4:20.842,470.844,59.9499,0,0.000885,0,0
0:4:21.136,470.907,59.9568,0,0.000885,0,0
0:4:21.435,471.667,60.0533,0,0.000885,0,0
0:4:21.740,472.49,60.1568,0,0.000885,0,0
0:4:22.036,473.135,60.2395,0,0.000885,0,0
0:4:22.333,473.722,60.3153,0,0.000885,0,0
0:4:22.625,474.131,60.3705,0,0.000885,0,0
0:4:22.924,474.599,60.4257,0,0.000885,0,0
0:4:23.228,475.128,60.4946,0,0.000885,0,0
0:4:23.524,475.773,60.5773,0,0.000885,0,0
0:4:23.821,476.009,60.6049,0,0.000885,0,0
0:4:24.122,476.476,60.667,0,0.000885,0,0
0:4:24.425,477.299,60.7704,0,0.000885,0,0
0:4:24.726,478.001,60.86,0,0.000885,0,0
0:4:25.026,478.646,60.9428,0,0.000885,0,0
0:4:25.326,479.469,61.0462,0,0.000885,0,0
0:4:25.632,479.469,61.0462,0,0.000885,0,0
0:4:25.942,480.581,61.191,0,0.000885,0,0
0:4:26.244,481.053,61.2461,0,0.000885,0,0
0:4:26.545,481.929,61.3633,0,0.000885,0,0
0:4:26.839,482.694,61.4599,0,0.000885,0,0
0:4:27.143,483.397,61.5495,0,0.000885,0,0
0:4:27.442,483.984,61.6253,0,0.000885,0,0
0:4:27.745,483.926,61.6184,0,0.000885,0,0
0:4:28.044,484.571,61.6943,0,0.000885,0,0
0:4:28.337,484.451,61.6805,0,0.000885,0,0
0:4:28.645,485.804,61.8529,0,0.000885,0,0
0:4:28.942,485.861,61.8598,0,0.000885,0,0
0:4:29.244,486.449,61.9356,0,0.000885,0,0
0:4:29.547,487.151,62.0252,0,0.000885,0,0
0:4:29.847,488.09,62.1424,0,0.000885,0,0
0:4:30.148,488.735,62.2252,0,0.000885,0,0
0:4:30.450,489.322,62.301,0,0.000885,0,0
0:4:30.744,490.141,62.4044,0,0.000885,0,0
0:4:31.044,490.67,62.4734,0,0.000885,0,0
0:4:31.337,491.373,62.563,0,0.000885,0,0
0:4:31.633,491.844,62.6251,0,0.000885,0,0
0:4:31.930,492.018,62.6458,0,0.000885,0,0
0:4:32.245,492.254,62.6733,0,0.000885,0,0
0:4:32.545,493.428,62.825,0,0.000885,0,0
0:4:32.838,493.953,62.894,0,0.000885,0,0
0:4:33.137,494.718,62.9905,0,0.000885,0,0
0:4:33.442,495.069,63.0319,0,0.000885,0,0
0:4:33.737,495.714,63.1146,0,0.000885,0,0
0:4:34.037,496.537,63.218,0,0.000885,0,0
0:4:34.337,496.537,63.218,0,0.000885,0,0
0:4:34.640,497.356,63.3283,0,0.000885,0,0
0:4:34.939,497.827,63.3835,0,0.000885,0,0
0:4:35.240,498.294,63.4456,0,0.000885,0,0
0:4:35.540,499.642,63.6179,0,0.000885,0,0
0:4:35.833,500.229,63.6938,0,0.000885,0,0
0:4:36.132,500.932,63.7834,0,0.000885,0,0
0:4:36.437,501.168,63.811,0,0.000885,0,0
0:4:36.734,502.049,63.9213,0,0.000885,0,0
0:4:37.040,502.516,63.9833,0,0.000885,0,0
0:4:37.345,502.929,64.0316,0,0.000885,0,0
0:4:37.644,503.339,64.0868,0,0.000885,0,0
0:4:37.945,503.748,64.1419,0,0.000885,0,0
0:4:38.247,504.864,64.2798,0,0.000885,0,0
0:4:38.541,505.1,64.3143,0,0.000885,0,0
0:4:38.841,505.861,64.4108,0,0.000885,0,0
0:4:39.145,506.39,64.4729,0,0.000885,0,0
0:4:39.447,507.035,64.5556,0,0.000885,0,0
0:4:39.747,507.266,64.5901,0,0.000885,0,0
0:4:40.048,508.325,64.7211,0,0.000885,0,0
0:4:40.347,508.383,64.728,0,0.000885,0,0
0:4:40.644,509.264,64.8383,0,0.000885,0,0
0:4:40.938,509.731,64.9004,0,0.000885,0,0
0:4:41.234,510.496,64.9969,0,0.000885,0,0
0:4:41.540,510.433,64.99,0,0.000885,0,0
0:4:41.839,511.141,65.0796,0,0.000885,0,0
0:4:42.142,511.901,65.1761,0,0.000885,0,0
0:4:42.439,512.84,65.3002,0,0.000885,0,0
0:4:42.746,513.369,65.3623,0,0.000885,0,0
0:4:43.039,514.366,65.4933,0,0.000885,0,0
0:4:43.338,514.953,65.5622,0,0.000885,0,0
0:4:43.643,515.713,65.6657,0,0.000885,0,0
0:4:43.944,516.358,65.7415,0,0.000885,0,0
0:4:44.248,516.71,65.7898,0,0.000885,0,0
0:4:44.548,517.297,65.8656,0,0.000885,0,0
0:4:44.848,517.706,65.9139,0,0.000885,0,0
0:4:45.147,518.236,65.9828,0,0.000885,0,0
0:4:45.448,518.707,66.0449,0,0.000885,0,0
0:4:45.742,519.468,66.1414,0,0.000885,0,0
0:4:46.038,519.704,66.169,0,0.000885,0,0
0:4:46.344,520.642,66.2931,0,0.000885,0,0
0:4:46.640,521.225,66.362,0,0.000885,0,0
0:4:46.938,521.932,66.4517,0,0.000885,0,0
0:4:47.240,522.283,66.4999,0,0.000885,0,0
0:4:47.539,522.635,66.5413,0,0.000885,0,0
0:4:47.845,523.396,66.6378,0,0.000885,0,0
0:4:48.141,523.809,66.693,0,0.000885,0,0
0:4:48.439,524.686,66.8033,0,0.000885,0,0
0:4:48.742,525.508,66.9067,0,0.000885,0,0
0:4:49.042,525.918,66.9619,0,0.000885,0,0
0:4:49.344,526.856,67.0791,0,0.000885,0,0
0:4:49.646,527.15,67.1205,0,0.000885,0,0
0:4:49.946,527.501,67.1618,0,0.000885,0,0
0:4:50.247,527.853,67.2101,0,0.000885,0,0
0:4:50.548,528.911,67.3411,0,0.000885,0,0
0:4:50.841,529.321,67.3963,0,0.000885,0,0
0:4:51.141,529.556,67.4238,0,0.000885,0,0
0:4:51.445,530.317,67.5204,0,0.000885,0,0
0:4:51.741,530.495,67.5479,0,0.000885,0,0
0:4:52.036,531.549,67.6789,0,0.000885,0,0
0:4:52.343,532.603,67.8099,0,0.000885,0,0
0:4:52.643,533.368,67.9134,0,0.000885,0,0
0:4:52.945,533.542,67.934,0,0.000885,0,0
0:4:53.244,534.013,67.9892,0,0.000885,0,0
0:4:53.539,534.543,68.0581,0,0.000885,0,0
0:4:53.842,535.539,68.1891,0,0.000885,0,0
0:4:54.141,535.539,68.1891,0,0.000885,0,0
0:4:54.442,536.478,68.3064,0,0.000885,0,0
0:4:54.745,537.474,68.4305,0,0.000885,0,0
0:4:55.046,537.941,68.4925,0,0.000885,0,0
0:4:55.346,538.293,68.5408,0,0.000885,0,0
0:4:55.647,538.586,68.5753,0,0.000885,0,0
0:4:55.940,539.293,68.6649,0,0.000885,0,0
0:4:56.242,540.054,68.7614,0,0.000885,0,0
0:4:56.544,540.228,68.7821,0,0.000885,0,0
0:4:56.842,540.993,68.8786,0,0.000885,0,0
0:4:57.135,541.286,68.92,0,0.000885,0,0
0:4:57.443,541.931,69.0027,0,0.000885,0,0
0:4:57.742,543.337,69.182,0,0.000885,0,0
0:4:58.043,543.279,69.1751,0,0.000885,0,0
0:4:58.344,544.978,69.3888,0,0.000885,0,0
0:4:58.646,544.978,69.3888,0,0.000885,0,0
0:4:58.947,545.214,69.4164,0,0.000885,0,0
0:4:59.250,546.037,69.5267,0,0.000885,0,0
0:4:59.550,546.273,69.5543,0,0.000885,0,0
0:4:59.849,547.269,69.6784,0,0.000885,0,0
0:5:0.148,547.856,69.7543,0,0.000885,0,0
0:5:0.447,548.145,69.7956,0,0.000885,0,0
0:5:0.744,549.084,69.9128,0,0.000885,0,0
0:5:1.047,549.378,69.9473,0,0.000885,0,0
0:5:1.346,549.613,69.9818,0,0.000885,0,0
0:5:1.640,550.788,70.1266,0,0.000885,0,0
0:5:1.937,550.73,70.1197,0,0.000885,0,0
0:5:2.242,551.606,70.23,0,0.000885,0,0
0:5:2.549,552.193,70.3058,0,0.000885,0,0
0:5:2.847,552.545,70.3541,0,0.000885,0,0
0:5:3.139,553.425,70.4644,0,0.000885,0,0
0:5:3.437,554.191,70.5609,0,0.000885,0,0
0:5:3.731,554.422,70.5885,0,0.000885,0,0
0:5:4.032,555.303,70.7057,0,0.000885,0,0
0:5:4.335,555.712,70.754,0,0.000885,0,0
0:5:4.637,556.886,70.9057,0,0.000885,0,0
0:5:4.936,557.122,70.9333,0,0.000885,0,0
0:5:5.237,558.003,71.0436,0,0.000885,0,0
0:5:5.535,557.647,71.0022,0,0.000885,0,0
0:5:5.838,559.115,71.1884,0,0.000885,0,0
0:5:6.146,558.821,71.1539,0,0.000885,0,0
0:5:6.443,559.818,71.278,0,0.000885,0,0
0:5:6.746,560.111,71.3125,0,0.000885,0,0
0:5:7.046,561.17,71.4504,0,0.000885,0,0
0:5:7.340,561.988,71.5538,0,0.000885,0,0
0:5:7.636,562.518,71.6227,0,0.000885,0,0
0:5:7.942,562.691,71.6434,0,0.000885,0,0
0:5:8.247,563.692,71.7744,0,0.000885,0,0
0:5:8.547,564.51,71.8778,0,0.000885,0,0
0:5:8.848,564.51,71.8778,0,0.000885,0,0
0:5:9.149,565.565,72.0088,0,0.000885,0,0
0:5:9.452,565.627,72.0157,0,0.000885,0,0
0:5:9.754,566.739,72.1605,0,0.000885,0,0
0:5:10.055,567.504,72.2571,0,0.000885,0,0
0:5:10.355,567.442,72.2502,0,0.000885,0,0
0:5:10.657,568.265,72.3536,0,0.000885,0,0
0:5:10.948,569.146,72.4639,0,0.000885,0,0
0:5:11.247,569.203,72.4708,0,0.000885,0,0
0:5:11.543,570.142,72.5949,0,0.000885,0,0
0:5:11.847,570.493,72.6363,0,0.000885,0,0
0:5:12.146,570.845,72.6845,0,0.000885,0,0
0:5:12.448,571.783,72.8017,0,0.000885,0,0
0:5:12.749,572.9,72.9465,0,0.000885,0,0
0:5:13.041,572.606,72.9052,0,0.000885,0,0
0:5:13.349,573.131,72.9741,0,0.000885,0,0
0:5:13.646,573.838,73.0637,0,0.000885,0,0
0:5:13.949,575.244,73.243,0,0.000885,0,0
0:5:14.251,575.066,73.2223,0,0.000885,0,0
0:5:14.551,575.831,73.3188,0,0.000885,0,0
0:5:14.852,576.712,73.4292,0,0.000885,0,0
0:5:15.154,577.179,73.4912,0,0.000885,0,0
0:5:15.450,577.708,73.5533,0,0.000885,0,0
0:5:15.749,578.233,73.6222,0,0.000885,0,0
0:5:16.051,579.172,73.7394,0,0.000885,0,0
0:5:16.350,579.234,73.7532,0,0.000885,0,0
0:5:16.645,579.585,73.7946,0,0.000885,0,0
0:5:16.942,580.582,73.9187,0,0.000885,0,0
0:5:17.248,581.227,74.0014,0,0.000885,0,0
0:5:17.544,581.694,74.0635,0,0.000885,0,0
0:5:17.844,582.165,74.1255,0,0.000885,0,0
0:5:18.145,582.695,74.1876,0,0.000885,0,0
0:5:18.444,583.398,74.2772,0,0.000885,0,0
0:5:18.751,584.1,74.3669,0,0.000885,0,0
0:5:19.050,584.981,74.4841,0,0.000885,0,0
0:5:19.355,585.862,74.5944,0,0.000885,0,0
0:5:19.656,586.387,74.6633,0,0.000885,0,0
0:5:19.957,586.68,74.6978,0,0.000885,0,0
0:5:20.258,586.916,74.7254,0,0.000885,0,0
0:5:20.555,587.561,74.8081,0,0.000885,0,0
0:5:20.851,587.913,74.8564,0,0.000885,0,0
0:5:21.145,588.735,74.9598,0,0.000885,0,0
0:5:21.446,589.496,75.0563,0,0.000885,0,0
0:5:21.749,589.968,75.1184,0,0.000885,0,0
0:5:22.051,590.613,75.2011,0,0.000885,0,0
0:5:22.347,590.964,75.2425,0,0.000885,0,0
0:5:22.645,591.729,75.339,0,0.000885,0,0
0:5:22.944,592.726,75.47,0,0.000885,0,0
0:5:23.249,593.255,75.5321,0,0.000885,0,0
0:5:23.550,593.842,75.6079,0,0.000885,0,0
0:5:23.846,594.136,75.6493,0,0.000885,0,0
0:5:24.148,594.954,75.7527,0,0.000885,0,0
0:5:24.454,595.132,75.7734,0,0.000885,0,0
0:5:24.756,595.893,75.8699,0,0.000885,0,0
0:5:25.059,596.951,76.0078,0,0.000885,0,0
0:5:25.361,597.539,76.0836,0,0.000885,0,0
0:5:25.662,598.068,76.1457,0,0.000885,0,0
0:5:25.959,598.477,76.2009,0,0.000885,0,0
0:5:26.257,599.006,76.2698,0,0.000885,0,0
0:5:26.556,599.416,76.3181,0,0.000885,0,0
0:5:26.848,599.767,76.3663,0,0.000885,0,0
0:5:27.150,600.354,76.4422,0,0.000885,0,0
0:5:27.446,600.999,76.5249,0,0.000885,0,0
0:5:27.745,601.764,76.6214,0,0.000885,0,0
0:5:28.052,602.174,76.6697,0,0.000885,0,0
0:5:28.347,602.881,76.7593,0,0.000885,0,0
0:5:28.648,603.348,76.8214,0,0.000885,0,0
0:5:28.940,604.229,76.9317,0,0.000885,0,0
0:5:29.245,605.287,77.0696,0,0.000885,0,0
0:5:29.548,605.229,77.0627,0,0.000885,0,0
0:5:29.851,605.817,77.1316,0,0.000885,0,0
0:5:30.154,606.871,77.2695,0,0.000885,0,0
0:5:30.456,607.222,77.3109,0,0.000885,0,0
0:5:30.758,608.103,77.4281,0,0.000885,0,0
0:5:31.051,608.161,77.435,0,0.000885,0,0
0:5:31.351,608.926,77.5315,0,0.000885,0,0
0:5:31.648,609.455,77.6005,0,0.000885,0,0
0:5:31.945,610.216,77.697,0,0.000885,0,0
0:5:32.245,610.63,77.7453,0,0.000885,0,0
0:5:32.538,611.39,77.8418,0,0.000885,0,0
0:5:32.839,611.626,77.8763,0,0.000885,0,0
0:5:33.135,612.213,77.9521,0,0.000885,0,0
0:5:33.433,612.916,78.0418,0,0.000885,0,0
0:5:33.744,613.681,78.1383,0,0.000885,0,0
0:5:34.048,614.148,78.1934,0,0.000885,0,0
0:5:34.352,614.326,78.221,0,0.000885,0,0
0:5:34.655,615.443,78.3589,0,0.000885,0,0
0:5:34.957,616.088,78.4417,0,0.000885,0,0
0:5:35.259,616.145,78.4485,0,0.000885,0,0
0:5:35.554,617.204,78.5864,0,0.000885,0,0
0:5:35.858,618.258,78.7174,0,0.000885,0,0
0:5:36.150,618.672,78.7726,0,0.000885,0,0
0:5:36.449,619.081,78.8209,0,0.000885,0,0
0:5:36.747,619.548,78.8829,0,0.000885,0,0
0:5:37.044,619.842,78.9243,0,0.000885,0,0
0:5:37.354,620.256,78.9725,0,0.000885,0,0
0:5:37.647,621.31,79.1104,0,0.000885,0,0
0:5:37.950,622.191,79.2208,0,0.000885,0,0
0:5:38.244,622.311,79.2346,0,0.000885,0,0
0:5:38.544,622.956,79.3173,0,0.000885,0,0
0:5:38.850,623.658,79.4069,0,0.000885,0,0
0:5:39.152,624.246,79.4828,0,0.000885,0,0
0:5:39.458,624.948,79.5724,0,0.000885,0,0
0:5:39.760,625.362,79.6207,0,0.000885,0,0
0:5:40.062,625.891,79.6896,0,0.000885,0,0
0:5:40.365,626.888,79.8206,0,0.000885,0,0
0:5:40.662,627.239,79.862,0,0.000885,0,0
0:5:40.962,628.236,79.993,0,0.000885,0,0
0:5:41.257,628.649,80.0412,0,0.000885,0,0
0:5:41.559,628.943,80.0826,0,0.000885,0,0
0:5:41.851,629.001,80.0895,0,0.000885,0,0
0:5:42.150,630.353,80.2619,0,0.000885,0,0
0:5:42.448,630.704,80.3032,0,0.000885,0,0
0:5:42.744,631.292,80.3791,0,0.000885,0,0
0:5:43.054,631.937,80.4618,0,0.000885,0,0
0:5:43.348,632.11,80.4825,0,0.000885,0,0
0:5:43.649,633.053,80.5997,0,0.000885,0,0
0:5:43.954,633.578,80.6687,0,0.000885,0,0
0:5:44.257,634.165,80.7445,0,0.000885,0,0
0:5:44.561,635.166,80.8686,0,0.000885,0,0
0:5:44.864,635.224,80.8824,0,0.000885,0,0
0:5:45.166,635.927,80.972,0,0.000885,0,0
0:5:45.468,636.692,81.0686,0,0.000885,0,0
0:5:45.767,637.159,81.1237,0,0.000885,0,0
0:5:46.065,637.746,81.1996,0,0.000885,0,0
0:5:46.361,637.804,81.2065,0,0.000885,0,0
0:5:46.663,638.862,81.3443,0,0.000885,0,0
0:5:46.956,639.45,81.4202,0,0.000885,0,0
0:5:47.257,640.095,81.496,0,0.000885,0,0
0:5:47.553,640.86,81.5995,0,0.000885,0,0
0:5:47.850,640.975,81.6132,0,0.000885,0,0
0:5:48.149,641.678,81.7029,0,0.000885,0,0
0:5:48.445,642.265,81.7787,0,0.000885,0,0
0:5:48.747,642.915,81.8615,0,0.000885,0,0
0:5:49.051,643.911,81.9856,0,0.000885,0,0
0:5:49.354,644.205,82.02,0,0.000885,0,0
0:5:49.658,645.201,82.151,0,0.000885,0,0
0:5:49.958,645.321,82.1648,0,0.000885,0,0
0:5:50.261,646.318,82.2889,0,0.000885,0,0
0:5:50.555,646.611,82.3303,0,0.000885,0,0
0:5:50.857,647.608,82.4544,0,0.000885,0,0
0:5:51.150,647.55,82.4475,0,0.000885,0,0
0:5:51.447,648.84,82.613,0,0.000885,0,0
0:5:51.747,649.191,82.6612,0,0.000885,0,0
0:5:52.052,649.899,82.7509,0,0.000885,0,0
0:5:52.355,650.544,82.8267,0,0.000885,0,0
0:5:52.649,650.721,82.8543,0,0.000885,0,0
0:5:52.949,652.011,83.0198,0,0.000885,0,0
0:5:53.255,651.776,82.9853,0,0.000885,0,0
0:5:53.551,652.247,83.0474,0,0.000885,0,0
0:5:53.851,652.892,83.1301,0,0.000885,0,0
0:5:54.156,653.653,83.2266,0,0.000885,0,0
0:5:54.459,654.534,83.3369,0,0.000885,0,0
0:5:54.762,654.654,83.3507,0,0.000885,0,0
0:5:55.061,655.414,83.4472,0,0.000885,0,0
0:5:55.364,656.237,83.5576,0,0.000885,0,0
0:5:55.658,656.179,83.5507,0,0.000885,0,0
0:5:55.960,657.296,83.6886,0,0.000885,0,0
0:5:56.255,657.527,83.7161,0,0.000885,0,0
0:5:56.556,658.702,83.8678,0,0.000885,0,0
0:5:56.851,658.879,83.8885,0,0.000885,0,0
0:5:57.149,659.524,83.9712,0,0.000885,0,0
0:5:57.449,659.467,83.9644,0,0.000885,0,0
0:5:57.752,660.641,84.116,0,0.000885,0,0
0:5:58.056,661.873,84.2746,0,0.000885,0,0
0:5:58.350,662.109,84.3022,0,0.000885,0,0
0:5:58.647,662.754,84.3849,0,0.000885,0,0
0:5:58.955,663.047,84.4194,0,0.000885,0,0
0:5:59.259,663.986,84.5435,0,0.000885,0,0
0:5:59.561,664.337,84.5849,0,0.000885,0,0
0:5:59.864,664.809,84.6469,0,0.000885,0,0
0:6:0.165,665.276,84.709,0,0.000885,0,0
0:6:0.468,666.335,84.84,0,0.000885,0,0
0:6:0.765,666.744,84.8951,0,0.000885,0,0
0:6:1.064,667.389,84.9779,0,0.000885,0,0
0:6:1.359,667.683,85.0124,0,0.000885,0,0
0:6:1.661,668.39,85.102,0,0.000885,0,0
0:6:1.956,668.799,85.1571,0,0.000885,0,0
0:6:2.255,670.031,85.3088,0,0.000885,0,0
0:6:2.555,670.089,85.3157,0,0.000885,0,0
0:6:2.848,670.383,85.3571,0,0.000885,0,0
0:6:3.149,671.028,85.4398,0,0.000885,0,0
0:6:3.455,672.028,85.5639,0,0.000885,0,0
0:6:3.756,672.495,85.626,0,0.000885,0,0
0:6:4.050,673.025,85.6949,0,0.000885,0,0
0:6:4.352,673.906,85.8053,0,0.000885,0,0
0:6:4.657,674.021,85.819,0,0.000885,0,0
0:6:4.959,674.728,85.9087,0,0.000885,0,0
0:6:5.261,675.258,85.9776,0,0.000885,0,0
0:6:5.563,675.903,86.0604,0,0.000885,0,0
0:6:5.861,676.663,86.1569,0,0.000885,0,0
0:6:6.160,677.602,86.2741,0,0.000885,0,0
0:6:6.455,677.486,86.2603,0,0.000885,0,0
0:6:6.757,678.309,86.3637,0,0.000885,0,0
0:6:7.049,679.012,86.4534,0,0.000885,0,0
0:6:7.350,679.364,86.5016,0,0.000885,0,0
0:6:7.648,680.302,86.6188,0,0.000885,0,0
0:6:7.943,680.889,86.6947,0,0.000885,0,0
0:6:8.256,681.476,86.7705,0,0.000885,0,0
0:6:8.549,682.006,86.8326,0,0.000885,0,0
0:6:8.852,682.415,86.8877,0,0.000885,0,0
0:6:9.155,682.887,86.9498,0,0.000885,0,0
0:6:9.458,683.945,87.0808,0,0.000885,0,0
0:6:9.759,684.764,87.1842,0,0.000885,0,0
0:6:10.061,684.942,87.2118,0,0.000885,0,0
0:6:10.364,685.765,87.3152,0,0.000885,0,0
0:6:10.657,686.232,87.3773,0,0.000885,0,0
0:6:10.958,686.467,87.4048,0,0.000885,0,0
0:6:11.254,686.761,87.4393,0,0.000885,0,0
0:6:11.550,687.935,87.591,0,0.000885,0,0
0:6:11.849,688.696,87.6875,0,0.000885,0,0
0:6:12.155,689.519,87.7909,0,0.000885,0,0
0:6:12.454,689.052,87.7358,0,0.000885,0,0
0:6:12.747,689.99,87.853,0,0.000885,0,0
0:6:13.048,690.457,87.9151,0,0.000885,0,0
0:6:13.343,691.574,88.0529,0,0.000885,0,0
0:6:13.640,692.103,88.1219,0,0.000885,0,0
0:6:13.938,569.67,72.5328,0,0.000885,0,0
0:6:13.990,569.67,72.5328,0,0.000885,0,0