File: DataFile2021-07-03_070751.csv
Test ID:,Date Tested:,Time:,Test Type:,Diameter Avg. (mm):,Cyl. Corr. Factor:,Height (mm):,Age (days):,Weight (kN):,Break Type:,Ramp Rate (MPa/s):,Load at Break (kN):,Stress at Break (MPa):
12,7/3/2021,07:07,Cylinder,100,1,200,0,3.6,3,0.25,1020.94,129.99
Sample Time,Load (kN),Stress (MPa),Long. Strain,Trans. Strain,Chan1 Deflection (mm),Chan2 Deflection (mm)
0:0:18.229,5.63145,0.717055,0,0.000885,0,0
0:0:18.725,9.55923,1.22037,0,0.000885,0,0
0:0:19.221,9.38575,1.19279,0,0.000885,0,0
0:0:19.728,9.38575,1.19279,0,0.000885,0,0
0:0:20.243,9.5014,1.20658,0,0.000885,0,0
0:0:20.740,9.61706,1.22727,0,0.000885,0,0
0:0:21.244,10.44,1.33069,0,0.000885,0,0
0:0:21.742,11.4942,1.46169,0,0.000885,0,0
0:0:22.238,12.7264,1.62027,0,0.000885,0,0
0:0:22.731,13.4915,1.71679,0,0.000885,0,0
0:0:23.227,14.7192,1.87537,0,0.000885,0,0
0:0:23.736,15.8357,2.01327,0,0.000885,0,0
0:0:24.241,16.5385,2.1029,0,0.000885,0,0
0:0:24.745,17.9486,2.28216,0,0.000885,0,0
0:0:25.244,18.8871,2.40627,0,0.000885,0,0
0:0:25.741,20.4084,2.59932,0,0.000885,0,0
0:0:26.238,21.1735,2.69585,0,0.000885,0,0
0:0:26.735,21.7607,2.77169,0,0.000885,0,0
0:0:27.242,23.1085,2.94406,0,0.000885,0,0
0:0:27.739,23.8692,3.04059,0,0.000885,0,0
0:0:28.236,25.1591,3.20606,0,0.000885,0,0
0:0:28.742,26.0977,3.32327,0,0.000885,0,0
0:0:29.248,27.0986,3.44738,0,0.000885,0,0
0:0:29.753,28.2684,3.59906,0,0.000885,0,0
0:0:30.251,29.4428,3.75075,0,0.000885,0,0
0:0:30.749,30.8484,3.93001,0,0.000885,0,0
0:0:31.247,31.142,3.96449,0,0.000885,0,0
0:0:31.743,31.8493,4.05412,0,0.000885,0,0
0:0:32.242,32.9035,4.19201,0,0.000885,0,0
0:0:32.740,34.1935,4.35059,0,0.000885,0,0
0:0:33.238,34.7806,4.42643,0,0.000885,0,0
0:0:33.746,35.6614,4.54365,0,0.000885,0,0
0:0:34.254,36.1863,4.6057,0,0.000885,0,0
0:0:34.758,37.6542,4.79186,0,0.000885,0,0
0:0:35.262,38.7084,4.92975,0,0.000885,0,0
0:0:35.760,39.8249,5.06765,0,0.000885,0,0
0:0:36.257,40.7012,5.18486,0,0.000885,0,0
0:0:36.755,41.7599,5.31586,0,0.000885,0,0
0:0:37.252,42.872,5.46065,0,0.000885,0,0
0:0:37.749,44.1041,5.61233,0,0.000885,0,0
0:0:38.246,44.5756,5.67439,0,0.000885,0,0
0:0:38.745,45.4519,5.7847,0,0.000885,0,0
0:0:39.251,46.5106,5.9226,0,0.000885,0,0
0:0:39.756,47.3914,6.03291,0,0.000885,0,0
0:0:40.261,48.6191,6.19149,0,0.000885,0,0
0:0:40.759,49.7356,6.32939,0,0.000885,0,0
0:0:41.255,50.5585,6.4397,0,0.000885,0,0
0:0:41.752,51.7284,6.58449,0,0.000885,0,0
0:0:42.250,52.4356,6.67413,0,0.000885,0,0
0:0:42.746,53.5477,6.81891,0,0.000885,0,0
0:0:43.245,54.4863,6.93613,0,0.000885,0,0
0:0:43.753,55.3092,7.03955,0,0.000885,0,0
0:0:44.258,56.3056,7.17055,0,0.000885,0,0
0:0:44.762,57.4755,7.31534,0,0.000885,0,0
0:0:45.262,58.4763,7.44634,0,0.000885,0,0
0:0:45.758,59.7663,7.61181,0,0.000885,0,0
0:0:46.256,60.4113,7.69455,0,0.000885,0,0
0:0:46.752,61.5234,7.83244,0,0.000885,0,0
0:0:47.250,62.1683,7.91518,0,0.000885,0,0
0:0:47.747,63.1069,8.03239,0,0.000885,0,0
0:0:48.245,64.0455,8.1565,0,0.000885,0,0
0:0:48.754,65.807,8.37713,0,0.000885,0,0
0:0:49.258,66.3319,8.44608,0,0.000885,0,0
0:0:49.762,66.919,8.52192,0,0.000885,0,0
0:0:50.260,68.387,8.70808,0,0.000885,0,0
0:0:50.756,69.1476,8.80461,0,0.000885,0,0
0:0:51.256,70.0862,8.92182,0,0.000885,0,0
0:0:51.754,71.1449,9.05971,0,0.000885,0,0
0:0:52.250,72.0212,9.17003,0,0.000885,0,0
0:0:52.747,73.022,9.29413,0,0.000885,0,0
0:0:53.245,73.7248,9.38376,0,0.000885,0,0
0:0:53.750,75.1305,9.56303,0,0.000885,0,0
0:0:54.257,76.1891,9.70092,0,0.000885,0,0
0:0:54.761,77.0076,9.80434,0,0.000885,0,0
0:0:55.261,78.1241,9.94913,0,0.000885,0,0
0:0:55.760,79.0627,10.0663,0,0.000885,0,0
0:0:56.257,79.6454,10.1422,0,0.000885,0,0
0:0:56.754,80.584,10.2594,0,0.000885,0,0
0:0:57.250,81.6427,10.3973,0,0.000885,0,0
0:0:57.750,82.9905,10.5697,0,0.000885,0,0
0:0:58.247,83.8712,10.68,0,0.000885,0,0
0:0:58.747,84.6319,10.7765,0,0.000885,0,0
0:0:59.254,85.864,10.9351,0,0.000885,0,0
0:0:59.759,86.5668,11.0247,0,0.000885,0,0
0:1:0.261,87.6255,11.1557,0,0.000885,0,0
0:1:0.757,88.5641,11.2729,0,0.000885,0,0
0:1:1.256,90.1477,11.4798,0,0.000885,0,0
0:1:1.755,90.8505,11.5694,0,0.000885,0,0
0:1:2.252,91.7312,11.6797,0,0.000885,0,0
0:1:2.747,92.6698,11.7969,0,0.000885,0,0
0:1:3.246,93.1947,11.8659,0,0.000885,0,0
0:1:3.744,94.5425,12.0382,0,0.000885,0,0
0:1:4.252,95.4232,12.1486,0,0.000885,0,0
0:1:4.755,97.3582,12.3968,0,0.000885,0,0
0:1:5.261,98.1811,12.5002,0,0.000885,0,0
0:1:5.759,98.5326,12.5485,0,0.000885,0,0
0:1:6.255,99.0041,12.6036,0,0.000885,0,0
0:1:6.753,100.468,12.7898,0,0.000885,0,0
0:1:7.249,100.997,12.8587,0,0.000885,0,0
0:1:7.748,102.696,13.0725,0,0.000885,0,0
0:1:8.244,103.341,13.1552,0,0.000885,0,0
0:1:8.742,104.28,13.2793,0,0.000885,0,0
0:1:9.249,105.454,13.4241,0,0.000885,0,0
0:1:9.754,106.335,13.5413,0,0.000885,0,0
0:1:10.257,107.331,13.6654,0,0.000885,0,0
0:1:10.756,108.27,13.7826,0,0.000885,0,0
0:1:11.254,109.266,13.9136,0,0.000885,0,0
0:1:11.752,110.556,14.0791,0,0.000885,0,0
0:1:12.247,111.201,14.1618,0,0.000885,0,0
0:1:12.745,112.491,14.3204,0,0.000885,0,0
0:1:13.241,113.372,14.4376,0,0.000885,0,0
0:1:13.739,114.253,14.5479,0,0.000885,0,0
0:1:14.245,115.365,14.6858,0,0.000885,0,0
0:1:14.751,116.188,14.7961,0,0.000885,0,0
0:1:15.255,117.42,14.9478,0,0.000885,0,0
0:1:15.750,118.238,15.0581,0,0.000885,0,0
0:1:16.248,119.822,15.2581,0,0.000885,0,0
0:1:16.743,120,15.2788,0,0.000885,0,0
0:1:17.240,120.938,15.396,0,0.000885,0,0
0:1:17.733,122.402,15.5822,0,0.000885,0,0
0:1:18.232,123.225,15.6925,0,0.000885,0,0
0:1:18.742,123.692,15.7476,0,0.000885,0,0
0:1:19.247,125.453,15.9752,0,0.000885,0,0
0:1:19.750,126.04,16.051,0,0.000885,0,0
0:1:20.247,126.628,16.1199,0,0.000885,0,0
0:1:20.743,128.385,16.3475,0,0.000885,0,0
0:1:21.240,128.914,16.4164,0,0.000885,0,0
0:1:21.735,129.968,16.5474,0,0.000885,0,0
0:1:22.232,130.849,16.6577,0,0.000885,0,0
0:1:22.741,131.787,16.7818,0,0.000885,0,0
0:1:23.236,133.549,17.0025,0,0.000885,0,0
0:1:23.736,133.371,16.9818,0,0.000885,0,0
0:1:24.247,134.603,17.1404,0,0.000885,0,0
0:1:24.750,135.835,17.2921,0,0.000885,0,0
0:1:25.249,136.716,17.4093,0,0.000885,0,0
0:1:25.749,137.477,17.5058,0,0.000885,0,0
0:1:26.245,138.651,17.6506,0,0.000885,0,0
0:1:26.743,139.647,17.7816,0,0.000885,0,0
0:1:27.237,140.995,17.9539,0,0.000885,0,0
0:1:27.749,141.992,18.0781,0,0.000885,0,0
0:1:28.244,143.05,18.2159,0,0.000885,0,0
0:1:28.738,143.695,18.2987,0,0.000885,0,0
0:1:29.247,144.162,18.3538,0,0.000885,0,0
0:1:29.751,145.862,18.5745,0,0.000885,0,0
0:1:30.254,146.627,18.671,0,0.000885,0,0
0:1:30.750,147.739,18.8089,0,0.000885,0,0
0:1:31.249,148.855,18.9537,0,0.000885,0,0
0:1:31.743,149.736,19.064,0,0.000885,0,0
0:1:32.238,150.497,19.1605,0,0.000885,0,0
0:1:32.745,151.551,19.2984,0,0.000885,0,0
0:1:33.242,152.08,19.3605,0,0.000885,0,0
0:1:33.748,153.019,19.4846,0,0.000885,0,0
0:1:34.254,154.78,19.7052,0,0.000885,0,0
0:1:34.756,155.19,19.7604,0,0.000885,0,0
0:1:35.251,156.186,19.8845,0,0.000885,0,0
0:1:35.749,157.476,20.05,0,0.000885,0,0
0:1:36.247,158.415,20.1672,0,0.000885,0,0
0:1:36.743,159.117,20.2568,0,0.000885,0,0
0:1:37.249,160.47,20.4292,0,0.000885,0,0
0:1:37.746,161.817,20.6015,0,0.000885,0,0
0:1:38.244,162.169,20.6498,0,0.000885,0,0
0:1:38.746,163.165,20.7739,0,0.000885,0,0
0:1:39.252,164.162,20.9049,0,0.000885,0,0
0:1:39.757,165.394,21.0566,0,0.000885,0,0
0:1:40.257,165.981,21.1324,0,0.000885,0,0
0:1:40.754,167.858,21.3737,0,0.000885,0,0
0:1:41.251,168.152,21.4082,0,0.000885,0,0
0:1:41.747,169.264,21.553,0,0.000885,0,0
0:1:42.243,170.202,21.6702,0,0.000885,0,0
0:1:42.739,171.141,21.7874,0,0.000885,0,0
0:1:43.248,171.906,21.8909,0,0.000885,0,0
0:1:43.746,173.254,22.0563,0,0.000885,0,0
0:1:44.253,174.486,22.2149,0,0.000885,0,0
0:1:44.756,175.54,22.3528,0,0.000885,0,0
0:1:45.260,175.66,22.3666,0,0.000885,0,0
0:1:45.757,177.008,22.539,0,0.000885,0,0
0:1:46.255,178.12,22.6769,0,0.000885,0,0
0:1:46.751,179.472,22.8492,0,0.000885,0,0
0:1:47.248,180.117,22.932,0,0.000885,0,0
0:1:47.753,181.114,23.063,0,0.000885,0,0
0:1:48.252,182.346,23.2146,0,0.000885,0,0
0:1:48.749,183.222,23.3319,0,0.000885,0,0
0:1:49.255,183.809,23.4008,0,0.000885,0,0
0:1:49.762,184.512,23.4904,0,0.000885,0,0
0:1:50.264,186.158,23.7042,0,0.000885,0,0
0:1:50.764,187.097,23.8214,0,0.000885,0,0
0:1:51.260,188.093,23.9455,0,0.000885,0,0
0:1:51.755,188.796,24.0351,0,0.000885,0,0
0:1:52.252,189.97,24.1868,0,0.000885,0,0
0:1:52.750,191.082,24.3316,0,0.000885,0,0
0:1:53.249,191.669,24.4074,0,0.000885,0,0
0:1:53.753,193.08,24.5867,0,0.000885,0,0
0:1:54.254,194.076,24.7108,0,0.000885,0,0
0:1:54.756,194.837,24.8073,0,0.000885,0,0
0:1:55.250,196.127,24.9728,0,0.000885,0,0
0:1:55.745,197.301,25.1176,0,0.000885,0,0
0:1:56.247,198.475,25.2693,0,0.000885,0,0
0:1:56.751,198.591,25.2831,0,0.000885,0,0
0:1:57.246,199.529,25.4072,0,0.000885,0,0
0:1:57.738,200.877,25.5795,0,0.000885,0,0
0:1:58.240,201.349,25.6347,0,0.000885,0,0
0:1:58.740,202.109,25.7312,0,0.000885,0,0
0:1:59.247,203.457,25.9036,0,0.000885,0,0
0:1:59.747,204.164,25.9932,0,0.000885,0,0
0:2:0.247,205.748,26.1932,0,0.000885,0,0
0:2:0.752,206.802,26.3311,0,0.000885,0,0
0:2:1.245,208.092,26.4966,0,0.000885,0,0
0:2:1.748,209.089,26.6207,0,0.000885,0,0
0:2:2.251,210.143,26.7586,0,0.000885,0,0
0:2:2.741,210.085,26.7517,0,0.000885,0,0
0:2:3.248,211.144,26.8827,0,0.000885,0,0
0:2:3.751,212.198,27.0206,0,0.000885,0,0
0:2:4.252,213.194,27.1447,0,0.000885,0,0
0:2:4.754,214.484,27.3101,0,0.000885,0,0
0:2:5.255,215.539,27.4411,0,0.000885,0,0
0:2:5.749,216.477,27.5652,0,0.000885,0,0
0:2:6.251,217.122,27.648,0,0.000885,0,0
0:2:6.742,218.706,27.8479,0,0.000885,0,0
0:2:7.247,219.707,27.972,0,0.000885,0,0
0:2:7.739,220.467,28.0686,0,0.000885,0,0
0:2:8.240,221.464,28.1996,0,0.000885,0,0
0:2:8.746,222.344,28.3099,0,0.000885,0,0
0:2:9.248,223.047,28.3995,0,0.000885,0,0
0:2:9.748,223.812,28.496,0,0.000885,0,0
0:2:10.240,224.924,28.6408,0,0.000885,0,0
0:2:10.732,226.566,28.8477,0,0.000885,0,0
0:2:11.226,226.979,28.9028,0,0.000885,0,0
0:2:11.729,227.976,29.0269,0,0.000885,0,0
0:2:12.224,228.972,29.151,0,0.000885,0,0
0:2:12.729,229.853,29.2682,0,0.000885,0,0
0:2:13.223,230.671,29.3717,0,0.000885,0,0
0:2:13.723,232.082,29.5509,0,0.000885,0,0
0:2:14.227,233.194,29.6888,0,0.000885,0,0
0:2:14.726,233.665,29.7509,0,0.000885,0,0
0:2:15.223,234.604,29.8681,0,0.000885,0,0
0:2:15.719,235.894,30.0336,0,0.000885,0,0
0:2:16.213,237.357,30.2197,0,0.000885,0,0
0:2:16.708,238.18,30.3231,0,0.000885,0,0
0:2:17.201,239.586,30.5024,0,0.000885,0,0
0:2:17.695,239.648,30.5093,0,0.000885,0,0
0:2:18.188,240.409,30.6127,0,0.000885,0,0
0:2:18.681,241.876,30.7989,0,0.000885,0,0
0:2:19.186,242.753,30.9092,0,0.000885,0,0
0:2:19.686,244.163,31.0885,0,0.000885,0,0
0:2:20.186,244.808,31.1712,0,0.000885,0,0
0:2:20.681,245.275,31.2264,0,0.000885,0,0
0:2:21.176,246.507,31.3849,0,0.000885,0,0
0:2:21.670,247.624,31.5297,0,0.000885,0,0
0:2:22.163,248.384,31.6263,0,0.000885,0,0
0:2:22.657,249.323,31.7435,0,0.000885,0,0
0:2:23.151,250.439,31.8883,0,0.000885,0,0
0:2:23.642,251.2,31.9848,0,0.000885,0,0
0:2:24.146,252.432,32.1434,0,0.000885,0,0
0:2:24.649,254.016,32.3433,0,0.000885,0,0
0:2:25.149,254.483,32.4054,0,0.000885,0,0
0:2:25.641,255.128,32.4812,0,0.000885,0,0
0:2:26.148,256.302,32.6329,0,0.000885,0,0
0:2:26.650,257.476,32.7846,0,0.000885,0,0
0:2:27.155,258.473,32.9087,0,0.000885,0,0
0:2:27.646,259.354,33.019,0,0.000885,0,0
0:2:28.138,260.408,33.1569,0,0.000885,0,0
0:2:28.643,261.64,33.3155,0,0.000885,0,0
0:2:29.144,261.698,33.3224,0,0.000885,0,0
0:2:29.643,263.166,33.5085,0,0.000885,0,0
0:2:30.149,264.571,33.6878,0,0.000885,0,0
0:2:30.652,265.216,33.7705,0,0.000885,0,0
0:2:31.144,266.626,33.9498,0,0.000885,0,0
0:2:31.638,266.742,33.9636,0,0.000885,0,0
0:2:32.140,267.445,34.0532,0,0.000885,0,0
0:2:32.635,269.673,34.3359,0,0.000885,0,0
0:2:33.136,269.967,34.3704,0,0.000885,0,0
0:2:33.640,271.493,34.5703,0,0.000885,0,0
0:2:34.141,272.667,34.7151,0,0.000885,0,0
0:2:34.641,272.667,34.7151,0,0.000885,0,0
0:2:35.144,273.957,34.8806,0,0.000885,0,0
0:2:35.651,274.838,34.9909,0,0.000885,0,0
0:2:36.142,275.834,35.1219,0,0.000885,0,0
0:2:36.648,277.066,35.2736,0,0.000885,0,0
0:2:37.152,278.063,35.4046,0,0.000885,0,0
0:2:37.644,278.823,35.5011,0,0.000885,0,0
0:2:38.138,279.998,35.6528,0,0.000885,0,0
0:2:38.639,280.758,35.7493,0,0.000885,0,0
0:2:39.141,282.048,35.9148,0,0.000885,0,0
0:2:39.641,283.281,36.0665,0,0.000885,0,0
0:2:40.148,284.513,36.2251,0,0.000885,0,0
0:2:40.651,285.571,36.3629,0,0.000885,0,0
0:2:41.143,285.158,36.3078,0,0.000885,0,0
0:2:41.637,286.448,36.4733,0,0.000885,0,0
0:2:42.131,287.8,36.6456,0,0.000885,0,0
0:2:42.625,289.028,36.7973,0,0.000885,0,0
0:2:43.119,289.851,36.9076,0,0.000885,0,0
0:2:43.618,290.673,37.0111,0,0.000885,0,0
0:2:44.122,291.67,37.1352,0,0.000885,0,0
0:2:44.622,292.431,37.2317,0,0.000885,0,0
0:2:45.119,294.014,37.4385,0,0.000885,0,0
0:2:45.614,294.895,37.5488,0,0.000885,0,0
0:2:46.107,295.718,37.6523,0,0.000885,0,0
0:2:46.602,296.772,37.7833,0,0.000885,0,0
0:2:47.096,296.945,37.8108,0,0.000885,0,0
0:2:47.591,298.471,38.0039,0,0.000885,0,0
0:2:48.085,299.881,38.1832,0,0.000885,0,0
0:2:48.579,300.993,38.3211,0,0.000885,0,0
0:2:49.082,301.696,38.4107,0,0.000885,0,0
0:2:49.582,302.519,38.521,0,0.000885,0,0
0:2:50.083,303.516,38.6451,0,0.000885,0,0
0:2:50.576,303.751,38.6727,0,0.000885,0,0
0:2:51.071,305.157,38.852,0,0.000885,0,0
0:2:51.562,306.038,38.9692,0,0.000885,0,0
0:2:52.057,307.328,39.1277,0,0.000885,0,0
0:2:52.551,308.444,39.2725,0,0.000885,0,0
0:2:53.055,309.498,39.4035,0,0.000885,0,0
0:2:53.559,310.321,39.5139,0,0.000885,0,0
0:2:54.063,310.846,39.5759,0,0.000885,0,0
0:2:54.561,312.078,39.7345,0,0.000885,0,0
0:2:55.055,313.488,39.9137,0,0.000885,0,0
0:2:55.546,314.307,40.0172,0,0.000885,0,0
0:2:56.041,315.245,40.1413,0,0.000885,0,0
0:2:56.536,316.184,40.2585,0,0.000885,0,0
0:2:57.031,317.007,40.3619,0,0.000885,0,0
0:2:57.543,317.946,40.4791,0,0.000885,0,0
0:2:58.038,319.293,40.6515,0,0.000885,0,0
0:2:58.537,320.116,40.7549,0,0.000885,0,0
0:2:59.040,320.935,40.8652,0,0.000885,0,0
0:2:59.540,321.993,40.9962,0,0.000885,0,0
0:3:0.038,323.048,41.1341,0,0.000885,0,0
0:3:0.541,323.808,41.2306,0,0.000885,0,0
0:3:1.045,324.867,41.3616,0,0.000885,0,0
0:3:1.539,325.806,41.4858,0,0.000885,0,0
0:3:2.032,326.86,41.6168,0,0.000885,0,0
0:3:2.528,327.678,41.7202,0,0.000885,0,0
0:3:3.021,328.795,41.865,0,0.000885,0,0
0:3:3.517,329.849,41.996,0,0.000885,0,0
0:3:4.022,330.436,42.0718,0,0.000885,0,0
0:3:4.521,332.14,42.2924,0,0.000885,0,0
0:3:5.021,332.665,42.3545,0,0.000885,0,0
0:3:5.512,333.723,42.4924,0,0.000885,0,0
0:3:6.006,334.426,42.582,0,0.000885,0,0
0:3:6.498,335.365,42.6992,0,0.000885,0,0
0:3:6.992,336.597,42.8578,0,0.000885,0,0
0:3:7.484,337.887,43.0233,0,0.000885,0,0
0:3:7.980,338.238,43.0647,0,0.000885,0,0
0:3:8.484,339.528,43.2301,0,0.000885,0,0
0:3:8.985,340.64,43.3749,0,0.000885,0,0
0:3:9.487,341.405,43.4714,0,0.000885,0,0
0:3:9.982,342.575,43.6162,0,0.000885,0,0
0:3:10.475,343.283,43.7059,0,0.000885,0,0
0:3:10.968,343.87,43.7817,0,0.000885,0,0
0:3:11.462,345.275,43.961,0,0.000885,0,0
0:3:11.957,345.863,44.0368,0,0.000885,0,0
0:3:12.452,347.326,44.223,0,0.000885,0,0
0:3:12.945,348.794,44.4091,0,0.000885,0,0
0:3:13.442,348.794,44.4091,0,0.000885,0,0
0:3:13.946,350.555,44.6367,0,0.000885,0,0
0:3:14.446,351.494,44.7539,0,0.000885,0,0
0:3:14.944,352.197,44.8435,0,0.000885,0,0
0:3:15.439,353.545,45.0159,0,0.000885,0,0
0:3:15.940,353.838,45.0503,0,0.000885,0,0
0:3:16.435,355.537,45.271,0,0.000885,0,0
0:3:16.929,355.951,45.3192,0,0.000885,0,0
0:3:17.423,357.005,45.4571,0,0.000885,0,0
0:3:17.916,357.708,45.5468,0,0.000885,0,0
0:3:18.410,358.998,45.7122,0,0.000885,0,0
0:3:18.914,360.288,45.8708,0,0.000885,0,0
0:3:19.414,360.524,45.9053,0,0.000885,0,0
0:3:19.915,362.343,46.1328,0,0.000885,0,0
0:3:20.409,363.104,46.2293,0,0.000885,0,0
0:3:20.901,363.455,46.2776,0,0.000885,0,0
0:3:21.394,364.572,46.4155,0,0.000885,0,0
0:3:21.887,365.101,46.4845,0,0.000885,0,0
0:3:22.380,366.507,46.6637,0,0.000885,0,0
0:3:22.873,367.797,46.8292,0,0.000885,0,0
0:3:23.377,368.971,46.9809,0,0.000885,0,0
0:3:23.880,369.38,47.0291,0,0.000885,0,0
0:3:24.381,370.964,47.236,0,0.000885,0,0
0:3:24.876,371.435,47.2911,0,0.000885,0,0
0:3:25.370,372.783,47.4635,0,0.000885,0,0
0:3:25.865,373.602,47.5669,0,0.000885,0,0
0:3:26.358,374.718,47.7117,0,0.000885,0,0
0:3:26.850,375.127,47.76,0,0.000885,0,0
0:3:27.354,376.302,47.9117,0,0.000885,0,0
0:3:27.847,377.356,48.0496,0,0.000885,0,0
0:3:28.353,377.885,48.1116,0,0.000885,0,0
0:3:28.856,379.585,48.3322,0,0.000885,0,0
0:3:29.356,380.581,48.4564,0,0.000885,0,0
0:3:29.859,381.168,48.5322,0,0.000885,0,0
0:3:30.362,382.52,48.7046,0,0.000885,0,0
0:3:30.857,383.748,48.8631,0,0.000885,0,0
0:3:31.348,384.335,48.9321,0,0.000885,0,0
0:3:31.851,385.394,49.07,0,0.000885,0,0
0:3:32.345,386.39,49.1941,0,0.000885,0,0
0:3:32.848,387.502,49.3389,0,0.000885,0,0
0:3:33.348,387.854,49.3803,0,0.000885,0,0
0:3:33.855,389.5,49.594,0,0.000885,0,0
0:3:34.354,390.082,49.6698,0,0.000885,0,0
0:3:34.861,391.141,49.8008,0,0.000885,0,0
0:3:35.356,391.492,49.8491,0,0.000885,0,0
0:3:35.848,393.837,50.1456,0,0.000885,0,0
0:3:36.341,394.308,50.2076,0,0.000885,0,0
0:3:36.835,395.069,50.3041,0,0.000885,0,0
0:3:37.330,396.065,50.4283,0,0.000885,0,0
0:3:37.823,397.417,50.6006,0,0.000885,0,0
0:3:38.321,397.827,50.6558,0,0.000885,0,0
0:3:38.823,399.232,50.835,0,0.000885,0,0
0:3:39.322,400.349,50.9729,0,0.000885,0,0
0:3:39.821,400.642,51.0143,0,0.000885,0,0
0:3:40.314,402.342,51.228,0,0.000885,0,0
0:3:40.810,403.107,51.3246,0,0.000885,0,0
0:3:41.302,403.632,51.3935,0,0.000885,0,0
0:3:41.797,405.273,51.6004,0,0.000885,0,0
0:3:42.290,405.567,51.6417,0,0.000885,0,0
0:3:42.783,406.741,51.7865,0,0.000885,0,0
0:3:43.277,407.973,51.9451,0,0.000885,0,0
0:3:43.781,409.205,52.1037,0,0.000885,0,0
0:3:44.283,409.441,52.1313,0,0.000885,0,0
0:3:44.782,411.14,52.345,0,0.000885,0,0
0:3:45.276,411.607,52.4071,0,0.000885,0,0
0:3:45.769,412.608,52.5381,0,0.000885,0,0
0:3:46.263,413.253,52.6139,0,0.000885,0,0
0:3:46.752,414.365,52.7587,0,0.000885,0,0
0:3:47.247,415.891,52.9517,0,0.000885,0,0
0:3:47.750,416.127,52.9793,0,0.000885,0,0
0:3:48.253,418.004,53.2206,0,0.000885,0,0
0:3:48.758,418.649,53.3034,0,0.000885,0,0
0:3:49.259,419.525,53.4137,0,0.000885,0,0
0:3:49.760,420.112,53.4895,0,0.000885,0,0
0:3:50.251,421.171,53.6274,0,0.000885,0,0
0:3:50.745,422.461,53.786,0,0.000885,0,0
0:3:51.258,423.982,53.9859,0,0.000885,0,0
0:3:51.751,424.396,54.0342,0,0.000885,0,0
0:3:52.256,425.45,54.1721,0,0.000885,0,0
0:3:52.760,426.447,54.2962,0,0.000885,0,0
0:3:53.263,427.269,54.3996,0,0.000885,0,0
0:3:53.764,428.03,54.4962,0,0.000885,0,0
0:3:54.266,429.556,54.6961,0,0.000885,0,0
0:3:54.761,430.904,54.8616,0,0.000885,0,0
0:3:55.263,431.197,54.903,0,0.000885,0,0
0:3:55.758,432.372,55.0546,0,0.000885,0,0
0:3:56.261,433.074,55.1443,0,0.000885,0,0
0:3:56.765,433.955,55.2546,0,0.000885,0,0
0:3:57.258,435.187,55.4063,0,0.000885,0,0
0:3:57.751,436.242,55.5442,0,0.000885,0,0
0:3:58.259,437.589,55.7165,0,0.000885,0,0
0:3:58.763,438.354,55.8131,0,0.000885,0,0
0:3:59.263,439.351,55.9372,0,0.000885,0,0
0:3:59.762,440.467,56.082,0,0.000885,0,0
0:4:0.257,441.464,56.2061,0,0.000885,0,0
0:4:0.761,442.167,56.2957,0,0.000885,0,0
0:4:1.263,443.105,56.4198,0,0.000885,0,0
0:4:1.753,444.395,56.5853,0,0.000885,0,0
0:4:2.259,444.862,56.6404,0,0.000885,0,0
0:4:2.762,446.214,56.8128,0,0.000885,0,0
0:4:3.254,447.384,56.9645,0,0.000885,0,0
0:4:3.761,447.972,57.0403,0,0.000885,0,0
0:4:4.261,449.03,57.1713,0,0.000885,0,0
0:4:4.762,449.791,57.2679,0,0.000885,0,0
0:4:5.257,450.672,57.3782,0,0.000885,0,0
0:4:5.747,451.61,57.5023,0,0.000885,0,0
0:4:6.250,453.425,57.7298,0,0.000885,0,0
0:4:6.744,453.897,57.7919,0,0.000885,0,0
0:4:7.247,454.951,57.9229,0,0.000885,0,0
0:4:7.761,456.241,58.0883,0,0.000885,0,0
0:4:8.265,456.712,58.1504,0,0.000885,0,0
0:4:8.767,457.882,58.3021,0,0.000885,0,0
0:4:9.268,458.469,58.371,0,0.000885,0,0
0:4:9.761,459.47,58.502,0,0.000885,0,0
0:4:10.264,461.049,58.702,0,0.000885,0,0
0:4:10.758,462.224,58.8536,0,0.000885,0,0
0:4:11.261,463.162,58.9709,0,0.000885,0,0
0:4:11.754,463.634,59.0329,0,0.000885,0,0
0:4:12.248,464.804,59.1777,0,0.000885,0,0
0:4:12.744,465.742,59.3018,0,0.000885,0,0
0:4:13.240,466.801,59.4328,0,0.000885,0,0
0:4:13.745,467.913,59.5776,0,0.000885,0,0
0:4:14.245,468.972,59.7086,0,0.000885,0,0
0:4:14.745,469.439,59.7707,0,0.000885,0,0
0:4:15.240,470.377,59.8879,0,0.000885,0,0
0:4:15.733,471.374,60.0189,0,0.000885,0,0
0:4:16.227,472.37,60.143,0,0.000885,0,0
0:4:16.721,473.78,60.3222,0,0.000885,0,0
0:4:17.215,474.599,60.4257,0,0.000885,0,0
0:4:17.709,474.95,60.4739,0,0.000885,0,0
0:4:18.202,476.182,60.6325,0,0.000885,0,0
0:4:18.706,477.356,60.7773,0,0.000885,0,0
0:4:19.209,478.646,60.9428,0,0.000885,0,0
0:4:19.709,479.234,61.0186,0,0.000885,0,0
0:4:20.204,480.408,61.1703,0,0.000885,0,0
0:4:20.695,481.462,61.3013,0,0.000885,0,0
0:4:21.189,482.049,61.3771,0,0.000885,0,0
0:4:21.684,483.046,61.5012,0,0.000885,0,0
0:4:22.178,484.394,61.6736,0,0.000885,0,0
0:4:22.669,485.159,61.7701,0,0.000885,0,0
0:4:23.174,486.213,61.908,0,0.000885,0,0
0:4:23.677,487.267,62.039,0,0.000885,0,0
0:4:24.179,488.384,62.1838,0,0.000885,0,0
0:4:24.672,488.793,62.2321,0,0.000885,0,0
0:4:25.165,490.261,62.4251,0,0.000885,0,0
0:4:25.660,491.257,62.5492,0,0.000885,0,0
0:4:26.162,491.96,62.6389,0,0.000885,0,0
0:4:26.667,492.783,62.7423,0,0.000885,0,0
0:4:27.161,493.895,62.8871,0,0.000885,0,0
0:4:27.654,495.185,63.0457,0,0.000885,0,0
0:4:28.164,496.244,63.1836,0,0.000885,0,0
0:4:28.667,497.182,63.3008,0,0.000885,0,0
0:4:29.169,497.827,63.3835,0,0.000885,0,0
0:4:29.667,498.646,63.4869,0,0.000885,0,0
0:4:30.161,499.993,63.6593,0,0.000885,0,0
0:4:30.653,500.816,63.7627,0,0.000885,0,0
0:4:31.147,501.519,63.8523,0,0.000885,0,0
0:4:31.640,502.516,63.9833,0,0.000885,0,0
0:4:32.135,503.396,64.0937,0,0.000885,0,0
0:4:32.629,504.806,64.2729,0,0.000885,0,0
0:4:33.121,505.158,64.3212,0,0.000885,0,0
0:4:33.627,507.035,64.5556,0,0.000885,0,0
0:4:34.129,507.738,64.6452,0,0.000885,0,0
0:4:34.629,508.912,64.7969,0,0.000885,0,0
0:4:35.124,509.615,64.8866,0,0.000885,0,0
0:4:35.619,510.26,64.9693,0,0.000885,0,0
0:4:36.112,511.078,65.0727,0,0.000885,0,0
0:4:36.605,512.311,65.2313,0,0.000885,0,0
0:4:37.100,513.369,65.3623,0,0.000885,0,0
0:4:37.591,514.659,65.5278,0,0.000885,0,0
0:4:38.097,515.478,65.6312,0,0.000885,0,0
0:4:38.598,516.594,65.776,0,0.000885,0,0
0:4:39.099,517.591,65.9001,0,0.000885,0,0
0:4:39.592,518.351,65.9966,0,0.000885,0,0
0:4:40.085,519.352,66.1276,0,0.000885,0,0
0:4:40.579,520.113,66.2241,0,0.000885,0,0
0:4:41.073,521.109,66.3482,0,0.000885,0,0
0:4:41.568,522.577,66.5344,0,0.000885,0,0
0:4:42.061,522.928,66.5827,0,0.000885,0,0
0:4:42.554,524.161,66.7413,0,0.000885,0,0
0:4:43.051,525.215,66.8723,0,0.000885,0,0
0:4:43.555,525.976,66.9688,0,0.000885,0,0
0:4:44.056,527.15,67.1205,0,0.000885,0,0
0:4:44.555,528.733,67.3204,0,0.000885,0,0
0:4:45.058,529.143,67.3756,0,0.000885,0,0
0:4:45.564,529.966,67.479,0,0.000885,0,0
0:4:46.056,531.371,67.6583,0,0.000885,0,0
0:4:46.559,532.31,67.7755,0,0.000885,0,0
0:4:47.052,533.248,67.8927,0,0.000885,0,0
0:4:47.545,533.836,67.9685,0,0.000885,0,0
0:4:48.048,534.716,68.0788,0,0.000885,0,0
0:4:48.553,535.655,68.2029,0,0.000885,0,0
0:4:49.054,537.123,68.3891,0,0.000885,0,0
0:4:49.554,538.355,68.5477,0,0.000885,0,0
0:4:50.061,539.058,68.6373,0,0.000885,0,0
0:4:50.553,539.818,68.7338,0,0.000885,0,0
0:4:51.047,541.108,68.8993,0,0.000885,0,0
0:4:51.541,541.46,68.9407,0,0.000885,0,0
0:4:52.034,542.576,69.0855,0,0.000885,0,0
0:4:52.528,543.982,69.2647,0,0.000885,0,0
0:4:53.033,545.041,69.3957,0,0.000885,0,0
0:4:53.534,545.801,69.4923,0,0.000885,0,0
0:4:54.034,547.385,69.6922,0,0.000885,0,0
0:4:54.530,547.563,69.7198,0,0.000885,0,0
0:4:55.022,548.381,69.8232,0,0.000885,0,0
0:4:55.517,549.146,69.9197,0,0.000885,0,0
0:4:56.010,550.258,70.0645,0,0.000885,0,0
0:4:56.506,551.9,70.2714,0,0.000885,0,0
0:4:56.999,552.607,70.361,0,0.000885,0,0
0:4:57.493,553.425,70.4644,0,0.000885,0,0
0:4:57.995,554.836,70.6437,0,0.000885,0,0
0:4:58.500,555.654,70.7471,0,0.000885,0,0
0:4:59.001,556.477,70.8505,0,0.000885,0,0
0:4:59.497,557.295,70.9539,0,0.000885,0,0
0:4:59.990,558.648,71.1263,0,0.000885,0,0
0:5:0.485,559.524,71.2435,0,0.000885,0,0
0:5:0.978,559.996,71.2987,0,0.000885,0,0
0:5:1.473,561.401,71.4779,0,0.000885,0,0
0:5:1.967,562.398,71.6089,0,0.000885,0,0
0:5:2.459,563.75,71.7813,0,0.000885,0,0
0:5:2.959,564.395,71.8641,0,0.000885,0,0
0:5:3.465,564.982,71.933,0,0.000885,0,0
0:5:3.967,565.858,72.0502,0,0.000885,0,0
0:5:4.464,567.09,72.2019,0,0.000885,0,0
0:5:4.957,568.674,72.4087,0,0.000885,0,0
0:5:5.450,569.261,72.4777,0,0.000885,0,0
0:5:5.954,570.2,72.6018,0,0.000885,0,0
0:5:6.457,571.374,72.7466,0,0.000885,0,0
0:5:6.963,572.544,72.8983,0,0.000885,0,0
0:5:7.466,573.367,73.0017,0,0.000885,0,0
0:5:7.960,574.305,73.1258,0,0.000885,0,0
0:5:8.466,574.657,73.1672,0,0.000885,0,0
0:5:8.969,575.773,73.312,0,0.000885,0,0
0:5:9.469,576.77,73.4361,0,0.000885,0,0
0:5:9.960,577.944,73.5877,0,0.000885,0,0
0:5:10.468,579.234,73.7532,0,0.000885,0,0
0:5:10.959,579.817,73.8222,0,0.000885,0,0
0:5:11.467,581.227,74.0014,0,0.000885,0,0
0:5:11.969,581.814,74.0773,0,0.000885,0,0
0:5:12.464,582.575,74.1738,0,0.000885,0,0
0:5:12.956,583.807,74.3324,0,0.000885,0,0
0:5:13.459,585.333,74.5254,0,0.000885,0,0
0:5:13.964,586.213,74.6357,0,0.000885,0,0
0:5:14.462,587.09,74.753,0,0.000885,0,0
0:5:14.967,587.797,74.8426,0,0.000885,0,0
0:5:15.458,589.087,75.0081,0,0.000885,0,0
0:5:15.955,589.848,75.1046,0,0.000885,0,0
0:5:16.449,590.377,75.1666,0,0.000885,0,0
0:5:16.947,592.081,75.3873,0,0.000885,0,0
0:5:17.461,592.783,75.4769,0,0.000885,0,0
0:5:17.970,593.842,75.6079,0,0.000885,0,0
0:5:18.475,594.661,75.7113,0,0.000885,0,0
0:5:18.981,595.541,75.8285,0,0.000885,0,0
0:5:19.485,596.778,75.9871,0,0.000885,0,0
0:5:19.982,597.716,76.1043,0,0.000885,0,0
0:5:20.477,598.713,76.2284,0,0.000885,0,0
0:5:20.975,600.123,76.4077,0,0.000885,0,0
0:5:21.469,601.004,76.5249,0,0.000885,0,0
0:5:21.967,601.471,76.5801,0,0.000885,0,0
0:5:22.472,602.351,76.6973,0,0.000885,0,0
0:5:22.977,603.641,76.8559,0,0.000885,0,0
0:5:23.482,604.291,76.9386,0,0.000885,0,0
0:5:23.985,605.639,77.111,0,0.000885,0,0
0:5:24.482,606.755,77.2558,0,0.000885,0,0
0:5:24.979,607.285,77.3247,0,0.000885,0,0
0:5:25.475,608.517,77.4764,0,0.000885,0,0
0:5:25.972,609.277,77.5729,0,0.000885,0,0
0:5:26.469,610.745,77.766,0,0.000885,0,0
0:5:26.962,611.51,77.8625,0,0.000885,0,0
0:5:27.459,612.565,77.9935,0,0.000885,0,0
0:5:27.959,613.859,78.159,0,0.000885,0,0
0:5:28.468,614.62,78.2555,0,0.000885,0,0
0:5:28.970,615.322,78.3451,0,0.000885,0,0
0:5:29.473,616.617,78.5106,0,0.000885,0,0
0:5:29.969,617.262,78.5933,0,0.000885,0,0
0:5:30.467,618.258,78.7174,0,0.000885,0,0
0:5:30.972,619.784,78.9105,0,0.000885,0,0
0:5:31.467,620.434,78.9932,0,0.000885,0,0
0:5:31.961,621.016,79.0691,0,0.000885,0,0
0:5:32.457,622.017,79.2001,0,0.000885,0,0
0:5:32.952,623.191,79.3449,0,0.000885,0,0
0:5:33.460,624.424,79.5034,0,0.000885,0,0
0:5:33.962,625.126,79.5931,0,0.000885,0,0
0:5:34.466,626.243,79.7379,0,0.000885,0,0
0:5:34.960,626.888,79.8206,0,0.000885,0,0
0:5:35.456,627.711,79.924,0,0.000885,0,0
0:5:35.953,628.827,80.0619,0,0.000885,0,0
0:5:36.470,630.233,80.2412,0,0.000885,0,0
0:5:36.967,630.584,80.2894,0,0.000885,0,0
0:5:37.460,632.346,80.5101,0,0.000885,0,0
0:5:37.969,633.64,80.6756,0,0.000885,0,0
0:5:38.472,633.992,80.7238,0,0.000885,0,0
0:5:38.975,634.752,80.8203,0,0.000885,0,0
0:5:39.471,635.695,80.9376,0,0.000885,0,0
0:5:39.967,636.572,81.0479,0,0.000885,0,0
0:5:40.472,637.982,81.2271,0,0.000885,0,0
0:5:40.969,639.04,81.365,0,0.000885,0,0
0:5:41.463,639.979,81.4822,0,0.000885,0,0
0:5:41.960,640.624,81.565,0,0.000885,0,0
0:5:42.456,641.972,81.7373,0,0.000885,0,0
0:5:42.958,642.679,81.827,0,0.000885,0,0
0:5:43.467,643.853,81.9787,0,0.000885,0,0
0:5:43.971,644.85,82.1028,0,0.000885,0,0
0:5:44.470,645.908,82.2407,0,0.000885,0,0
0:5:44.975,646.905,82.3648,0,0.000885,0,0
0:5:45.471,647.434,82.4337,0,0.000885,0,0
0:5:45.968,648.902,82.6199,0,0.000885,0,0
0:5:46.463,649.311,82.675,0,0.000885,0,0
0:5:46.959,650.601,82.8405,0,0.000885,0,0
0:5:47.457,651.54,82.9577,0,0.000885,0,0
0:5:47.963,652.363,83.0611,0,0.000885,0,0
0:5:48.471,653.422,83.199,0,0.000885,0,0
0:5:48.973,654.596,83.3438,0,0.000885,0,0
0:5:49.477,655.77,83.4955,0,0.000885,0,0
0:5:49.975,656.709,83.6127,0,0.000885,0,0
0:5:50.470,657.883,83.7644,0,0.000885,0,0
0:5:50.964,658.702,83.8678,0,0.000885,0,0
0:5:51.469,659.231,83.9368,0,0.000885,0,0
0:5:51.964,660.169,84.054,0,0.000885,0,0
0:5:52.459,661.58,84.2332,0,0.000885,0,0
0:5:52.956,662.167,84.3091,0,0.000885,0,0
0:5:53.462,663.577,84.4884,0,0.000885,0,0
0:5:53.968,664.515,84.6056,0,0.000885,0,0
0:5:54.472,665.632,84.7504,0,0.000885,0,0
0:5:54.970,666.45,84.8538,0,0.000885,0,0
0:5:55.473,667.976,85.0468,0,0.000885,0,0
0:5:55.971,668.741,85.1434,0,0.000885,0,0
0:5:56.464,669.208,85.2054,0,0.000885,0,0
0:5:56.960,670.031,85.3088,0,0.000885,0,0
0:5:57.465,671.619,85.5157,0,0.000885,0,0
0:5:57.972,672.264,85.5984,0,0.000885,0,0
0:5:58.477,673.261,85.7225,0,0.000885,0,0
0:5:58.981,673.79,85.7915,0,0.000885,0,0
0:5:59.478,675.258,85.9776,0,0.000885,0,0
0:5:59.974,676.076,86.081,0,0.000885,0,0
0:6:0.470,677.193,86.2258,0,0.000885,0,0
0:6:0.977,678.131,86.343,0,0.000885,0,0
0:6:1.472,678.603,86.4051,0,0.000885,0,0
0:6:1.966,679.951,86.5775,0,0.000885,0,0
0:6:2.463,681.419,86.7636,0,0.000885,0,0
0:6:2.965,681.948,86.8257,0,0.000885,0,0
0:6:3.473,683.007,86.9636,0,0.000885,0,0
0:6:3.975,684.061,87.0946,0,0.000885,0,0
0:6:4.472,685.057,87.2256,0,0.000885,0,0
0:6:4.967,686.174,87.3635,0,0.000885,0,0
0:6:5.463,687.232,87.5014,0,0.000885,0,0
0:6:5.959,687.7,87.5634,0,0.000885,0,0
0:6:6.457,688.932,87.7151,0,0.000885,0,0
0:6:6.953,689.875,87.8392,0,0.000885,0,0
0:6:7.450,690.4,87.9013,0,0.000885,0,0
0:6:7.959,691.458,88.0392,0,0.000885,0,0
0:6:8.467,693.1,88.246,0,0.000885,0,0
0:6:8.970,693.923,88.3563,0,0.000885,0,0
0:6:9.470,694.51,88.4253,0,0.000885,0,0
0:6:9.966,695.684,88.5769,0,0.000885,0,0
0:6:10.462,697.21,88.77,0,0.000885,0,0
0:6:10.959,697.739,88.8389,0,0.000885,0,0
0:6:11.455,698.384,88.9217,0,0.000885,0,0
0:6:11.952,699.674,89.0872,0,0.000885,0,0
0:6:12.450,700.675,89.2113,0,0.000885,0,0
0:6:12.946,701.614,89.3354,0,0.000885,0,0
0:6:13.452,703.081,89.5215,0,0.000885,0,0
0:6:13.955,703.784,89.6112,0,0.000885,0,0
0:6:14.458,704.487,89.7008,0,0.000885,0,0
0:6:14.955,705.897,89.8801,0,0.000885,0,0
0:6:15.453,707.249,90.0524,0,0.000885,0,0
0:6:15.947,707.774,90.1145,0,0.000885,0,0
0:6:16.446,708.597,90.2248,0,0.000885,0,0
0:6:16.942,709.829,90.3765,0,0.000885,0,0
0:6:17.438,710.007,90.4041,0,0.000885,0,0
0:6:17.935,711.239,90.5557,0,0.000885,0,0
0:6:18.439,712.587,90.7281,0,0.000885,0,0
0:6:18.944,713.174,90.804,0,0.000885,0,0
0:6:19.448,714.936,91.0315,0,0.000885,0,0
0:6:19.945,715.581,91.1142,0,0.000885,0,0
0:6:20.440,716.582,91.2383,0,0.000885,0,0
0:6:20.939,717.227,91.3211,0,0.000885,0,0
0:6:21.435,718.637,91.5003,0,0.000885,0,0
0:6:21.932,719.282,91.5831,0,0.000885,0,0
0:6:22.427,720.105,91.6865,0,0.000885,0,0
0:6:22.923,721.631,91.8795,0,0.000885,0,0
0:6:23.428,722.098,91.9416,0,0.000885,0,0
0:6:23.932,723.036,92.0588,0,0.000885,0,0
0:6:24.434,724.153,92.2036,0,0.000885,0,0
0:6:24.931,725.385,92.3622,0,0.000885,0,0
0:6:25.426,726.03,92.438,0,0.000885,0,0
0:6:25.924,727.382,92.6104,0,0.000885,0,0
0:6:26.419,728.556,92.7621,0,0.000885,0,0
0:6:26.915,728.966,92.8172,0,0.000885,0,0
0:6:27.410,730.082,92.9551,0,0.000885,0,0
0:6:27.913,731.314,93.1137,0,0.000885,0,0
0:6:28.420,732.079,93.2102,0,0.000885,0,0
0:6:28.923,732.956,93.3205,0,0.000885,0,0
0:6:29.421,733.957,93.4515,0,0.000885,0,0
0:6:29.919,734.895,93.5688,0,0.000885,0,0
0:6:30.414,735.949,93.7066,0,0.000885,0,0
0:6:30.912,737.244,93.8652,0,0.000885,0,0
0:6:31.408,738.067,93.9755,0,0.000885,0,0
0:6:31.905,738.827,94.0721,0,0.000885,0,0
0:6:32.402,739.944,94.21,0,0.000885,0,0
0:6:32.899,740.353,94.2651,0,0.000885,0,0
0:6:33.407,741.763,94.4444,0,0.000885,0,0
0:6:33.911,742.76,94.5685,0,0.000885,0,0
0:6:34.414,744.17,94.7478,0,0.000885,0,0
0:6:34.910,744.757,94.8236,0,0.000885,0,0
0:6:35.409,745.811,94.9615,0,0.000885,0,0
0:6:35.904,746.754,95.0787,0,0.000885,0,0
0:6:36.401,747.808,95.2166,0,0.000885,0,0
0:6:36.896,749.04,95.3683,0,0.000885,0,0
0:6:37.391,749.628,95.4441,0,0.000885,0,0
0:6:37.887,750.393,95.5407,0,0.000885,0,0
0:6:38.394,751.038,95.6234,0,0.000885,0,0
0:6:38.900,752.27,95.782,0,0.000885,0,0
0:6:39.403,754.031,96.0095,0,0.000885,0,0
0:6:39.899,754.97,96.1267,0,0.000885,0,0
0:6:40.393,755.673,96.2163,0,0.000885,0,0
0:6:40.891,756.731,96.3473,0,0.000885,0,0
0:6:41.386,757.376,96.4301,0,0.000885,0,0
0:6:41.881,758.257,96.5473,0,0.000885,0,0
0:6:42.377,759.547,96.7059,0,0.000885,0,0
0:6:42.883,760.428,96.8231,0,0.000885,0,0
0:6:43.388,761.429,96.9472,0,0.000885,0,0
0:6:43.891,762.247,97.0506,0,0.000885,0,0
0:6:44.388,763.364,97.1954,0,0.000885,0,0
0:6:44.885,764.129,97.2919,0,0.000885,0,0
0:6:45.379,765.886,97.5126,0,0.000885,0,0
0:6:45.877,766.651,97.616,0,0.000885,0,0
0:6:46.370,767.532,97.7263,0,0.000885,0,0
0:6:46.868,768.822,97.8918,0,0.000885,0,0
0:6:47.361,769.173,97.9331,0,0.000885,0,0
0:6:47.860,770.232,98.071,0,0.000885,0,0
0:6:48.364,771.113,98.1813,0,0.000885,0,0
0:6:48.867,772.167,98.3123,0,0.000885,0,0
0:6:49.370,772.932,98.4158,0,0.000885,0,0
0:6:49.866,774.048,98.5537,0,0.000885,0,0
0:6:50.374,775.223,98.7053,0,0.000885,0,0
0:6:50.868,776.277,98.8363,0,0.000885,0,0
0:6:51.377,776.984,98.926,0,0.000885,0,0
0:6:51.883,778.096,99.0708,0,0.000885,0,0
0:6:52.380,779.328,99.2293,0,0.000885,0,0
0:6:52.884,779.858,99.2914,0,0.000885,0,0
0:6:53.389,781.09,99.45,0,0.000885,0,0
0:6:53.894,781.735,99.5327,0,0.000885,0,0
0:6:54.397,782.736,99.6637,0,0.000885,0,0
0:6:54.895,784.141,99.843,0,0.000885,0,0
0:6:55.389,785.316,99.9878,0,0.000885,0,0
0:6:55.886,786.317,100.119,0,0.000885,0,0
0:6:56.382,787.197,100.229,0,0.000885,0,0
0:6:56.878,787.549,100.27,0,0.000885,0,0
0:6:57.370,788.194,100.353,0,0.000885,0,0
0:6:57.878,789.719,100.553,0,0.000885,0,0
0:6:58.382,791.009,100.712,0,0.000885,0,0
0:6:58.885,791.717,100.801,0,0.000885,0,0
0:6:59.381,792.655,100.925,0,0.000885,0,0
0:6:59.879,793.945,101.091,0,0.000885,0,0
0:7:0.372,795.355,101.27,0,0.000885,0,0
0:7:0.880,795.885,101.332,0,0.000885,0,0
0:7:1.384,797.059,101.484,0,0.000885,0,0
0:7:1.880,797.646,101.56,0,0.000885,0,0
0:7:2.377,798.291,101.643,0,0.000885,0,0
0:7:2.881,799.817,101.836,0,0.000885,0,0
0:7:3.388,800.756,101.953,0,0.000885,0,0
0:7:3.891,801.578,102.063,0,0.000885,0,0
0:7:4.390,802.868,102.222,0,0.000885,0,0
0:7:4.888,803.634,102.318,0,0.000885,0,0
0:7:5.383,804.923,102.484,0,0.000885,0,0
0:7:5.879,805.804,102.601,0,0.000885,0,0
0:7:6.378,806.858,102.732,0,0.000885,0,0
0:7:6.872,807.917,102.87,0,0.000885,0,0
0:7:7.368,808.446,102.932,0,0.000885,0,0
0:7:7.865,809.207,103.028,0,0.000885,0,0
0:7:8.372,810.617,103.208,0,0.000885,0,0
0:7:8.878,811.32,103.297,0,0.000885,0,0
0:7:9.382,812.494,103.449,0,0.000885,0,0
0:7:9.878,813.784,103.614,0,0.000885,0,0
0:7:10.385,814.14,103.663,0,0.000885,0,0
0:7:10.881,815.546,103.842,0,0.000885,0,0
0:7:11.372,816.547,103.966,0,0.000885,0,0
0:7:11.868,817.659,104.111,0,0.000885,0,0
0:7:12.364,818.188,104.173,0,0.000885,0,0
0:7:12.871,818.953,104.269,0,0.000885,0,0
0:7:13.377,820.301,104.442,0,0.000885,0,0
0:7:13.882,821.124,104.552,0,0.000885,0,0
0:7:14.384,822.65,104.745,0,0.000885,0,0
0:7:14.880,823.237,104.821,0,0.000885,0,0
0:7:15.386,824.469,104.973,0,0.000885,0,0
0:7:15.882,825.465,105.104,0,0.000885,0,0
0:7:16.385,826.524,105.235,0,0.000885,0,0
0:7:16.882,827.347,105.338,0,0.000885,0,0
0:7:17.374,827.641,105.379,0,0.000885,0,0
0:7:17.883,829.224,105.579,0,0.000885,0,0
0:7:18.388,830.163,105.697,0,0.000885,0,0
0:7:18.892,831.515,105.869,0,0.000885,0,0
0:7:19.388,832.16,105.952,0,0.000885,0,0
0:7:19.886,833.156,106.083,0,0.000885,0,0
0:7:20.382,834.389,106.234,0,0.000885,0,0
0:7:20.878,835.096,106.331,0,0.000885,0,0
0:7:21.383,836.092,106.455,0,0.000885,0,0
0:7:21.881,837.151,106.586,0,0.000885,0,0
0:7:22.378,837.56,106.641,0,0.000885,0,0
0:7:22.887,838.677,106.786,0,0.000885,0,0
0:7:23.394,840.024,106.958,0,0.000885,0,0
0:7:23.896,841.67,107.165,0,0.000885,0,0
0:7:24.400,842.257,107.241,0,0.000885,0,0
0:7:24.894,842.96,107.331,0,0.000885,0,0
0:7:25.392,844.37,107.51,0,0.000885,0,0
0:7:25.888,845.073,107.6,0,0.000885,0,0
0:7:26.385,845.838,107.696,0,0.000885,0,0
0:7:26.881,847.364,107.889,0,0.000885,0,0
0:7:27.387,848.245,107.999,0,0.000885,0,0
0:7:27.883,848.948,108.089,0,0.000885,0,0
0:7:28.389,849.357,108.144,0,0.000885,0,0
0:7:28.891,849.828,108.206,0,0.000885,0,0
0:7:29.394,851.176,108.379,0,0.000885,0,0
0:7:29.892,852.702,108.572,0,0.000885,0,0
0:7:30.388,853.938,108.723,0,0.000885,0,0
0:7:30.884,854.819,108.841,0,0.000885,0,0
0:7:31.379,855.873,108.972,0,0.000885,0,0
0:7:31.874,857.163,109.137,0,0.000885,0,0
0:7:32.369,857.635,109.199,0,0.000885,0,0
0:7:32.874,858.689,109.33,0,0.000885,0,0
0:7:33.381,859.396,109.42,0,0.000885,0,0
0:7:33.883,860.451,109.558,0,0.000885,0,0
0:7:34.376,861.216,109.654,0,0.000885,0,0
0:7:34.874,862.741,109.847,0,0.000885,0,0
0:7:35.382,863.564,109.951,0,0.000885,0,0
0:7:35.876,864.739,110.102,0,0.000885,0,0
0:7:36.384,865.499,110.199,0,0.000885,0,0
0:7:36.881,867.145,110.406,0,0.000885,0,0
0:7:37.385,867.612,110.468,0,0.000885,0,0
0:7:37.890,868.551,110.585,0,0.000885,0,0
0:7:38.395,869.61,110.723,0,0.000885,0,0
0:7:38.897,870.312,110.813,0,0.000885,0,0
0:7:39.394,870.784,110.875,0,0.000885,0,0
0:7:39.891,871.9,111.012,0,0.000885,0,0
0:7:40.387,873.368,111.199,0,0.000885,0,0
0:7:40.884,874.423,111.337,0,0.000885,0,0
0:7:41.381,875.775,111.509,0,0.000885,0,0
0:7:41.886,877.123,111.681,0,0.000885,0,0
0:7:42.382,877.065,111.674,0,0.000885,0,0
0:7:42.880,878.181,111.812,0,0.000885,0,0
0:7:43.386,879.413,111.971,0,0.000885,0,0
0:7:43.888,880.468,112.102,0,0.000885,0,0
0:7:44.392,881.584,112.247,0,0.000885,0,0
0:7:44.887,881.993,112.302,0,0.000885,0,0
0:7:45.383,882.465,112.357,0,0.000885,0,0
0:7:45.889,884.578,112.626,0,0.000885,0,0
0:7:46.385,885.574,112.757,0,0.000885,0,0
0:7:46.881,885.694,112.771,0,0.000885,0,0
0:7:47.386,886.633,112.888,0,0.000885,0,0
0:7:47.883,888.274,113.102,0,0.000885,0,0
0:7:48.389,889.506,113.253,0,0.000885,0,0
0:7:48.894,890.094,113.329,0,0.000885,0,0
0:7:49.396,890.974,113.439,0,0.000885,0,0
0:7:49.894,892.033,113.577,0,0.000885,0,0
0:7:50.388,892.972,113.695,0,0.000885,0,0
0:7:50.885,893.559,113.77,0,0.000885,0,0
0:7:51.390,895.378,114.005,0,0.000885,0,0
0:7:51.887,895.494,114.019,0,0.000885,0,0
0:7:52.381,897.082,114.219,0,0.000885,0,0
0:7:52.889,898.078,114.35,0,0.000885,0,0
0:7:53.395,899.075,114.474,0,0.000885,0,0
0:7:53.899,899.368,114.508,0,0.000885,0,0
0:7:54.403,900.427,114.646,0,0.000885,0,0
0:7:54.901,902.424,114.901,0,0.000885,0,0
0:7:55.395,902.833,114.949,0,0.000885,0,0
0:7:55.891,904.008,115.101,0,0.000885,0,0
0:7:56.387,904.946,115.218,0,0.000885,0,0
0:7:56.882,905.476,115.287,0,0.000885,0,0
0:7:57.388,906.236,115.384,0,0.000885,0,0
0:7:57.883,907.762,115.577,0,0.000885,0,0
0:7:58.389,908.411,115.66,0,0.000885,0,0
0:7:58.892,909.644,115.818,0,0.000885,0,0
0:7:59.396,910.289,115.901,0,0.000885,0,0
0:7:59.892,911.579,116.066,0,0.000885,0,0
0:8:0.387,912.459,116.177,0,0.000885,0,0
0:8:0.883,913.456,116.308,0,0.000885,0,0
0:8:1.389,914.336,116.418,0,0.000885,0,0
0:8:1.883,915.804,116.604,0,0.000885,0,0
0:8:2.389,916.449,116.687,0,0.000885,0,0
0:8:2.893,917.917,116.873,0,0.000885,0,0
0:8:3.400,919.034,117.018,0,0.000885,0,0
0:8:3.903,919.737,117.107,0,0.000885,0,0
0:8:4.401,920.911,117.252,0,0.000885,0,0
0:8:4.896,921.204,117.294,0,0.000885,0,0
0:8:5.394,922.499,117.459,0,0.000885,0,0
0:8:5.890,923.553,117.59,0,0.000885,0,0
0:8:6.388,924.434,117.7,0,0.000885,0,0
0:8:6.884,925.372,117.825,0,0.000885,0,0
0:8:7.389,926.195,117.928,0,0.000885,0,0
0:8:7.888,927.605,118.107,0,0.000885,0,0
0:8:8.394,927.721,118.121,0,0.000885,0,0
0:8:8.897,929.367,118.328,0,0.000885,0,0
0:8:9.401,930.541,118.48,0,0.000885,0,0
0:8:9.897,931.244,118.569,0,0.000885,0,0
0:8:10.393,932.476,118.728,0,0.000885,0,0
0:8:10.890,933.241,118.824,0,0.000885,0,0
0:8:11.384,933.944,118.914,0,0.000885,0,0
0:8:11.880,935.176,119.072,0,0.000885,0,0
0:8:12.387,936.293,119.21,0,0.000885,0,0
0:8:12.883,937.053,119.307,0,0.000885,0,0
0:8:13.388,938.286,119.465,0,0.000885,0,0
0:8:13.893,938.993,119.555,0,0.000885,0,0
0:8:14.395,939.754,119.652,0,0.000885,0,0
0:8:14.891,941.221,119.838,0,0.000885,0,0
0:8:15.388,942.044,119.948,0,0.000885,0,0
0:8:15.883,942.925,120.058,0,0.000885,0,0
0:8:16.389,943.864,120.176,0,0.000885,0,0
0:8:16.884,945.154,120.341,0,0.000885,0,0
0:8:17.389,945.861,120.431,0,0.000885,0,0
0:8:17.895,946.8,120.548,0,0.000885,0,0
0:8:18.400,948.325,120.748,0,0.000885,0,0
0:8:18.903,949.028,120.838,0,0.000885,0,0
0:8:19.401,950.732,121.051,0,0.000885,0,0
0:8:19.895,951.79,121.182,0,0.000885,0,0
0:8:20.390,951.848,121.196,0,0.000885,0,0
0:8:20.886,952.257,121.244,0,0.000885,0,0
0:8:21.392,953.668,121.424,0,0.000885,0,0
0:8:21.888,954.842,121.575,0,0.000885,0,0
0:8:22.385,956.248,121.755,0,0.000885,0,0
0:8:22.895,956.603,121.796,0,0.000885,0,0
0:8:23.402,957.893,121.961,0,0.000885,0,0
0:8:23.906,959.068,122.113,0,0.000885,0,0
0:8:24.406,959.828,122.21,0,0.000885,0,0
0:8:24.902,960.593,122.306,0,0.000885,0,0
0:8:25.399,961.941,122.478,0,0.000885,0,0
0:8:25.895,962.528,122.554,0,0.000885,0,0
0:8:26.391,963.645,122.692,0,0.000885,0,0
0:8:26.887,964.704,122.83,0,0.000885,0,0
0:8:27.391,965.936,122.989,0,0.000885,0,0
0:8:27.889,966.874,123.106,0,0.000885,0,0
0:8:28.396,967.284,123.161,0,0.000885,0,0
0:8:28.900,968.4,123.299,0,0.000885,0,0
0:8:29.403,969.459,123.437,0,0.000885,0,0
0:8:29.897,970.397,123.554,0,0.000885,0,0
0:8:30.394,971.687,123.72,0,0.000885,0,0
0:8:30.889,972.159,123.782,0,0.000885,0,0
0:8:31.394,973.507,123.954,0,0.000885,0,0
0:8:31.890,974.859,124.119,0,0.000885,0,0
0:8:32.386,975.504,124.202,0,0.000885,0,0
0:8:32.891,976.852,124.375,0,0.000885,0,0
0:8:33.396,977.203,124.423,0,0.000885,0,0
0:8:33.900,978.555,124.595,0,0.000885,0,0
0:8:34.403,979.788,124.754,0,0.000885,0,0
0:8:34.900,980.553,124.85,0,0.000885,0,0
0:8:35.396,981.313,124.947,0,0.000885,0,0
0:8:35.891,982.603,125.112,0,0.000885,0,0
0:8:36.387,982.252,125.064,0,0.000885,0,0
0:8:36.881,983.956,125.278,0,0.000885,0,0
0:8:37.388,985.366,125.457,0,0.000885,0,0
0:8:37.893,986.126,125.56,0,0.000885,0,0
0:8:38.397,987.301,125.705,0,0.000885,0,0
0:8:38.902,988.123,125.809,0,0.000885,0,0
0:8:39.398,989.178,125.947,0,0.000885,0,0
0:8:39.894,990.121,126.064,0,0.000885,0,0
0:8:40.389,991.117,126.195,0,0.000885,0,0
0:8:40.886,992.056,126.312,0,0.000885,0,0
0:8:41.389,993.114,126.45,0,0.000885,0,0
0:8:41.887,993.991,126.56,0,0.000885,0,0
0:8:42.379,994.871,126.67,0,0.000885,0,0
0:8:42.888,995.814,126.788,0,0.000885,0,0
0:8:43.391,997.162,126.96,0,0.000885,0,0
0:8:43.894,998.279,127.105,0,0.000885,0,0
0:8:44.391,999.217,127.222,0,0.000885,0,0
0:8:44.888,999.92,127.312,0,0.000885,0,0
0:8:45.393,1000.86,127.436,0,0.000885,0,0
0:8:45.889,1001.98,127.574,0,0.000885,0,0
0:8:46.396,1003.21,127.732,0,0.000885,0,0
0:8:46.892,1004.27,127.87,0,0.000885,0,0
0:8:47.388,1005.5,128.022,0,0.000885,0,0
0:8:47.890,1005.61,128.036,0,0.000885,0,0
0:8:48.396,1006.2,128.111,0,0.000885,0,0
0:8:48.900,1007.5,128.277,0,0.000885,0,0
0:8:49.399,1008.9,128.456,0,0.000885,0,0
0:8:49.895,1009.78,128.567,0,0.000885,0,0
0:8:50.390,1010.72,128.691,0,0.000885,0,0
0:8:50.887,1011.19,128.746,0,0.000885,0,0
0:8:51.392,1011.13,128.739,0,0.000885,0,0
0:8:51.887,1012.42,128.904,0,0.000885,0,0
0:8:52.394,991.878,126.291,0,0.000885,0,0
0:8:52.893,998.101,127.084,0,0.000885,0,0
0:8:53.398,1006.38,128.139,0,0.000885,0,0
0:8:53.900,1012.95,128.973,0,0.000885,0,0
0:8:54.403,1018.47,129.677,0,0.000885,0,0
0:8:54.897,1021.81,130.104,0,0.000885,0,0
0:8:55.394,1004.62,127.912,0,0.000885,0,0
0:8:55.889,924.785,117.749,0,0.000885,0,0
0:8:56.006,924.785,117.749,0,0.000885,0,0