File: DataFile2021-06-06_020640.csv
Test ID:,Date Tested:,Time:,Test Type:,Diameter Avg. (mm):,Cyl. Corr. Factor:,Height (mm):,Age (days):,Weight (kN):,Break Type:,Ramp Rate (MPa/s):,Load at Break (kN):,Stress at Break (MPa):
12,6/6/2021,02:06,Cylinder,150,1,300,0,13.39,Invalid/No Break,0.25,1625.29,91.97
Sample Time,Load (kN),Stress (MPa),Long. Strain,Trans. Strain,Chan1 Deflection (mm),Chan2 Deflection (mm)
0:0:14.058,60.0599,3.39912,0,0.000885,0,0
0:0:14.355,60.2912,3.4129,0,0.000885,0,0
0:0:14.653,60.7049,3.43359,0,0.000885,0,0
0:0:14.953,63.9877,3.61975,0,0.000885,0,0
0:0:15.249,65.9226,3.73006,0,0.000885,0,0
0:0:15.549,66.2741,3.75075,0,0.000885,0,0
0:0:15.846,67.9777,3.84727,0,0.000885,0,0
0:0:16.145,68.9163,3.90243,0,0.000885,0,0
0:0:16.446,71.0826,4.01964,0,0.000885,0,0
0:0:16.740,72.4348,4.09549,0,0.000885,0,0
0:0:17.043,73.6047,4.16443,0,0.000885,0,0
0:0:17.338,74.8947,4.24028,0,0.000885,0,0
0:0:17.638,76.714,4.3437,0,0.000885,0,0
0:0:17.936,77.537,4.38507,0,0.000885,0,0
0:0:18.234,78.2976,4.43333,0,0.000885,0,0
0:0:18.535,79.4719,4.49538,0,0.000885,0,0
0:0:18.829,80.5262,4.55743,0,0.000885,0,0
0:0:19.132,82.9905,4.69533,0,0.000885,0,0
0:0:19.428,84.3961,4.77807,0,0.000885,0,0
0:0:19.730,85.397,4.83322,0,0.000885,0,0
0:0:20.035,86.6869,4.90217,0,0.000885,0,0
0:0:20.339,87.7412,4.96423,0,0.000885,0,0
0:0:20.644,89.7918,5.08144,0,0.000885,0,0
0:0:20.946,90.7927,5.13659,0,0.000885,0,0
0:0:21.249,92.1405,5.21244,0,0.000885,0,0
0:0:21.548,93.0212,5.2607,0,0.000885,0,0
0:0:21.846,95.3076,5.3917,0,0.000885,0,0
0:0:22.146,95.8948,5.42617,0,0.000885,0,0
0:0:22.443,96.949,5.48823,0,0.000885,0,0
0:0:22.745,97.6518,5.5227,0,0.000885,0,0
0:0:23.040,99.2354,5.61233,0,0.000885,0,0
0:0:23.338,101.526,5.74333,0,0.000885,0,0
0:0:23.639,102.874,5.81918,0,0.000885,0,0
0:0:23.935,104.337,5.90191,0,0.000885,0,0
0:0:24.236,104.982,5.94328,0,0.000885,0,0
0:0:24.540,106.628,6.03291,0,0.000885,0,0
0:0:24.845,107.798,6.10186,0,0.000885,0,0
0:0:25.148,108.679,6.15012,0,0.000885,0,0
0:0:25.451,110.263,6.23976,0,0.000885,0,0
0:0:25.753,111.143,6.28802,0,0.000885,0,0
0:0:26.050,112.842,6.38455,0,0.000885,0,0
0:0:26.352,114.484,6.48107,0,0.000885,0,0
0:0:26.649,115.365,6.52934,0,0.000885,0,0
0:0:26.947,117.126,6.62586,0,0.000885,0,0
0:0:27.246,118.71,6.71549,0,0.000885,0,0
0:0:27.543,119.822,6.77755,0,0.000885,0,0
0:0:27.846,121.463,6.87407,0,0.000885,0,0
0:0:28.140,122.17,6.91544,0,0.000885,0,0
0:0:28.439,123.692,6.99818,0,0.000885,0,0
0:0:28.737,124.808,7.06023,0,0.000885,0,0
0:0:29.037,126.276,7.14297,0,0.000885,0,0
0:0:29.335,127.095,7.19123,0,0.000885,0,0
0:0:29.640,128.385,7.26707,0,0.000885,0,0
0:0:29.946,130.146,7.3636,0,0.000885,0,0
0:0:30.250,132.023,7.47392,0,0.000885,0,0
0:0:30.551,132.962,7.52218,0,0.000885,0,0
0:0:30.854,134.719,7.6256,0,0.000885,0,0
0:0:31.152,136.009,7.69455,0,0.000885,0,0
0:0:31.454,137.886,7.80487,0,0.000885,0,0
0:0:31.749,138.593,7.83934,0,0.000885,0,0
0:0:32.050,139.412,7.8876,0,0.000885,0,0
0:0:32.347,140.88,7.97034,0,0.000885,0,0
0:0:32.645,142.227,8.04618,0,0.000885,0,0
0:0:32.945,143.46,8.11513,0,0.000885,0,0
0:0:33.240,144.514,8.17718,0,0.000885,0,0
0:0:33.543,145.982,8.25992,0,0.000885,0,0
0:0:33.838,146.978,8.31508,0,0.000885,0,0
0:0:34.138,149.385,8.45297,0,0.000885,0,0
0:0:34.437,150.79,8.53571,0,0.000885,0,0
0:0:34.740,151.907,8.59776,0,0.000885,0,0
0:0:35.047,152.667,8.63913,0,0.000885,0,0
0:0:35.349,153.664,8.69429,0,0.000885,0,0
0:0:35.652,155.363,8.79082,0,0.000885,0,0
0:0:35.955,156.537,8.85976,0,0.000885,0,0
0:0:36.253,158.241,8.95629,0,0.000885,0,0
0:0:36.555,159.589,9.03213,0,0.000885,0,0
0:0:36.849,161.172,9.12176,0,0.000885,0,0
0:0:37.152,162.347,9.18382,0,0.000885,0,0
0:0:37.448,163.868,9.27345,0,0.000885,0,0
0:0:37.748,165.278,9.35619,0,0.000885,0,0
0:0:38.046,166.159,9.40445,0,0.000885,0,0
0:0:38.344,167.449,9.4734,0,0.000885,0,0
0:0:38.646,168.854,9.55613,0,0.000885,0,0
0:0:38.940,170.087,9.62508,0,0.000885,0,0
0:0:39.241,171.083,9.68024,0,0.000885,0,0
0:0:39.540,172.431,9.75608,0,0.000885,0,0
0:0:39.844,174.25,9.8595,0,0.000885,0,0
0:0:40.149,176.07,9.96292,0,0.000885,0,0
0:0:40.452,177.244,10.0319,0,0.000885,0,0
0:0:40.754,178.182,10.0801,0,0.000885,0,0
0:0:41.058,179.472,10.156,0,0.000885,0,0
0:0:41.356,180.7,10.2249,0,0.000885,0,0
0:0:41.657,181.523,10.2732,0,0.000885,0,0
0:0:41.954,182.933,10.349,0,0.000885,0,0
0:0:42.256,184.517,10.4387,0,0.000885,0,0
0:0:42.552,185.922,10.5214,0,0.000885,0,0
0:0:42.852,187.328,10.6041,0,0.000885,0,0
0:0:43.149,188.502,10.6662,0,0.000885,0,0
0:0:43.446,189.677,10.7351,0,0.000885,0,0
0:0:43.748,191.612,10.8455,0,0.000885,0,0
0:0:44.042,192.608,10.9006,0,0.000885,0,0
0:0:44.343,193.724,10.9627,0,0.000885,0,0
0:0:44.647,195.072,11.0385,0,0.000885,0,0
0:0:44.948,196.42,11.1143,0,0.000885,0,0
0:0:45.250,198.475,11.2316,0,0.000885,0,0
0:0:45.550,199.881,11.3143,0,0.000885,0,0
0:0:45.851,200.935,11.3695,0,0.000885,0,0
0:0:46.145,201.758,11.4177,0,0.000885,0,0
0:0:46.443,203.929,11.5418,0,0.000885,0,0
0:0:46.738,204.689,11.5832,0,0.000885,0,0
0:0:47.035,206.037,11.659,0,0.000885,0,0
0:0:47.331,206.918,11.7073,0,0.000885,0,0
0:0:47.624,208.386,11.79,0,0.000885,0,0
0:0:47.925,209.849,11.8728,0,0.000885,0,0
0:0:48.219,210.908,11.9348,0,0.000885,0,0
0:0:48.515,212.314,12.0176,0,0.000885,0,0
0:0:48.811,213.724,12.0934,0,0.000885,0,0
0:0:49.107,214.72,12.1486,0,0.000885,0,0
0:0:49.405,216.246,12.2382,0,0.000885,0,0
0:0:49.709,217.416,12.3002,0,0.000885,0,0
0:0:50.010,218.999,12.3899,0,0.000885,0,0
0:0:50.312,220.525,12.4795,0,0.000885,0,0
0:0:50.611,221.642,12.5416,0,0.000885,0,0
0:0:50.912,223.225,12.6312,0,0.000885,0,0
0:0:51.206,224.515,12.707,0,0.000885,0,0
0:0:51.507,225.747,12.776,0,0.000885,0,0
0:0:51.797,227.095,12.8518,0,0.000885,0,0
0:0:52.107,228.269,12.9139,0,0.000885,0,0
0:0:52.405,229.675,12.9966,0,0.000885,0,0
0:0:52.698,231.259,13.0862,0,0.000885,0,0
0:0:52.997,232.139,13.1345,0,0.000885,0,0
0:0:53.299,232.958,13.1828,0,0.000885,0,0
0:0:53.599,234.426,13.2655,0,0.000885,0,0
0:0:53.894,236.419,13.3758,0,0.000885,0,0
0:0:54.189,237.829,13.4586,0,0.000885,0,0
0:0:54.487,238.709,13.5068,0,0.000885,0,0
0:0:54.790,239.648,13.562,0,0.000885,0,0
0:0:55.092,241.111,13.6447,0,0.000885,0,0
0:0:55.393,242.931,13.7481,0,0.000885,0,0
0:0:55.693,243.869,13.8033,0,0.000885,0,0
0:0:55.993,244.688,13.8447,0,0.000885,0,0
0:0:56.297,246.271,13.9343,0,0.000885,0,0
0:0:56.597,248.5,14.0653,0,0.000885,0,0
0:0:56.891,249.381,14.1136,0,0.000885,0,0
0:0:57.197,250.613,14.1825,0,0.000885,0,0
0:0:57.495,251.671,14.2446,0,0.000885,0,0
0:0:57.798,253.019,14.3204,0,0.000885,0,0
0:0:58.099,254.954,14.4307,0,0.000885,0,0
0:0:58.400,256.596,14.5204,0,0.000885,0,0
0:0:58.700,257.592,14.5755,0,0.000885,0,0
0:0:58.997,258.295,14.6169,0,0.000885,0,0
0:0:59.291,259.527,14.6858,0,0.000885,0,0
0:0:59.590,261.404,14.7893,0,0.000885,0,0
0:0:59.893,262.752,14.872,0,0.000885,0,0
0:1:0.196,263.517,14.9134,0,0.000885,0,0
0:1:0.497,265.158,15.003,0,0.000885,0,0
0:1:0.796,267.445,15.134,0,0.000885,0,0
0:1:1.097,268.268,15.1823,0,0.000885,0,0
0:1:1.412,269.558,15.2512,0,0.000885,0,0
0:1:1.709,270.906,15.327,0,0.000885,0,0
0:1:2.007,271.671,15.3753,0,0.000885,0,0
0:1:2.311,272.609,15.4236,0,0.000885,0,0
0:1:2.610,274.015,15.5063,0,0.000885,0,0
0:1:2.901,275.656,15.5959,0,0.000885,0,0
0:1:3.201,276.715,15.658,0,0.000885,0,0
0:1:3.507,278.708,15.7683,0,0.000885,0,0
0:1:3.812,279.998,15.8442,0,0.000885,0,0
0:1:4.110,281.346,15.92,0,0.000885,0,0
0:1:4.413,282.929,16.0096,0,0.000885,0,0
0:1:4.715,284.397,16.0924,0,0.000885,0,0
0:1:5.016,285.629,16.1613,0,0.000885,0,0
0:1:5.316,286.568,16.2165,0,0.000885,0,0
0:1:5.618,287.973,16.2992,0,0.000885,0,0
0:1:5.913,289.206,16.3682,0,0.000885,0,0
0:1:6.213,291.141,16.4785,0,0.000885,0,0
0:1:6.507,292.315,16.5405,0,0.000885,0,0
0:1:6.806,293.898,16.6302,0,0.000885,0,0
0:1:7.098,294.543,16.6646,0,0.000885,0,0
0:1:7.406,295.598,16.7267,0,0.000885,0,0
0:1:7.706,297.475,16.837,0,0.000885,0,0
0:1:8.008,299.174,16.9266,0,0.000885,0,0
0:1:8.307,299.997,16.9749,0,0.000885,0,0
0:1:8.613,300.291,16.9956,0,0.000885,0,0
0:1:8.908,302.697,17.1266,0,0.000885,0,0
0:1:9.205,303.867,17.1955,0,0.000885,0,0
0:1:9.509,305.041,17.2645,0,0.000885,0,0
0:1:9.810,306.389,17.3403,0,0.000885,0,0
0:1:10.111,307.563,17.4024,0,0.000885,0,0
0:1:10.412,309.441,17.5127,0,0.000885,0,0
0:1:10.712,310.731,17.5816,0,0.000885,0,0
0:1:11.006,311.843,17.6437,0,0.000885,0,0
0:1:11.303,313.017,17.7126,0,0.000885,0,0
0:1:11.609,314.427,17.7954,0,0.000885,0,0
0:1:11.907,316.068,17.885,0,0.000885,0,0
0:1:12.212,317.18,17.9471,0,0.000885,0,0
0:1:12.508,318.355,18.016,0,0.000885,0,0
0:1:12.807,319.293,18.0712,0,0.000885,0,0
0:1:13.109,321.113,18.1746,0,0.000885,0,0
0:1:13.409,322.576,18.2573,0,0.000885,0,0
0:1:13.702,323.515,18.3056,0,0.000885,0,0
0:1:13.999,324.573,18.3676,0,0.000885,0,0
0:1:14.296,325.685,18.4297,0,0.000885,0,0
0:1:14.598,327.914,18.5538,0,0.000885,0,0
0:1:14.900,329.262,18.6296,0,0.000885,0,0
0:1:15.199,330.494,18.7055,0,0.000885,0,0
0:1:15.499,331.726,18.7744,0,0.000885,0,0
0:1:15.799,333.074,18.8503,0,0.000885,0,0
0:1:16.095,334.248,18.9123,0,0.000885,0,0
0:1:16.393,335.187,18.9675,0,0.000885,0,0
0:1:16.686,336.77,19.0571,0,0.000885,0,0
0:1:16.987,338.06,19.133,0,0.000885,0,0
0:1:17.280,339.35,19.2019,0,0.000885,0,0
0:1:17.578,341.228,19.3122,0,0.000885,0,0
0:1:17.874,342.695,19.395,0,0.000885,0,0
0:1:18.171,344.279,19.4846,0,0.000885,0,0
0:1:18.468,345.511,19.5535,0,0.000885,0,0
0:1:18.762,346.743,19.6225,0,0.000885,0,0
0:1:19.063,348.149,19.6983,0,0.000885,0,0
0:1:19.356,348.852,19.7397,0,0.000885,0,0
0:1:19.657,349.91,19.8017,0,0.000885,0,0
0:1:19.959,351.143,19.8707,0,0.000885,0,0
0:1:20.262,353.135,19.981,0,0.000885,0,0
0:1:20.562,353.838,20.0224,0,0.000885,0,0
0:1:20.861,354.955,20.0844,0,0.000885,0,0
0:1:21.160,355.893,20.1396,0,0.000885,0,0
0:1:21.455,357.415,20.2223,0,0.000885,0,0
0:1:21.751,358.411,20.2844,0,0.000885,0,0
0:1:22.048,360.933,20.4223,0,0.000885,0,0
0:1:22.344,361.578,20.4636,0,0.000885,0,0
0:1:22.641,362.873,20.5326,0,0.000885,0,0
0:1:22.935,364.514,20.6291,0,0.000885,0,0
0:1:23.234,365.746,20.6981,0,0.000885,0,0
0:1:23.530,367.739,20.8084,0,0.000885,0,0
0:1:23.824,368.5,20.8497,0,0.000885,0,0
0:1:24.122,369.496,20.9118,0,0.000885,0,0
0:1:24.423,370.728,20.9807,0,0.000885,0,0
0:1:24.726,371.609,21.029,0,0.000885,0,0
0:1:25.026,373.664,21.1462,0,0.000885,0,0
0:1:25.327,374.603,21.2014,0,0.000885,0,0
0:1:25.629,375.893,21.2703,0,0.000885,0,0
0:1:25.923,376.947,21.3324,0,0.000885,0,0
0:1:26.223,378.295,21.4082,0,0.000885,0,0
0:1:26.517,380.581,21.5392,0,0.000885,0,0
0:1:26.816,382.107,21.622,0,0.000885,0,0
0:1:27.110,383.103,21.6771,0,0.000885,0,0
0:1:27.408,383.984,21.7323,0,0.000885,0,0
0:1:27.703,385.216,21.8012,0,0.000885,0,0
0:1:27.996,387.151,21.9115,0,0.000885,0,0
0:1:28.297,387.796,21.946,0,0.000885,0,0
0:1:28.599,389.557,22.0425,0,0.000885,0,0
0:1:28.909,390.612,22.1046,0,0.000885,0,0
0:1:29.216,392.604,22.2149,0,0.000885,0,0
0:1:29.516,393.721,22.277,0,0.000885,0,0
0:1:29.820,394.717,22.339,0,0.000885,0,0
0:1:30.120,396.301,22.4286,0,0.000885,0,0
0:1:30.420,397.297,22.4838,0,0.000885,0,0
0:1:30.719,398.356,22.539,0,0.000885,0,0
0:1:31.015,399.762,22.6217,0,0.000885,0,0
0:1:31.313,401.287,22.7113,0,0.000885,0,0
0:1:31.608,402.52,22.7803,0,0.000885,0,0
0:1:31.909,404.922,22.9113,0,0.000885,0,0
0:1:32.211,405.567,22.9526,0,0.000885,0,0
0:1:32.508,406.799,23.0216,0,0.000885,0,0
0:1:32.804,408.089,23.0905,0,0.000885,0,0
0:1:33.109,409.205,23.1595,0,0.000885,0,0
0:1:33.409,410.731,23.2422,0,0.000885,0,0
0:1:33.711,411.727,23.2974,0,0.000885,0,0
0:1:34.011,413.253,23.387,0,0.000885,0,0
0:1:34.313,415.01,23.4835,0,0.000885,0,0
0:1:34.615,416.3,23.5594,0,0.000885,0,0
0:1:34.918,417.71,23.6352,0,0.000885,0,0
0:1:35.220,418.822,23.6973,0,0.000885,0,0
0:1:35.519,420.112,23.7731,0,0.000885,0,0
0:1:35.821,421.287,23.8421,0,0.000885,0,0
0:1:36.120,422.341,23.8972,0,0.000885,0,0
0:1:36.415,423.457,23.9662,0,0.000885,0,0
0:1:36.710,424.632,24.0282,0,0.000885,0,0
0:1:37.008,425.508,24.0765,0,0.000885,0,0
0:1:37.300,427.092,24.1661,0,0.000885,0,0
0:1:37.599,429.556,24.3109,0,0.000885,0,0
0:1:37.893,430.73,24.373,0,0.000885,0,0
0:1:38.192,432.256,24.4626,0,0.000885,0,0
0:1:38.488,433.252,24.5178,0,0.000885,0,0
0:1:38.783,434.364,24.5798,0,0.000885,0,0
0:1:39.081,435.832,24.6625,0,0.000885,0,0
0:1:39.383,437.18,24.7384,0,0.000885,0,0
0:1:39.684,437.945,24.7798,0,0.000885,0,0
0:1:39.986,439.115,24.8487,0,0.000885,0,0
0:1:40.287,440.525,24.9314,0,0.000885,0,0
0:1:40.589,442.869,25.0624,0,0.000885,0,0
0:1:40.881,444.159,25.1314,0,0.000885,0,0
0:1:41.182,445.218,25.1934,0,0.000885,0,0
0:1:41.476,446.152,25.2486,0,0.000885,0,0
0:1:41.774,447.914,25.3451,0,0.000885,0,0
0:1:42.070,449.03,25.4072,0,0.000885,0,0
0:1:42.364,450.2,25.4761,0,0.000885,0,0
0:1:42.662,451.61,25.5589,0,0.000885,0,0
0:1:42.954,452.607,25.614,0,0.000885,0,0
0:1:43.255,454.012,25.6899,0,0.000885,0,0
0:1:43.549,454.893,25.745,0,0.000885,0,0
0:1:43.846,456.009,25.8071,0,0.000885,0,0
0:1:44.141,457.531,25.8898,0,0.000885,0,0
0:1:44.441,459.056,25.9794,0,0.000885,0,0
0:1:44.746,460.053,26.0346,0,0.000885,0,0
0:1:45.047,462.224,26.1587,0,0.000885,0,0
0:1:45.349,463.282,26.2139,0,0.000885,0,0
0:1:45.648,465.039,26.3173,0,0.000885,0,0
0:1:45.945,466.036,26.3724,0,0.000885,0,0
0:1:46.241,468.206,26.4966,0,0.000885,0,0
0:1:46.537,469.261,26.5517,0,0.000885,0,0
0:1:46.837,470.084,26.6,0,0.000885,0,0
0:1:47.136,470.964,26.6482,0,0.000885,0,0
0:1:47.435,471.903,26.7034,0,0.000885,0,0
0:1:47.731,473.251,26.7792,0,0.000885,0,0
0:1:48.026,474.425,26.8482,0,0.000885,0,0
0:1:48.324,476.124,26.9447,0,0.000885,0,0
0:1:48.617,478.117,27.055,0,0.000885,0,0
0:1:48.918,479.585,27.1378,0,0.000885,0,0
0:1:49.210,480.759,27.2067,0,0.000885,0,0
0:1:49.512,481.871,27.2688,0,0.000885,0,0
0:1:49.813,482.516,27.3032,0,0.000885,0,0
0:1:50.116,484.278,27.4067,0,0.000885,0,0
0:1:50.417,485.568,27.4756,0,0.000885,0,0
0:1:50.718,487.387,27.579,0,0.000885,0,0
0:1:51.017,489.144,27.6825,0,0.000885,0,0
0:1:51.312,490.434,27.7514,0,0.000885,0,0
0:1:51.605,490.786,27.7721,0,0.000885,0,0
0:1:51.904,492.431,27.8686,0,0.000885,0,0
0:1:52.217,494.073,27.9582,0,0.000885,0,0
0:1:52.518,495.479,28.041,0,0.000885,0,0
0:1:52.813,496.711,28.1099,0,0.000885,0,0
0:1:53.111,497.707,28.1651,0,0.000885,0,0
0:1:53.404,498.881,28.234,0,0.000885,0,0
0:1:53.699,500.759,28.3375,0,0.000885,0,0
0:1:53.998,500.816,28.3375,0,0.000885,0,0
0:1:54.300,502.342,28.4271,0,0.000885,0,0
0:1:54.603,503.69,28.5029,0,0.000885,0,0
0:1:54.903,505.976,28.6339,0,0.000885,0,0
0:1:55.205,507.035,28.6891,0,0.000885,0,0
0:1:55.505,508.383,28.7718,0,0.000885,0,0
0:1:55.810,509.437,28.827,0,0.000885,0,0
0:1:56.110,510.376,28.8821,0,0.000885,0,0
0:1:56.403,512.195,28.9856,0,0.000885,0,0
0:1:56.712,513.307,29.0476,0,0.000885,0,0
0:1:57.018,514.601,29.1235,0,0.000885,0,0
0:1:57.312,516.065,29.2062,0,0.000885,0,0
0:1:57.612,518.823,29.3579,0,0.000885,0,0
0:1:57.902,519.761,29.413,0,0.000885,0,0
0:1:58.203,519.41,29.3924,0,0.000885,0,0
0:1:58.507,520.816,29.4751,0,0.000885,0,0
0:1:58.804,522.106,29.544,0,0.000885,0,0
0:1:59.101,524.392,29.675,0,0.000885,0,0
0:1:59.402,525.918,29.7578,0,0.000885,0,0
0:1:59.704,527.27,29.8405,0,0.000885,0,0
0:2:0.006,528.733,29.9232,0,0.000885,0,0
0:2:0.306,529.556,29.9646,0,0.000885,0,0
0:2:0.607,531.02,30.0474,0,0.000885,0,0
0:2:0.902,532.194,30.1163,0,0.000885,0,0
0:2:1.201,533.426,30.1852,0,0.000885,0,0
0:2:1.496,534.543,30.2473,0,0.000885,0,0
0:2:1.796,536.064,30.3369,0,0.000885,0,0
0:2:2.089,537.826,30.4335,0,0.000885,0,0
0:2:2.387,539.293,30.5162,0,0.000885,0,0
0:2:2.686,539.876,30.5507,0,0.000885,0,0
0:2:2.979,540.641,30.592,0,0.000885,0,0
0:2:3.278,541.873,30.661,0,0.000885,0,0
0:2:3.572,543.751,30.7713,0,0.000885,0,0
0:2:3.871,545.686,30.8816,0,0.000885,0,0
0:2:4.166,546.74,30.9368,0,0.000885,0,0
0:2:4.466,547.678,30.9919,0,0.000885,0,0
0:2:4.770,549.146,31.0747,0,0.000885,0,0
0:2:5.071,550.436,31.1505,0,0.000885,0,0
0:2:5.373,551.784,31.2264,0,0.000885,0,0
0:2:5.671,553.016,31.2953,0,0.000885,0,0
0:2:5.971,554.128,31.3574,0,0.000885,0,0
0:2:6.266,556.299,31.4815,0,0.000885,0,0
0:2:6.562,558.176,31.5849,0,0.000885,0,0
0:2:6.861,559.173,31.64,0,0.000885,0,0
0:2:7.155,559.938,31.6883,0,0.000885,0,0
0:2:7.454,560.463,31.7159,0,0.000885,0,0
0:2:7.749,561.815,31.7917,0,0.000885,0,0
0:2:8.048,563.75,31.902,0,0.000885,0,0
0:2:8.341,564.217,31.9296,0,0.000885,0,0
0:2:8.635,565.276,31.9848,0,0.000885,0,0
0:2:8.936,566.681,32.0675,0,0.000885,0,0
0:2:9.240,569.555,32.233,0,0.000885,0,0
0:2:9.541,570.787,32.3019,0,0.000885,0,0
0:2:9.842,572.077,32.3709,0,0.000885,0,0
0:2:10.140,573.603,32.4605,0,0.000885,0,0
0:2:10.439,574.363,32.5019,0,0.000885,0,0
0:2:10.734,575.947,32.5915,0,0.000885,0,0
0:2:11.033,576.77,32.6398,0,0.000885,0,0
0:2:11.326,577.824,32.6949,0,0.000885,0,0
0:2:11.625,579.172,32.7777,0,0.000885,0,0
0:2:11.920,580.524,32.8535,0,0.000885,0,0
0:2:12.216,582.695,32.9707,0,0.000885,0,0
0:2:12.514,583.691,33.0328,0,0.000885,0,0
0:2:12.816,584.923,33.1017,0,0.000885,0,0
0:2:13.117,585.8,33.15,0,0.000885,0,0
0:2:13.409,586.738,33.2052,0,0.000885,0,0
0:2:13.706,589.203,33.343,0,0.000885,0,0
0:2:14.003,590.728,33.4258,0,0.000885,0,0
0:2:14.305,592.081,33.5016,0,0.000885,0,0
0:2:14.608,592.783,33.543,0,0.000885,0,0
0:2:14.913,593.664,33.5913,0,0.000885,0,0
0:2:15.210,595.074,33.674,0,0.000885,0,0
0:2:15.515,596.658,33.7636,0,0.000885,0,0
0:2:15.810,597.596,33.8188,0,0.000885,0,0
0:2:16.110,599.064,33.9015,0,0.000885,0,0
0:2:16.407,601.119,34.0187,0,0.000885,0,0
0:2:16.706,602.116,34.0739,0,0.000885,0,0
0:2:17.003,603.641,34.1566,0,0.000885,0,0
0:2:17.300,604.7,34.2187,0,0.000885,0,0
0:2:17.599,605.932,34.2876,0,0.000885,0,0
0:2:17.895,607.574,34.3842,0,0.000885,0,0
0:2:18.195,608.868,34.4531,0,0.000885,0,0
0:2:18.492,609.865,34.5083,0,0.000885,0,0
0:2:18.799,611.155,34.5841,0,0.000885,0,0
0:2:19.099,612.565,34.6668,0,0.000885,0,0
0:2:19.400,613.917,34.7427,0,0.000885,0,0
0:2:19.705,615.207,34.8116,0,0.000885,0,0
0:2:20.006,616.381,34.8806,0,0.000885,0,0
0:2:20.308,617.787,34.9564,0,0.000885,0,0
0:2:20.609,619.9,35.0805,0,0.000885,0,0
0:2:20.917,621.074,35.1426,0,0.000885,0,0
0:2:21.217,622.017,35.1977,0,0.000885,0,0
0:2:21.513,623.307,35.2736,0,0.000885,0,0
0:2:21.810,625.536,35.3977,0,0.000885,0,0
0:2:22.108,626.185,35.4322,0,0.000885,0,0
0:2:22.403,626.768,35.4666,0,0.000885,0,0
0:2:22.701,628.12,35.5425,0,0.000885,0,0
0:2:22.998,629.116,35.5976,0,0.000885,0,0
0:2:23.298,630.704,35.6873,0,0.000885,0,0
0:2:23.595,632.755,35.8045,0,0.000885,0,0
0:2:23.893,633.872,35.8665,0,0.000885,0,0
0:2:24.192,635.162,35.9424,0,0.000885,0,0
0:2:24.497,636.398,36.0113,0,0.000885,0,0
0:2:24.801,637.688,36.0872,0,0.000885,0,0
0:2:25.103,638.92,36.1561,0,0.000885,0,0
0:2:25.404,640.682,36.2526,0,0.000885,0,0
0:2:25.706,641.972,36.3285,0,0.000885,0,0
0:2:26.002,643.266,36.4043,0,0.000885,0,0
0:2:26.303,644.965,36.5008,0,0.000885,0,0
0:2:26.598,646.553,36.5905,0,0.000885,0,0
0:2:26.897,646.433,36.5836,0,0.000885,0,0
0:2:27.196,647.492,36.6387,0,0.000885,0,0
0:2:27.490,648.546,36.7008,0,0.000885,0,0
0:2:27.790,651.073,36.8456,0,0.000885,0,0
0:2:28.088,652.421,36.9214,0,0.000885,0,0
0:2:28.386,653.537,36.9835,0,0.000885,0,0
0:2:28.684,654.885,37.0593,0,0.000885,0,0
0:2:28.980,656.179,37.1352,0,0.000885,0,0
0:2:29.281,657.469,37.2041,0,0.000885,0,0
0:2:29.586,658.879,37.2868,0,0.000885,0,0
0:2:29.889,660.054,37.3489,0,0.000885,0,0
0:2:30.190,661.05,37.411,0,0.000885,0,0
0:2:30.491,663.105,37.5213,0,0.000885,0,0
0:2:30.795,664.16,37.5833,0,0.000885,0,0
0:2:31.100,665.334,37.6523,0,0.000885,0,0
0:2:31.399,666.215,37.7005,0,0.000885,0,0
0:2:31.705,668.915,37.8522,0,0.000885,0,0
0:2:32.002,669.973,37.9143,0,0.000885,0,0
0:2:32.301,671.028,37.9694,0,0.000885,0,0
0:2:32.596,672.086,38.0315,0,0.000885,0,0
0:2:32.896,673.14,38.0935,0,0.000885,0,0
0:2:33.192,674.666,38.1763,0,0.000885,0,0
0:2:33.491,676.428,38.2797,0,0.000885,0,0
0:2:33.789,677.66,38.3486,0,0.000885,0,0
0:2:34.091,678.834,38.4176,0,0.000885,0,0
0:2:34.395,680.654,38.5141,0,0.000885,0,0
0:2:34.698,681.419,38.5624,0,0.000885,0,0
0:2:34.999,682.064,38.5969,0,0.000885,0,0
0:2:35.303,684.119,38.7141,0,0.000885,0,0
0:2:35.608,686.347,38.8382,0,0.000885,0,0
0:2:35.909,687.348,38.8933,0,0.000885,0,0
0:2:36.216,688.109,38.9416,0,0.000885,0,0
0:2:36.516,689.403,39.0105,0,0.000885,0,0
0:2:36.812,690.284,39.0588,0,0.000885,0,0
0:2:37.119,692.806,39.2036,0,0.000885,0,0
0:2:37.420,693.509,39.245,0,0.000885,0,0
0:2:37.716,694.158,39.2794,0,0.000885,0,0
0:2:38.016,695.858,39.376,0,0.000885,0,0
0:2:38.309,696.974,39.438,0,0.000885,0,0
0:2:38.607,698.793,39.5414,0,0.000885,0,0
0:2:38.907,699.91,39.6035,0,0.000885,0,0
0:2:39.211,700.906,39.6655,0,0.000885,0,0
0:2:39.516,702.259,39.7414,0,0.000885,0,0
0:2:39.819,704.371,39.8586,0,0.000885,0,0
0:2:40.120,705.661,39.9344,0,0.000885,0,0
0:2:40.423,707.129,40.0172,0,0.000885,0,0
0:2:40.718,708.539,40.093,0,0.000885,0,0
0:2:41.020,709.887,40.1689,0,0.000885,0,0
0:2:41.312,710.652,40.2171,0,0.000885,0,0
0:2:41.609,712.178,40.2999,0,0.000885,0,0
0:2:41.909,713.762,40.3895,0,0.000885,0,0
0:2:42.205,714.7,40.4446,0,0.000885,0,0
0:2:42.506,716.168,40.5274,0,0.000885,0,0
0:2:42.800,717.4,40.5963,0,0.000885,0,0
0:2:43.099,718.868,40.6791,0,0.000885,0,0
0:2:43.396,719.927,40.7411,0,0.000885,0,0
0:2:43.693,720.808,40.7894,0,0.000885,0,0
0:2:43.992,722.333,40.879,0,0.000885,0,0
0:2:44.296,723.975,40.9686,0,0.000885,0,0
0:2:44.599,724.682,41.01,0,0.000885,0,0
0:2:44.902,726.208,41.0928,0,0.000885,0,0
0:2:45.201,727.556,41.1686,0,0.000885,0,0
0:2:45.504,729.611,41.2858,0,0.000885,0,0
0:2:45.801,731.079,41.3685,0,0.000885,0,0
0:2:46.102,732.253,41.4375,0,0.000885,0,0
0:2:46.397,732.898,41.472,0,0.000885,0,0
0:2:46.696,734.014,41.534,0,0.000885,0,0
0:2:46.994,735.949,41.6443,0,0.000885,0,0
0:2:47.291,737.244,41.7202,0,0.000885,0,0
0:2:47.592,738.943,41.8167,0,0.000885,0,0
0:2:47.884,739.588,41.8512,0,0.000885,0,0
0:2:48.186,740.647,41.9132,0,0.000885,0,0
0:2:48.481,742.35,42.0098,0,0.000885,0,0
0:2:48.778,743.756,42.0856,0,0.000885,0,0
0:2:49.078,745.224,42.1683,0,0.000885,0,0
0:2:49.380,746.456,42.2442,0,0.000885,0,0
0:2:49.685,747.982,42.3269,0,0.000885,0,0
0:2:49.988,748.983,42.3821,0,0.000885,0,0
0:2:50.289,750.33,42.4579,0,0.000885,0,0
0:2:50.591,751.447,42.52,0,0.000885,0,0
0:2:50.886,752.563,42.5889,0,0.000885,0,0
0:2:51.188,754.383,42.6923,0,0.000885,0,0
0:2:51.483,755.264,42.7406,0,0.000885,0,0
0:2:51.784,756.731,42.8233,0,0.000885,0,0
0:2:52.080,757.728,42.8785,0,0.000885,0,0
0:2:52.378,759.076,42.9543,0,0.000885,0,0
0:2:52.678,761.309,43.0784,0,0.000885,0,0
0:2:52.971,762.425,43.1474,0,0.000885,0,0
0:2:53.271,763.773,43.2232,0,0.000885,0,0
0:2:53.566,765.005,43.2922,0,0.000885,0,0
0:2:53.866,766.357,43.368,0,0.000885,0,0
0:2:54.163,767.999,43.4577,0,0.000885,0,0
0:2:54.464,769.057,43.5197,0,0.000885,0,0
0:2:54.770,769.996,43.5749,0,0.000885,0,0
0:2:55.072,771.17,43.6369,0,0.000885,0,0
0:2:55.375,772.754,43.7266,0,0.000885,0,0
0:2:55.675,773.928,43.7955,0,0.000885,0,0
0:2:55.975,775.281,43.8713,0,0.000885,0,0
0:2:56.271,776.513,43.9403,0,0.000885,0,0
0:2:56.568,777.393,43.9886,0,0.000885,0,0
0:2:56.868,778.977,44.0782,0,0.000885,0,0
0:2:57.164,780.325,44.154,0,0.000885,0,0
0:2:57.463,781.441,44.223,0,0.000885,0,0
0:2:57.761,783.087,44.3126,0,0.000885,0,0
0:2:58.058,784.555,44.3953,0,0.000885,0,0
0:2:58.357,786.254,44.4919,0,0.000885,0,0
0:2:58.653,787.429,44.5608,0,0.000885,0,0
0:2:58.955,788.781,44.6367,0,0.000885,0,0
0:2:59.259,789.835,44.6987,0,0.000885,0,0
0:2:59.563,791.361,44.7814,0,0.000885,0,0
0:2:59.864,792.655,44.8573,0,0.000885,0,0
0:3:0.167,794.003,44.9331,0,0.000885,0,0
0:3:0.468,794.768,44.9745,0,0.000885,0,0
0:3:0.761,796.174,45.0572,0,0.000885,0,0
0:3:1.062,798.758,45.202,0,0.000885,0,0
0:3:1.358,800.168,45.2779,0,0.000885,0,0
0:3:1.656,800.929,45.3261,0,0.000885,0,0
0:3:1.955,801.574,45.3606,0,0.000885,0,0
0:3:2.250,802.69,45.4227,0,0.000885,0,0
0:3:2.551,805.448,45.5812,0,0.000885,0,0
0:3:2.844,804.688,45.533,0,0.000885,0,0
0:3:3.146,806.391,45.6295,0,0.000885,0,0
0:3:3.441,807.797,45.7122,0,0.000885,0,0
0:3:3.738,809.091,45.7881,0,0.000885,0,0
0:3:4.038,811.084,45.8984,0,0.000885,0,0
0:3:4.342,812.437,45.9742,0,0.000885,0,0
0:3:4.646,813.842,46.057,0,0.000885,0,0
0:3:4.949,814.785,46.1052,0,0.000885,0,0
0:3:5.251,816.311,46.1949,0,0.000885,0,0
0:3:5.554,817.25,46.25,0,0.000885,0,0
0:3:5.848,818.833,46.3397,0,0.000885,0,0
0:3:6.150,819.829,46.3948,0,0.000885,0,0
0:3:6.445,821.182,46.4707,0,0.000885,0,0
0:3:6.745,823.117,46.581,0,0.000885,0,0
0:3:7.041,824.878,46.6775,0,0.000885,0,0
0:3:7.338,825.817,46.7327,0,0.000885,0,0
0:3:7.637,827.285,46.8154,0,0.000885,0,0
0:3:7.931,828.931,46.905,0,0.000885,0,0
0:3:8.233,829.927,46.9671,0,0.000885,0,0
0:3:8.529,831.043,47.0291,0,0.000885,0,0
0:3:8.827,832.391,47.105,0,0.000885,0,0
0:3:9.124,833.686,47.1739,0,0.000885,0,0
0:3:9.427,834.918,47.2498,0,0.000885,0,0
0:3:9.732,836.208,47.3187,0,0.000885,0,0
0:3:10.033,837.44,47.3877,0,0.000885,0,0
0:3:10.335,838.792,47.4635,0,0.000885,0,0
0:3:10.638,839.731,47.5187,0,0.000885,0,0
0:3:10.936,842.253,47.6635,0,0.000885,0,0
0:3:11.236,843.254,47.7186,0,0.000885,0,0
0:3:11.531,844.308,47.7807,0,0.000885,0,0
0:3:11.832,844.837,47.8082,0,0.000885,0,0
0:3:12.125,846.247,47.891,0,0.000885,0,0
0:3:12.425,848.885,48.0358,0,0.000885,0,0
0:3:12.722,850.06,48.1047,0,0.000885,0,0
0:3:13.019,851.354,48.1737,0,0.000885,0,0
0:3:13.316,852.057,48.215,0,0.000885,0,0
0:3:13.611,852.293,48.2288,0,0.000885,0,0
0:3:13.913,855.166,48.3943,0,0.000885,0,0
0:3:14.219,856.167,48.4495,0,0.000885,0,0
0:3:14.521,857.577,48.5322,0,0.000885,0,0
0:3:14.823,858.925,48.608,0,0.000885,0,0
0:3:15.124,859.921,48.6632,0,0.000885,0,0
0:3:15.425,861.331,48.739,0,0.000885,0,0
0:3:15.720,862.212,48.7942,0,0.000885,0,0
0:3:16.020,863.386,48.8563,0,0.000885,0,0
0:3:16.315,864.619,48.9252,0,0.000885,0,0
0:3:16.611,866.852,49.0562,0,0.000885,0,0
0:3:16.911,868.435,49.1458,0,0.000885,0,0
0:3:17.206,870.077,49.2355,0,0.000885,0,0
0:3:17.505,871.722,49.332,0,0.000885,0,0
0:3:17.821,871.78,49.332,0,0.000885,0,0
0:3:18.121,873.835,49.4492,0,0.000885,0,0
0:3:18.417,875.067,49.5181,0,0.000885,0,0
0:3:18.712,876.357,49.594,0,0.000885,0,0
0:3:19.012,877.416,49.6491,0,0.000885,0,0
0:3:19.319,878.413,49.7112,0,0.000885,0,0
0:3:19.622,879.823,49.787,0,0.000885,0,0
0:3:19.925,880.877,49.8491,0,0.000885,0,0
0:3:20.225,882.345,49.9318,0,0.000885,0,0
0:3:20.527,883.346,49.987,0,0.000885,0,0
0:3:20.822,885.516,50.1111,0,0.000885,0,0
0:3:21.123,887.158,50.2007,0,0.000885,0,0
0:3:21.420,888.216,50.2628,0,0.000885,0,0
0:3:21.715,890.094,50.3662,0,0.000885,0,0
0:3:22.014,890.507,50.3938,0,0.000885,0,0
0:3:22.321,891.855,50.4696,0,0.000885,0,0
0:3:22.622,893.207,50.5455,0,0.000885,0,0
0:3:22.914,894.204,50.6006,0,0.000885,0,0
0:3:23.214,895.614,50.6834,0,0.000885,0,0
0:3:23.511,896.61,50.7385,0,0.000885,0,0
0:3:23.807,898.372,50.835,0,0.000885,0,0
0:3:24.108,899.84,50.9178,0,0.000885,0,0
0:3:24.411,901.072,50.9936,0,0.000885,0,0
0:3:24.716,902.126,51.0488,0,0.000885,0,0
0:3:25.020,904.417,51.1798,0,0.000885,0,0
0:3:25.320,905.476,51.2418,0,0.000885,0,0
0:3:25.624,906.766,51.3108,0,0.000885,0,0
0:3:25.916,907.882,51.3728,0,0.000885,0,0
0:3:26.217,909.345,51.4556,0,0.000885,0,0
0:3:26.514,909.933,51.49,0,0.000885,0,0
0:3:26.812,911.343,51.5728,0,0.000885,0,0
0:3:27.110,912.926,51.6624,0,0.000885,0,0
0:3:27.406,914.163,51.7314,0,0.000885,0,0
0:3:27.709,915.862,51.8279,0,0.000885,0,0
0:3:28.013,917.214,51.9037,0,0.000885,0,0
0:3:28.311,918.211,51.9589,0,0.000885,0,0
0:3:28.611,919.149,52.014,0,0.000885,0,0
0:3:28.906,920.266,52.0761,0,0.000885,0,0
0:3:29.207,922.437,52.2002,0,0.000885,0,0
0:3:29.511,923.669,52.2692,0,0.000885,0,0
0:3:29.814,924.843,52.3381,0,0.000885,0,0
0:3:30.116,926.431,52.4277,0,0.000885,0,0
0:3:30.421,927.307,52.476,0,0.000885,0,0
0:3:30.721,928.602,52.5449,0,0.000885,0,0
0:3:31.016,930.128,52.6346,0,0.000885,0,0
0:3:31.314,931.538,52.7173,0,0.000885,0,0
0:3:31.612,932.476,52.7656,0,0.000885,0,0
0:3:31.917,935.176,52.9173,0,0.000885,0,0
0:3:32.218,936.466,52.9931,0,0.000885,0,0
0:3:32.524,937.525,53.0552,0,0.000885,0,0
0:3:32.824,938.228,53.0896,0,0.000885,0,0
0:3:33.121,940.047,53.1931,0,0.000885,0,0
0:3:33.414,940.283,53.2068,0,0.000885,0,0
0:3:33.716,941.515,53.2758,0,0.000885,0,0
0:3:34.010,943.334,53.3792,0,0.000885,0,0
0:3:34.312,944.802,53.4619,0,0.000885,0,0
0:3:34.617,946.386,53.5516,0,0.000885,0,0
0:3:34.921,947.324,53.6067,0,0.000885,0,0
0:3:35.222,948.677,53.6826,0,0.000885,0,0
0:3:35.524,949.793,53.7446,0,0.000885,0,0
0:3:35.826,951.55,53.8481,0,0.000885,0,0
0:3:36.122,952.787,53.917,0,0.000885,0,0
0:3:36.418,953.783,53.9722,0,0.000885,0,0
0:3:36.717,955.367,54.0618,0,0.000885,0,0
0:3:37.013,956.483,54.1238,0,0.000885,0,0
0:3:37.314,958.774,54.2548,0,0.000885,0,0
0:3:37.631,960.18,54.3376,0,0.000885,0,0
0:3:37.929,961.412,54.4065,0,0.000885,0,0
0:3:38.229,961.999,54.441,0,0.000885,0,0
0:3:38.523,963.467,54.5237,0,0.000885,0,0
0:3:38.826,964.468,54.5789,0,0.000885,0,0
0:3:39.130,965.936,54.6616,0,0.000885,0,0
0:3:39.433,967.106,54.7237,0,0.000885,0,0
0:3:39.734,968.574,54.8133,0,0.000885,0,0
0:3:40.037,970.629,54.9236,0,0.000885,0,0
0:3:40.337,971.394,54.9719,0,0.000885,0,0
0:3:40.634,972.332,55.0202,0,0.000885,0,0
0:3:40.932,973.858,55.1098,0,0.000885,0,0
0:3:41.230,975.62,55.2063,0,0.000885,0,0
0:3:41.527,976.91,55.2822,0,0.000885,0,0
0:3:41.827,977.848,55.3373,0,0.000885,0,0
0:3:42.118,979.316,55.4201,0,0.000885,0,0
0:3:42.421,980.548,55.489,0,0.000885,0,0
0:3:42.715,982.252,55.5855,0,0.000885,0,0
0:3:43.014,983.017,55.6269,0,0.000885,0,0
0:3:43.311,983.542,55.6545,0,0.000885,0,0
0:3:43.607,985.481,55.7648,0,0.000885,0,0
0:3:43.909,986.771,55.8406,0,0.000885,0,0
0:3:44.213,989.236,55.9785,0,0.000885,0,0
0:3:44.515,990.53,56.0544,0,0.000885,0,0
0:3:44.817,991.526,56.1095,0,0.000885,0,0
0:3:45.119,993.052,56.1923,0,0.000885,0,0
0:3:45.419,993.817,56.2405,0,0.000885,0,0
0:3:45.715,994.814,56.2957,0,0.000885,0,0
0:3:46.015,996.046,56.3646,0,0.000885,0,0
0:3:46.312,997.629,56.4543,0,0.000885,0,0
0:3:46.610,998.804,56.5232,0,0.000885,0,0
0:3:46.910,1001.45,56.668,0,0.000885,0,0
0:3:47.213,1002.8,56.7439,0,0.000885,0,0
0:3:47.512,1004.03,56.8197,0,0.000885,0,0
0:3:47.809,1005.03,56.8749,0,0.000885,0,0
0:3:48.107,1005.38,56.8955,0,0.000885,0,0
0:3:48.406,1007.02,56.9852,0,0.000885,0,0
0:3:48.703,1008.84,57.0886,0,0.000885,0,0
0:3:49.004,1009.67,57.1369,0,0.000885,0,0
0:3:49.308,1011.07,57.2127,0,0.000885,0,0
0:3:49.612,1012.78,57.3092,0,0.000885,0,0
0:3:49.914,1014.07,57.3851,0,0.000885,0,0
0:3:50.215,1015.3,57.454,0,0.000885,0,0
0:3:50.515,1016.77,57.5367,0,0.000885,0,0
0:3:50.832,1018.23,57.6195,0,0.000885,0,0
0:3:51.132,1019.7,57.7022,0,0.000885,0,0
0:3:51.428,1020.7,57.7574,0,0.000885,0,0
0:3:51.726,1021.64,57.8125,0,0.000885,0,0
0:3:52.026,1022.99,57.8884,0,0.000885,0,0
0:3:52.318,1023.87,57.9366,0,0.000885,0,0
0:3:52.619,1025.28,58.0194,0,0.000885,0,0
0:3:52.913,1027.04,58.1159,0,0.000885,0,0
0:3:53.214,1028.68,58.2124,0,0.000885,0,0
0:3:53.510,1030.27,58.3021,0,0.000885,0,0
0:3:53.807,1031.5,58.371,0,0.000885,0,0
0:3:54.107,1032.85,58.4469,0,0.000885,0,0
0:3:54.411,1033.85,58.502,0,0.000885,0,0
0:3:54.715,1035.43,58.5916,0,0.000885,0,0
0:3:55.016,1036.32,58.6468,0,0.000885,0,0
0:3:55.318,1037.66,58.7226,0,0.000885,0,0
0:3:55.620,1038.66,58.7778,0,0.000885,0,0
0:3:55.914,1040.01,58.8536,0,0.000885,0,0
0:3:56.215,1041.24,58.9226,0,0.000885,0,0
0:3:56.511,1042.6,58.9984,0,0.000885,0,0
0:3:56.821,1044.3,59.095,0,0.000885,0,0
0:3:57.129,1045.94,59.1915,0,0.000885,0,0
0:3:57.426,1047.12,59.2535,0,0.000885,0,0
0:3:57.728,1048.05,59.3087,0,0.000885,0,0
0:3:58.019,1049.52,59.3914,0,0.000885,0,0
0:3:58.321,1050.75,59.4604,0,0.000885,0,0
0:3:58.617,1052.04,59.5362,0,0.000885,0,0
0:3:58.919,1053.22,59.5983,0,0.000885,0,0
0:3:59.226,1055.57,59.7362,0,0.000885,0,0
0:3:59.529,1056.92,59.812,0,0.000885,0,0
0:3:59.829,1058.09,59.8741,0,0.000885,0,0
0:4:0.132,1058.85,59.9223,0,0.000885,0,0
0:4:0.431,1060.32,60.0051,0,0.000885,0,0
0:4:0.730,1061.67,60.0809,0,0.000885,0,0
0:4:1.025,1062.84,60.143,0,0.000885,0,0
0:4:1.326,1063.43,60.1774,0,0.000885,0,0
0:4:1.629,1065.31,60.2809,0,0.000885,0,0
0:4:1.931,1067.36,60.3981,0,0.000885,0,0
0:4:2.226,1068.66,60.4739,0,0.000885,0,0
0:4:2.525,1069.48,60.5222,0,0.000885,0,0
0:4:2.833,1070.71,60.5911,0,0.000885,0,0
0:4:3.127,1072.47,60.6877,0,0.000885,0,0
0:4:3.428,1073.65,60.7566,0,0.000885,0,0
0:4:3.732,1074.82,60.8255,0,0.000885,0,0
0:4:4.035,1076.17,60.9014,0,0.000885,0,0
0:4:4.339,1076.7,60.929,0,0.000885,0,0
0:4:4.642,1078.75,61.0462,0,0.000885,0,0
0:4:4.945,1079.99,61.1151,0,0.000885,0,0
0:4:5.247,1081.22,61.1841,0,0.000885,0,0
0:4:5.547,1082.33,61.2461,0,0.000885,0,0
0:4:5.846,1083.56,61.3151,0,0.000885,0,0
0:4:6.141,1085.5,61.4254,0,0.000885,0,0
0:4:6.440,1086.85,61.5012,0,0.000885,0,0
0:4:6.736,1088.32,61.584,0,0.000885,0,0
0:4:7.037,1089.61,61.6598,0,0.000885,0,0
0:4:7.331,1090.79,61.7288,0,0.000885,0,0
0:4:7.630,1092.49,61.8253,0,0.000885,0,0
0:4:7.930,1093.6,61.8873,0,0.000885,0,0
0:4:8.226,1094.66,61.9425,0,0.000885,0,0
0:4:8.526,1095.95,62.0183,0,0.000885,0,0
0:4:8.830,1097.77,62.1218,0,0.000885,0,0
0:4:9.133,1098.53,62.1631,0,0.000885,0,0
0:4:9.437,1099.77,62.2321,0,0.000885,0,0
0:4:9.741,1100.77,62.2872,0,0.000885,0,0
0:4:10.041,1102.18,62.37,0,0.000885,0,0
0:4:10.343,1104.4,62.4941,0,0.000885,0,0
0:4:10.646,1105.46,62.5561,0,0.000885,0,0
0:4:10.940,1106.46,62.6113,0,0.000885,0,0
0:4:11.239,1107.58,62.6733,0,0.000885,0,0
0:4:11.537,1109.45,62.7837,0,0.000885,0,0
0:4:11.832,1110.74,62.8526,0,0.000885,0,0
0:4:12.133,1112.15,62.9353,0,0.000885,0,0
0:4:12.428,1113.56,63.0181,0,0.000885,0,0
0:4:12.729,1114.44,63.0663,0,0.000885,0,0
0:4:13.033,1116.73,63.1973,0,0.000885,0,0
0:4:13.332,1118.26,63.2801,0,0.000885,0,0
0:4:13.630,1119.55,63.3559,0,0.000885,0,0
0:4:13.926,1120.6,63.4111,0,0.000885,0,0
0:4:14.225,1121.13,63.4456,0,0.000885,0,0
0:4:14.529,1122.37,63.5145,0,0.000885,0,0
0:4:14.832,1123.83,63.5972,0,0.000885,0,0
0:4:15.134,1124.72,63.6455,0,0.000885,0,0
0:4:15.434,1126.06,63.7213,0,0.000885,0,0
0:4:15.738,1128.53,63.8592,0,0.000885,0,0
0:4:16.032,1129.64,63.9282,0,0.000885,0,0
0:4:16.334,1130.64,63.9833,0,0.000885,0,0
0:4:16.629,1131.99,64.0592,0,0.000885,0,0
0:4:16.927,1132.87,64.1075,0,0.000885,0,0
0:4:17.234,1134.28,64.1902,0,0.000885,0,0
0:4:17.530,1135.46,64.2522,0,0.000885,0,0
0:4:17.831,1136.34,64.3005,0,0.000885,0,0
0:4:18.122,1137.63,64.3763,0,0.000885,0,0
0:4:18.435,1140.03,64.5142,0,0.000885,0,0
0:4:18.732,1140.86,64.5625,0,0.000885,0,0
0:4:19.034,1142.09,64.6315,0,0.000885,0,0
0:4:19.338,1143.32,64.7004,0,0.000885,0,0
0:4:19.641,1144.44,64.7625,0,0.000885,0,0
0:4:19.941,1146.72,64.8935,0,0.000885,0,0
0:4:20.244,1148.26,64.9762,0,0.000885,0,0
0:4:20.540,1148.96,65.0176,0,0.000885,0,0
0:4:20.840,1150.66,65.1141,0,0.000885,0,0
0:4:21.135,1151.19,65.1417,0,0.000885,0,0
0:4:21.437,1153.59,65.2796,0,0.000885,0,0
0:4:21.732,1155,65.3623,0,0.000885,0,0
0:4:22.029,1156,65.4175,0,0.000885,0,0
0:4:22.327,1156.94,65.4726,0,0.000885,0,0
0:4:22.633,1158.41,65.5554,0,0.000885,0,0
0:4:22.934,1159.35,65.6036,0,0.000885,0,0
0:4:23.228,1160.7,65.6795,0,0.000885,0,0
0:4:23.530,1162.16,65.7622,0,0.000885,0,0
0:4:23.823,1163.22,65.8242,0,0.000885,0,0
0:4:24.127,1164.46,65.8932,0,0.000885,0,0
0:4:24.433,1165.98,65.9828,0,0.000885,0,0
0:4:24.733,1167.51,66.0656,0,0.000885,0,0
0:4:25.035,1168.21,66.1069,0,0.000885,0,0
0:4:25.338,1170.26,66.2241,0,0.000885,0,0
0:4:25.637,1171.5,66.2931,0,0.000885,0,0
0:4:25.934,1172.67,66.362,0,0.000885,0,0
0:4:26.232,1174.32,66.4517,0,0.000885,0,0
0:4:26.531,1175.61,66.5275,0,0.000885,0,0
0:4:26.835,1176.49,66.5758,0,0.000885,0,0
0:4:27.136,1177.9,66.6585,0,0.000885,0,0
0:4:27.431,1179.07,66.7206,0,0.000885,0,0
0:4:27.728,1180.07,66.7757,0,0.000885,0,0
0:4:28.028,1181.3,66.8447,0,0.000885,0,0
0:4:28.333,1183.77,66.9895,0,0.000885,0,0
0:4:28.634,1185.18,67.0653,0,0.000885,0,0
0:4:28.927,1186.29,67.1274,0,0.000885,0,0
0:4:29.229,1187.99,67.2239,0,0.000885,0,0
0:4:29.534,1189.29,67.2997,0,0.000885,0,0
0:4:29.838,1190.58,67.3756,0,0.000885,0,0
0:4:30.140,1191.16,67.4031,0,0.000885,0,0
0:4:30.440,1192.34,67.4721,0,0.000885,0,0
0:4:30.741,1193.45,67.5341,0,0.000885,0,0
0:4:31.036,1196.03,67.6789,0,0.000885,0,0
0:4:31.336,1197.09,67.741,0,0.000885,0,0
0:4:31.635,1198.15,67.803,0,0.000885,0,0
0:4:31.928,1199.15,67.8582,0,0.000885,0,0
0:4:32.230,1200.38,67.9271,0,0.000885,0,0
0:4:32.523,1202.55,68.0513,0,0.000885,0,0
0:4:32.834,1203.37,68.0995,0,0.000885,0,0
0:4:33.132,1204.43,68.1547,0,0.000885,0,0
0:4:33.429,1205.37,68.2098,0,0.000885,0,0
0:4:33.730,1207.71,68.3408,0,0.000885,0,0
0:4:34.033,1208.65,68.396,0,0.000885,0,0
0:4:34.336,1209.48,68.4443,0,0.000885,0,0
0:4:34.640,1210.94,68.527,0,0.000885,0,0
0:4:34.943,1213.41,68.6649,0,0.000885,0,0
0:4:35.247,1214.23,68.7132,0,0.000885,0,0
0:4:35.547,1215.64,68.789,0,0.000885,0,0
0:4:35.850,1216.75,68.851,0,0.000885,0,0
0:4:36.142,1218.4,68.9476,0,0.000885,0,0
0:4:36.441,1219.34,69.0027,0,0.000885,0,0
0:4:36.740,1220.4,69.0579,0,0.000885,0,0
0:4:37.036,1221.57,69.1268,0,0.000885,0,0
0:4:37.336,1222.51,69.182,0,0.000885,0,0
0:4:37.631,1223.91,69.2578,0,0.000885,0,0
0:4:37.932,1225.56,69.3544,0,0.000885,0,0
0:4:38.236,1226.91,69.4302,0,0.000885,0,0
0:4:38.534,1228.26,69.506,0,0.000885,0,0
0:4:38.833,1229.79,69.5888,0,0.000885,0,0
0:4:39.137,1230.96,69.6577,0,0.000885,0,0
0:4:39.441,1232.49,69.7474,0,0.000885,0,0
0:4:39.743,1234.13,69.837,0,0.000885,0,0
0:4:40.046,1235.48,69.9128,0,0.000885,0,0
0:4:40.346,1236.3,69.9611,0,0.000885,0,0
0:4:40.641,1238.71,70.099,0,0.000885,0,0
0:4:40.942,1239.83,70.1611,0,0.000885,0,0
0:4:41.236,1241.06,70.23,0,0.000885,0,0
0:4:41.537,1242.05,70.2852,0,0.000885,0,0
0:4:41.832,1243.17,70.3472,0,0.000885,0,0
0:4:42.131,1244.05,70.3955,0,0.000885,0,0
0:4:42.429,1245.81,70.4989,0,0.000885,0,0
0:4:42.733,1247.1,70.5747,0,0.000885,0,0
0:4:43.033,1248.74,70.6644,0,0.000885,0,0
0:4:43.328,1249.51,70.7057,0,0.000885,0,0
0:4:43.625,1251.09,70.7954,0,0.000885,0,0
0:4:43.933,1252.68,70.885,0,0.000885,0,0
0:4:44.235,1253.74,70.9471,0,0.000885,0,0
0:4:44.539,1254.73,71.0022,0,0.000885,0,0
0:4:44.842,1257.2,71.1401,0,0.000885,0,0
0:4:45.145,1258.14,71.1953,0,0.000885,0,0
0:4:45.447,1259.31,71.2642,0,0.000885,0,0
0:4:45.745,1260.31,71.3194,0,0.000885,0,0
0:4:46.043,1262.54,71.4435,0,0.000885,0,0
0:4:46.337,1263.48,71.4986,0,0.000885,0,0
0:4:46.639,1264.54,71.5607,0,0.000885,0,0
0:4:46.932,1265.53,71.6158,0,0.000885,0,0
0:4:47.233,1266.53,71.671,0,0.000885,0,0
0:4:47.530,1268.76,71.7951,0,0.000885,0,0
0:4:47.835,1269.76,71.8572,0,0.000885,0,0
0:4:48.135,1270.93,71.9192,0,0.000885,0,0
0:4:48.430,1271.7,71.9606,0,0.000885,0,0
0:4:48.730,1272.64,72.0157,0,0.000885,0,0
0:4:49.034,1275.57,72.1812,0,0.000885,0,0
0:4:49.335,1276.16,72.2157,0,0.000885,0,0
0:4:49.640,1277.39,72.2846,0,0.000885,0,0
0:4:49.942,1278.33,72.3398,0,0.000885,0,0
0:4:50.245,1280.62,72.4708,0,0.000885,0,0
0:4:50.545,1281.44,72.5122,0,0.000885,0,0
0:4:50.846,1282.26,72.5604,0,0.000885,0,0
0:4:51.141,1283.32,72.6225,0,0.000885,0,0
0:4:51.438,1285.2,72.7259,0,0.000885,0,0
0:4:51.738,1286.55,72.8017,0,0.000885,0,0
0:4:52.031,1288.08,72.8914,0,0.000885,0,0
0:4:52.330,1289.48,72.9672,0,0.000885,0,0
0:4:52.637,1291.48,73.0844,0,0.000885,0,0
0:4:52.933,1292.3,73.1327,0,0.000885,0,0
0:4:53.233,1294.18,73.2361,0,0.000885,0,0
0:4:53.526,1295.24,73.2982,0,0.000885,0,0
0:4:53.830,1296.64,73.374,0,0.000885,0,0
0:4:54.135,1297.11,73.4016,0,0.000885,0,0
0:4:54.437,1299.29,73.5257,0,0.000885,0,0
0:4:54.739,1300.64,73.6015,0,0.000885,0,0
0:4:55.040,1301.75,73.6636,0,0.000885,0,0
0:4:55.342,1303.16,73.7463,0,0.000885,0,0
0:4:55.636,1303.75,73.7739,0,0.000885,0,0
0:4:55.935,1304.69,73.8291,0,0.000885,0,0
0:4:56.233,1306.39,73.9256,0,0.000885,0,0
0:4:56.536,1307.8,74.0083,0,0.000885,0,0
0:4:56.837,1309.5,74.1049,0,0.000885,0,0
0:4:57.132,1311.14,74.1945,0,0.000885,0,0
0:4:57.431,1312.14,74.2496,0,0.000885,0,0
0:4:57.738,1313.72,74.3393,0,0.000885,0,0
0:4:58.034,1314.84,74.4082,0,0.000885,0,0
0:4:58.335,1315.61,74.4496,0,0.000885,0,0
0:4:58.637,1317.83,74.5737,0,0.000885,0,0
0:4:58.938,1318.36,74.6013,0,0.000885,0,0
0:4:59.241,1319.42,74.6633,0,0.000885,0,0
0:4:59.545,1320.48,74.7254,0,0.000885,0,0
0:4:59.847,1322.71,74.8495,0,0.000885,0,0
0:5:0.148,1324.29,74.9391,0,0.000885,0,0
0:5:0.450,1325,74.9805,0,0.000885,0,0
0:5:0.746,1325.58,75.015,0,0.000885,0,0
0:5:1.042,1326.41,75.0563,0,0.000885,0,0
0:5:1.341,1328.93,75.2011,0,0.000885,0,0
0:5:1.635,1330.1,75.2701,0,0.000885,0,0
0:5:1.937,1332.45,75.4011,0,0.000885,0,0
0:5:2.232,1333.51,75.4631,0,0.000885,0,0
0:5:2.530,1335.04,75.5459,0,0.000885,0,0
0:5:2.839,1337.56,75.6906,0,0.000885,0,0
0:5:3.133,1338.73,75.7596,0,0.000885,0,0
0:5:3.435,1339.49,75.801,0,0.000885,0,0
0:5:3.727,1340.32,75.8492,0,0.000885,0,0
0:5:4.032,1341.96,75.9389,0,0.000885,0,0
0:5:4.335,1342.61,75.9733,0,0.000885,0,0
0:5:4.639,1344.19,76.063,0,0.000885,0,0
0:5:4.940,1344.78,76.0974,0,0.000885,0,0
0:5:5.242,1345.66,76.1457,0,0.000885,0,0
0:5:5.543,1347.89,76.2767,0,0.000885,0,0
0:5:5.840,1348.77,76.325,0,0.000885,0,0
0:5:6.137,1350,76.3939,0,0.000885,0,0
0:5:6.437,1352.17,76.518,0,0.000885,0,0
0:5:6.730,1353.99,76.6214,0,0.000885,0,0
0:5:7.032,1355.58,76.7111,0,0.000885,0,0
0:5:7.337,1356.11,76.7386,0,0.000885,0,0
0:5:7.636,1357.05,76.7938,0,0.000885,0,0
0:5:7.934,1357.93,76.8421,0,0.000885,0,0
0:5:8.239,1360.04,76.9593,0,0.000885,0,0
0:5:8.540,1361.21,77.0282,0,0.000885,0,0
0:5:8.835,1362.27,77.0903,0,0.000885,0,0
0:5:9.137,1362.98,77.1316,0,0.000885,0,0
0:5:9.441,1364.68,77.2282,0,0.000885,0,0
0:5:9.743,1366.08,77.304,0,0.000885,0,0
0:5:10.047,1367.67,77.3937,0,0.000885,0,0
0:5:10.348,1368.26,77.4281,0,0.000885,0,0
0:5:10.650,1370.6,77.5591,0,0.000885,0,0
0:5:10.946,1371.72,77.6212,0,0.000885,0,0
0:5:11.242,1373.42,77.7177,0,0.000885,0,0
0:5:11.542,1374.95,77.8073,0,0.000885,0,0
0:5:11.837,1375.65,77.8487,0,0.000885,0,0
0:5:12.139,1378.06,77.9797,0,0.000885,0,0
0:5:12.432,1378.94,78.0349,0,0.000885,0,0
0:5:12.733,1379.94,78.09,0,0.000885,0,0
0:5:13.039,1380.29,78.1107,0,0.000885,0,0
0:5:13.335,1381.4,78.1728,0,0.000885,0,0
0:5:13.636,1383.58,78.2969,0,0.000885,0,0
0:5:13.939,1384.75,78.3589,0,0.000885,0,0
0:5:14.241,1385.81,78.421,0,0.000885,0,0
0:5:14.547,1387.22,78.5037,0,0.000885,0,0
0:5:14.850,1389.1,78.6071,0,0.000885,0,0
0:5:15.153,1390.56,78.6899,0,0.000885,0,0
0:5:15.453,1391.15,78.7243,0,0.000885,0,0
0:5:15.755,1393.03,78.8278,0,0.000885,0,0
0:5:16.051,1395.02,78.945,0,0.000885,0,0
0:5:16.351,1395.85,78.9863,0,0.000885,0,0
0:5:16.647,1397.25,79.0691,0,0.000885,0,0
0:5:16.942,1398.43,79.138,0,0.000885,0,0
0:5:17.243,1399.01,79.1656,0,0.000885,0,0
0:5:17.537,1400.02,79.2277,0,0.000885,0,0
0:5:17.839,1401.78,79.3242,0,0.000885,0,0
0:5:18.135,1403.07,79.4,0,0.000885,0,0
0:5:18.433,1405.36,79.5241,0,0.000885,0,0
0:5:18.733,1406.76,79.6069,0,0.000885,0,0
0:5:19.035,1408.06,79.6827,0,0.000885,0,0
0:5:19.340,1409.7,79.7723,0,0.000885,0,0
0:5:19.641,1410.4,79.8137,0,0.000885,0,0
0:5:19.942,1411.28,79.862,0,0.000885,0,0
0:5:20.242,1412.4,79.924,0,0.000885,0,0
0:5:20.539,1414.4,80.0412,0,0.000885,0,0
0:5:20.841,1415.34,80.0895,0,0.000885,0,0
0:5:21.135,1416.1,80.1378,0,0.000885,0,0
0:5:21.436,1417.39,80.2067,0,0.000885,0,0
0:5:21.732,1418.68,80.2826,0,0.000885,0,0
0:5:22.027,1420.26,80.3722,0,0.000885,0,0
0:5:22.325,1422.44,80.4963,0,0.000885,0,0
0:5:22.632,1423.84,80.5721,0,0.000885,0,0
0:5:22.932,1424.43,80.6066,0,0.000885,0,0
0:5:23.237,1426.31,80.71,0,0.000885,0,0
0:5:23.537,1426.78,80.7376,0,0.000885,0,0
0:5:23.835,1428.13,80.8135,0,0.000885,0,0
0:5:24.137,1430.18,80.9307,0,0.000885,0,0
0:5:24.442,1430.89,80.972,0,0.000885,0,0
0:5:24.742,1433,81.0892,0,0.000885,0,0
0:5:25.043,1434,81.1444,0,0.000885,0,0
0:5:25.346,1434.59,81.1789,0,0.000885,0,0
0:5:25.643,1436.53,81.2892,0,0.000885,0,0
0:5:25.943,1438.17,81.3857,0,0.000885,0,0
0:5:26.237,1439.11,81.434,0,0.000885,0,0
0:5:26.538,1441.16,81.5512,0,0.000885,0,0
0:5:26.835,1442.22,81.6132,0,0.000885,0,0
0:5:27.140,1443.27,81.6753,0,0.000885,0,0
0:5:27.440,1445.33,81.7856,0,0.000885,0,0
0:5:27.735,1445.27,81.7856,0,0.000885,0,0
0:5:28.036,1446.39,81.8477,0,0.000885,0,0
0:5:28.339,1448.67,81.9787,0,0.000885,0,0
0:5:28.639,1450.08,82.0614,0,0.000885,0,0
0:5:28.937,1451.2,82.1235,0,0.000885,0,0
0:5:29.239,1452.61,82.1993,0,0.000885,0,0
0:5:29.545,1453.67,82.2613,0,0.000885,0,0
0:5:29.847,1455.25,82.351,0,0.000885,0,0
0:5:30.151,1457.13,82.4544,0,0.000885,0,0
0:5:30.452,1458.13,82.5165,0,0.000885,0,0
0:5:30.749,1459.24,82.5785,0,0.000885,0,0
0:5:31.048,1460.53,82.6475,0,0.000885,0,0
0:5:31.342,1460.88,82.6681,0,0.000885,0,0
0:5:31.642,1463.29,82.806,0,0.000885,0,0
0:5:31.937,1463.99,82.8474,0,0.000885,0,0
0:5:32.238,1465.7,82.9439,0,0.000885,0,0
0:5:32.533,1466.23,82.9715,0,0.000885,0,0
0:5:32.841,1468.99,83.1301,0,0.000885,0,0
0:5:33.140,1470.51,83.2128,0,0.000885,0,0
0:5:33.434,1471.74,83.2818,0,0.000885,0,0
0:5:33.737,1472.74,83.3369,0,0.000885,0,0
0:5:34.040,1473.27,83.3714,0,0.000885,0,0
0:5:34.342,1474.91,83.461,0,0.000885,0,0
0:5:34.648,1476.73,83.5645,0,0.000885,0,0
0:5:34.949,1477.67,83.6196,0,0.000885,0,0
0:5:35.252,1478.32,83.6541,0,0.000885,0,0
0:5:35.554,1481.02,83.8058,0,0.000885,0,0
0:5:35.854,1481.73,83.8471,0,0.000885,0,0
0:5:36.150,1482.61,83.8954,0,0.000885,0,0
0:5:36.448,1483.32,83.9368,0,0.000885,0,0
0:5:36.747,1484.26,83.9919,0,0.000885,0,0
0:5:37.040,1486.56,84.1229,0,0.000885,0,0
0:5:37.342,1488.62,84.2401,0,0.000885,0,0
0:5:37.637,1489.56,84.2953,0,0.000885,0,0
0:5:37.936,1491.39,84.3918,0,0.000885,0,0
0:5:38.234,1492.09,84.4332,0,0.000885,0,0
0:5:38.529,1494.33,84.5642,0,0.000885,0,0
0:5:38.829,1495.8,84.6469,0,0.000885,0,0
0:5:39.135,1497.04,84.7159,0,0.000885,0,0
0:5:39.437,1497.51,84.7435,0,0.000885,0,0
0:5:39.742,1499.1,84.8331,0,0.000885,0,0
0:5:40.041,1500.57,84.9158,0,0.000885,0,0
0:5:40.343,1501.4,84.9641,0,0.000885,0,0
0:5:40.638,1502.57,85.0261,0,0.000885,0,0
0:5:40.940,1503.64,85.0882,0,0.000885,0,0
0:5:41.243,1505.75,85.2054,0,0.000885,0,0
0:5:41.543,1506.64,85.2606,0,0.000885,0,0
0:5:41.840,1508.11,85.3433,0,0.000885,0,0
0:5:42.137,1509.35,85.4123,0,0.000885,0,0
0:5:42.437,1511.11,85.5088,0,0.000885,0,0
0:5:42.742,1512.82,85.6053,0,0.000885,0,0
0:5:43.041,1514.12,85.6811,0,0.000885,0,0
0:5:43.338,1514.77,85.7156,0,0.000885,0,0
0:5:43.637,1515.7,85.7708,0,0.000885,0,0
0:5:43.936,1517.83,85.888,0,0.000885,0,0
0:5:44.240,1519.18,85.9707,0,0.000885,0,0
0:5:44.543,1519.83,86.0052,0,0.000885,0,0
0:5:44.847,1520.65,86.0535,0,0.000885,0,0
0:5:45.147,1522.95,86.1845,0,0.000885,0,0
0:5:45.451,1524.95,86.2948,0,0.000885,0,0
0:5:45.746,1525.83,86.343,0,0.000885,0,0
0:5:46.047,1526.95,86.4051,0,0.000885,0,0
0:5:46.340,1528.13,86.474,0,0.000885,0,0
0:5:46.641,1529.84,86.5706,0,0.000885,0,0
0:5:46.937,1531.43,86.6602,0,0.000885,0,0
0:5:47.237,1532.02,86.6947,0,0.000885,0,0
0:5:47.543,1532.43,86.7154,0,0.000885,0,0
0:5:47.838,1534.2,86.8188,0,0.000885,0,0
0:5:48.141,1536.08,86.9222,0,0.000885,0,0
0:5:48.432,1536.78,86.9636,0,0.000885,0,0
0:5:48.732,1538.02,87.0325,0,0.000885,0,0
0:5:49.042,1539.97,87.1428,0,0.000885,0,0
0:5:49.345,1541.73,87.2463,0,0.000885,0,0
0:5:49.650,1543.03,87.3152,0,0.000885,0,0
0:5:49.953,1543.8,87.3635,0,0.000885,0,0
0:5:50.253,1544.68,87.4117,0,0.000885,0,0
0:5:50.557,1546.97,87.5427,0,0.000885,0,0
0:5:50.854,1548.21,87.6117,0,0.000885,0,0
0:5:51.153,1549.33,87.6737,0,0.000885,0,0
0:5:51.448,1550.8,87.7565,0,0.000885,0,0
0:5:51.750,1551.62,87.8047,0,0.000885,0,0
0:5:52.044,1553.63,87.9151,0,0.000885,0,0
0:5:52.342,1554.39,87.9633,0,0.000885,0,0
0:5:52.640,1554.68,87.9771,0,0.000885,0,0
0:5:52.943,1554.92,87.9909,0,0.000885,0,0
0:5:53.243,1555.63,88.0323,0,0.000885,0,0
0:5:53.538,1558.99,88.2184,0,0.000885,0,0
0:5:53.840,1560.52,88.3081,0,0.000885,0,0
0:5:54.147,1563.52,88.4804,0,0.000885,0,0
0:5:54.448,1565.23,88.5769,0,0.000885,0,0
0:5:54.754,1566.29,88.6321,0,0.000885,0,0
0:5:55.056,1568.94,88.7838,0,0.000885,0,0
0:5:55.358,1568.99,88.7838,0,0.000885,0,0
0:5:55.659,1570.47,88.8734,0,0.000885,0,0
0:5:55.958,1571.47,88.9286,0,0.000885,0,0
0:5:56.256,1571.7,88.9424,0,0.000885,0,0
0:5:56.551,1572.12,88.9631,0,0.000885,0,0
0:5:56.853,1572.82,89.0044,0,0.000885,0,0
0:5:57.147,1574.71,89.1078,0,0.000885,0,0
0:5:57.448,1576.83,89.2319,0,0.000885,0,0
0:5:57.746,1578.36,89.3147,0,0.000885,0,0
0:5:58.043,1579.59,89.3836,0,0.000885,0,0
0:5:58.342,1580.89,89.4595,0,0.000885,0,0
0:5:58.637,1582.54,89.556,0,0.000885,0,0
0:5:58.940,1584.95,89.687,0,0.000885,0,0
0:5:59.246,1585.19,89.7008,0,0.000885,0,0
0:5:59.548,1587.07,89.8111,0,0.000885,0,0
0:5:59.850,1587.54,89.8387,0,0.000885,0,0
0:6:0.151,1589.02,89.9214,0,0.000885,0,0
0:6:0.453,1590.25,89.9904,0,0.000885,0,0
0:6:0.749,1590.78,90.018,0,0.000885,0,0
0:6:1.049,1591.08,90.0386,0,0.000885,0,0
0:6:1.346,1591.9,90.08,0,0.000885,0,0
0:6:1.641,1594.26,90.2179,0,0.000885,0,0
0:6:1.943,1596.38,90.3351,0,0.000885,0,0
0:6:2.246,1597.85,90.4178,0,0.000885,0,0
0:6:2.547,1599.55,90.5144,0,0.000885,0,0
0:6:2.842,1601.44,90.6247,0,0.000885,0,0
0:6:3.141,1603.38,90.735,0,0.000885,0,0
0:6:3.439,1604.74,90.8108,0,0.000885,0,0
0:6:3.744,1605.86,90.8729,0,0.000885,0,0
0:6:4.048,1606.68,90.9212,0,0.000885,0,0
0:6:4.352,1608.21,91.0039,0,0.000885,0,0
0:6:4.655,1608.45,91.0177,0,0.000885,0,0
0:6:4.956,1609.21,91.066,0,0.000885,0,0
0:6:5.258,1610.57,91.1418,0,0.000885,0,0
0:6:5.562,1612.86,91.2728,0,0.000885,0,0
0:6:5.855,1613.92,91.328,0,0.000885,0,0
0:6:6.157,1615.1,91.3969,0,0.000885,0,0
0:6:6.453,1616.75,91.4865,0,0.000885,0,0
0:6:6.749,1618.34,91.5762,0,0.000885,0,0
0:6:7.050,1619.63,91.652,0,0.000885,0,0
0:6:7.345,1620.81,91.721,0,0.000885,0,0
0:6:7.646,1621.99,91.783,0,0.000885,0,0
0:6:7.940,1622.76,91.8313,0,0.000885,0,0
0:6:8.239,1619.4,91.6382,0,0.000885,0,0
0:6:8.546,1616.46,91.4727,0,0.000885,0,0
0:6:8.839,1619.46,91.6451,0,0.000885,0,0
0:6:9.141,1623.58,91.8726,0,0.000885,0,0
0:6:9.445,1626.17,92.0243,0,0.000885,0,0
0:6:9.748,1606.74,90.9212,0,0.000885,0,0
0:6:10.049,1576.24,89.1975,0,0.000885,0,0
0:6:10.161,1576.24,89.1975,0,0.000885,0,0