File: DataFile2021-06-07_065958.csv
Test ID:,Date Tested:,Time:,Test Type:,Diameter Avg. (mm):,Cyl. Corr. Factor:,Height (mm):,Age (days):,Weight (kN):,Break Type:,Ramp Rate (MPa/s):,Load at Break (kN):,Stress at Break (MPa):
12,6/7/2021,06:59,Cylinder,100,1,200,0,3.6,3,0.24,377.48,48.06
Sample Time,Load (kN),Stress (MPa),Long. Strain,Trans. Strain,Chan1 Deflection (mm),Chan2 Deflection (mm)
0:0:21.042,7.27284,0.923897,0,0.000885,0,0
0:0:21.243,11.0271,1.40653,0,0.000885,0,0
0:0:21.448,13.4915,1.71679,0,0.000885,0,0
0:0:21.649,13.3135,1.69611,0,0.000885,0,0
0:0:21.848,12.2015,1.55132,0,0.000885,0,0
0:0:22.044,12.4328,1.58579,0,0.000885,0,0
0:0:22.246,11.6721,1.48927,0,0.000885,0,0
0:0:22.449,11.7878,1.50306,0,0.000885,0,0
0:0:22.650,11.9079,1.51685,0,0.000885,0,0
0:0:22.848,11.4942,1.46169,0,0.000885,0,0
0:0:23.043,11.085,1.41343,0,0.000885,0,0
0:0:23.245,11.2629,1.43411,0,0.000885,0,0
0:0:23.450,11.2006,1.42721,0,0.000885,0,0
0:0:23.650,11.3786,1.4479,0,0.000885,0,0
0:0:23.849,11.085,1.41343,0,0.000885,0,0
0:0:24.044,10.9693,1.39964,0,0.000885,0,0
0:0:24.246,11.085,1.41343,0,0.000885,0,0
0:0:24.443,11.6721,1.48927,0,0.000885,0,0
0:0:24.639,12.3171,1.56511,0,0.000885,0,0
0:0:24.842,12.1392,1.54443,0,0.000885,0,0
0:0:25.046,12.7264,1.62027,0,0.000885,0,0
0:0:25.246,13.0199,1.65474,0,0.000885,0,0
0:0:25.444,13.1979,1.68232,0,0.000885,0,0
0:0:25.652,13.2557,1.68922,0,0.000885,0,0
0:0:25.853,13.785,1.75816,0,0.000885,0,0
0:0:26.046,13.8429,1.76506,0,0.000885,0,0
0:0:26.248,14.3099,1.82022,0,0.000885,0,0
0:0:26.450,14.7192,1.87537,0,0.000885,0,0
0:0:26.653,15.3063,1.95122,0,0.000885,0,0
0:0:26.856,16.0136,2.04085,0,0.000885,0,0
0:0:27.056,16.1293,2.05464,0,0.000885,0,0
0:0:27.259,16.8899,2.15116,0,0.000885,0,0
0:0:27.462,17.1835,2.18564,0,0.000885,0,0
0:0:27.662,17.7706,2.26148,0,0.000885,0,0
0:0:27.865,18.0064,2.29595,0,0.000885,0,0
0:0:28.063,18.8249,2.39938,0,0.000885,0,0
0:0:28.263,19.7056,2.50969,0,0.000885,0,0
0:0:28.462,20.1771,2.57174,0,0.000885,0,0
0:0:28.658,20.5864,2.62001,0,0.000885,0,0
0:0:28.862,21.4093,2.72343,0,0.000885,0,0
0:0:29.058,21.5249,2.73722,0,0.000885,0,0
0:0:29.256,21.8764,2.78548,0,0.000885,0,0
0:0:29.459,22.1699,2.81996,0,0.000885,0,0
0:0:29.653,22.5792,2.87511,0,0.000885,0,0
0:0:29.855,22.8149,2.90269,0,0.000885,0,0
0:0:30.052,22.9306,2.91648,0,0.000885,0,0
0:0:30.249,23.5756,2.99922,0,0.000885,0,0
0:0:30.453,24.1627,3.07506,0,0.000885,0,0
0:0:30.648,24.3407,3.09575,0,0.000885,0,0
0:0:30.849,24.3407,3.09575,0,0.000885,0,0
0:0:31.049,24.5141,3.12333,0,0.000885,0,0
0:0:31.245,24.6921,3.14401,0,0.000885,0,0
0:0:31.447,25.5728,3.25433,0,0.000885,0,0
0:0:31.649,25.9821,3.30948,0,0.000885,0,0
0:0:31.853,26.5692,3.38533,0,0.000885,0,0
0:0:32.055,26.7427,3.40601,0,0.000885,0,0
0:0:32.256,27.1564,3.45427,0,0.000885,0,0
0:0:32.458,27.2142,3.46806,0,0.000885,0,0
0:0:32.660,28.0371,3.57148,0,0.000885,0,0
0:0:32.862,28.6821,3.65422,0,0.000885,0,0
0:0:33.064,28.9134,3.6818,0,0.000885,0,0
0:0:33.258,28.8556,3.67491,0,0.000885,0,0
0:0:33.461,29.5006,3.75764,0,0.000885,0,0
0:0:33.658,29.852,3.79901,0,0.000885,0,0
0:0:33.856,30.1456,3.84038,0,0.000885,0,0
0:0:34.058,30.497,3.88175,0,0.000885,0,0
0:0:34.254,31.0263,3.9507,0,0.000885,0,0
0:0:34.455,31.5557,4.01964,0,0.000885,0,0
0:0:34.654,32.1384,4.09549,0,0.000885,0,0
0:0:34.851,32.3163,4.11617,0,0.000885,0,0
0:0:35.053,32.7878,4.17133,0,0.000885,0,0
0:0:35.251,33.4907,4.26096,0,0.000885,0,0
0:0:35.450,33.5485,4.27475,0,0.000885,0,0
0:0:35.650,34.1357,4.3437,0,0.000885,0,0
0:0:35.846,34.4871,4.39196,0,0.000885,0,0
0:0:36.048,34.7806,4.42643,0,0.000885,0,0
0:0:36.245,34.8963,4.44022,0,0.000885,0,0
0:0:36.444,35.5413,4.52296,0,0.000885,0,0
0:0:36.646,35.955,4.57812,0,0.000885,0,0
0:0:36.850,36.422,4.64017,0,0.000885,0,0
0:0:37.052,36.3642,4.63328,0,0.000885,0,0
0:0:37.254,36.9514,4.70222,0,0.000885,0,0
0:0:37.456,37.067,4.72291,0,0.000885,0,0
0:0:37.658,37.7698,4.81254,0,0.000885,0,0
0:0:37.861,37.8277,4.81944,0,0.000885,0,0
0:0:38.063,38.4148,4.88838,0,0.000885,0,0
0:0:38.262,38.9442,4.95733,0,0.000885,0,0
0:0:38.460,39.2378,4.9987,0,0.000885,0,0
0:0:38.662,40.0562,5.10212,0,0.000885,0,0
0:0:38.857,40.5856,5.16417,0,0.000885,0,0
0:0:39.057,40.937,5.21244,0,0.000885,0,0
0:0:39.258,41.1727,5.24002,0,0.000885,0,0
0:0:39.454,41.3507,5.26759,0,0.000885,0,0
0:0:39.657,42.1691,5.37102,0,0.000885,0,0
0:0:39.854,42.2848,5.38481,0,0.000885,0,0
0:0:40.055,42.3471,5.3917,0,0.000885,0,0
0:0:40.254,42.7563,5.44686,0,0.000885,0,0
0:0:40.451,43.3435,5.51581,0,0.000885,0,0
0:0:40.654,43.7527,5.57096,0,0.000885,0,0
0:0:40.850,44.1619,5.62612,0,0.000885,0,0
0:0:41.049,44.4555,5.6606,0,0.000885,0,0
0:0:41.251,44.7491,5.69507,0,0.000885,0,0
0:0:41.454,45.1628,5.75023,0,0.000885,0,0
0:0:41.658,45.572,5.80539,0,0.000885,0,0
0:0:41.860,46.217,5.88123,0,0.000885,0,0
0:0:42.063,46.3327,5.90191,0,0.000885,0,0
0:0:42.265,46.862,5.96397,0,0.000885,0,0
0:0:42.464,47.2134,6.01223,0,0.000885,0,0
0:0:42.668,47.507,6.0467,0,0.000885,0,0
0:0:42.868,47.8584,6.09497,0,0.000885,0,0
0:0:43.067,48.5034,6.1777,0,0.000885,0,0
0:0:43.267,48.8548,6.21907,0,0.000885,0,0
0:0:43.463,49.2062,6.26733,0,0.000885,0,0
0:0:43.666,49.4998,6.30181,0,0.000885,0,0
0:0:43.865,49.9713,6.36386,0,0.000885,0,0
0:0:44.063,50.4384,6.41902,0,0.000885,0,0
0:0:44.265,51.2035,6.52244,0,0.000885,0,0
0:0:44.458,51.2613,6.52934,0,0.000885,0,0
0:0:44.660,51.7284,6.58449,0,0.000885,0,0
0:0:44.860,51.6705,6.5776,0,0.000885,0,0
0:0:45.056,52.0798,6.63276,0,0.000885,0,0
0:0:45.258,52.6091,6.7017,0,0.000885,0,0
0:0:45.454,52.5513,6.68791,0,0.000885,0,0
0:0:45.654,53.432,6.80513,0,0.000885,0,0
0:0:45.855,53.7834,6.84649,0,0.000885,0,0
0:0:46.052,54.1349,6.89476,0,0.000885,0,0
0:0:46.254,54.6019,6.94992,0,0.000885,0,0
0:0:46.456,55.2469,7.03265,0,0.000885,0,0
0:0:46.660,55.367,7.04644,0,0.000885,0,0
0:0:46.863,56.0698,7.13607,0,0.000885,0,0
0:0:47.065,56.1277,7.14986,0,0.000885,0,0
0:0:47.265,56.7727,7.22571,0,0.000885,0,0
0:0:47.467,57.0662,7.26707,0,0.000885,0,0
0:0:47.671,57.5377,7.32913,0,0.000885,0,0
0:0:47.872,57.7691,7.35671,0,0.000885,0,0
0:0:48.069,58.2984,7.42565,0,0.000885,0,0
0:0:48.271,58.7699,7.48081,0,0.000885,0,0
0:0:48.468,58.9434,7.50839,0,0.000885,0,0
0:0:48.665,59.4727,7.57044,0,0.000885,0,0
0:0:48.867,59.9976,7.63939,0,0.000885,0,0
0:0:49.064,60.0599,7.64629,0,0.000885,0,0
0:0:49.265,60.2912,7.67386,0,0.000885,0,0
0:0:49.464,60.9362,7.7566,0,0.000885,0,0
0:0:49.660,61.5234,7.83244,0,0.000885,0,0
0:0:49.863,61.6435,7.84623,0,0.000885,0,0
0:0:50.061,61.937,7.8876,0,0.000885,0,0
0:0:50.259,62.9913,8.0186,0,0.000885,0,0
0:0:50.461,63.3427,8.06687,0,0.000885,0,0
0:0:50.655,63.227,8.05308,0,0.000885,0,0
0:0:50.856,63.2848,8.05997,0,0.000885,0,0
0:0:51.056,64.2234,8.17718,0,0.000885,0,0
0:0:51.252,64.3969,8.19787,0,0.000885,0,0
0:0:51.454,64.7483,8.24613,0,0.000885,0,0
0:0:51.657,65.4556,8.33576,0,0.000885,0,0
0:0:51.861,65.9805,8.39781,0,0.000885,0,0
0:0:52.063,66.3942,8.45297,0,0.000885,0,0
0:0:52.265,66.3942,8.45297,0,0.000885,0,0
0:0:52.467,66.9769,8.52881,0,0.000885,0,0
0:0:52.667,67.0391,8.53571,0,0.000885,0,0
0:0:52.870,67.6219,8.61155,0,0.000885,0,0
0:0:53.071,67.9777,8.65292,0,0.000885,0,0
0:0:53.267,68.3291,8.70118,0,0.000885,0,0
0:0:53.469,68.7962,8.75634,0,0.000885,0,0
0:0:53.667,69.2677,8.81839,0,0.000885,0,0
0:0:53.865,70.144,8.92871,0,0.000885,0,0
0:0:54.066,69.7926,8.88734,0,0.000885,0,0
0:0:54.263,70.7312,9.00455,0,0.000885,0,0
0:0:54.464,70.7312,9.00455,0,0.000885,0,0
0:0:54.662,71.3183,9.0804,0,0.000885,0,0
0:0:54.860,71.3762,9.08729,0,0.000885,0,0
0:0:55.062,71.9055,9.15624,0,0.000885,0,0
0:0:55.258,72.2569,9.19761,0,0.000885,0,0
0:0:55.459,72.6083,9.24587,0,0.000885,0,0
0:0:55.659,73.1377,9.31482,0,0.000885,0,0
0:0:55.855,73.4312,9.34929,0,0.000885,0,0
0:0:56.057,73.8983,9.41134,0,0.000885,0,0
0:0:56.255,74.4855,9.48719,0,0.000885,0,0
0:0:56.456,74.7791,9.52166,0,0.000885,0,0
0:0:56.656,75.424,9.6044,0,0.000885,0,0
0:0:56.860,75.6598,9.63198,0,0.000885,0,0
0:0:57.063,75.424,9.6044,0,0.000885,0,0
0:0:57.266,76.247,9.70782,0,0.000885,0,0
0:0:57.468,76.8341,9.78366,0,0.000885,0,0
0:0:57.669,77.1855,9.82503,0,0.000885,0,0
0:0:57.870,77.7727,9.90087,0,0.000885,0,0
0:0:58.072,78.3554,9.97671,0,0.000885,0,0
0:0:58.271,78.5334,9.9974,0,0.000885,0,0
0:0:58.469,78.7691,10.0319,0,0.000885,0,0
0:0:58.672,79.294,10.0939,0,0.000885,0,0
0:0:58.866,80.1747,10.2111,0,0.000885,0,0
0:0:59.066,80.0591,10.1905,0,0.000885,0,0
0:0:59.266,80.4683,10.2456,0,0.000885,0,0
0:0:59.464,80.7619,10.2801,0,0.000885,0,0
0:0:59.666,80.7041,10.2732,0,0.000885,0,0
0:0:59.862,81.229,10.3421,0,0.000885,0,0
0:1:0.062,81.229,10.3421,0,0.000885,0,0
0:1:0.262,82.4611,10.5007,0,0.000885,0,0
0:1:0.458,81.9362,10.4318,0,0.000885,0,0
0:1:0.661,82.9905,10.5697,0,0.000885,0,0
0:1:0.857,82.9905,10.5697,0,0.000885,0,0
0:1:1.056,83.8712,10.68,0,0.000885,0,0
0:1:1.258,84.1648,10.7145,0,0.000885,0,0
0:1:1.460,84.6897,10.7834,0,0.000885,0,0
0:1:1.663,85.1034,10.8386,0,0.000885,0,0
0:1:1.866,85.4548,10.8799,0,0.000885,0,0
0:1:2.066,85.1034,10.8386,0,0.000885,0,0
0:1:2.269,86.0998,10.9627,0,0.000885,0,0
0:1:2.470,86.509,11.0178,0,0.000885,0,0
0:1:2.673,87.154,11.0937,0,0.000885,0,0
0:1:2.872,87.154,11.0937,0,0.000885,0,0
0:1:3.068,87.6255,11.1557,0,0.000885,0,0
0:1:3.271,88.2705,11.2385,0,0.000885,0,0
0:1:3.466,88.9155,11.3212,0,0.000885,0,0
0:1:3.666,88.7376,11.3005,0,0.000885,0,0
0:1:3.868,89.734,11.4246,0,0.000885,0,0
0:1:4.062,89.5027,11.397,0,0.000885,0,0
0:1:4.264,90.0854,11.4729,0,0.000885,0,0
0:1:4.462,90.4991,11.5211,0,0.000885,0,0
0:1:4.662,90.8505,11.5694,0,0.000885,0,0
0:1:4.863,91.5533,11.659,0,0.000885,0,0
0:1:5.058,91.5533,11.659,0,0.000885,0,0
0:1:5.260,92.0248,11.7142,0,0.000885,0,0
0:1:5.458,92.7276,11.8038,0,0.000885,0,0
0:1:5.655,92.9011,11.8314,0,0.000885,0,0
0:1:5.856,93.1369,11.859,0,0.000885,0,0
0:1:6.055,93.8975,11.9555,0,0.000885,0,0
0:1:6.254,93.7819,11.9417,0,0.000885,0,0
0:1:6.455,94.3112,12.0107,0,0.000885,0,0
0:1:6.660,94.7204,12.0589,0,0.000885,0,0
0:1:6.862,94.9562,12.0934,0,0.000885,0,0
0:1:7.063,95.7747,12.1968,0,0.000885,0,0
0:1:7.265,95.9526,12.2175,0,0.000885,0,0
0:1:7.465,96.4197,12.2796,0,0.000885,0,0
0:1:7.666,97.0646,12.3623,0,0.000885,0,0
0:1:7.868,97.5362,12.4175,0,0.000885,0,0
0:1:8.067,97.9454,12.4726,0,0.000885,0,0
0:1:8.265,97.8297,12.4588,0,0.000885,0,0
0:1:8.466,98.1233,12.4933,0,0.000885,0,0
0:1:8.660,98.4169,12.5278,0,0.000885,0,0
0:1:8.862,98.5904,12.5554,0,0.000885,0,0
0:1:9.062,99.8804,12.7139,0,0.000885,0,0
0:1:9.258,99.8225,12.707,0,0.000885,0,0
0:1:9.460,100.41,12.7829,0,0.000885,0,0
0:1:9.656,100.761,12.8311,0,0.000885,0,0
0:1:9.856,100.468,12.7898,0,0.000885,0,0
0:1:10.057,100.997,12.8587,0,0.000885,0,0
0:1:10.252,101.406,12.9139,0,0.000885,0,0
0:1:10.455,102.46,13.0449,0,0.000885,0,0
0:1:10.651,102.403,13.038,0,0.000885,0,0
0:1:10.849,103.168,13.1345,0,0.000885,0,0
0:1:11.051,103.519,13.1828,0,0.000885,0,0
0:1:11.255,103.986,13.2379,0,0.000885,0,0
0:1:11.458,104.573,13.3138,0,0.000885,0,0
0:1:11.659,104.515,13.3069,0,0.000885,0,0
0:1:11.863,104.925,13.362,0,0.000885,0,0
0:1:12.065,105.396,13.4172,0,0.000885,0,0
0:1:12.268,106.393,13.5482,0,0.000885,0,0
0:1:12.470,106.393,13.5482,0,0.000885,0,0
0:1:12.672,106.686,13.5827,0,0.000885,0,0
0:1:12.873,106.922,13.6103,0,0.000885,0,0
0:1:13.075,107.153,13.6447,0,0.000885,0,0
0:1:13.271,107.976,13.7481,0,0.000885,0,0
0:1:13.472,107.918,13.7413,0,0.000885,0,0
0:1:13.671,107.74,13.7206,0,0.000885,0,0
0:1:13.866,108.621,13.8309,0,0.000885,0,0
0:1:14.069,108.795,13.8516,0,0.000885,0,0
0:1:14.267,109.618,13.955,0,0.000885,0,0
0:1:14.465,110.44,14.0584,0,0.000885,0,0
0:1:14.667,110.556,14.0791,0,0.000885,0,0
0:1:14.863,111.028,14.1343,0,0.000885,0,0
0:1:15.063,110.734,14.0998,0,0.000885,0,0
0:1:15.261,112.197,14.2859,0,0.000885,0,0
0:1:15.458,111.73,14.2239,0,0.000885,0,0
0:1:15.661,112.255,14.2928,0,0.000885,0,0
0:1:15.857,113.256,14.4169,0,0.000885,0,0
0:1:16.057,113.545,14.4583,0,0.000885,0,0
0:1:16.256,113.545,14.4583,0,0.000885,0,0
0:1:16.454,114.017,14.5204,0,0.000885,0,0
0:1:16.657,114.368,14.5617,0,0.000885,0,0
0:1:16.859,114.777,14.6169,0,0.000885,0,0
0:1:17.063,115.485,14.7065,0,0.000885,0,0
0:1:17.264,116.188,14.7961,0,0.000885,0,0
0:1:17.467,116.481,14.8306,0,0.000885,0,0
0:1:17.668,116.712,14.8582,0,0.000885,0,0
0:1:17.870,118.007,15.0237,0,0.000885,0,0
0:1:18.072,117.126,14.9134,0,0.000885,0,0
0:1:18.273,118.123,15.0375,0,0.000885,0,0
0:1:18.467,117.887,15.0099,0,0.000885,0,0
0:1:18.669,117.945,15.0168,0,0.000885,0,0
0:1:18.868,117.651,14.9823,0,0.000885,0,0
0:1:19.065,118.768,15.1202,0,0.000885,0,0
0:1:19.267,119.528,15.2167,0,0.000885,0,0
0:1:19.461,120,15.2788,0,0.000885,0,0
0:1:19.661,120.409,15.3339,0,0.000885,0,0
0:1:19.862,120.702,15.3684,0,0.000885,0,0
0:1:20.058,120.938,15.396,0,0.000885,0,0
0:1:20.260,121.405,15.458,0,0.000885,0,0
0:1:20.456,121.463,15.4649,0,0.000885,0,0
0:1:20.658,122.108,15.5477,0,0.000885,0,0
0:1:20.858,121.992,15.5339,0,0.000885,0,0
0:1:21.054,123.047,15.6649,0,0.000885,0,0
0:1:21.256,122.989,15.658,0,0.000885,0,0
0:1:21.458,124.399,15.8373,0,0.000885,0,0
0:1:21.662,124.163,15.8097,0,0.000885,0,0
0:1:21.865,124.693,15.8786,0,0.000885,0,0
0:1:22.067,124.986,15.9131,0,0.000885,0,0
0:1:22.270,125.747,16.0096,0,0.000885,0,0
0:1:22.471,125.511,15.982,0,0.000885,0,0
0:1:22.671,126.392,16.0924,0,0.000885,0,0
0:1:22.874,127.273,16.2027,0,0.000885,0,0
0:1:23.068,126.743,16.1406,0,0.000885,0,0
0:1:23.270,127.508,16.2372,0,0.000885,0,0
0:1:23.469,127.624,16.2509,0,0.000885,0,0
0:1:23.666,128.211,16.3268,0,0.000885,0,0
0:1:23.868,128.678,16.3819,0,0.000885,0,0
0:1:24.064,129.092,16.4371,0,0.000885,0,0
0:1:24.264,129.03,16.4302,0,0.000885,0,0
0:1:24.463,129.443,16.4785,0,0.000885,0,0
0:1:24.660,130.262,16.5888,0,0.000885,0,0
0:1:24.862,131.085,16.6922,0,0.000885,0,0
0:1:25.061,130.849,16.6577,0,0.000885,0,0
0:1:25.259,131.672,16.768,0,0.000885,0,0
0:1:25.460,130.733,16.6439,0,0.000885,0,0
0:1:25.654,131.436,16.7336,0,0.000885,0,0
0:1:25.855,132.081,16.8163,0,0.000885,0,0
0:1:26.055,132.023,16.8094,0,0.000885,0,0
0:1:26.251,132.259,16.837,0,0.000885,0,0
0:1:26.453,133.135,16.9542,0,0.000885,0,0
0:1:26.656,133.665,17.0163,0,0.000885,0,0
0:1:26.860,134.719,17.1542,0,0.000885,0,0
0:1:27.063,135.248,17.2231,0,0.000885,0,0
0:1:27.264,135.19,17.2162,0,0.000885,0,0
0:1:27.466,135.835,17.2921,0,0.000885,0,0
0:1:27.667,136.596,17.3955,0,0.000885,0,0
0:1:27.868,136.774,17.4162,0,0.000885,0,0
0:1:28.068,137.068,17.4506,0,0.000885,0,0
0:1:28.266,137.125,17.4575,0,0.000885,0,0
0:1:28.468,137.01,17.4437,0,0.000885,0,0
0:1:28.666,137.828,17.5472,0,0.000885,0,0
0:1:28.864,138.415,17.623,0,0.000885,0,0
0:1:29.066,138.882,17.6851,0,0.000885,0,0
0:1:29.261,138.882,17.6851,0,0.000885,0,0
0:1:29.463,139.354,17.7402,0,0.000885,0,0
0:1:29.661,139.647,17.7816,0,0.000885,0,0
0:1:29.858,140.235,17.8574,0,0.000885,0,0
0:1:30.060,140.702,17.9126,0,0.000885,0,0
0:1:30.257,141.582,18.0298,0,0.000885,0,0
0:1:30.456,141.231,17.9815,0,0.000885,0,0
0:1:30.657,142.285,18.1194,0,0.000885,0,0
0:1:30.853,142.872,18.1884,0,0.000885,0,0
0:1:31.054,142.05,18.0849,0,0.000885,0,0
0:1:31.251,142.988,18.2091,0,0.000885,0,0
0:1:31.452,143.282,18.2435,0,0.000885,0,0
0:1:31.654,143.811,18.3125,0,0.000885,0,0
0:1:31.858,144.514,18.4021,0,0.000885,0,0
0:1:32.061,145.159,18.4848,0,0.000885,0,0
0:1:32.263,144.634,18.4159,0,0.000885,0,0
0:1:32.465,145.279,18.4986,0,0.000885,0,0
0:1:32.666,145.101,18.4779,0,0.000885,0,0
0:1:32.868,146.155,18.6089,0,0.000885,0,0
0:1:33.070,146.569,18.6641,0,0.000885,0,0
0:1:33.268,147.094,18.7262,0,0.000885,0,0
0:1:33.465,147.094,18.7262,0,0.000885,0,0
0:1:33.667,147.33,18.7606,0,0.000885,0,0
0:1:33.863,148.152,18.8641,0,0.000885,0,0
0:1:34.064,148.913,18.9606,0,0.000885,0,0
0:1:34.263,148.913,18.9606,0,0.000885,0,0
0:1:34.459,149.322,19.0157,0,0.000885,0,0
0:1:34.661,150.145,19.1192,0,0.000885,0,0
0:1:34.859,150.612,19.1743,0,0.000885,0,0
0:1:35.058,150.612,19.1743,0,0.000885,0,0
0:1:35.259,151.142,19.2433,0,0.000885,0,0
0:1:35.454,151.262,19.2571,0,0.000885,0,0
0:1:35.655,151.787,19.326,0,0.000885,0,0
0:1:35.856,152.432,19.4087,0,0.000885,0,0
0:1:36.051,152.022,19.3536,0,0.000885,0,0
0:1:36.253,152.552,19.4225,0,0.000885,0,0
0:1:36.456,152.961,19.4777,0,0.000885,0,0
0:1:36.660,153.49,19.5397,0,0.000885,0,0
0:1:36.862,154.251,19.6432,0,0.000885,0,0
0:1:37.064,153.9,19.5949,0,0.000885,0,0
0:1:37.265,154.135,19.6225,0,0.000885,0,0
0:1:37.466,154.896,19.719,0,0.000885,0,0
0:1:37.669,155.483,19.7948,0,0.000885,0,0
0:1:37.870,155.657,19.8224,0,0.000885,0,0
0:1:38.066,156.07,19.8707,0,0.000885,0,0
0:1:38.269,156.947,19.981,0,0.000885,0,0
0:1:38.465,157.067,20.0017,0,0.000885,0,0
0:1:38.664,157.827,20.0982,0,0.000885,0,0
0:1:38.866,158.063,20.1258,0,0.000885,0,0
0:1:39.062,158.472,20.1741,0,0.000885,0,0
0:1:39.263,158.824,20.2223,0,0.000885,0,0
0:1:39.462,159.531,20.312,0,0.000885,0,0
0:1:39.659,159.353,20.2913,0,0.000885,0,0
0:1:39.861,159.998,20.374,0,0.000885,0,0
0:1:40.056,159.825,20.3464,0,0.000885,0,0
0:1:40.257,160.821,20.4774,0,0.000885,0,0
0:1:40.455,161.172,20.5188,0,0.000885,0,0
0:1:40.652,161.115,20.5119,0,0.000885,0,0
0:1:40.854,161.817,20.6015,0,0.000885,0,0
0:1:41.052,162.756,20.7256,0,0.000885,0,0
0:1:41.252,163.05,20.7601,0,0.000885,0,0
0:1:41.453,162.929,20.7463,0,0.000885,0,0
0:1:41.656,163.517,20.8222,0,0.000885,0,0
0:1:41.860,163.752,20.8497,0,0.000885,0,0
0:1:42.062,164.162,20.9049,0,0.000885,0,0
0:1:42.264,164.513,20.9463,0,0.000885,0,0
0:1:42.466,164.864,20.9945,0,0.000885,0,0
0:1:42.666,165.22,21.0359,0,0.000885,0,0
0:1:42.868,166.097,21.1462,0,0.000885,0,0
0:1:43.066,166.217,21.16,0,0.000885,0,0
0:1:43.263,166.804,21.2359,0,0.000885,0,0
0:1:43.465,166.804,21.2359,0,0.000885,0,0
0:1:43.660,167.449,21.3186,0,0.000885,0,0
0:1:43.861,167.916,21.3806,0,0.000885,0,0
0:1:44.061,168.503,21.4565,0,0.000885,0,0
0:1:44.259,168.561,21.4634,0,0.000885,0,0
0:1:44.461,168.619,21.4703,0,0.000885,0,0
0:1:44.657,169.264,21.553,0,0.000885,0,0
0:1:44.857,169.971,21.6426,0,0.000885,0,0
0:1:45.057,170.029,21.6495,0,0.000885,0,0
0:1:45.254,170.265,21.6771,0,0.000885,0,0
0:1:45.457,170.674,21.7323,0,0.000885,0,0
0:1:45.653,171.492,21.8357,0,0.000885,0,0
0:1:45.852,171.67,21.8564,0,0.000885,0,0
0:1:46.052,171.492,21.8357,0,0.000885,0,0
0:1:46.257,172.431,21.9529,0,0.000885,0,0
0:1:46.458,173.254,22.0563,0,0.000885,0,0
0:1:46.660,173.841,22.1322,0,0.000885,0,0
0:1:46.863,173.432,22.0839,0,0.000885,0,0
0:1:47.066,173.899,22.1391,0,0.000885,0,0
0:1:47.269,174.192,22.1804,0,0.000885,0,0
0:1:47.471,174.602,22.2287,0,0.000885,0,0
0:1:47.673,175.189,22.3045,0,0.000885,0,0
0:1:47.875,175.892,22.3942,0,0.000885,0,0
0:1:48.077,175.482,22.3459,0,0.000885,0,0
0:1:48.272,176.537,22.4769,0,0.000885,0,0
0:1:48.474,176.772,22.5045,0,0.000885,0,0
0:1:48.674,177.653,22.6217,0,0.000885,0,0
0:1:48.870,177.302,22.5734,0,0.000885,0,0
0:1:49.073,178.24,22.6906,0,0.000885,0,0
0:1:49.268,179.059,22.801,0,0.000885,0,0
0:1:49.468,179.472,22.8492,0,0.000885,0,0
0:1:49.670,179.53,22.8561,0,0.000885,0,0
0:1:49.865,179.824,22.8975,0,0.000885,0,0
0:1:50.066,179.997,22.9182,0,0.000885,0,0
0:1:50.262,179.882,22.9044,0,0.000885,0,0
0:1:50.463,180.291,22.9526,0,0.000885,0,0
0:1:50.664,180.878,23.0285,0,0.000885,0,0
0:1:50.859,181.523,23.1112,0,0.000885,0,0
0:1:51.062,182.168,23.194,0,0.000885,0,0
0:1:51.258,182.755,23.2698,0,0.000885,0,0
0:1:51.457,182.404,23.2215,0,0.000885,0,0
0:1:51.659,182.991,23.2974,0,0.000885,0,0
0:1:51.860,183.516,23.3663,0,0.000885,0,0
0:1:52.064,183.93,23.4215,0,0.000885,0,0
0:1:52.266,184.454,23.4835,0,0.000885,0,0
0:1:52.469,184.806,23.5318,0,0.000885,0,0
0:1:52.670,184.517,23.4904,0,0.000885,0,0
0:1:52.872,185.513,23.6214,0,0.000885,0,0
0:1:53.075,185.807,23.6559,0,0.000885,0,0
0:1:53.274,185.922,23.6697,0,0.000885,0,0
0:1:53.472,186.803,23.7869,0,0.000885,0,0
0:1:53.673,186.452,23.7386,0,0.000885,0,0
0:1:53.870,187.154,23.8283,0,0.000885,0,0
0:1:54.072,187.679,23.8972,0,0.000885,0,0
0:1:54.269,188.035,23.9386,0,0.000885,0,0
0:1:54.467,188.738,24.0282,0,0.000885,0,0
0:1:54.670,189.325,24.1041,0,0.000885,0,0
0:1:54.866,189.734,24.1592,0,0.000885,0,0
0:1:55.066,189.263,24.0972,0,0.000885,0,0
0:1:55.266,190.202,24.2144,0,0.000885,0,0
0:1:55.462,191.14,24.3385,0,0.000885,0,0
0:1:55.663,190.909,24.304,0,0.000885,0,0
0:1:55.860,191.434,24.373,0,0.000885,0,0
0:1:56.060,191.847,24.4281,0,0.000885,0,0
0:1:56.261,191.496,24.3799,0,0.000885,0,0
0:1:56.465,192.43,24.504,0,0.000885,0,0
0:1:56.667,193.08,24.5867,0,0.000885,0,0
0:1:56.868,193.017,24.5729,0,0.000885,0,0
0:1:57.067,193.547,24.6419,0,0.000885,0,0
0:1:57.268,194.249,24.7315,0,0.000885,0,0
0:1:57.469,194.779,24.8004,0,0.000885,0,0
0:1:57.670,194.894,24.8142,0,0.000885,0,0
0:1:57.866,195.717,24.9177,0,0.000885,0,0
0:1:58.065,196.127,24.9728,0,0.000885,0,0
0:1:58.265,196.598,25.0349,0,0.000885,0,0
0:1:58.459,196.892,25.0693,0,0.000885,0,0
0:1:58.660,197.594,25.159,0,0.000885,0,0
0:1:58.855,197.123,25.0969,0,0.000885,0,0
0:1:59.052,197.768,25.1797,0,0.000885,0,0
0:1:59.252,198.591,25.2831,0,0.000885,0,0
0:1:59.455,198.884,25.3244,0,0.000885,0,0
0:1:59.656,198.355,25.2555,0,0.000885,0,0
0:1:59.851,199.703,25.4279,0,0.000885,0,0
0:2:0.045,200.41,25.5175,0,0.000885,0,0
0:2:0.244,199.823,25.4417,0,0.000885,0,0
0:2:0.441,200.877,25.5795,0,0.000885,0,0
0:2:0.639,200.41,25.5175,0,0.000885,0,0
0:2:0.845,200.935,25.5864,0,0.000885,0,0
0:2:1.053,201.171,25.614,0,0.000885,0,0
0:2:1.254,201.7,25.683,0,0.000885,0,0
0:2:1.454,201.464,25.6485,0,0.000885,0,0
0:2:1.657,201.931,25.7105,0,0.000885,0,0
0:2:1.858,202.754,25.814,0,0.000885,0,0
0:2:2.059,203.577,25.9174,0,0.000885,0,0
0:2:2.260,203.106,25.8622,0,0.000885,0,0
0:2:2.460,203.751,25.945,0,0.000885,0,0
0:2:2.661,204.925,26.0898,0,0.000885,0,0
0:2:2.860,205.277,26.138,0,0.000885,0,0
0:2:3.055,205.041,26.1036,0,0.000885,0,0
0:2:3.257,205.864,26.2139,0,0.000885,0,0
0:2:3.452,206.567,26.3035,0,0.000885,0,0
0:2:3.647,207.212,26.3862,0,0.000885,0,0
0:2:3.846,207.269,26.3931,0,0.000885,0,0
0:2:4.041,207.799,26.4552,0,0.000885,0,0
0:2:4.240,207.977,26.4828,0,0.000885,0,0
0:2:4.438,208.15,26.5034,0,0.000885,0,0
0:2:4.645,208.795,26.5862,0,0.000885,0,0
0:2:4.845,208.559,26.5517,0,0.000885,0,0
0:2:5.048,209.089,26.6207,0,0.000885,0,0
0:2:5.247,209.969,26.731,0,0.000885,0,0
0:2:5.446,210.027,26.7448,0,0.000885,0,0
0:2:5.643,210.499,26.7999,0,0.000885,0,0
0:2:5.842,211.433,26.924,0,0.000885,0,0
0:2:6.057,211.789,26.9654,0,0.000885,0,0
0:2:6.257,211.847,26.9723,0,0.000885,0,0
0:2:6.457,212.665,27.0757,0,0.000885,0,0
0:2:6.659,212.492,27.055,0,0.000885,0,0
0:2:6.861,213.782,27.2205,0,0.000885,0,0
0:2:7.062,213.782,27.2205,0,0.000885,0,0
0:2:7.262,213.194,27.1447,0,0.000885,0,0
0:2:7.463,214.075,27.255,0,0.000885,0,0
0:2:7.663,214.133,27.2619,0,0.000885,0,0
0:2:7.863,214.484,27.3101,0,0.000885,0,0
0:2:8.059,215.659,27.4618,0,0.000885,0,0
0:2:8.258,215.481,27.4342,0,0.000885,0,0
0:2:8.454,215.365,27.4204,0,0.000885,0,0
0:2:8.649,215.601,27.448,0,0.000885,0,0
0:2:8.849,216.539,27.5721,0,0.000885,0,0
0:2:9.045,217.242,27.6618,0,0.000885,0,0
0:2:9.242,217.478,27.6893,0,0.000885,0,0
0:2:9.441,217.358,27.6756,0,0.000885,0,0
0:2:9.637,218.181,27.779,0,0.000885,0,0
0:2:9.837,218.648,27.841,0,0.000885,0,0
0:2:10.034,219.644,27.9651,0,0.000885,0,0
0:2:10.229,219.707,27.972,0,0.000885,0,0
0:2:10.430,220.289,28.0479,0,0.000885,0,0
0:2:10.626,220.876,28.1237,0,0.000885,0,0
0:2:10.823,221.521,28.2065,0,0.000885,0,0
0:2:11.023,221.521,28.2065,0,0.000885,0,0
0:2:11.216,221.228,28.1651,0,0.000885,0,0
0:2:11.417,222.229,28.2961,0,0.000885,0,0
0:2:11.618,222.754,28.365,0,0.000885,0,0
0:2:11.820,223.167,28.4133,0,0.000885,0,0
0:2:12.022,223.283,28.4271,0,0.000885,0,0
0:2:12.222,223.928,28.5098,0,0.000885,0,0
0:2:12.421,224.337,28.565,0,0.000885,0,0
0:2:12.621,224.457,28.5788,0,0.000885,0,0
0:2:12.822,224.515,28.5857,0,0.000885,0,0
0:2:13.024,224.751,28.6132,0,0.000885,0,0
0:2:13.219,224.982,28.6477,0,0.000885,0,0
0:2:13.419,226.041,28.7787,0,0.000885,0,0
0:2:13.616,225.921,28.7649,0,0.000885,0,0
0:2:13.811,226.686,28.8615,0,0.000885,0,0
0:2:14.010,226.566,28.8477,0,0.000885,0,0
0:2:14.207,226.686,28.8615,0,0.000885,0,0
0:2:14.403,227.562,28.9718,0,0.000885,0,0
0:2:14.602,227.446,28.958,0,0.000885,0,0
0:2:14.796,228.034,29.0338,0,0.000885,0,0
0:2:14.996,228.679,29.1166,0,0.000885,0,0
0:2:15.193,229.208,29.1855,0,0.000885,0,0
0:2:15.389,228.679,29.1166,0,0.000885,0,0
0:2:15.590,229.559,29.2269,0,0.000885,0,0
0:2:15.783,230.436,29.3372,0,0.000885,0,0
0:2:15.982,231.023,29.413,0,0.000885,0,0
0:2:16.182,231.316,29.4544,0,0.000885,0,0
0:2:16.375,231.788,29.5096,0,0.000885,0,0
0:2:16.575,232.375,29.5854,0,0.000885,0,0
0:2:16.776,232.958,29.6612,0,0.000885,0,0
0:2:16.980,232.727,29.6337,0,0.000885,0,0
0:2:17.180,233.371,29.7164,0,0.000885,0,0
0:2:17.381,234.252,29.8267,0,0.000885,0,0
0:2:17.581,234.19,29.8198,0,0.000885,0,0
0:2:17.782,234.835,29.9026,0,0.000885,0,0
0:2:17.982,234.604,29.8681,0,0.000885,0,0
0:2:18.182,235.013,29.9232,0,0.000885,0,0
0:2:18.376,235.542,29.9922,0,0.000885,0,0
0:2:18.577,236.539,30.1163,0,0.000885,0,0
0:2:18.774,237.064,30.1852,0,0.000885,0,0
0:2:18.969,236.948,30.1715,0,0.000885,0,0
0:2:19.170,237.299,30.2128,0,0.000885,0,0
0:2:19.367,238.064,30.3094,0,0.000885,0,0
0:2:19.564,237.064,30.1852,0,0.000885,0,0
0:2:19.762,238.122,30.3162,0,0.000885,0,0
0:2:19.956,238.296,30.3438,0,0.000885,0,0
0:2:20.157,238.647,30.3852,0,0.000885,0,0
0:2:20.354,238.825,30.4059,0,0.000885,0,0
0:2:20.548,238.941,30.4197,0,0.000885,0,0
0:2:20.749,239.937,30.5507,0,0.000885,0,0
0:2:20.943,240.173,30.5782,0,0.000885,0,0
0:2:21.143,240.876,30.6679,0,0.000885,0,0
0:2:21.343,240.996,30.6817,0,0.000885,0,0
0:2:21.546,241.992,30.8127,0,0.000885,0,0
0:2:21.747,242.17,30.8334,0,0.000885,0,0
0:2:21.947,242.401,30.8609,0,0.000885,0,0
0:2:22.149,243.166,30.9575,0,0.000885,0,0
0:2:22.348,243.869,31.0471,0,0.000885,0,0
0:2:22.548,243.869,31.0471,0,0.000885,0,0
0:2:22.748,244.572,31.1367,0,0.000885,0,0
0:2:22.955,245.159,31.2126,0,0.000885,0,0
0:2:23.154,244.808,31.1712,0,0.000885,0,0
0:2:23.349,245.453,31.2539,0,0.000885,0,0
0:2:23.546,246.449,31.378,0,0.000885,0,0
0:2:23.745,246.391,31.3711,0,0.000885,0,0
0:2:23.949,246.391,31.3711,0,0.000885,0,0
0:2:24.146,246.271,31.3574,0,0.000885,0,0
0:2:24.345,247.446,31.509,0,0.000885,0,0
0:2:24.550,247.624,31.5297,0,0.000885,0,0
0:2:24.749,248.148,31.5987,0,0.000885,0,0
0:2:24.956,247.855,31.5573,0,0.000885,0,0
0:2:25.163,247.917,31.5642,0,0.000885,0,0
0:2:25.363,248.736,31.6676,0,0.000885,0,0
0:2:25.557,249.438,31.7573,0,0.000885,0,0
0:2:25.758,249.968,31.8262,0,0.000885,0,0
0:2:25.955,250.088,31.84,0,0.000885,0,0
0:2:26.159,250.497,31.8951,0,0.000885,0,0
0:2:26.360,251.436,32.0124,0,0.000885,0,0
0:2:26.562,252.316,32.1227,0,0.000885,0,0
0:2:26.763,252.023,32.0882,0,0.000885,0,0
0:2:26.964,252.668,32.1709,0,0.000885,0,0
0:2:27.164,253.544,32.2813,0,0.000885,0,0
0:2:27.363,253.486,32.2744,0,0.000885,0,0
0:2:27.563,254.016,32.3433,0,0.000885,0,0
0:2:27.765,254.954,32.4605,0,0.000885,0,0
0:2:27.963,254.309,32.3778,0,0.000885,0,0
0:2:28.157,254.896,32.4536,0,0.000885,0,0
0:2:28.357,254.719,32.4329,0,0.000885,0,0
0:2:28.562,255.599,32.5433,0,0.000885,0,0
0:2:28.759,256.244,32.626,0,0.000885,0,0
0:2:28.960,256.008,32.5984,0,0.000885,0,0
0:2:29.154,256.596,32.6674,0,0.000885,0,0
0:2:29.351,257.067,32.7294,0,0.000885,0,0
0:2:29.559,256.947,32.7156,0,0.000885,0,0
0:2:29.754,257.712,32.8121,0,0.000885,0,0
0:2:29.951,258.709,32.9363,0,0.000885,0,0
0:2:30.160,258.237,32.8811,0,0.000885,0,0
0:2:30.359,259.527,33.0466,0,0.000885,0,0
0:2:30.557,259.585,33.0535,0,0.000885,0,0
0:2:30.749,260.292,33.1431,0,0.000885,0,0
0:2:30.950,260.523,33.1707,0,0.000885,0,0
0:2:31.159,260.586,33.1776,0,0.000885,0,0
0:2:31.355,260.466,33.1638,0,0.000885,0,0
0:2:31.555,261.053,33.2396,0,0.000885,0,0
0:2:31.757,261.756,33.3293,0,0.000885,0,0
0:2:31.959,262.169,33.3775,0,0.000885,0,0
0:2:32.161,262.694,33.4465,0,0.000885,0,0
0:2:32.362,263.339,33.5292,0,0.000885,0,0
0:2:32.561,263.046,33.4947,0,0.000885,0,0
0:2:32.762,263.339,33.5292,0,0.000885,0,0
0:2:32.962,263.811,33.5913,0,0.000885,0,0
0:2:33.160,264.513,33.6809,0,0.000885,0,0
0:2:33.355,264.456,33.674,0,0.000885,0,0
0:2:33.555,265.158,33.7636,0,0.000885,0,0
0:2:33.748,266.039,33.8739,0,0.000885,0,0
0:2:33.944,265.746,33.8326,0,0.000885,0,0
0:2:34.144,266.448,33.9222,0,0.000885,0,0
0:2:34.339,267.214,34.0256,0,0.000885,0,0
0:2:34.539,267.503,34.0601,0,0.000885,0,0
0:2:34.735,267.503,34.0601,0,0.000885,0,0
0:2:34.931,268.09,34.1359,0,0.000885,0,0
0:2:35.132,268.09,34.1359,0,0.000885,0,0
0:2:35.326,268.855,34.2325,0,0.000885,0,0
0:2:35.526,269.322,34.2945,0,0.000885,0,0
0:2:35.722,269.909,34.3635,0,0.000885,0,0
0:2:35.917,269.736,34.3428,0,0.000885,0,0
0:2:36.117,270.612,34.4531,0,0.000885,0,0
0:2:36.317,271.199,34.5289,0,0.000885,0,0
0:2:36.520,270.848,34.4876,0,0.000885,0,0
0:2:36.722,272.316,34.6737,0,0.000885,0,0
0:2:36.921,272.431,34.6875,0,0.000885,0,0
0:2:37.122,272.138,34.6531,0,0.000885,0,0
0:2:37.322,272.783,34.7289,0,0.000885,0,0
0:2:37.521,273.076,34.7703,0,0.000885,0,0
0:2:37.722,273.254,34.7909,0,0.000885,0,0
0:2:37.917,273.663,34.8461,0,0.000885,0,0
0:2:38.116,273.606,34.8392,0,0.000885,0,0
0:2:38.313,274.718,34.9771,0,0.000885,0,0
0:2:38.509,275.131,35.0323,0,0.000885,0,0
0:2:38.709,275.714,35.1081,0,0.000885,0,0
0:2:38.905,276.479,35.2046,0,0.000885,0,0
0:2:39.103,275.95,35.1357,0,0.000885,0,0
0:2:39.301,276.128,35.1564,0,0.000885,0,0
0:2:39.497,276.715,35.2322,0,0.000885,0,0
0:2:39.697,276.831,35.246,0,0.000885,0,0
0:2:39.893,277.182,35.2943,0,0.000885,0,0
0:2:40.090,277.885,35.3839,0,0.000885,0,0
0:2:40.290,278.005,35.3977,0,0.000885,0,0
0:2:40.486,279.175,35.5425,0,0.000885,0,0
0:2:40.684,279.117,35.5356,0,0.000885,0,0
0:2:40.882,279.704,35.6114,0,0.000885,0,0
0:2:41.076,280.701,35.7424,0,0.000885,0,0
0:2:41.276,281.11,35.7907,0,0.000885,0,0
0:2:41.478,280.936,35.77,0,0.000885,0,0
0:2:41.681,282.048,35.9148,0,0.000885,0,0
0:2:41.882,282.636,35.9837,0,0.000885,0,0
0:2:42.083,281.697,35.8665,0,0.000885,0,0
0:2:42.282,282.871,36.0182,0,0.000885,0,0
0:2:42.482,283.281,36.0665,0,0.000885,0,0
0:2:42.682,283.223,36.0596,0,0.000885,0,0
0:2:42.883,284.103,36.1699,0,0.000885,0,0
0:2:43.076,284.161,36.1837,0,0.000885,0,0
0:2:43.276,284.748,36.2526,0,0.000885,0,0
0:2:43.471,285.042,36.294,0,0.000885,0,0
0:2:43.669,284.748,36.2526,0,0.000885,0,0
0:2:43.870,285.509,36.3492,0,0.000885,0,0
0:2:44.064,285.923,36.4043,0,0.000885,0,0
0:2:44.263,285.981,36.4112,0,0.000885,0,0
0:2:44.460,287.035,36.5491,0,0.000885,0,0
0:2:44.656,287.564,36.6112,0,0.000885,0,0
0:2:44.853,287.213,36.5698,0,0.000885,0,0
0:2:45.061,287.564,36.6112,0,0.000885,0,0
0:2:45.259,287.973,36.6663,0,0.000885,0,0
0:2:45.459,288.912,36.7835,0,0.000885,0,0
0:2:45.662,288.912,36.7835,0,0.000885,0,0
0:2:45.862,289.263,36.8318,0,0.000885,0,0
0:2:46.059,289.966,36.9214,0,0.000885,0,0
0:2:46.264,290.789,37.0248,0,0.000885,0,0
0:2:46.464,290.789,37.0248,0,0.000885,0,0
0:2:46.666,291.67,37.1352,0,0.000885,0,0
0:2:46.868,290.967,37.0455,0,0.000885,0,0
0:2:47.069,291.963,37.1765,0,0.000885,0,0
0:2:47.270,292.431,37.2317,0,0.000885,0,0
0:2:47.470,292.315,37.2179,0,0.000885,0,0
0:2:47.671,292.902,37.2937,0,0.000885,0,0
0:2:47.871,292.96,37.3006,0,0.000885,0,0
0:2:48.071,293.369,37.3558,0,0.000885,0,0
0:2:48.266,293.956,37.4247,0,0.000885,0,0
0:2:48.467,294.486,37.4937,0,0.000885,0,0
0:2:48.662,294.837,37.542,0,0.000885,0,0
0:2:48.860,295.598,37.6385,0,0.000885,0,0
0:2:49.060,295.891,37.673,0,0.000885,0,0
0:2:49.263,296.536,37.7557,0,0.000885,0,0
0:2:49.463,296.3,37.7281,0,0.000885,0,0
0:2:49.659,296.536,37.7557,0,0.000885,0,0
0:2:49.864,297.359,37.8591,0,0.000885,0,0
0:2:50.065,298.004,37.9418,0,0.000885,0,0
0:2:50.260,298.178,37.9625,0,0.000885,0,0
0:2:50.459,298.413,37.997,0,0.000885,0,0
0:2:50.654,299.116,38.0866,0,0.000885,0,0
0:2:50.849,298.765,38.0384,0,0.000885,0,0
0:2:51.051,299.53,38.1349,0,0.000885,0,0
0:2:51.250,300.233,38.2245,0,0.000885,0,0
0:2:51.452,300.7,38.2866,0,0.000885,0,0
0:2:51.654,300.348,38.2383,0,0.000885,0,0
0:2:51.854,300.993,38.3211,0,0.000885,0,0
0:2:52.054,302.226,38.4796,0,0.000885,0,0
0:2:52.254,302.461,38.5072,0,0.000885,0,0
0:2:52.457,302.11,38.4659,0,0.000885,0,0
0:2:52.654,302.403,38.5003,0,0.000885,0,0
0:2:52.848,303.458,38.6382,0,0.000885,0,0
0:2:53.047,304.16,38.7279,0,0.000885,0,0
0:2:53.245,303.693,38.6658,0,0.000885,0,0
0:2:53.440,304.218,38.7347,0,0.000885,0,0
0:2:53.641,304.983,38.8313,0,0.000885,0,0
0:2:53.854,305.508,38.9002,0,0.000885,0,0
0:2:54.054,305.628,38.914,0,0.000885,0,0
0:2:54.251,306.331,39.0036,0,0.000885,0,0
0:2:54.459,306.976,39.0864,0,0.000885,0,0
0:2:54.659,306.74,39.0588,0,0.000885,0,0
0:2:54.852,307.154,39.1071,0,0.000885,0,0
0:2:55.050,307.857,39.1967,0,0.000885,0,0
0:2:55.249,307.448,39.1484,0,0.000885,0,0
0:2:55.445,308.151,39.2381,0,0.000885,0,0
0:2:55.646,308.853,39.3277,0,0.000885,0,0
0:2:55.861,309.383,39.3897,0,0.000885,0,0
0:2:56.060,309.147,39.3622,0,0.000885,0,0
0:2:56.260,309.792,39.4449,0,0.000885,0,0
0:2:56.462,310.321,39.5139,0,0.000885,0,0
0:2:56.664,310.321,39.5139,0,0.000885,0,0
0:2:56.864,310.731,39.5621,0,0.000885,0,0
0:2:57.064,311.433,39.6517,0,0.000885,0,0
0:2:57.264,311.785,39.7,0,0.000885,0,0
0:2:57.464,311.963,39.7207,0,0.000885,0,0
0:2:57.666,312.665,39.8103,0,0.000885,0,0
0:2:57.862,312.959,39.8448,0,0.000885,0,0
0:2:58.060,313.426,39.9069,0,0.000885,0,0
0:2:58.259,314.013,39.9827,0,0.000885,0,0
0:2:58.463,314.6,40.0585,0,0.000885,0,0
0:2:58.663,314.721,40.0723,0,0.000885,0,0
0:2:58.860,315.188,40.1344,0,0.000885,0,0
0:2:59.066,315.423,40.162,0,0.000885,0,0
0:2:59.266,316.126,40.2516,0,0.000885,0,0
0:2:59.459,315.89,40.2171,0,0.000885,0,0
0:2:59.660,316.656,40.3205,0,0.000885,0,0
0:2:59.858,316.887,40.3481,0,0.000885,0,0
0:3:0.052,317.301,40.3964,0,0.000885,0,0
0:3:0.254,317.825,40.4653,0,0.000885,0,0
0:3:0.458,317.825,40.4653,0,0.000885,0,0
0:3:0.659,318.355,40.5343,0,0.000885,0,0
0:3:0.866,318.591,40.5619,0,0.000885,0,0
0:3:1.063,319.293,40.6515,0,0.000885,0,0
0:3:1.262,319.293,40.6515,0,0.000885,0,0
0:3:1.464,320.232,40.7756,0,0.000885,0,0
0:3:1.666,320.174,40.7687,0,0.000885,0,0
0:3:1.866,320.583,40.817,0,0.000885,0,0
0:3:2.067,321.522,40.9342,0,0.000885,0,0
0:3:2.267,322.225,41.0238,0,0.000885,0,0
0:3:2.465,322.051,41.0031,0,0.000885,0,0
0:3:2.666,322.403,41.0514,0,0.000885,0,0
0:3:2.864,322.928,41.1134,0,0.000885,0,0
0:3:3.060,323.693,41.2169,0,0.000885,0,0
0:3:3.261,323.457,41.1824,0,0.000885,0,0
0:3:3.464,323.75,41.2238,0,0.000885,0,0
0:3:3.663,324.28,41.2858,0,0.000885,0,0
0:3:3.862,324.805,41.3548,0,0.000885,0,0
0:3:4.066,325.276,41.4168,0,0.000885,0,0
0:3:4.267,325.806,41.4858,0,0.000885,0,0
0:3:4.462,325.743,41.472,0,0.000885,0,0
0:3:4.660,326.388,41.5547,0,0.000885,0,0
0:3:4.859,326.918,41.6236,0,0.000885,0,0
0:3:5.052,327.505,41.6995,0,0.000885,0,0
0:3:5.253,327.096,41.6443,0,0.000885,0,0
0:3:5.460,327.62,41.7133,0,0.000885,0,0
0:3:5.667,328.443,41.8167,0,0.000885,0,0
0:3:5.867,329.204,41.9132,0,0.000885,0,0
0:3:6.061,329.262,41.9201,0,0.000885,0,0
0:3:6.261,329.675,41.9753,0,0.000885,0,0
0:3:6.462,329.849,41.996,0,0.000885,0,0
0:3:6.665,330.378,42.0649,0,0.000885,0,0
0:3:6.867,330.908,42.1339,0,0.000885,0,0
0:3:7.068,330.965,42.1408,0,0.000885,0,0
0:3:7.268,331.201,42.1683,0,0.000885,0,0
0:3:7.467,331.962,42.2649,0,0.000885,0,0
0:3:7.668,332.371,42.32,0,0.000885,0,0
0:3:7.868,332.14,42.2924,0,0.000885,0,0
0:3:8.062,332.549,42.3407,0,0.000885,0,0
0:3:8.262,333.603,42.4786,0,0.000885,0,0
0:3:8.460,333.723,42.4924,0,0.000885,0,0
0:3:8.665,334.133,42.5407,0,0.000885,0,0
0:3:8.866,334.6,42.6027,0,0.000885,0,0
0:3:9.059,334.893,42.6372,0,0.000885,0,0
0:3:9.256,335.716,42.7475,0,0.000885,0,0
0:3:9.459,336.01,42.782,0,0.000885,0,0
0:3:9.651,336.419,42.8371,0,0.000885,0,0
0:3:9.852,337.006,42.9061,0,0.000885,0,0
0:3:10.056,337.358,42.9543,0,0.000885,0,0
0:3:10.254,337.536,42.975,0,0.000885,0,0
0:3:10.453,338.296,43.0715,0,0.000885,0,0
0:3:10.648,338.354,43.0784,0,0.000885,0,0
0:3:10.848,338.296,43.0715,0,0.000885,0,0
0:3:11.044,338.941,43.1543,0,0.000885,0,0
0:3:11.241,339.35,43.2094,0,0.000885,0,0
0:3:11.441,339.47,43.2232,0,0.000885,0,0
0:3:11.643,339.822,43.2646,0,0.000885,0,0
0:3:11.844,340.703,43.3818,0,0.000885,0,0
0:3:12.045,340.525,43.3542,0,0.000885,0,0
0:3:12.246,340.934,43.4094,0,0.000885,0,0
0:3:12.447,341.463,43.4783,0,0.000885,0,0
0:3:12.648,341.579,43.4921,0,0.000885,0,0
0:3:12.848,342.286,43.5818,0,0.000885,0,0
0:3:13.047,343.047,43.6783,0,0.000885,0,0
0:3:13.242,343.576,43.7472,0,0.000885,0,0
0:3:13.443,344.101,43.8093,0,0.000885,0,0
0:3:13.638,344.043,43.8024,0,0.000885,0,0
0:3:13.838,344.573,43.8713,0,0.000885,0,0
0:3:14.035,345.16,43.9472,0,0.000885,0,0
0:3:14.230,345.275,43.961,0,0.000885,0,0
0:3:14.431,345.453,43.9817,0,0.000885,0,0
0:3:14.626,345.569,44.0023,0,0.000885,0,0
0:3:14.826,346.214,44.0782,0,0.000885,0,0
0:3:15.024,346.975,44.1816,0,0.000885,0,0
0:3:15.217,347.037,44.1885,0,0.000885,0,0
0:3:15.418,347.446,44.2368,0,0.000885,0,0
0:3:15.615,348.207,44.3333,0,0.000885,0,0
0:3:15.812,348.149,44.3264,0,0.000885,0,0
0:3:16.013,348.91,44.4229,0,0.000885,0,0
0:3:16.215,349.03,44.4367,0,0.000885,0,0
0:3:16.417,349.381,44.485,0,0.000885,0,0
0:3:16.619,349.91,44.5539,0,0.000885,0,0
0:3:16.819,349.381,44.485,0,0.000885,0,0
0:3:17.018,351.023,44.6918,0,0.000885,0,0
0:3:17.219,350.787,44.6642,0,0.000885,0,0
0:3:17.420,351.2,44.7194,0,0.000885,0,0
0:3:17.617,351.552,44.7608,0,0.000885,0,0
0:3:17.815,352.255,44.8504,0,0.000885,0,0
0:3:18.015,352.9,44.9331,0,0.000885,0,0
0:3:18.209,353.193,44.9676,0,0.000885,0,0
0:3:18.409,353.602,45.0228,0,0.000885,0,0
0:3:18.607,354.074,45.0848,0,0.000885,0,0
0:3:18.802,353.896,45.0572,0,0.000885,0,0
0:3:19.003,354.892,45.1882,0,0.000885,0,0
0:3:19.198,354.541,45.14,0,0.000885,0,0
0:3:19.396,354.835,45.1813,0,0.000885,0,0
0:3:19.594,355.128,45.2158,0,0.000885,0,0
0:3:19.788,355.422,45.2503,0,0.000885,0,0
0:3:19.989,356.009,45.3261,0,0.000885,0,0
0:3:20.186,356.596,45.402,0,0.000885,0,0
0:3:20.382,356.827,45.4296,0,0.000885,0,0
0:3:20.582,357.415,45.5054,0,0.000885,0,0
0:3:20.775,357.593,45.533,0,0.000885,0,0
0:3:20.976,358.767,45.6778,0,0.000885,0,0
0:3:21.176,358.589,45.6571,0,0.000885,0,0
0:3:21.379,359.412,45.7605,0,0.000885,0,0
0:3:21.581,359.412,45.7605,0,0.000885,0,0
0:3:21.781,359.643,45.7881,0,0.000885,0,0
0:3:21.982,360.057,45.8432,0,0.000885,0,0
0:3:22.182,360.817,45.9398,0,0.000885,0,0
0:3:22.383,360.995,45.9605,0,0.000885,0,0
0:3:22.584,361.053,45.9673,0,0.000885,0,0
0:3:22.777,362.05,46.0983,0,0.000885,0,0
0:3:22.977,362.637,46.1742,0,0.000885,0,0
0:3:23.176,362.579,46.1673,0,0.000885,0,0
0:3:23.370,362.988,46.2156,0,0.000885,0,0
0:3:23.571,363.455,46.2776,0,0.000885,0,0
0:3:23.766,364.336,46.3879,0,0.000885,0,0
0:3:23.964,363.927,46.3397,0,0.000885,0,0
0:3:24.165,364.687,46.4362,0,0.000885,0,0
0:3:24.367,365.159,46.4913,0,0.000885,0,0
0:3:24.568,365.684,46.5603,0,0.000885,0,0
0:3:24.763,365.626,46.5534,0,0.000885,0,0
0:3:24.969,365.804,46.5741,0,0.000885,0,0
0:3:25.170,366.271,46.6361,0,0.000885,0,0
0:3:25.363,366.622,46.6775,0,0.000885,0,0
0:3:25.564,367.152,46.7465,0,0.000885,0,0
0:3:25.761,367.797,46.8292,0,0.000885,0,0
0:3:25.965,367.797,46.8292,0,0.000885,0,0
0:3:26.166,368.62,46.9326,0,0.000885,0,0
0:3:26.367,368.793,46.9533,0,0.000885,0,0
0:3:26.570,368.913,46.974,0,0.000885,0,0
0:3:26.772,369.38,47.0291,0,0.000885,0,0
0:3:26.973,369.967,47.105,0,0.000885,0,0
0:3:27.174,370.319,47.1532,0,0.000885,0,0
0:3:27.372,370.67,47.1946,0,0.000885,0,0
0:3:27.573,371.022,47.2429,0,0.000885,0,0
0:3:27.773,371.315,47.2774,0,0.000885,0,0
0:3:27.966,371.609,47.3118,0,0.000885,0,0
0:3:28.167,371.667,47.3256,0,0.000885,0,0
0:3:28.363,372.605,47.4428,0,0.000885,0,0
0:3:28.562,372.725,47.4566,0,0.000885,0,0
0:3:28.763,373.192,47.5187,0,0.000885,0,0
0:3:28.965,373.37,47.5394,0,0.000885,0,0
0:3:29.166,373.602,47.5669,0,0.000885,0,0
0:3:29.363,373.78,47.5945,0,0.000885,0,0
0:3:29.558,374.073,47.629,0,0.000885,0,0
0:3:29.762,374.131,47.6359,0,0.000885,0,0
0:3:29.965,375.07,47.7531,0,0.000885,0,0
0:3:30.163,375.541,47.8151,0,0.000885,0,0
0:3:30.362,376.008,47.8772,0,0.000885,0,0
0:3:30.567,375.893,47.8565,0,0.000885,0,0
0:3:30.768,376.417,47.9255,0,0.000885,0,0
0:3:30.962,376.48,47.9324,0,0.000885,0,0
0:3:31.169,377.062,48.0082,0,0.000885,0,0
0:3:31.370,377.298,48.0358,0,0.000885,0,0
0:3:31.572,377.534,48.0702,0,0.000885,0,0
0:3:31.773,377.356,48.0496,0,0.000885,0,0
0:3:31.974,377.356,48.0496,0,0.000885,0,0
0:3:32.175,376.889,47.9875,0,0.000885,0,0
0:3:32.375,376.889,47.9875,0,0.000885,0,0
0:3:32.576,376.889,47.9875,0,0.000885,0,0
0:3:32.777,376.36,47.9186,0,0.000885,0,0
0:3:32.974,375.305,47.7876,0,0.000885,0,0
0:3:33.170,373.837,47.6014,0,0.000885,0,0
0:3:33.370,371.609,47.3118,0,0.000885,0,0
0:3:33.563,371.142,47.2567,0,0.000885,0,0
0:3:33.761,370.612,47.1877,0,0.000885,0,0
0:3:33.961,370.497,47.1739,0,0.000885,0,0
0:3:34.164,368.735,46.9464,0,0.000885,0,0
0:3:34.365,365.862,46.581,0,0.000885,0,0
0:3:34.568,357.063,45.464,0,0.000885,0,0
0:3:34.765,352.49,44.878,0,0.000885,0,0
0:3:34.965,344.159,43.8231,0,0.000885,0,0
0:3:35.168,339.35,43.2094,0,0.000885,0,0
0:3:35.368,324.222,41.2789,0,0.000885,0,0
0:3:35.563,318.884,40.6032,0,0.000885,0,0
0:3:35.770,309.85,39.4518,0,0.000885,0,0
0:3:35.970,305.744,38.9278,0,0.000885,0,0
0:3:36.170,300.993,38.3211,0,0.000885,0,0
0:3:36.371,288.739,36.7628,0,0.000885,0,0
0:3:36.572,274.251,34.9219,0,0.000885,0,0