File: DataFile2021-07-25_065430.csv
Test ID:,Date Tested:,Time:,Test Type:,Diameter Avg. (mm):,Cyl. Corr. Factor:,Height (mm):,Age (days):,Weight (kN):,Break Type:,Ramp Rate (MPa/s):,Load at Break (kN):,Stress at Break (MPa):
12,7/25/2021,06:54,Cylinder,100,1,200,0,3.5,3,0.26,155.78,19.84
Sample Time,Load (kN),Stress (MPa),Long. Strain,Trans. Strain,Chan1 Deflection (mm),Chan2 Deflection (mm)
0:0:5.737,5.04428,0.641212,0,0.000885,0,0
0:0:5.838,5.15994,0.655002,0,0.000885,0,0
0:0:5.939,5.39569,0.689476,0,0.000885,0,0
0:0:6.037,5.39569,0.689476,0,0.000885,0,0
0:0:6.133,5.21776,0.661897,0,0.000885,0,0
0:0:6.232,5.33787,0.682581,0,0.000885,0,0
0:0:6.333,5.33787,0.682581,0,0.000885,0,0
0:0:6.434,5.68928,0.72395,0,0.000885,0,0
0:0:6.531,5.63145,0.717055,0,0.000885,0,0
0:0:6.630,6.21861,0.792897,0,0.000885,0,0
0:0:6.729,6.21861,0.792897,0,0.000885,0,0
0:0:6.830,6.5122,0.827371,0,0.000885,0,0
0:0:6.931,7.62425,0.972161,0,0.000885,0,0
0:0:7.030,8.09576,1.02732,0,0.000885,0,0
0:0:7.128,8.09576,1.02732,0,0.000885,0,0
0:0:7.225,8.74076,1.11006,0,0.000885,0,0
0:0:7.327,9.67933,1.23416,0,0.000885,0,0
0:0:7.427,10.2042,1.29621,0,0.000885,0,0
0:0:7.526,10.2042,1.29621,0,0.000885,0,0
0:0:7.624,9.61706,1.22727,0,0.000885,0,0
0:0:7.723,10.3243,1.3169,0,0.000885,0,0
0:0:7.819,10.3243,1.3169,0,0.000885,0,0
0:0:7.924,10.8492,1.37895,0,0.000885,0,0
0:0:8.023,11.085,1.41343,0,0.000885,0,0
0:0:8.119,11.1428,1.42032,0,0.000885,0,0
0:0:8.216,11.1428,1.42032,0,0.000885,0,0
0:0:8.316,11.9079,1.51685,0,0.000885,0,0
0:0:8.416,12.9043,1.64095,0,0.000885,0,0
0:0:8.517,12.9621,1.64785,0,0.000885,0,0
0:0:8.626,12.9621,1.64785,0,0.000885,0,0
0:0:8.725,13.4915,1.71679,0,0.000885,0,0
0:0:8.824,13.3714,1.70301,0,0.000885,0,0
0:0:8.926,13.7228,1.74437,0,0.000885,0,0
0:0:9.026,13.7228,1.74437,0,0.000885,0,0
0:0:9.123,13.785,1.75816,0,0.000885,0,0
0:0:9.218,14.0742,1.79264,0,0.000885,0,0
0:0:9.318,14.2521,1.81332,0,0.000885,0,0
0:0:9.418,14.2521,1.81332,0,0.000885,0,0
0:0:9.519,14.8971,1.89606,0,0.000885,0,0
0:0:9.618,14.8971,1.89606,0,0.000885,0,0
0:0:9.714,14.8971,1.89606,0,0.000885,0,0
0:0:9.814,15.5421,1.9788,0,0.000885,0,0
0:0:9.915,16.1293,2.05464,0,0.000885,0,0
0:0:10.016,16.5385,2.1029,0,0.000885,0,0
0:0:10.115,16.5385,2.1029,0,0.000885,0,0
0:0:10.213,16.7164,2.13048,0,0.000885,0,0
0:0:10.310,16.8899,2.15116,0,0.000885,0,0
0:0:10.411,17.5349,2.2339,0,0.000885,0,0
0:0:10.512,17.5349,2.2339,0,0.000885,0,0
0:0:10.611,18.0642,2.30285,0,0.000885,0,0
0:0:10.709,18.6514,2.3718,0,0.000885,0,0
0:0:10.807,18.767,2.39248,0,0.000885,0,0
0:0:10.908,18.767,2.39248,0,0.000885,0,0
0:0:11.009,19.59,2.4959,0,0.000885,0,0
0:0:11.110,20.057,2.55106,0,0.000885,0,0
0:0:11.211,20.057,2.55106,0,0.000885,0,0
0:0:11.312,19.9992,2.54417,0,0.000885,0,0
0:0:11.413,20.1193,2.55795,0,0.000885,0,0
0:0:11.514,20.1193,2.55795,0,0.000885,0,0
0:0:11.616,20.1193,2.55795,0,0.000885,0,0
0:0:11.717,20.7643,2.64069,0,0.000885,0,0
0:0:11.819,20.9378,2.66827,0,0.000885,0,0
0:0:11.918,21.4671,2.73032,0,0.000885,0,0
0:0:12.019,21.4671,2.73032,0,0.000885,0,0
0:0:12.122,22.1699,2.81996,0,0.000885,0,0
0:0:12.223,21.9342,2.79238,0,0.000885,0,0
0:0:12.324,22.4635,2.86132,0,0.000885,0,0
0:0:12.423,22.4635,2.86132,0,0.000885,0,0
0:0:12.524,23.1085,2.94406,0,0.000885,0,0
0:0:12.625,23.5177,2.99232,0,0.000885,0,0
0:0:12.724,23.6957,3.0199,0,0.000885,0,0
0:0:12.819,23.6957,3.0199,0,0.000885,0,0
0:0:12.919,23.9314,3.04748,0,0.000885,0,0
0:0:13.023,24.5141,3.12333,0,0.000885,0,0
0:0:13.123,24.6921,3.14401,0,0.000885,0,0
0:0:13.220,24.6921,3.14401,0,0.000885,0,0
0:0:13.317,25.1013,3.19917,0,0.000885,0,0
0:0:13.416,25.6885,3.26811,0,0.000885,0,0
0:0:13.518,26.5114,3.37843,0,0.000885,0,0
0:0:13.617,26.5114,3.37843,0,0.000885,0,0
0:0:13.716,26.4536,3.36464,0,0.000885,0,0
0:0:13.826,27.0986,3.44738,0,0.000885,0,0
0:0:13.924,27.5078,3.50254,0,0.000885,0,0
0:0:14.025,27.5078,3.50254,0,0.000885,0,0
0:0:14.125,27.8014,3.53701,0,0.000885,0,0
0:0:14.225,28.3263,3.60596,0,0.000885,0,0
0:0:14.323,28.3886,3.61285,0,0.000885,0,0
0:0:14.418,28.3886,3.61285,0,0.000885,0,0
0:0:14.519,29.0335,3.69559,0,0.000885,0,0
0:0:14.623,29.207,3.71627,0,0.000885,0,0
0:0:14.720,29.207,3.71627,0,0.000885,0,0
0:0:14.829,30.0878,3.83349,0,0.000885,0,0
0:0:14.927,30.2657,3.85417,0,0.000885,0,0
0:0:15.028,30.6171,3.89554,0,0.000885,0,0
0:0:15.129,30.6171,3.89554,0,0.000885,0,0
0:0:15.230,30.9107,3.93691,0,0.000885,0,0
0:0:15.327,31.3199,3.98517,0,0.000885,0,0
0:0:15.424,32.0227,4.0748,0,0.000885,0,0
0:0:15.525,32.0227,4.0748,0,0.000885,0,0
0:0:15.626,32.7834,4.17133,0,0.000885,0,0
0:0:15.726,33.2549,4.23338,0,0.000885,0,0
0:0:15.824,33.8421,4.30922,0,0.000885,0,0
0:0:15.919,33.8421,4.30922,0,0.000885,0,0
0:0:16.020,34.1357,4.3437,0,0.000885,0,0
0:0:16.120,34.4871,4.39196,0,0.000885,0,0
0:0:16.223,34.7228,4.41954,0,0.000885,0,0
0:0:16.324,34.7228,4.41954,0,0.000885,0,0
0:0:16.425,35.3055,4.49538,0,0.000885,0,0
0:0:16.528,35.5991,4.52986,0,0.000885,0,0
0:0:16.629,35.5991,4.52986,0,0.000885,0,0
0:0:16.731,35.5991,4.52986,0,0.000885,0,0
0:0:16.831,36.0128,4.58501,0,0.000885,0,0
0:0:16.933,36.3642,4.63328,0,0.000885,0,0
0:0:17.034,36.4799,4.64707,0,0.000885,0,0
0:0:17.135,36.4799,4.64707,0,0.000885,0,0
0:0:17.234,36.6,4.66086,0,0.000885,0,0
0:0:17.335,37.3606,4.75738,0,0.000885,0,0
0:0:17.436,38.0056,4.84012,0,0.000885,0,0
0:0:17.537,38.0056,4.84012,0,0.000885,0,0
0:0:17.638,37.9478,4.83322,0,0.000885,0,0
0:0:17.739,38.357,4.88149,0,0.000885,0,0
0:0:17.838,38.5928,4.91596,0,0.000885,0,0
0:0:17.935,38.5928,4.91596,0,0.000885,0,0
0:0:18.034,39.002,4.96423,0,0.000885,0,0
0:0:18.134,39.5313,5.03317,0,0.000885,0,0
0:0:18.236,39.5313,5.03317,0,0.000885,0,0
0:0:18.335,39.4735,5.02628,0,0.000885,0,0
0:0:18.433,39.9406,5.08833,0,0.000885,0,0
0:0:18.532,39.9984,5.09523,0,0.000885,0,0
0:0:18.632,39.9984,5.09523,0,0.000885,0,0
0:0:18.734,40.5856,5.16417,0,0.000885,0,0
0:0:18.833,41.1149,5.23312,0,0.000885,0,0
0:0:18.929,41.4663,5.28138,0,0.000885,0,0
0:0:19.027,41.4663,5.28138,0,0.000885,0,0
0:0:19.128,41.9334,5.33654,0,0.000885,0,0
0:0:19.229,42.5206,5.41238,0,0.000885,0,0
0:0:19.330,42.6407,5.42617,0,0.000885,0,0
0:0:19.428,42.6407,5.42617,0,0.000885,0,0
0:0:19.526,42.8141,5.45375,0,0.000885,0,0
0:0:19.626,43.2234,5.50202,0,0.000885,0,0
0:0:19.727,43.2234,5.50202,0,0.000885,0,0
0:0:19.828,43.8105,5.57786,0,0.000885,0,0
0:0:19.925,44.282,5.63991,0,0.000885,0,0
0:0:20.020,44.8692,5.71575,0,0.000885,0,0
0:0:20.120,44.8692,5.71575,0,0.000885,0,0
0:0:20.221,45.2784,5.76402,0,0.000885,0,0
0:0:20.323,45.572,5.80539,0,0.000885,0,0
0:0:20.420,45.9234,5.84675,0,0.000885,0,0
0:0:20.530,45.9234,5.84675,0,0.000885,0,0
0:0:20.630,46.2748,5.89502,0,0.000885,0,0
0:0:20.731,46.8042,5.95707,0,0.000885,0,0
0:0:20.832,47.6227,6.06049,0,0.000885,0,0
0:0:20.931,47.6227,6.06049,0,0.000885,0,0
0:0:21.028,47.9741,6.10875,0,0.000885,0,0
0:0:21.127,48.4456,6.17081,0,0.000885,0,0
0:0:21.228,48.5034,6.1777,0,0.000885,0,0
0:0:21.329,48.5034,6.1777,0,0.000885,0,0
0:0:21.431,49.0327,6.23976,0,0.000885,0,0
0:0:21.530,49.442,6.29491,0,0.000885,0,0
0:0:21.633,49.4998,6.30181,0,0.000885,0,0
0:0:21.734,49.4998,6.30181,0,0.000885,0,0
0:0:21.835,49.8512,6.35007,0,0.000885,0,0
0:0:21.937,50.1448,6.38455,0,0.000885,0,0
0:0:22.039,50.4384,6.41902,0,0.000885,0,0
0:0:22.139,50.4384,6.41902,0,0.000885,0,0
0:0:22.241,50.9099,6.48107,0,0.000885,0,0
0:0:22.342,51.377,6.54312,0,0.000885,0,0
0:0:22.443,51.5549,6.56381,0,0.000885,0,0
0:0:22.543,51.5549,6.56381,0,0.000885,0,0
0:0:22.644,51.9063,6.61207,0,0.000885,0,0
0:0:22.744,51.7862,6.59139,0,0.000885,0,0
0:0:22.846,52.3155,6.66034,0,0.000885,0,0
0:0:22.947,52.3155,6.66034,0,0.000885,0,0
0:0:23.044,52.7248,6.71549,0,0.000885,0,0
0:0:23.141,53.432,6.80513,0,0.000885,0,0
0:0:23.242,53.432,6.80513,0,0.000885,0,0
0:0:23.342,53.3698,6.79823,0,0.000885,0,0
0:0:23.443,53.8413,6.85339,0,0.000885,0,0
0:0:23.542,54.2505,6.90855,0,0.000885,0,0
0:0:23.640,54.2505,6.90855,0,0.000885,0,0
0:0:23.740,54.5441,6.94302,0,0.000885,0,0
0:0:23.842,54.8377,6.98439,0,0.000885,0,0
0:0:23.943,55.5405,7.07402,0,0.000885,0,0
0:0:24.040,55.5405,7.07402,0,0.000885,0,0
0:0:24.138,55.7184,7.09471,0,0.000885,0,0
0:0:24.237,56.1855,7.15676,0,0.000885,0,0
0:0:24.339,56.2478,7.16365,0,0.000885,0,0
0:0:24.440,56.2478,7.16365,0,0.000885,0,0
0:0:24.539,56.5369,7.19813,0,0.000885,0,0
0:0:24.637,56.8928,7.24639,0,0.000885,0,0
0:0:24.735,56.8928,7.24639,0,0.000885,0,0
0:0:24.837,56.9506,7.25328,0,0.000885,0,0
0:0:24.938,57.5956,7.33602,0,0.000885,0,0
0:0:25.038,57.7691,7.35671,0,0.000885,0,0
0:0:25.133,57.7691,7.35671,0,0.000885,0,0
0:0:25.232,58.2406,7.41876,0,0.000885,0,0
0:0:25.332,58.6498,7.46702,0,0.000885,0,0
0:0:25.434,59.1213,7.52907,0,0.000885,0,0
0:0:25.534,59.1213,7.52907,0,0.000885,0,0
0:0:25.631,59.5884,7.58423,0,0.000885,0,0
0:0:25.730,59.8241,7.61871,0,0.000885,0,0
0:0:25.831,60.4691,7.70144,0,0.000885,0,0
0:0:25.933,60.4691,7.70144,0,0.000885,0,0
0:0:26.034,60.8784,7.74971,0,0.000885,0,0
0:0:26.136,61.2298,7.79797,0,0.000885,0,0
0:0:26.237,61.4655,7.82555,0,0.000885,0,0
0:0:26.339,61.4655,7.82555,0,0.000885,0,0
0:0:26.441,62.2884,7.92897,0,0.000885,0,0
0:0:26.543,62.582,7.97034,0,0.000885,0,0
0:0:26.643,63.1647,8.03929,0,0.000885,0,0
0:0:26.745,63.1647,8.03929,0,0.000885,0,0
0:0:26.844,63.3427,8.06687,0,0.000885,0,0
0:0:26.945,63.5784,8.09445,0,0.000885,0,0
0:0:27.046,64.0455,8.1565,0,0.000885,0,0
0:0:27.147,64.0455,8.1565,0,0.000885,0,0
0:0:27.248,64.6905,8.23923,0,0.000885,0,0
0:0:27.349,65.3355,8.32197,0,0.000885,0,0
0:0:27.451,65.5712,8.34955,0,0.000885,0,0
0:0:27.551,65.5712,8.34955,0,0.000885,0,0
0:0:27.649,66.1006,8.4185,0,0.000885,0,0
0:0:27.747,66.6877,8.48745,0,0.000885,0,0
0:0:27.848,66.6877,8.48745,0,0.000885,0,0
0:0:27.949,66.5676,8.47366,0,0.000885,0,0
0:0:28.050,66.9769,8.52881,0,0.000885,0,0
0:0:28.149,67.5062,8.59776,0,0.000885,0,0
0:0:28.245,67.5062,8.59776,0,0.000885,0,0
0:0:28.344,67.9154,8.64603,0,0.000885,0,0
0:0:28.446,68.0934,8.66671,0,0.000885,0,0
0:0:28.547,68.7384,8.74945,0,0.000885,0,0
0:0:28.646,68.7384,8.74945,0,0.000885,0,0
0:0:28.743,69.4412,8.83908,0,0.000885,0,0
0:0:28.842,69.3834,8.83218,0,0.000885,0,0
0:0:28.943,69.7348,8.88045,0,0.000885,0,0
0:0:29.045,69.7348,8.88045,0,0.000885,0,0
0:0:29.144,70.5577,8.98387,0,0.000885,0,0
0:0:29.242,70.6155,8.99076,0,0.000885,0,0
0:0:29.339,70.7312,9.00455,0,0.000885,0,0
0:0:29.441,70.7312,9.00455,0,0.000885,0,0
0:0:29.541,71.2605,9.0735,0,0.000885,0,0
0:0:29.641,71.0248,9.04592,0,0.000885,0,0
0:0:29.738,71.0248,9.04592,0,0.000885,0,0
0:0:29.837,71.3762,9.08729,0,0.000885,0,0
0:0:29.938,71.4963,9.10108,0,0.000885,0,0
0:0:30.040,72.0212,9.17003,0,0.000885,0,0
0:0:30.141,72.0212,9.17003,0,0.000885,0,0
0:0:30.237,72.6661,9.25276,0,0.000885,0,0
0:0:30.336,72.8441,9.27345,0,0.000885,0,0
0:0:30.437,73.0798,9.30792,0,0.000885,0,0
0:0:30.538,73.0798,9.30792,0,0.000885,0,0
0:0:30.638,73.3111,9.3355,0,0.000885,0,0
0:0:30.735,74.1919,9.44582,0,0.000885,0,0
0:0:30.832,74.2497,9.45271,0,0.000885,0,0
0:0:30.934,74.2497,9.45271,0,0.000885,0,0
0:0:31.034,74.312,9.45961,0,0.000885,0,0
0:0:31.136,74.7212,9.51477,0,0.000885,0,0
0:0:31.237,75.6598,9.63198,0,0.000885,0,0
0:0:31.339,75.6598,9.63198,0,0.000885,0,0
0:0:31.441,75.4819,9.61129,0,0.000885,0,0
0:0:31.541,75.6598,9.63198,0,0.000885,0,0
0:0:31.643,75.8333,9.65266,0,0.000885,0,0
0:0:31.744,75.8333,9.65266,0,0.000885,0,0
0:0:31.845,76.714,9.76987,0,0.000885,0,0
0:0:31.945,77.1233,9.81813,0,0.000885,0,0
0:0:32.047,77.1233,9.81813,0,0.000885,0,0
0:0:32.147,77.1233,9.81813,0,0.000885,0,0
0:0:32.249,77.9462,9.92156,0,0.000885,0,0
0:0:32.349,78.0618,9.94224,0,0.000885,0,0
0:0:32.451,78.0618,9.94224,0,0.000885,0,0
0:0:32.552,78.3554,9.97671,0,0.000885,0,0
0:0:32.653,79.1783,10.0801,0,0.000885,0,0
0:0:32.750,78.8848,10.0457,0,0.000885,0,0
0:0:32.848,78.8848,10.0457,0,0.000885,0,0
0:0:32.948,79.6454,10.1422,0,0.000885,0,0
0:0:33.049,79.6454,10.1422,0,0.000885,0,0
0:0:33.151,80.2904,10.2249,0,0.000885,0,0
0:0:33.249,80.2904,10.2249,0,0.000885,0,0
0:0:33.347,80.4105,10.2387,0,0.000885,0,0
0:0:33.447,81.229,10.3421,0,0.000885,0,0
0:0:33.548,81.3491,10.3559,0,0.000885,0,0
0:0:33.649,81.3491,10.3559,0,0.000885,0,0
0:0:33.747,81.9941,10.4387,0,0.000885,0,0
0:0:33.845,82.2298,10.4662,0,0.000885,0,0
0:0:33.945,82.9326,10.5559,0,0.000885,0,0
0:0:34.046,82.9326,10.5559,0,0.000885,0,0
0:0:34.147,82.8748,10.549,0,0.000885,0,0
0:0:34.246,83.1061,10.5835,0,0.000885,0,0
0:0:34.342,83.1061,10.5835,0,0.000885,0,0
0:0:34.443,84.2226,10.7213,0,0.000885,0,0
0:0:34.544,84.2226,10.7213,0,0.000885,0,0
0:0:34.645,84.4584,10.7558,0,0.000885,0,0
0:0:34.743,84.4584,10.7558,0,0.000885,0,0
0:0:34.839,85.0411,10.8248,0,0.000885,0,0
0:0:34.938,85.6283,10.9006,0,0.000885,0,0
0:0:35.040,85.9797,10.9489,0,0.000885,0,0
0:0:35.141,85.9797,10.9489,0,0.000885,0,0
0:0:35.241,86.6247,11.0316,0,0.000885,0,0
0:0:35.338,86.3934,10.9971,0,0.000885,0,0
0:0:35.437,87.0962,11.0868,0,0.000885,0,0
0:0:35.538,87.0962,11.0868,0,0.000885,0,0
0:0:35.639,86.6869,11.0385,0,0.000885,0,0
0:0:35.737,87.0962,11.0868,0,0.000885,0,0
0:0:35.835,87.5054,11.1419,0,0.000885,0,0
0:0:35.933,87.5054,11.1419,0,0.000885,0,0
0:0:36.034,87.5632,11.1488,0,0.000885,0,0
0:0:36.135,88.1504,11.2247,0,0.000885,0,0
0:0:36.236,88.1504,11.2247,0,0.000885,0,0
0:0:36.337,88.444,11.2591,0,0.000885,0,0
0:0:36.438,88.7376,11.3005,0,0.000885,0,0
0:0:36.541,89.2091,11.3557,0,0.000885,0,0
0:0:36.641,89.2091,11.3557,0,0.000885,0,0
0:0:36.743,89.7918,11.4315,0,0.000885,0,0
0:0:36.843,90.3211,11.5005,0,0.000885,0,0
0:0:36.944,90.9661,11.5832,0,0.000885,0,0
0:0:37.045,90.9661,11.5832,0,0.000885,0,0
0:0:37.147,91.2019,11.6108,0,0.000885,0,0
0:0:37.248,91.4955,11.6521,0,0.000885,0,0
0:0:37.348,92.0248,11.7142,0,0.000885,0,0
0:0:37.448,92.0248,11.7142,0,0.000885,0,0
0:0:37.549,92.2561,11.7487,0,0.000885,0,0
0:0:37.651,93.1369,11.859,0,0.000885,0,0
0:0:37.752,93.6662,11.9279,0,0.000885,0,0
0:0:37.851,93.6662,11.9279,0,0.000885,0,0
0:0:37.949,93.724,11.9348,0,0.000885,0,0
0:0:38.048,94.1911,11.99,0,0.000885,0,0
0:0:38.150,94.5425,12.0382,0,0.000885,0,0
0:0:38.250,94.5425,12.0382,0,0.000885,0,0
0:0:38.348,95.014,12.1003,0,0.000885,0,0
0:0:38.447,95.7168,12.1899,0,0.000885,0,0
0:0:38.545,96.2462,12.252,0,0.000885,0,0
0:0:38.647,96.2462,12.252,0,0.000885,0,0
0:0:38.749,96.5976,12.3002,0,0.000885,0,0
0:0:38.847,96.5398,12.2934,0,0.000885,0,0
0:0:38.944,96.5398,12.2934,0,0.000885,0,0
0:0:39.042,96.949,12.3416,0,0.000885,0,0
0:0:39.144,98.1233,12.4933,0,0.000885,0,0
0:0:39.243,98.0032,12.4795,0,0.000885,0,0
0:0:39.343,98.0032,12.4795,0,0.000885,0,0
0:0:39.441,98.4747,12.5416,0,0.000885,0,0
0:0:39.541,98.8261,12.5829,0,0.000885,0,0
0:0:39.643,99.529,12.6726,0,0.000885,0,0
0:0:39.743,99.529,12.6726,0,0.000885,0,0
0:0:39.843,99.9426,12.7277,0,0.000885,0,0
0:0:39.940,100.761,12.8311,0,0.000885,0,0
0:0:40.038,100.352,12.776,0,0.000885,0,0
0:0:40.139,100.352,12.776,0,0.000885,0,0
0:0:40.240,100.645,12.8174,0,0.000885,0,0
0:0:40.340,100.468,12.7898,0,0.000885,0,0
0:0:40.436,100.997,12.8587,0,0.000885,0,0
0:0:40.534,100.997,12.8587,0,0.000885,0,0
0:0:40.635,101.522,12.9277,0,0.000885,0,0
0:0:40.737,101.993,12.9828,0,0.000885,0,0
0:0:40.837,101.993,12.9828,0,0.000885,0,0
0:0:40.934,102.58,13.0587,0,0.000885,0,0
0:0:41.032,102.932,13.1069,0,0.000885,0,0
0:0:41.132,103.048,13.1207,0,0.000885,0,0
0:0:41.234,103.048,13.1207,0,0.000885,0,0
0:0:41.334,103.577,13.1897,0,0.000885,0,0
0:0:41.435,103.399,13.1621,0,0.000885,0,0
0:0:41.536,103.519,13.1828,0,0.000885,0,0
0:0:41.638,103.519,13.1828,0,0.000885,0,0
0:0:41.739,103.87,13.2241,0,0.000885,0,0
0:0:41.842,104.106,13.2517,0,0.000885,0,0
0:0:41.943,104.867,13.3551,0,0.000885,0,0
0:0:42.044,104.867,13.3551,0,0.000885,0,0
0:0:42.144,105.338,13.4103,0,0.000885,0,0
0:0:42.246,105.805,13.4724,0,0.000885,0,0
0:0:42.345,105.69,13.4586,0,0.000885,0,0
0:0:42.444,105.69,13.4586,0,0.000885,0,0
0:0:42.546,106.157,13.5137,0,0.000885,0,0
0:0:42.648,106.335,13.5413,0,0.000885,0,0
0:0:42.748,106.45,13.5551,0,0.000885,0,0
0:0:42.850,106.45,13.5551,0,0.000885,0,0
0:0:42.950,106.922,13.6103,0,0.000885,0,0
0:0:43.047,107.211,13.6516,0,0.000885,0,0
0:0:43.145,107.447,13.6792,0,0.000885,0,0
0:0:43.247,107.447,13.6792,0,0.000885,0,0
0:0:43.348,108.15,13.7688,0,0.000885,0,0
0:0:43.448,108.385,13.8033,0,0.000885,0,0
0:0:43.545,108.621,13.8309,0,0.000885,0,0
0:0:43.643,108.621,13.8309,0,0.000885,0,0
0:0:43.744,109.502,13.9412,0,0.000885,0,0
0:0:43.844,109.502,13.9412,0,0.000885,0,0
0:0:43.944,109.502,13.9412,0,0.000885,0,0
0:0:44.043,110.44,14.0584,0,0.000885,0,0
0:0:44.141,111.201,14.1618,0,0.000885,0,0
0:0:44.242,111.085,14.1411,0,0.000885,0,0
0:0:44.342,111.085,14.1411,0,0.000885,0,0
0:0:44.443,111.673,14.217,0,0.000885,0,0
0:0:44.541,112.082,14.2721,0,0.000885,0,0
0:0:44.637,112.082,14.2721,0,0.000885,0,0
0:0:44.737,112.082,14.2721,0,0.000885,0,0
0:0:44.838,112.549,14.3273,0,0.000885,0,0
0:0:44.939,113.372,14.4376,0,0.000885,0,0
0:0:45.039,113.723,14.479,0,0.000885,0,0
0:0:45.136,113.723,14.479,0,0.000885,0,0
0:0:45.235,114.426,14.5686,0,0.000885,0,0
0:0:45.336,114.484,14.5755,0,0.000885,0,0
0:0:45.437,114.484,14.5755,0,0.000885,0,0
0:0:45.536,114.604,14.5893,0,0.000885,0,0
0:0:45.632,115.249,14.672,0,0.000885,0,0
0:0:45.731,115.836,14.7479,0,0.000885,0,0
0:0:45.833,115.836,14.7479,0,0.000885,0,0
0:0:45.933,116.188,14.7961,0,0.000885,0,0
0:0:46.035,116.423,14.8237,0,0.000885,0,0
0:0:46.136,116.539,14.8375,0,0.000885,0,0
0:0:46.238,116.539,14.8375,0,0.000885,0,0
0:0:46.339,116.775,14.8651,0,0.000885,0,0
0:0:46.439,117.3,14.934,0,0.000885,0,0
0:0:46.540,117.357,14.9409,0,0.000885,0,0
0:0:46.642,117.357,14.9409,0,0.000885,0,0
0:0:46.743,117.593,14.9754,0,0.000885,0,0
0:0:46.844,117.829,15.003,0,0.000885,0,0
0:0:46.946,118.238,15.0581,0,0.000885,0,0
0:0:47.046,118.238,15.0581,0,0.000885,0,0
0:0:47.147,118.71,15.1133,0,0.000885,0,0
0:0:47.248,119.177,15.1754,0,0.000885,0,0
0:0:47.349,119.061,15.1616,0,0.000885,0,0
0:0:47.450,119.061,15.1616,0,0.000885,0,0
0:0:47.551,119.119,15.1685,0,0.000885,0,0
0:0:47.648,119.942,15.2719,0,0.000885,0,0
0:0:47.746,120.88,15.3891,0,0.000885,0,0
0:0:47.847,120.88,15.3891,0,0.000885,0,0
0:0:47.948,120.645,15.3615,0,0.000885,0,0
0:0:48.049,121.29,15.4443,0,0.000885,0,0
0:0:48.147,121.877,15.5201,0,0.000885,0,0
0:0:48.245,121.877,15.5201,0,0.000885,0,0
0:0:48.343,121.935,15.527,0,0.000885,0,0
0:0:48.445,122.344,15.5753,0,0.000885,0,0
0:0:48.545,122.344,15.5753,0,0.000885,0,0
0:0:48.643,123.34,15.7063,0,0.000885,0,0
0:0:48.741,123.047,15.6649,0,0.000885,0,0
0:0:48.841,123.927,15.7821,0,0.000885,0,0
0:0:48.942,123.927,15.7821,0,0.000885,0,0
0:0:49.044,124.105,15.8028,0,0.000885,0,0
0:0:49.142,123.985,15.789,0,0.000885,0,0
0:0:49.240,124.986,15.9131,0,0.000885,0,0
0:0:49.338,124.986,15.9131,0,0.000885,0,0
0:0:49.440,125.453,15.9752,0,0.000885,0,0
0:0:49.540,125.453,15.9752,0,0.000885,0,0
0:0:49.640,126.098,16.0579,0,0.000885,0,0
0:0:49.737,126.098,16.0579,0,0.000885,0,0
0:0:49.834,126.685,16.1268,0,0.000885,0,0
0:0:49.934,126.57,16.113,0,0.000885,0,0
0:0:50.036,126.57,16.113,0,0.000885,0,0
0:0:50.137,127.273,16.2027,0,0.000885,0,0
0:0:50.234,127.797,16.2716,0,0.000885,0,0
0:0:50.331,127.624,16.2509,0,0.000885,0,0
0:0:50.432,127.624,16.2509,0,0.000885,0,0
0:0:50.534,128.385,16.3475,0,0.000885,0,0
0:0:50.633,128.798,16.3957,0,0.000885,0,0
0:0:50.730,128.678,16.3819,0,0.000885,0,0
0:0:50.828,128.678,16.3819,0,0.000885,0,0
0:0:50.928,129.265,16.4578,0,0.000885,0,0
0:0:51.030,129.737,16.5198,0,0.000885,0,0
0:0:51.131,129.675,16.5129,0,0.000885,0,0
0:0:51.231,129.675,16.5129,0,0.000885,0,0
0:0:51.334,130.204,16.575,0,0.000885,0,0
0:0:51.435,130.555,16.6233,0,0.000885,0,0
0:0:51.537,130.497,16.6164,0,0.000885,0,0
0:0:51.638,130.497,16.6164,0,0.000885,0,0
0:0:51.740,131.32,16.7198,0,0.000885,0,0
0:0:51.841,131.436,16.7336,0,0.000885,0,0
0:0:51.942,132.023,16.8094,0,0.000885,0,0
0:0:52.043,132.023,16.8094,0,0.000885,0,0
0:0:52.144,131.903,16.7956,0,0.000885,0,0
0:0:52.245,132.784,16.9059,0,0.000885,0,0
0:0:52.344,132.49,16.8715,0,0.000885,0,0
0:0:52.445,132.49,16.8715,0,0.000885,0,0
0:0:52.546,133.313,16.9749,0,0.000885,0,0
0:0:52.647,133.135,16.9542,0,0.000885,0,0
0:0:52.747,133.429,16.9887,0,0.000885,0,0
0:0:52.843,133.429,16.9887,0,0.000885,0,0
0:0:52.941,133.313,16.9749,0,0.000885,0,0
0:0:53.044,134.016,17.0645,0,0.000885,0,0
0:0:53.144,134.016,17.0645,0,0.000885,0,0
0:0:53.243,134.132,17.0783,0,0.000885,0,0
0:0:53.343,134.31,17.099,0,0.000885,0,0
0:0:53.440,134.603,17.1404,0,0.000885,0,0
0:0:53.542,134.603,17.1404,0,0.000885,0,0
0:0:53.643,134.777,17.1611,0,0.000885,0,0
0:0:53.743,134.955,17.1817,0,0.000885,0,0
0:0:53.841,135.484,17.2507,0,0.000885,0,0
0:0:53.937,135.484,17.2507,0,0.000885,0,0
0:0:54.039,136.009,17.3196,0,0.000885,0,0
0:0:54.140,136.538,17.3817,0,0.000885,0,0
0:0:54.240,136.89,17.4299,0,0.000885,0,0
0:0:54.339,136.89,17.4299,0,0.000885,0,0
0:0:54.438,137.419,17.4989,0,0.000885,0,0
0:0:54.540,137.77,17.5403,0,0.000885,0,0
0:0:54.641,137.944,17.5609,0,0.000885,0,0
0:0:54.739,137.944,17.5609,0,0.000885,0,0
0:0:54.837,138.3,17.6092,0,0.000885,0,0
0:0:54.935,138.825,17.6782,0,0.000885,0,0
0:0:55.035,138.825,17.6782,0,0.000885,0,0
0:0:55.137,139.06,17.7057,0,0.000885,0,0
0:0:55.237,139.527,17.7678,0,0.000885,0,0
0:0:55.333,140.177,17.8505,0,0.000885,0,0
0:0:55.432,140.177,17.8505,0,0.000885,0,0
0:0:55.533,140.644,17.9057,0,0.000885,0,0
0:0:55.634,141.582,18.0298,0,0.000885,0,0
0:0:55.735,141.818,18.0574,0,0.000885,0,0
0:0:55.832,141.818,18.0574,0,0.000885,0,0
0:0:55.929,142.17,18.0987,0,0.000885,0,0
0:0:56.029,142.695,18.1677,0,0.000885,0,0
0:0:56.131,142.93,18.1953,0,0.000885,0,0
0:0:56.231,142.93,18.1953,0,0.000885,0,0
0:0:56.333,143.753,18.3056,0,0.000885,0,0
0:0:56.435,144.278,18.3676,0,0.000885,0,0
0:0:56.537,144.807,18.4366,0,0.000885,0,0
0:0:56.637,144.807,18.4366,0,0.000885,0,0
0:0:56.740,145.101,18.4779,0,0.000885,0,0
0:0:56.841,145.452,18.5193,0,0.000885,0,0
0:0:56.943,145.688,18.5469,0,0.000885,0,0
0:0:57.043,145.688,18.5469,0,0.000885,0,0
0:0:57.145,146.097,18.6021,0,0.000885,0,0
0:0:57.245,146.685,18.6779,0,0.000885,0,0
0:0:57.346,146.862,18.6986,0,0.000885,0,0
0:0:57.446,146.862,18.6986,0,0.000885,0,0
0:0:57.547,146.742,18.6848,0,0.000885,0,0
0:0:57.648,146.92,18.7055,0,0.000885,0,0
0:0:57.750,146.742,18.6848,0,0.000885,0,0
0:0:57.848,146.742,18.6848,0,0.000885,0,0
0:0:57.946,147.036,18.7193,0,0.000885,0,0
0:0:58.046,147.094,18.7262,0,0.000885,0,0
0:0:58.147,147.094,18.7262,0,0.000885,0,0
0:0:58.248,147.507,18.7813,0,0.000885,0,0
0:0:58.348,147.917,18.8365,0,0.000885,0,0
0:0:58.444,146.92,18.7055,0,0.000885,0,0
0:0:58.543,146.92,18.7055,0,0.000885,0,0
0:0:58.644,146.685,18.6779,0,0.000885,0,0
0:0:58.744,146.742,18.6848,0,0.000885,0,0
0:0:58.845,147.445,18.7744,0,0.000885,0,0
0:0:58.942,147.445,18.7744,0,0.000885,0,0
0:0:59.039,147.681,18.802,0,0.000885,0,0
0:0:59.140,148.446,18.8985,0,0.000885,0,0
0:0:59.242,148.504,18.9054,0,0.000885,0,0
0:0:59.342,148.504,18.9054,0,0.000885,0,0
0:0:59.440,148.971,18.9675,0,0.000885,0,0
0:0:59.538,149.678,19.0571,0,0.000885,0,0
0:0:59.637,149.678,19.0571,0,0.000885,0,0
0:0:59.738,149.794,19.0709,0,0.000885,0,0
0:0:59.840,150.145,19.1192,0,0.000885,0,0
0:0:59.938,150.497,19.1605,0,0.000885,0,0
0:1:0.035,150.497,19.1605,0,0.000885,0,0
0:1:0.134,150.439,19.1536,0,0.000885,0,0
0:1:0.236,150.79,19.2019,0,0.000885,0,0
0:1:0.337,151.32,19.264,0,0.000885,0,0
0:1:0.434,151.32,19.264,0,0.000885,0,0
0:1:0.532,151.262,19.2571,0,0.000885,0,0
0:1:0.633,151.787,19.326,0,0.000885,0,0
0:1:0.733,151.844,19.3329,0,0.000885,0,0
0:1:0.834,151.844,19.3329,0,0.000885,0,0
0:1:0.934,152.138,19.3743,0,0.000885,0,0
0:1:1.031,152.552,19.4225,0,0.000885,0,0
0:1:1.130,152.552,19.4225,0,0.000885,0,0
0:1:1.232,152.903,19.4708,0,0.000885,0,0
0:1:1.332,153.312,19.5191,0,0.000885,0,0
0:1:1.434,153.49,19.5397,0,0.000885,0,0
0:1:1.534,153.49,19.5397,0,0.000885,0,0
0:1:1.637,153.722,19.5742,0,0.000885,0,0
0:1:1.739,154.251,19.6432,0,0.000885,0,0
0:1:1.841,154.309,19.6501,0,0.000885,0,0
0:1:1.941,154.309,19.6501,0,0.000885,0,0
0:1:2.043,154.78,19.7052,0,0.000885,0,0
0:1:2.144,155.132,19.7535,0,0.000885,0,0
0:1:2.244,155.541,19.8017,0,0.000885,0,0
0:1:2.344,155.541,19.8017,0,0.000885,0,0
0:1:2.445,155.777,19.8362,0,0.000885,0,0
0:1:2.547,156.012,19.8638,0,0.000885,0,0
0:1:2.647,156.012,19.8638,0,0.000885,0,0
0:1:2.748,156.012,19.8638,0,0.000885,0,0
0:1:2.849,156.012,19.8638,0,0.000885,0,0
0:1:2.950,155.95,19.8569,0,0.000885,0,0
0:1:3.047,155.541,19.8017,0,0.000885,0,0
0:1:3.145,155.541,19.8017,0,0.000885,0,0
0:1:3.244,154.954,19.7328,0,0.000885,0,0
0:1:3.346,154.367,19.657,0,0.000885,0,0
0:1:3.446,153.842,19.588,0,0.000885,0,0
0:1:3.542,153.842,19.588,0,0.000885,0,0
0:1:3.639,153.312,19.5191,0,0.000885,0,0
0:1:3.739,152.489,19.4156,0,0.000885,0,0
0:1:3.841,151.084,19.2364,0,0.000885,0,0
0:1:3.941,151.084,19.2364,0,0.000885,0,0
0:1:4.039,149.558,19.0433,0,0.000885,0,0
0:1:4.137,147.739,18.8089,0,0.000885,0,0
0:1:4.236,147.739,18.8089,0,0.000885,0,0
0:1:4.337,145.924,18.5814,0,0.000885,0,0
0:1:4.438,144.456,18.3952,0,0.000885,0,0
0:1:4.536,143.166,18.2297,0,0.000885,0,0
0:1:4.632,143.166,18.2297,0,0.000885,0,0
0:1:4.731,142.405,18.1332,0,0.000885,0,0
0:1:4.832,141.525,18.016,0,0.000885,0,0
0:1:4.933,140.937,17.9471,0,0.000885,0,0
0:1:5.033,140.937,17.9471,0,0.000885,0,0
0:1:5.131,139.999,17.8229,0,0.000885,0,0
0:1:5.225,138.825,17.6782,0,0.000885,0,0
0:1:5.325,137.886,17.5541,0,0.000885,0,0
0:1:5.430,137.886,17.5541,0,0.000885,0,0
0:1:5.529,137.535,17.5127,0,0.000885,0,0
0:1:5.623,136.654,17.4024,0,0.000885,0,0
0:1:5.733,135.484,17.2507,0,0.000885,0,0
0:1:5.834,135.484,17.2507,0,0.000885,0,0
0:1:5.934,134.545,17.1335,0,0.000885,0,0
0:1:6.036,133.607,17.0094,0,0.000885,0,0
0:1:6.134,133.607,17.0094,0,0.000885,0,0
0:1:6.236,132.904,16.9197,0,0.000885,0,0
0:1:6.338,132.081,16.8163,0,0.000885,0,0
0:1:6.440,131.61,16.7543,0,0.000885,0,0
0:1:6.541,131.61,16.7543,0,0.000885,0,0
0:1:6.642,131.027,16.6853,0,0.000885,0,0
0:1:6.742,130.497,16.6164,0,0.000885,0,0
0:1:6.844,129.443,16.4785,0,0.000885,0,0
0:1:6.944,129.443,16.4785,0,0.000885,0,0
0:1:7.045,128.856,16.4095,0,0.000885,0,0
0:1:7.145,128.091,16.3061,0,0.000885,0,0
0:1:7.246,127.975,16.2923,0,0.000885,0,0
0:1:7.346,127.975,16.2923,0,0.000885,0,0
0:1:7.448,127.273,16.2027,0,0.000885,0,0
0:1:7.548,126.743,16.1406,0,0.000885,0,0
0:1:7.646,126.156,16.0648,0,0.000885,0,0
0:1:7.743,126.156,16.0648,0,0.000885,0,0
0:1:7.843,125.511,15.982,0,0.000885,0,0
0:1:7.944,124.693,15.8786,0,0.000885,0,0
0:1:8.044,124.105,15.8028,0,0.000885,0,0
0:1:8.143,124.105,15.8028,0,0.000885,0,0
0:1:8.240,123.634,15.7407,0,0.000885,0,0
0:1:8.339,122.637,15.6166,0,0.000885,0,0
0:1:8.441,121.583,15.4787,0,0.000885,0,0
0:1:8.541,121.583,15.4787,0,0.000885,0,0
0:1:8.639,121.174,15.4305,0,0.000885,0,0
0:1:8.737,120.351,15.3202,0,0.000885,0,0
0:1:8.835,120.351,15.3202,0,0.000885,0,0
0:1:8.935,119.061,15.1616,0,0.000885,0,0
0:1:9.037,117.357,14.9409,0,0.000885,0,0
0:1:9.134,115.129,14.6583,0,0.000885,0,0
0:1:9.232,115.129,14.6583,0,0.000885,0,0
0:1:9.242,115.129,14.6583,0,0.000885,0,0