File: DataFile2021-06-09_070206.csv
Test ID:,Date Tested:,Time:,Test Type:,Diameter Avg. (mm):,Cyl. Corr. Factor:,Height (mm):,Age (days):,Weight (kN):,Break Type:,Ramp Rate (MPa/s):,Load at Break (kN):,Stress at Break (MPa):
12,6/9/2021,07:02,Cylinder,100,1,200,0,3.6,Invalid/No Break,0.25,533.31,67.9
Sample Time,Load (kN),Stress (MPa),Long. Strain,Trans. Strain,Chan1 Deflection (mm),Chan2 Deflection (mm)
0:0:3.832,5.80493,0.737739,0,0.000885,0,0
0:0:4.126,6.04068,0.772213,0,0.000885,0,0
0:0:4.425,6.15634,0.786002,0,0.000885,0,0
0:0:4.726,6.15634,0.786002,0,0.000885,0,0
0:0:5.021,6.97926,0.889424,0,0.000885,0,0
0:0:5.323,7.3885,0.937687,0,0.000885,0,0
0:0:5.619,8.79858,1.11695,0,0.000885,0,0
0:0:5.918,9.03434,1.15142,0,0.000885,0,0
0:0:6.216,9.67933,1.23416,0,0.000885,0,0
0:0:6.513,10.2042,1.29621,0,0.000885,0,0
0:0:6.816,10.44,1.33069,0,0.000885,0,0
0:0:7.109,10.8492,1.37895,0,0.000885,0,0
0:0:7.410,12.2593,1.55822,0,0.000885,0,0
0:0:7.707,12.4328,1.58579,0,0.000885,0,0
0:0:8.006,13.2557,1.68922,0,0.000885,0,0
0:0:8.305,13.9007,1.77195,0,0.000885,0,0
0:0:8.600,14.0163,1.78574,0,0.000885,0,0
0:0:8.903,14.6613,1.86848,0,0.000885,0,0
0:0:9.196,15.6577,1.99258,0,0.000885,0,0
0:0:9.499,15.8935,2.02706,0,0.000885,0,0
0:0:9.803,16.0714,2.04774,0,0.000885,0,0
0:0:10.108,17.3036,2.20632,0,0.000885,0,0
0:0:10.410,18.0642,2.30285,0,0.000885,0,0
0:0:10.712,18.767,2.39248,0,0.000885,0,0
0:0:11.015,19.412,2.47522,0,0.000885,0,0
0:0:11.310,20.1193,2.55795,0,0.000885,0,0
0:0:11.610,20.88,2.66138,0,0.000885,0,0
0:0:11.908,21.347,2.71653,0,0.000885,0,0
0:0:12.206,21.5828,2.75101,0,0.000885,0,0
0:0:12.509,22.6993,2.8889,0,0.000885,0,0
0:0:12.802,22.8149,2.90269,0,0.000885,0,0
0:0:13.105,23.8692,3.04059,0,0.000885,0,0
0:0:13.400,24.5141,3.12333,0,0.000885,0,0
0:0:13.697,24.9278,3.17159,0,0.000885,0,0
0:0:13.998,25.2792,3.21985,0,0.000885,0,0
0:0:14.301,25.6307,3.26122,0,0.000885,0,0
0:0:14.606,26.5692,3.38533,0,0.000885,0,0
0:0:14.910,26.6849,3.39912,0,0.000885,0,0
0:0:15.210,27.0986,3.44738,0,0.000885,0,0
0:0:15.514,27.8592,3.54391,0,0.000885,0,0
0:0:15.812,28.9713,3.6887,0,0.000885,0,0
0:0:16.113,29.385,3.74385,0,0.000885,0,0
0:0:16.408,30.0878,3.83349,0,0.000885,0,0
0:0:16.709,30.0299,3.82659,0,0.000885,0,0
0:0:17.006,30.6749,3.90243,0,0.000885,0,0
0:0:17.306,31.5557,4.01964,0,0.000885,0,0
0:0:17.605,31.9649,4.06791,0,0.000885,0,0
0:0:17.900,32.7834,4.17133,0,0.000885,0,0
0:0:18.202,33.5485,4.27475,0,0.000885,0,0
0:0:18.498,34.3091,4.37128,0,0.000885,0,0
0:0:18.798,34.367,4.37817,0,0.000885,0,0
0:0:19.096,35.1321,4.4747,0,0.000885,0,0
0:0:19.400,35.8927,4.57122,0,0.000885,0,0
0:0:19.706,36.2441,4.61259,0,0.000885,0,0
0:0:20.010,37.245,4.74359,0,0.000885,0,0
0:0:20.312,37.3606,4.75738,0,0.000885,0,0
0:0:20.615,38.6506,4.92286,0,0.000885,0,0
0:0:20.913,38.8285,4.94354,0,0.000885,0,0
0:0:21.212,39.2378,4.9987,0,0.000885,0,0
0:0:21.509,40.3498,5.13659,0,0.000885,0,0
0:0:21.812,40.4121,5.14349,0,0.000885,0,0
0:0:22.107,41.1727,5.24002,0,0.000885,0,0
0:0:22.408,41.7599,5.31586,0,0.000885,0,0
0:0:22.707,42.7563,5.44686,0,0.000885,0,0
0:0:23.003,42.9921,5.47444,0,0.000885,0,0
0:0:23.304,43.517,5.54338,0,0.000885,0,0
0:0:23.600,43.9306,5.59165,0,0.000885,0,0
0:0:23.901,44.4555,5.6606,0,0.000885,0,0
0:0:24.197,45.3941,5.77781,0,0.000885,0,0
0:0:24.500,45.7455,5.82607,0,0.000885,0,0
0:0:24.805,46.3327,5.90191,0,0.000885,0,0
0:0:25.107,46.7464,5.95018,0,0.000885,0,0
0:0:25.410,47.2713,6.01912,0,0.000885,0,0
0:0:25.712,47.8584,6.09497,0,0.000885,0,0
0:0:26.012,48.3299,6.15012,0,0.000885,0,0
0:0:26.309,48.9126,6.22597,0,0.000885,0,0
0:0:26.607,49.3842,6.28802,0,0.000885,0,0
0:0:26.910,50.2026,6.39144,0,0.000885,0,0
0:0:27.205,51.2613,6.52934,0,0.000885,0,0
0:0:27.507,52.022,6.62586,0,0.000885,0,0
0:0:27.803,52.3734,6.66723,0,0.000885,0,0
0:0:28.102,52.8449,6.72928,0,0.000885,0,0
0:0:28.401,53.4899,6.81202,0,0.000885,0,0
0:0:28.697,53.8991,6.86028,0,0.000885,0,0
0:0:28.999,54.8377,6.98439,0,0.000885,0,0
0:0:29.305,55.367,7.04644,0,0.000885,0,0
0:0:29.609,55.7763,7.1016,0,0.000885,0,0
0:0:29.912,56.5992,7.20502,0,0.000885,0,0
0:0:30.214,56.7727,7.22571,0,0.000885,0,0
0:0:30.518,57.302,7.29465,0,0.000885,0,0
0:0:30.814,58.592,7.46013,0,0.000885,0,0
0:0:31.117,58.9434,7.50839,0,0.000885,0,0
0:0:31.414,59.5305,7.57734,0,0.000885,0,0
0:0:31.712,59.7663,7.61181,0,0.000885,0,0
0:0:32.012,60.0599,7.64629,0,0.000885,0,0
0:0:32.307,61.2298,7.79797,0,0.000885,0,0
0:0:32.610,61.7591,7.86002,0,0.000885,0,0
0:0:32.905,62.1105,7.90829,0,0.000885,0,0
0:0:33.207,62.8712,8.00481,0,0.000885,0,0
0:0:33.504,63.4005,8.07376,0,0.000885,0,0
0:0:33.801,64.3391,8.19097,0,0.000885,0,0
0:0:34.101,64.7483,8.24613,0,0.000885,0,0
0:0:34.404,65.3355,8.32197,0,0.000885,0,0
0:0:34.709,66.0383,8.4116,0,0.000885,0,0
0:0:35.012,67.097,8.5426,0,0.000885,0,0
0:0:35.315,66.9769,8.52881,0,0.000885,0,0
0:0:35.618,67.2705,8.56329,0,0.000885,0,0
0:0:35.913,68.0355,8.65982,0,0.000885,0,0
0:0:36.215,68.5026,8.72187,0,0.000885,0,0
0:0:36.511,69.3834,8.83218,0,0.000885,0,0
0:0:36.812,69.9705,8.90803,0,0.000885,0,0
0:0:37.111,70.2063,8.93561,0,0.000885,0,0
0:0:37.408,71.1449,9.05971,0,0.000885,0,0
0:0:37.709,72.0212,9.17003,0,0.000885,0,0
0:0:38.004,72.4927,9.23208,0,0.000885,0,0
0:0:38.305,72.8441,9.27345,0,0.000885,0,0
0:0:38.603,73.4312,9.34929,0,0.000885,0,0
0:0:38.902,74.2497,9.45271,0,0.000885,0,0
0:0:39.202,75.1883,9.57682,0,0.000885,0,0
0:0:39.505,75.4819,9.61129,0,0.000885,0,0
0:0:39.808,75.3662,9.5975,0,0.000885,0,0
0:0:40.111,76.3626,9.72161,0,0.000885,0,0
0:0:40.413,76.9498,9.79745,0,0.000885,0,0
0:0:40.717,77.5948,9.88019,0,0.000885,0,0
0:0:41.014,78.4177,9.98361,0,0.000885,0,0
0:0:41.314,78.2398,9.96292,0,0.000885,0,0
0:0:41.609,78.8848,10.0457,0,0.000885,0,0
0:0:41.911,80.1747,10.2111,0,0.000885,0,0
0:0:42.208,80.7619,10.2801,0,0.000885,0,0
0:0:42.506,80.7619,10.2801,0,0.000885,0,0
0:0:42.807,81.5226,10.3766,0,0.000885,0,0
0:0:43.103,82.1675,10.4593,0,0.000885,0,0
0:0:43.406,82.7547,10.5352,0,0.000885,0,0
0:0:43.702,83.5198,10.6317,0,0.000885,0,0
0:0:44.000,84.2805,10.7282,0,0.000885,0,0
0:0:44.300,84.4584,10.7558,0,0.000885,0,0
0:0:44.605,84.9254,10.811,0,0.000885,0,0
0:0:44.909,86.2154,10.9765,0,0.000885,0,0
0:0:45.212,86.042,10.9558,0,0.000885,0,0
0:0:45.512,86.509,11.0178,0,0.000885,0,0
0:0:45.817,87.5632,11.1488,0,0.000885,0,0
0:0:46.115,88.5641,11.2729,0,0.000885,0,0
0:0:46.416,88.3283,11.2453,0,0.000885,0,0
0:0:46.711,89.5027,11.397,0,0.000885,0,0
0:0:47.012,89.8541,11.4384,0,0.000885,0,0
0:0:47.310,90.7304,11.5556,0,0.000885,0,0
0:0:47.607,91.3175,11.6246,0,0.000885,0,0
0:0:47.908,92.0248,11.7142,0,0.000885,0,0
0:0:48.205,92.1983,11.7418,0,0.000885,0,0
0:0:48.506,92.9011,11.8314,0,0.000885,0,0
0:0:48.804,94.1333,11.9831,0,0.000885,0,0
0:0:49.101,94.6048,12.0451,0,0.000885,0,0
0:0:49.401,94.7783,12.0658,0,0.000885,0,0
0:0:49.706,95.1297,12.1141,0,0.000885,0,0
0:0:50.010,95.1919,12.121,0,0.000885,0,0
0:0:50.312,96.304,12.2589,0,0.000885,0,0
0:0:50.616,96.7755,12.3209,0,0.000885,0,0
0:0:50.919,97.594,12.4244,0,0.000885,0,0
0:0:51.215,98.1811,12.5002,0,0.000885,0,0
0:0:51.519,99.1775,12.6243,0,0.000885,0,0
0:0:51.814,99.8804,12.7139,0,0.000885,0,0
0:0:52.114,100.41,12.7829,0,0.000885,0,0
0:0:52.412,100.352,12.776,0,0.000885,0,0
0:0:52.709,100.703,12.8242,0,0.000885,0,0
0:0:53.009,101.464,12.9208,0,0.000885,0,0
0:0:53.305,101.878,12.969,0,0.000885,0,0
0:0:53.607,102.403,13.038,0,0.000885,0,0
0:0:53.903,103.168,13.1345,0,0.000885,0,0
0:0:54.207,104.458,13.3,0,0.000885,0,0
0:0:54.512,104.867,13.3551,0,0.000885,0,0
0:0:54.816,104.982,13.3689,0,0.000885,0,0
0:0:55.118,105.69,13.4586,0,0.000885,0,0
0:0:55.421,107.095,13.6378,0,0.000885,0,0
0:0:55.720,106.744,13.5896,0,0.000885,0,0
0:0:56.021,108.328,13.7895,0,0.000885,0,0
0:0:56.315,107.625,13.6999,0,0.000885,0,0
0:0:56.618,108.443,13.8102,0,0.000885,0,0
0:0:56.914,109.795,13.9826,0,0.000885,0,0
0:0:57.211,109.675,13.9619,0,0.000885,0,0
0:0:57.510,110.378,14.0515,0,0.000885,0,0
0:0:57.807,110.965,14.1274,0,0.000885,0,0
0:0:58.109,111.73,14.2239,0,0.000885,0,0
0:0:58.404,112.318,14.2997,0,0.000885,0,0
0:0:58.707,113.372,14.4376,0,0.000885,0,0
0:0:59.001,113.665,14.4721,0,0.000885,0,0
0:0:59.304,114.132,14.5341,0,0.000885,0,0
0:0:59.608,115.013,14.6445,0,0.000885,0,0
0:0:59.912,115.485,14.7065,0,0.000885,0,0
0:1:0.213,116.13,14.7893,0,0.000885,0,0
0:1:0.516,116.245,14.803,0,0.000885,0,0
0:1:0.817,117.126,14.9134,0,0.000885,0,0
0:1:1.117,118.065,15.0306,0,0.000885,0,0
0:1:1.412,118.652,15.1064,0,0.000885,0,0
0:1:1.716,119.061,15.1616,0,0.000885,0,0
0:1:2.012,118.768,15.1202,0,0.000885,0,0
0:1:2.312,119.822,15.2581,0,0.000885,0,0
0:1:2.610,120.938,15.396,0,0.000885,0,0
0:1:2.906,120.88,15.3891,0,0.000885,0,0
0:1:3.208,121.583,15.4787,0,0.000885,0,0
0:1:3.503,121.699,15.4925,0,0.000885,0,0
0:1:3.804,122.989,15.658,0,0.000885,0,0
0:1:4.101,123.047,15.6649,0,0.000885,0,0
0:1:4.405,124.341,15.8304,0,0.000885,0,0
0:1:4.710,124.572,15.8579,0,0.000885,0,0
0:1:5.012,125.102,15.9269,0,0.000885,0,0
0:1:5.315,126.098,16.0579,0,0.000885,0,0
0:1:5.618,126.743,16.1406,0,0.000885,0,0
0:1:5.915,126.45,16.0993,0,0.000885,0,0
0:1:6.216,127.508,16.2372,0,0.000885,0,0
0:1:6.511,127.975,16.2923,0,0.000885,0,0
0:1:6.812,129.265,16.4578,0,0.000885,0,0
0:1:7.108,129.207,16.4509,0,0.000885,0,0
0:1:7.408,130.088,16.5612,0,0.000885,0,0
0:1:7.706,130.675,16.637,0,0.000885,0,0
0:1:8.002,130.965,16.6784,0,0.000885,0,0
0:1:8.305,131.672,16.768,0,0.000885,0,0
0:1:8.599,132.49,16.8715,0,0.000885,0,0
0:1:8.898,132.49,16.8715,0,0.000885,0,0
0:1:9.196,133.077,16.9473,0,0.000885,0,0
0:1:9.500,134.252,17.0921,0,0.000885,0,0
0:1:9.804,134.777,17.1611,0,0.000885,0,0
0:1:10.106,135.248,17.2231,0,0.000885,0,0
0:1:10.409,136.129,17.3334,0,0.000885,0,0
0:1:10.712,136.774,17.4162,0,0.000885,0,0
0:1:11.009,137.01,17.4437,0,0.000885,0,0
0:1:11.310,137.655,17.5265,0,0.000885,0,0
0:1:11.606,137.944,17.5609,0,0.000885,0,0
0:1:11.908,138.882,17.6851,0,0.000885,0,0
0:1:12.205,140.177,17.8505,0,0.000885,0,0
0:1:12.502,139.763,17.7954,0,0.000885,0,0
0:1:12.803,140.822,17.9264,0,0.000885,0,0
0:1:13.097,141.467,18.0091,0,0.000885,0,0
0:1:13.399,141.698,18.0436,0,0.000885,0,0
0:1:13.696,142.463,18.1401,0,0.000885,0,0
0:1:13.995,143.166,18.2297,0,0.000885,0,0
0:1:14.292,144.105,18.3469,0,0.000885,0,0
0:1:14.595,143.869,18.3194,0,0.000885,0,0
0:1:14.898,144.278,18.3676,0,0.000885,0,0
0:1:15.201,145.217,18.4917,0,0.000885,0,0
0:1:15.503,146.155,18.6089,0,0.000885,0,0
0:1:15.806,146.04,18.5952,0,0.000885,0,0
0:1:16.105,146.862,18.6986,0,0.000885,0,0
0:1:16.405,147.801,18.8158,0,0.000885,0,0
0:1:16.699,148.268,18.8778,0,0.000885,0,0
0:1:17.001,148.797,18.9468,0,0.000885,0,0
0:1:17.296,149.558,19.0433,0,0.000885,0,0
0:1:17.596,149.5,19.0364,0,0.000885,0,0
0:1:17.892,151.262,19.2571,0,0.000885,0,0
0:1:18.189,151.671,19.3122,0,0.000885,0,0
0:1:18.489,151.907,19.3398,0,0.000885,0,0
0:1:18.786,151.844,19.3329,0,0.000885,0,0
0:1:19.088,152.725,19.4432,0,0.000885,0,0
0:1:19.392,153.9,19.5949,0,0.000885,0,0
0:1:19.696,154.602,19.6845,0,0.000885,0,0
0:1:19.997,154.193,19.6294,0,0.000885,0,0
0:1:20.300,155.363,19.7811,0,0.000885,0,0
0:1:20.602,156.186,19.8845,0,0.000885,0,0
0:1:20.898,156.537,19.9327,0,0.000885,0,0
0:1:21.199,156.302,19.8983,0,0.000885,0,0
0:1:21.496,157.947,20.112,0,0.000885,0,0
0:1:21.792,157.947,20.112,0,0.000885,0,0
0:1:22.092,158.357,20.1603,0,0.000885,0,0
0:1:22.387,159.647,20.3257,0,0.000885,0,0
0:1:22.689,160.527,20.4361,0,0.000885,0,0
0:1:22.985,160.47,20.4292,0,0.000885,0,0
0:1:23.284,161.524,20.5671,0,0.000885,0,0
0:1:23.582,161.817,20.6015,0,0.000885,0,0
0:1:23.878,162.992,20.7532,0,0.000885,0,0
0:1:24.178,162.814,20.7325,0,0.000885,0,0
0:1:24.483,162.462,20.6843,0,0.000885,0,0
0:1:24.785,163.81,20.8566,0,0.000885,0,0
0:1:25.088,165.042,21.0152,0,0.000885,0,0
0:1:25.389,165.278,21.0428,0,0.000885,0,0
0:1:25.692,165.394,21.0566,0,0.000885,0,0
0:1:25.987,166.742,21.229,0,0.000885,0,0
0:1:26.289,167.387,21.3117,0,0.000885,0,0
0:1:26.586,168.032,21.3944,0,0.000885,0,0
0:1:26.884,167.8,21.3669,0,0.000885,0,0
0:1:27.182,169.206,21.5461,0,0.000885,0,0
0:1:27.479,169.615,21.5944,0,0.000885,0,0
0:1:27.780,170.087,21.6564,0,0.000885,0,0
0:1:28.085,170.847,21.753,0,0.000885,0,0
0:1:28.385,171.377,21.8219,0,0.000885,0,0
0:1:28.683,171.555,21.8426,0,0.000885,0,0
0:1:28.980,172.315,21.9391,0,0.000885,0,0
0:1:29.280,172.782,22.0012,0,0.000885,0,0
0:1:29.584,173.663,22.1115,0,0.000885,0,0
0:1:29.887,174.192,22.1804,0,0.000885,0,0
0:1:30.190,174.366,22.2011,0,0.000885,0,0
0:1:30.491,175.011,22.2839,0,0.000885,0,0
0:1:30.794,175.949,22.4011,0,0.000885,0,0
0:1:31.089,176.127,22.4286,0,0.000885,0,0
0:1:31.390,176.83,22.5183,0,0.000885,0,0
0:1:31.686,177.302,22.5734,0,0.000885,0,0
0:1:31.986,178.472,22.7251,0,0.000885,0,0
0:1:32.283,179.53,22.8561,0,0.000885,0,0
0:1:32.576,179.352,22.8354,0,0.000885,0,0
0:1:32.880,179.41,22.8423,0,0.000885,0,0
0:1:33.184,180.411,22.9733,0,0.000885,0,0
0:1:33.484,181.581,23.1181,0,0.000885,0,0
0:1:33.781,181.995,23.1733,0,0.000885,0,0
0:1:34.082,182.577,23.2491,0,0.000885,0,0
0:1:34.388,183.458,23.3594,0,0.000885,0,0
0:1:34.691,183.752,23.3939,0,0.000885,0,0
0:1:34.991,183.458,23.3594,0,0.000885,0,0
0:1:35.294,184.806,23.5318,0,0.000885,0,0
0:1:35.595,185.687,23.6421,0,0.000885,0,0
0:1:35.891,185.571,23.6283,0,0.000885,0,0
0:1:36.188,186.509,23.7455,0,0.000885,0,0
0:1:36.488,187.328,23.849,0,0.000885,0,0
0:1:36.783,187.564,23.8834,0,0.000885,0,0
0:1:37.085,187.212,23.8352,0,0.000885,0,0
0:1:37.388,188.035,23.9386,0,0.000885,0,0
0:1:37.687,189.619,24.1454,0,0.000885,0,0
0:1:37.985,191.082,24.3316,0,0.000885,0,0
0:1:38.282,190.495,24.2558,0,0.000885,0,0
0:1:38.582,191.727,24.4143,0,0.000885,0,0
0:1:38.873,192.199,24.4695,0,0.000885,0,0
0:1:39.175,192.141,24.4626,0,0.000885,0,0
0:1:39.482,192.492,24.5109,0,0.000885,0,0
0:1:39.782,193.547,24.6419,0,0.000885,0,0
0:1:40.083,193.84,24.6832,0,0.000885,0,0
0:1:40.381,195.014,24.828,0,0.000885,0,0
0:1:40.681,195.539,24.897,0,0.000885,0,0
0:1:40.983,196.069,24.9659,0,0.000885,0,0
0:1:41.281,197.065,25.09,0,0.000885,0,0
0:1:41.575,197.359,25.1314,0,0.000885,0,0
0:1:41.880,197.652,25.1659,0,0.000885,0,0
0:1:42.179,197.594,25.159,0,0.000885,0,0
0:1:42.480,198.649,25.29,0,0.000885,0,0
0:1:42.788,198.884,25.3244,0,0.000885,0,0
0:1:43.083,199.996,25.4623,0,0.000885,0,0
0:1:43.376,200.641,25.5451,0,0.000885,0,0
0:1:43.674,200.468,25.5244,0,0.000885,0,0
0:1:43.975,201.522,25.6554,0,0.000885,0,0
0:1:44.276,202.87,25.8278,0,0.000885,0,0
0:1:44.577,203.457,25.9036,0,0.000885,0,0
0:1:44.881,203.106,25.8622,0,0.000885,0,0
0:1:45.181,204.454,26.0346,0,0.000885,0,0
0:1:45.480,205.57,26.1725,0,0.000885,0,0
0:1:45.780,205.686,26.1863,0,0.000885,0,0
0:1:46.070,206.451,26.2828,0,0.000885,0,0
0:1:46.369,206.744,26.3242,0,0.000885,0,0
0:1:46.664,206.918,26.3449,0,0.000885,0,0
0:1:46.968,208.266,26.5172,0,0.000885,0,0
0:1:47.274,208.034,26.4897,0,0.000885,0,0
0:1:47.567,207.977,26.4828,0,0.000885,0,0
0:1:47.867,209.267,26.6413,0,0.000885,0,0
0:1:48.168,209.969,26.731,0,0.000885,0,0
0:1:48.476,210.672,26.8206,0,0.000885,0,0
0:1:48.772,211.669,26.9516,0,0.000885,0,0
0:1:49.087,212.256,27.0274,0,0.000885,0,0
0:1:49.387,212.665,27.0757,0,0.000885,0,0
0:1:49.688,213.31,27.1584,0,0.000885,0,0
0:1:49.991,214.191,27.2688,0,0.000885,0,0
0:1:50.290,214.311,27.2894,0,0.000885,0,0
0:1:50.590,214.133,27.2619,0,0.000885,0,0
0:1:50.890,215.601,27.448,0,0.000885,0,0
0:1:51.184,215.894,27.4894,0,0.000885,0,0
0:1:51.483,216.01,27.5032,0,0.000885,0,0
0:1:51.775,216.833,27.6066,0,0.000885,0,0
0:1:52.084,217.709,27.7169,0,0.000885,0,0
0:1:52.380,218.061,27.7652,0,0.000885,0,0
0:1:52.683,218.941,27.8755,0,0.000885,0,0
0:1:52.982,219.88,27.9927,0,0.000885,0,0
0:1:53.283,219.707,27.972,0,0.000885,0,0
0:1:53.581,220.174,28.0341,0,0.000885,0,0
0:1:53.872,220.876,28.1237,0,0.000885,0,0
0:1:54.173,221.757,28.234,0,0.000885,0,0
0:1:54.477,222.754,28.365,0,0.000885,0,0
0:1:54.777,222.46,28.3237,0,0.000885,0,0
0:1:55.080,223.519,28.4616,0,0.000885,0,0
0:1:55.381,224.222,28.5512,0,0.000885,0,0
0:1:55.677,225.334,28.6891,0,0.000885,0,0
0:1:55.973,225.685,28.7373,0,0.000885,0,0
0:1:56.268,225.627,28.7305,0,0.000885,0,0
0:1:56.566,226.979,28.9028,0,0.000885,0,0
0:1:56.858,227.037,28.9097,0,0.000885,0,0
0:1:57.159,227.918,29.02,0,0.000885,0,0
0:1:57.454,228.563,29.1028,0,0.000885,0,0
0:1:57.750,229.088,29.1717,0,0.000885,0,0
0:1:58.047,230.147,29.3027,0,0.000885,0,0
0:1:58.341,230.204,29.3096,0,0.000885,0,0
0:1:58.640,230.498,29.351,0,0.000885,0,0
0:1:58.931,231.437,29.4682,0,0.000885,0,0
0:1:59.232,232.139,29.5578,0,0.000885,0,0
0:1:59.535,231.788,29.5096,0,0.000885,0,0
0:1:59.837,232.491,29.5992,0,0.000885,0,0
0:2:0.137,232.784,29.6406,0,0.000885,0,0
0:2:0.437,234.074,29.806,0,0.000885,0,0
0:2:0.739,234.835,29.9026,0,0.000885,0,0
0:2:1.030,234.604,29.8681,0,0.000885,0,0
0:2:1.328,235.306,29.9577,0,0.000885,0,0
0:2:1.625,236.481,30.1094,0,0.000885,0,0
0:2:1.919,236.596,30.1232,0,0.000885,0,0
0:2:2.218,237.064,30.1852,0,0.000885,0,0
0:2:2.511,237.651,30.2611,0,0.000885,0,0
0:2:2.811,238.589,30.3783,0,0.000885,0,0
0:2:3.103,238.825,30.4059,0,0.000885,0,0
0:2:3.400,240.702,30.6472,0,0.000885,0,0
0:2:3.697,240.351,30.5989,0,0.000885,0,0
0:2:3.992,240.644,30.6403,0,0.000885,0,0
0:2:4.291,241.405,30.7368,0,0.000885,0,0
0:2:4.594,241.992,30.8127,0,0.000885,0,0
0:2:4.895,243.104,30.9506,0,0.000885,0,0
0:2:5.195,243.691,31.0264,0,0.000885,0,0
0:2:5.496,244.75,31.1643,0,0.000885,0,0
0:2:5.797,244.808,31.1712,0,0.000885,0,0
0:2:6.089,245.044,31.1988,0,0.000885,0,0
0:2:6.388,245.511,31.2608,0,0.000885,0,0
0:2:6.684,246.098,31.3367,0,0.000885,0,0
0:2:6.979,246.565,31.3918,0,0.000885,0,0
0:2:7.275,247.566,31.5228,0,0.000885,0,0
0:2:7.578,248.211,31.6056,0,0.000885,0,0
0:2:7.876,249.265,31.7366,0,0.000885,0,0
0:2:8.190,249.323,31.7435,0,0.000885,0,0
0:2:8.490,249.732,31.7986,0,0.000885,0,0
0:2:8.784,250.849,31.9365,0,0.000885,0,0
0:2:9.082,250.733,31.9227,0,0.000885,0,0
0:2:9.386,250.849,31.9365,0,0.000885,0,0
0:2:9.687,251.551,32.0261,0,0.000885,0,0
0:2:9.988,253.664,32.295,0,0.000885,0,0
0:2:10.288,253.722,32.3019,0,0.000885,0,0
0:2:10.587,253.606,32.2881,0,0.000885,0,0
0:2:10.884,254.776,32.4398,0,0.000885,0,0
0:2:11.177,254.719,32.4329,0,0.000885,0,0
0:2:11.476,256.36,32.6398,0,0.000885,0,0
0:2:11.789,257.298,32.757,0,0.000885,0,0
0:2:12.089,257.298,32.757,0,0.000885,0,0
0:2:12.383,257.419,32.7777,0,0.000885,0,0
0:2:12.678,258.531,32.9156,0,0.000885,0,0
0:2:12.973,258.766,32.95,0,0.000885,0,0
0:2:13.269,258.588,32.9225,0,0.000885,0,0
0:2:13.567,259.354,33.019,0,0.000885,0,0
0:2:13.879,260.292,33.1431,0,0.000885,0,0
0:2:14.179,260.523,33.1707,0,0.000885,0,0
0:2:14.482,262.227,33.3844,0,0.000885,0,0
0:2:14.784,262.169,33.3775,0,0.000885,0,0
0:2:15.082,262.401,33.412,0,0.000885,0,0
0:2:15.383,263.575,33.5568,0,0.000885,0,0
0:2:15.684,263.575,33.5568,0,0.000885,0,0
0:2:15.975,264.807,33.7154,0,0.000885,0,0
0:2:16.273,265.452,33.7981,0,0.000885,0,0
0:2:16.580,265.803,33.8464,0,0.000885,0,0
0:2:16.885,267.036,33.998,0,0.000885,0,0
0:2:17.184,267.271,34.0325,0,0.000885,0,0
0:2:17.486,267.036,33.998,0,0.000885,0,0
0:2:17.785,267.974,34.1222,0,0.000885,0,0
0:2:18.078,268.619,34.2049,0,0.000885,0,0
0:2:18.375,269.322,34.2945,0,0.000885,0,0
0:2:18.683,270.087,34.391,0,0.000885,0,0
0:2:18.985,270.848,34.4876,0,0.000885,0,0
0:2:19.284,271.199,34.5289,0,0.000885,0,0
0:2:19.587,272.196,34.6599,0,0.000885,0,0
0:2:19.890,272.609,34.7082,0,0.000885,0,0
0:2:20.189,272.725,34.722,0,0.000885,0,0
0:2:20.490,272.961,34.7565,0,0.000885,0,0
0:2:20.791,273.957,34.8806,0,0.000885,0,0
0:2:21.084,273.486,34.8185,0,0.000885,0,0
0:2:21.379,275.483,35.0736,0,0.000885,0,0
0:2:21.687,275.776,35.115,0,0.000885,0,0
0:2:21.991,275.834,35.1219,0,0.000885,0,0
0:2:22.290,276.773,35.2391,0,0.000885,0,0
0:2:22.583,277.533,35.3356,0,0.000885,0,0
0:2:22.881,278.53,35.4666,0,0.000885,0,0
0:2:23.184,278.356,35.4391,0,0.000885,0,0
0:2:23.479,279.237,35.5563,0,0.000885,0,0
0:2:23.788,279.94,35.6459,0,0.000885,0,0
0:2:24.089,280.879,35.7631,0,0.000885,0,0
0:2:24.393,281.697,35.8665,0,0.000885,0,0
0:2:24.692,281.755,35.8734,0,0.000885,0,0
0:2:24.992,282.693,35.9906,0,0.000885,0,0
0:2:25.292,282.578,35.9768,0,0.000885,0,0
0:2:25.587,283.338,36.0734,0,0.000885,0,0
0:2:25.885,284.103,36.1699,0,0.000885,0,0
0:2:26.187,284.103,36.1699,0,0.000885,0,0
0:2:26.486,285.393,36.3354,0,0.000885,0,0
0:2:26.776,286.154,36.4319,0,0.000885,0,0
0:2:27.075,286.038,36.4181,0,0.000885,0,0
0:2:27.370,286.274,36.4526,0,0.000885,0,0
0:2:27.666,287.622,36.6181,0,0.000885,0,0
0:2:27.965,288.739,36.7628,0,0.000885,0,0
0:2:28.268,289.263,36.8318,0,0.000885,0,0
0:2:28.568,289.148,36.818,0,0.000885,0,0
0:2:28.870,289.793,36.9007,0,0.000885,0,0
0:2:29.169,290.202,36.949,0,0.000885,0,0
0:2:29.472,291.083,37.0593,0,0.000885,0,0
0:2:29.773,292.021,37.1834,0,0.000885,0,0
0:2:30.074,292.137,37.1972,0,0.000885,0,0
0:2:30.374,292.724,37.2731,0,0.000885,0,0
0:2:30.674,293.311,37.3489,0,0.000885,0,0
0:2:30.969,293.778,37.4041,0,0.000885,0,0
0:2:31.266,294.543,37.5006,0,0.000885,0,0
0:2:31.571,295.424,37.6178,0,0.000885,0,0
0:2:31.885,295.54,37.6316,0,0.000885,0,0
0:2:32.181,296.772,37.7833,0,0.000885,0,0
0:2:32.477,296.888,37.804,0,0.000885,0,0
0:2:32.782,296.772,37.7833,0,0.000885,0,0
0:2:33.079,297.946,37.935,0,0.000885,0,0
0:2:33.374,298.707,38.0315,0,0.000885,0,0
0:2:33.674,299.588,38.1418,0,0.000885,0,0
0:2:33.986,299.236,38.1004,0,0.000885,0,0
0:2:34.287,300.348,38.2383,0,0.000885,0,0
0:2:34.589,301.581,38.3969,0,0.000885,0,0
0:2:34.891,302.052,38.459,0,0.000885,0,0
0:2:35.190,302.11,38.4659,0,0.000885,0,0
0:2:35.491,303.28,38.6175,0,0.000885,0,0
0:2:35.790,304.045,38.7141,0,0.000885,0,0
0:2:36.085,304.512,38.7692,0,0.000885,0,0
0:2:36.379,305.219,38.8589,0,0.000885,0,0
0:2:36.677,304.863,38.8175,0,0.000885,0,0
0:2:36.991,305.628,38.914,0,0.000885,0,0
0:2:37.290,306.158,38.983,0,0.000885,0,0
0:2:37.593,307.328,39.1277,0,0.000885,0,0
0:2:37.890,307.973,39.2105,0,0.000885,0,0
0:2:38.186,307.385,39.1346,0,0.000885,0,0
0:2:38.490,308.738,39.307,0,0.000885,0,0
0:2:38.790,309.441,39.3966,0,0.000885,0,0
0:2:39.092,310.143,39.4863,0,0.000885,0,0
0:2:39.394,310.379,39.5207,0,0.000885,0,0
0:2:39.694,311.26,39.6311,0,0.000885,0,0
0:2:39.994,312.314,39.7621,0,0.000885,0,0
0:2:40.295,312.781,39.8241,0,0.000885,0,0
0:2:40.587,312.43,39.7827,0,0.000885,0,0
0:2:40.886,313.426,39.9069,0,0.000885,0,0
0:2:41.189,314.6,40.0585,0,0.000885,0,0
0:2:41.487,315.539,40.1758,0,0.000885,0,0
0:2:41.792,315.717,40.1964,0,0.000885,0,0
0:2:42.087,315.775,40.2033,0,0.000885,0,0
0:2:42.386,316.011,40.2378,0,0.000885,0,0
0:2:42.676,317.243,40.3895,0,0.000885,0,0
0:2:42.978,317.594,40.4378,0,0.000885,0,0
0:2:43.280,318.413,40.5412,0,0.000885,0,0
0:2:43.577,318.355,40.5343,0,0.000885,0,0
0:2:43.873,319,40.617,0,0.000885,0,0
0:2:44.175,320.054,40.748,0,0.000885,0,0
0:2:44.478,320.699,40.8308,0,0.000885,0,0
0:2:44.778,320.526,40.8101,0,0.000885,0,0
0:2:45.079,321.873,40.9824,0,0.000885,0,0
0:2:45.380,322.167,41.0169,0,0.000885,0,0
0:2:45.676,322.518,41.0652,0,0.000885,0,0
0:2:45.975,324.044,41.2582,0,0.000885,0,0
0:2:46.288,323.986,41.2513,0,0.000885,0,0
0:2:46.588,324.338,41.2927,0,0.000885,0,0
0:2:46.890,325.512,41.4444,0,0.000885,0,0
0:2:47.189,326.682,41.5961,0,0.000885,0,0
0:2:47.486,326.451,41.5616,0,0.000885,0,0
0:2:47.788,326.918,41.6236,0,0.000885,0,0
0:2:48.088,327.62,41.7133,0,0.000885,0,0
0:2:48.391,328.15,41.7822,0,0.000885,0,0
0:2:48.690,329.088,41.8994,0,0.000885,0,0
0:2:48.982,329.262,41.9201,0,0.000885,0,0
0:2:49.282,329.791,41.9891,0,0.000885,0,0
0:2:49.589,330.085,42.0304,0,0.000885,0,0
0:2:49.890,331.317,42.1821,0,0.000885,0,0
0:2:50.190,331.259,42.1752,0,0.000885,0,0
0:2:50.490,332.607,42.3476,0,0.000885,0,0
0:2:50.787,333.194,42.4234,0,0.000885,0,0
0:2:51.093,334.013,42.5269,0,0.000885,0,0
0:2:51.388,333.661,42.4855,0,0.000885,0,0
0:2:51.688,334.72,42.6165,0,0.000885,0,0
0:2:51.990,335.423,42.7061,0,0.000885,0,0
0:2:52.288,335.013,42.6579,0,0.000885,0,0
0:2:52.593,336.01,42.782,0,0.000885,0,0
0:2:52.888,337.593,42.9819,0,0.000885,0,0
0:2:53.184,337.358,42.9543,0,0.000885,0,0
0:2:53.489,338.296,43.0715,0,0.000885,0,0
0:2:53.790,338.883,43.1474,0,0.000885,0,0
0:2:54.092,339.764,43.2577,0,0.000885,0,0
0:2:54.392,339.764,43.2577,0,0.000885,0,0
0:2:54.696,340.818,43.3956,0,0.000885,0,0
0:2:54.996,340.876,43.4025,0,0.000885,0,0
0:2:55.297,341.521,43.4852,0,0.000885,0,0
0:2:55.599,342.989,43.6714,0,0.000885,0,0
0:2:55.896,342.224,43.5749,0,0.000885,0,0
0:2:56.192,343.692,43.761,0,0.000885,0,0
0:2:56.496,344.808,43.8989,0,0.000885,0,0
0:2:56.793,344.452,43.8576,0,0.000885,0,0
0:2:57.087,345.275,43.961,0,0.000885,0,0
0:2:57.384,345.511,43.9886,0,0.000885,0,0
0:2:57.678,346.681,44.1402,0,0.000885,0,0
0:2:57.977,347.446,44.2368,0,0.000885,0,0
0:2:58.271,347.504,44.2437,0,0.000885,0,0
0:2:58.566,348.149,44.3264,0,0.000885,0,0
0:2:58.864,348.736,44.4022,0,0.000885,0,0
0:2:59.166,349.088,44.4505,0,0.000885,0,0
0:2:59.469,350.32,44.6022,0,0.000885,0,0
0:2:59.769,350.965,44.6849,0,0.000885,0,0
0:3:0.069,350.787,44.6642,0,0.000885,0,0
0:3:0.370,352.019,44.8228,0,0.000885,0,0
0:3:0.664,351.845,44.7952,0,0.000885,0,0
0:3:0.963,352.664,44.9056,0,0.000885,0,0
0:3:1.258,354.074,45.0848,0,0.000885,0,0
0:3:1.556,353.896,45.0572,0,0.000885,0,0
0:3:1.851,354.719,45.1676,0,0.000885,0,0
0:3:2.148,355.306,45.2365,0,0.000885,0,0
0:3:2.446,355.831,45.3055,0,0.000885,0,0
0:3:2.739,356.009,45.3261,0,0.000885,0,0
0:3:3.038,356.827,45.4296,0,0.000885,0,0
0:3:3.331,356.712,45.4158,0,0.000885,0,0
0:3:3.628,358.18,45.6019,0,0.000885,0,0
0:3:3.923,358.06,45.5881,0,0.000885,0,0
0:3:4.223,359.176,45.7329,0,0.000885,0,0
0:3:4.527,359.47,45.7674,0,0.000885,0,0
0:3:4.829,361.289,46.0018,0,0.000885,0,0
0:3:5.129,360.995,45.9605,0,0.000885,0,0
0:3:5.429,362.165,46.1121,0,0.000885,0,0
0:3:5.727,362.93,46.2087,0,0.000885,0,0
0:3:6.022,362.873,46.2018,0,0.000885,0,0
0:3:6.316,363.34,46.2638,0,0.000885,0,0
0:3:6.616,363.985,46.3466,0,0.000885,0,0
0:3:6.908,364.456,46.4017,0,0.000885,0,0
0:3:7.208,365.217,46.4982,0,0.000885,0,0
0:3:7.503,365.51,46.5396,0,0.000885,0,0
0:3:7.798,366.271,46.6361,0,0.000885,0,0
0:3:8.094,366.449,46.6568,0,0.000885,0,0
0:3:8.389,367.388,46.774,0,0.000885,0,0
0:3:8.686,368.148,46.8775,0,0.000885,0,0
0:3:8.990,368.384,46.905,0,0.000885,0,0
0:3:9.291,369.558,47.0567,0,0.000885,0,0
0:3:9.593,369.438,47.036,0,0.000885,0,0
0:3:9.896,370.79,47.2084,0,0.000885,0,0
0:3:10.196,371.022,47.2429,0,0.000885,0,0
0:3:10.498,372.08,47.3739,0,0.000885,0,0
0:3:10.796,372.08,47.3739,0,0.000885,0,0
0:3:11.091,373.135,47.5118,0,0.000885,0,0
0:3:11.385,373.077,47.5049,0,0.000885,0,0
0:3:11.693,374.015,47.6221,0,0.000885,0,0
0:3:11.996,374.189,47.6428,0,0.000885,0,0
0:3:12.297,375.363,47.7945,0,0.000885,0,0
0:3:12.590,375.305,47.7876,0,0.000885,0,0
0:3:12.889,376.711,47.9668,0,0.000885,0,0
0:3:13.182,376.244,47.9048,0,0.000885,0,0
0:3:13.477,378.063,48.1392,0,0.000885,0,0
0:3:13.773,378.063,48.1392,0,0.000885,0,0
0:3:14.076,379.233,48.284,0,0.000885,0,0
0:3:14.377,379.175,48.2771,0,0.000885,0,0
0:3:14.679,380.114,48.3943,0,0.000885,0,0
0:3:14.977,380.292,48.4219,0,0.000885,0,0
0:3:15.279,380.407,48.4357,0,0.000885,0,0
0:3:15.582,381.404,48.5598,0,0.000885,0,0
0:3:15.881,381.933,48.6287,0,0.000885,0,0
0:3:16.175,382.93,48.7528,0,0.000885,0,0
0:3:16.474,383.281,48.8011,0,0.000885,0,0
0:3:16.779,384.687,48.9804,0,0.000885,0,0
0:3:17.074,384.455,48.9528,0,0.000885,0,0
0:3:17.380,384.865,49.001,0,0.000885,0,0
0:3:17.683,386.212,49.1734,0,0.000885,0,0
0:3:17.982,386.155,49.1665,0,0.000885,0,0
0:3:18.287,386.977,49.2699,0,0.000885,0,0
0:3:18.594,387.329,49.3182,0,0.000885,0,0
0:3:18.891,387.854,49.3803,0,0.000885,0,0
0:3:19.194,388.792,49.5044,0,0.000885,0,0
0:3:19.496,388.735,49.4975,0,0.000885,0,0
0:3:19.796,389.437,49.5871,0,0.000885,0,0
0:3:20.097,390.376,49.7043,0,0.000885,0,0
0:3:20.396,391.435,49.8422,0,0.000885,0,0
0:3:20.692,391.786,49.8836,0,0.000885,0,0
0:3:20.992,392.253,49.9456,0,0.000885,0,0
0:3:21.283,392.84,50.0215,0,0.000885,0,0
0:3:21.583,393.605,50.118,0,0.000885,0,0
0:3:21.897,394.188,50.1869,0,0.000885,0,0
0:3:22.196,395.011,50.2973,0,0.000885,0,0
0:3:22.492,395.011,50.2973,0,0.000885,0,0
0:3:22.796,396.065,50.4283,0,0.000885,0,0
0:3:23.095,396.185,50.442,0,0.000885,0,0
0:3:23.390,396.71,50.511,0,0.000885,0,0
0:3:23.686,397.711,50.6351,0,0.000885,0,0
0:3:23.994,398.236,50.704,0,0.000885,0,0
0:3:24.296,399.117,50.8144,0,0.000885,0,0
0:3:24.597,399.584,50.8764,0,0.000885,0,0
0:3:24.899,400.113,50.9454,0,0.000885,0,0
0:3:25.198,400.585,51.0005,0,0.000885,0,0
0:3:25.500,401.403,51.1108,0,0.000885,0,0
0:3:25.796,401.287,51.0902,0,0.000885,0,0
0:3:26.094,402.168,51.2074,0,0.000885,0,0
0:3:26.386,402.462,51.2418,0,0.000885,0,0
0:3:26.686,403.222,51.3384,0,0.000885,0,0
0:3:26.992,403.165,51.3315,0,0.000885,0,0
0:3:27.296,404.219,51.4694,0,0.000885,0,0
0:3:27.595,405.335,51.6073,0,0.000885,0,0
0:3:27.887,406.212,51.7176,0,0.000885,0,0
0:3:28.186,406.741,51.7865,0,0.000885,0,0
0:3:28.492,407.035,51.8279,0,0.000885,0,0
0:3:28.786,407.212,51.8486,0,0.000885,0,0
0:3:29.086,407.857,51.9313,0,0.000885,0,0
0:3:29.386,408.502,52.014,0,0.000885,0,0
0:3:29.691,409.085,52.0899,0,0.000885,0,0
0:3:29.992,409.908,52.1933,0,0.000885,0,0
0:3:30.291,410.789,52.3036,0,0.000885,0,0
0:3:30.593,411.025,52.3312,0,0.000885,0,0
0:3:30.897,411.549,52.4002,0,0.000885,0,0
0:3:31.197,411.785,52.4277,0,0.000885,0,0
0:3:31.487,412.608,52.5381,0,0.000885,0,0
0:3:31.787,413.075,52.5932,0,0.000885,0,0
0:3:32.093,413.605,52.6622,0,0.000885,0,0
0:3:32.386,414.601,52.7863,0,0.000885,0,0
0:3:32.684,415.188,52.8621,0,0.000885,0,0
0:3:32.977,415.54,52.9104,0,0.000885,0,0
0:3:33.279,416.127,52.9793,0,0.000885,0,0
0:3:33.573,417.181,53.1172,0,0.000885,0,0
0:3:33.874,417.768,53.1931,0,0.000885,0,0
0:3:34.178,418.297,53.262,0,0.000885,0,0
0:3:34.479,418.413,53.2758,0,0.000885,0,0
0:3:34.781,419.352,53.393,0,0.000885,0,0
0:3:35.079,419.525,53.4137,0,0.000885,0,0
0:3:35.379,420.464,53.5378,0,0.000885,0,0
0:3:35.674,420.935,53.5929,0,0.000885,0,0
0:3:35.969,421.287,53.6412,0,0.000885,0,0
0:3:36.269,422.519,53.7998,0,0.000885,0,0
0:3:36.561,422.986,53.8549,0,0.000885,0,0
0:3:36.860,423.222,53.8894,0,0.000885,0,0
0:3:37.156,423.573,53.9308,0,0.000885,0,0
0:3:37.452,424.338,54.0273,0,0.000885,0,0
0:3:37.748,425.214,54.1376,0,0.000885,0,0
0:3:38.044,426.153,54.2617,0,0.000885,0,0
0:3:38.346,426.624,54.3169,0,0.000885,0,0
0:3:38.637,426.273,54.2755,0,0.000885,0,0
0:3:38.937,427.149,54.3858,0,0.000885,0,0
0:3:39.240,427.857,54.4755,0,0.000885,0,0
0:3:39.543,428.733,54.5858,0,0.000885,0,0
0:3:39.841,428.617,54.572,0,0.000885,0,0
0:3:40.142,429.556,54.6961,0,0.000885,0,0
0:3:40.441,430.494,54.8133,0,0.000885,0,0
0:3:40.736,430.904,54.8616,0,0.000885,0,0
0:3:41.031,431.784,54.9788,0,0.000885,0,0
0:3:41.328,431.9,54.9926,0,0.000885,0,0
0:3:41.622,432.372,55.0546,0,0.000885,0,0
0:3:41.921,433.074,55.1443,0,0.000885,0,0
0:3:42.213,433.662,55.2132,0,0.000885,0,0
0:3:42.514,434.013,55.2615,0,0.000885,0,0
0:3:42.809,434.542,55.3304,0,0.000885,0,0
0:3:43.104,435.481,55.4476,0,0.000885,0,0
0:3:43.402,435.423,55.4407,0,0.000885,0,0
0:3:43.697,436.477,55.5717,0,0.000885,0,0
0:3:43.998,436.944,55.6338,0,0.000885,0,0
0:3:44.301,437.709,55.7303,0,0.000885,0,0
0:3:44.602,438.412,55.82,0,0.000885,0,0
0:3:44.902,439.173,55.9165,0,0.000885,0,0
0:3:45.201,439.173,55.9165,0,0.000885,0,0
0:3:45.501,440.347,56.0682,0,0.000885,0,0
0:3:45.795,440.877,56.1371,0,0.000885,0,0
0:3:46.095,441.17,56.1716,0,0.000885,0,0
0:3:46.387,441.757,56.2474,0,0.000885,0,0
0:3:46.685,442.224,56.3026,0,0.000885,0,0
0:3:46.982,443.399,56.4543,0,0.000885,0,0
0:3:47.275,443.924,56.5232,0,0.000885,0,0
0:3:47.574,444.453,56.5922,0,0.000885,0,0
0:3:47.878,444.924,56.6473,0,0.000885,0,0
0:3:48.175,445.334,56.7025,0,0.000885,0,0
0:3:48.471,445.627,56.737,0,0.000885,0,0
0:3:48.767,446.624,56.868,0,0.000885,0,0
0:3:49.065,447.447,56.9714,0,0.000885,0,0
0:3:49.369,448.443,57.0955,0,0.000885,0,0
0:3:49.671,448.794,57.1437,0,0.000885,0,0
0:3:49.970,449.204,57.192,0,0.000885,0,0
0:3:50.271,449.555,57.2403,0,0.000885,0,0
0:3:50.571,450.378,57.3437,0,0.000885,0,0
0:3:50.866,450.845,57.4057,0,0.000885,0,0
0:3:51.164,451.259,57.454,0,0.000885,0,0
0:3:51.457,451.196,57.4471,0,0.000885,0,0
0:3:51.755,452.429,57.6057,0,0.000885,0,0
0:3:52.052,453.252,57.7091,0,0.000885,0,0
0:3:52.347,453.781,57.7781,0,0.000885,0,0
0:3:52.645,454.07,57.8125,0,0.000885,0,0
0:3:52.939,454.306,57.847,0,0.000885,0,0
0:3:53.239,454.893,57.916,0,0.000885,0,0
0:3:53.532,455.889,58.047,0,0.000885,0,0
0:3:53.831,456.948,58.178,0,0.000885,0,0
0:3:54.133,457.473,58.2469,0,0.000885,0,0
0:3:54.436,457.824,58.2952,0,0.000885,0,0
0:3:54.737,458.118,58.3296,0,0.000885,0,0
0:3:55.036,458.999,58.44,0,0.000885,0,0
0:3:55.337,459.822,58.5434,0,0.000885,0,0
0:3:55.632,460.346,58.6123,0,0.000885,0,0
0:3:55.927,460.818,58.6744,0,0.000885,0,0
0:3:56.224,461.405,58.7502,0,0.000885,0,0
0:3:56.517,462.166,58.8468,0,0.000885,0,0
0:3:56.818,462.753,58.9226,0,0.000885,0,0
0:3:57.111,463.514,59.0191,0,0.000885,0,0
0:3:57.409,463.985,59.0743,0,0.000885,0,0
0:3:57.706,464.337,59.1225,0,0.000885,0,0
0:3:58.001,464.866,59.1915,0,0.000885,0,0
0:3:58.300,465.862,59.3156,0,0.000885,0,0
0:3:58.602,466.329,59.3776,0,0.000885,0,0
0:3:58.902,466.801,59.4328,0,0.000885,0,0
0:3:59.204,467.094,59.4742,0,0.000885,0,0
0:3:59.507,467.677,59.55,0,0.000885,0,0
0:3:59.808,468.264,59.619,0,0.000885,0,0
0:4:0.108,468.794,59.6879,0,0.000885,0,0
0:4:0.408,469.323,59.7569,0,0.000885,0,0
0:4:0.701,469.79,59.8189,0,0.000885,0,0
0:4:1.000,470.964,59.9637,0,0.000885,0,0
0:4:1.294,471.489,60.0327,0,0.000885,0,0
0:4:1.589,471.961,60.0947,0,0.000885,0,0
0:4:1.899,472.312,60.1361,0,0.000885,0,0
0:4:2.200,472.784,60.1981,0,0.000885,0,0
0:4:2.499,474.074,60.3636,0,0.000885,0,0
0:4:2.794,474.247,60.3843,0,0.000885,0,0
0:4:3.100,474.541,60.4188,0,0.000885,0,0
0:4:3.397,475.421,60.5291,0,0.000885,0,0
0:4:3.690,476.24,60.6394,0,0.000885,0,0
0:4:3.991,477.121,60.7497,0,0.000885,0,0
0:4:4.291,477.472,60.7911,0,0.000885,0,0
0:4:4.595,477.414,60.7842,0,0.000885,0,0
0:4:4.894,477.766,60.8324,0,0.000885,0,0
0:4:5.196,478.998,60.991,0,0.000885,0,0
0:4:5.496,479.469,61.0462,0,0.000885,0,0
0:4:5.799,479.879,61.1013,0,0.000885,0,0
0:4:6.099,480.288,61.1496,0,0.000885,0,0
0:4:6.402,481.284,61.2806,0,0.000885,0,0
0:4:6.699,481.52,61.3082,0,0.000885,0,0
0:4:6.996,482.574,61.4461,0,0.000885,0,0
0:4:7.300,483.219,61.5288,0,0.000885,0,0
0:4:7.600,483.339,61.5426,0,0.000885,0,0
0:4:7.891,484.571,61.6943,0,0.000885,0,0
0:4:8.190,484.451,61.6805,0,0.000885,0,0
0:4:8.495,485.216,61.777,0,0.000885,0,0
0:4:8.797,485.861,61.8598,0,0.000885,0,0
0:4:9.099,486.386,61.9287,0,0.000885,0,0
0:4:9.401,487.151,62.0252,0,0.000885,0,0
0:4:9.700,487.445,62.0666,0,0.000885,0,0
0:4:10.001,487.739,62.1011,0,0.000885,0,0
0:4:10.299,488.557,62.2045,0,0.000885,0,0
0:4:10.592,489.086,62.2734,0,0.000885,0,0
0:4:10.888,490.083,62.3976,0,0.000885,0,0
0:4:11.186,490.434,62.4458,0,0.000885,0,0
0:4:11.490,491.493,62.5768,0,0.000885,0,0
0:4:11.788,491.493,62.5768,0,0.000885,0,0
0:4:12.091,492.547,62.7147,0,0.000885,0,0
0:4:12.400,493.192,62.7974,0,0.000885,0,0
0:4:12.698,493.014,62.7699,0,0.000885,0,0
0:4:12.999,493.37,62.8181,0,0.000885,0,0
0:4:13.300,494.891,63.0112,0,0.000885,0,0
0:4:13.603,495.011,63.025,0,0.000885,0,0
0:4:13.904,495.83,63.1284,0,0.000885,0,0
0:4:14.208,496.653,63.2387,0,0.000885,0,0
0:4:14.509,497.062,63.287,0,0.000885,0,0
0:4:14.809,497.356,63.3283,0,0.000885,0,0
0:4:15.109,498.001,63.4042,0,0.000885,0,0
0:4:15.411,498.646,63.4869,0,0.000885,0,0
0:4:15.704,499.469,63.5972,0,0.000885,0,0
0:4:15.999,499.936,63.6524,0,0.000885,0,0
0:4:16.298,501.226,63.8179,0,0.000885,0,0
0:4:16.603,501.933,63.9075,0,0.000885,0,0
0:4:16.902,502.164,63.9351,0,0.000885,0,0
0:4:17.192,502.049,63.9213,0,0.000885,0,0
0:4:17.503,502.871,64.0247,0,0.000885,0,0
0:4:17.799,503.868,64.1557,0,0.000885,0,0
0:4:18.092,504.277,64.204,0,0.000885,0,0
0:4:18.390,504.864,64.2798,0,0.000885,0,0
0:4:18.685,505.216,64.3281,0,0.000885,0,0
0:4:18.986,506.448,64.4798,0,0.000885,0,0
0:4:19.290,506.684,64.5142,0,0.000885,0,0
0:4:19.591,507.796,64.6521,0,0.000885,0,0
0:4:19.891,508.205,64.7073,0,0.000885,0,0
0:4:20.190,508.619,64.7625,0,0.000885,0,0
0:4:20.490,508.734,64.7762,0,0.000885,0,0
0:4:20.785,509.495,64.8728,0,0.000885,0,0
0:4:21.083,510.669,65.0176,0,0.000885,0,0
0:4:21.378,510.554,65.0038,0,0.000885,0,0
0:4:21.684,511.666,65.1486,0,0.000885,0,0
0:4:21.992,512.195,65.2175,0,0.000885,0,0
0:4:22.306,512.84,65.3002,0,0.000885,0,0
0:4:22.605,513.191,65.3416,0,0.000885,0,0
0:4:22.902,513.663,65.4037,0,0.000885,0,0
0:4:23.198,514.366,65.4933,0,0.000885,0,0
0:4:23.505,514.953,65.5622,0,0.000885,0,0
0:4:23.807,515.54,65.6381,0,0.000885,0,0
0:4:24.112,516.594,65.776,0,0.000885,0,0
0:4:24.412,517.181,65.8518,0,0.000885,0,0
0:4:24.713,517.124,65.8449,0,0.000885,0,0
0:4:25.013,517.769,65.9208,0,0.000885,0,0
0:4:25.307,518.236,65.9828,0,0.000885,0,0
0:4:25.608,519.583,66.1552,0,0.000885,0,0
0:4:25.900,519.997,66.2104,0,0.000885,0,0
0:4:26.201,520.642,66.2931,0,0.000885,0,0
0:4:26.503,520.936,66.3276,0,0.000885,0,0
0:4:26.800,521.109,66.3482,0,0.000885,0,0
0:4:27.097,521.403,66.3896,0,0.000885,0,0
0:4:27.391,522.341,66.5068,0,0.000885,0,0
0:4:27.690,523.044,66.5965,0,0.000885,0,0
0:4:27.982,523.28,66.624,0,0.000885,0,0
0:4:28.283,523.983,66.7137,0,0.000885,0,0
0:4:28.577,524.103,66.7275,0,0.000885,0,0
0:4:28.878,524.979,66.8447,0,0.000885,0,0
0:4:29.181,525.331,66.886,0,0.000885,0,0
0:4:29.481,525.393,66.8929,0,0.000885,0,0
0:4:29.781,526.563,67.0446,0,0.000885,0,0
0:4:30.082,527.915,67.217,0,0.000885,0,0
0:4:30.379,528.088,67.2377,0,0.000885,0,0
0:4:30.674,528.618,67.3066,0,0.000885,0,0
0:4:30.969,529.263,67.3894,0,0.000885,0,0
0:4:31.268,529.556,67.4238,0,0.000885,0,0
0:4:31.563,530.317,67.5204,0,0.000885,0,0
0:4:31.861,530.846,67.5893,0,0.000885,0,0
0:4:32.154,531.198,67.6376,0,0.000885,0,0
0:4:32.452,532.194,67.7617,0,0.000885,0,0
0:4:32.749,532.666,67.8237,0,0.000885,0,0
0:4:33.042,533.133,67.8789,0,0.000885,0,0
0:4:33.342,526.683,67.0584,0,0.000885,0,0
0:4:33.633,523.983,66.7137,0,0.000885,0,0
0:4:33.934,524.979,66.8447,0,0.000885,0,0
0:4:34.238,526.269,67.0101,0,0.000885,0,0
0:4:34.539,528.44,67.2859,0,0.000885,0,0
0:4:34.839,529.614,67.4307,0,0.000885,0,0
0:4:35.139,530.962,67.6031,0,0.000885,0,0
0:4:35.438,531.901,67.7272,0,0.000885,0,0
0:4:35.730,532.955,67.8582,0,0.000885,0,0
0:4:36.030,533.368,67.9134,0,0.000885,0,0
0:4:36.274,533.311,67.8996,0,0.000885,0,0