File: DataFile2021-06-09_061230.csv
Test ID:,Date Tested:,Time:,Test Type:,Diameter Avg. (mm):,Cyl. Corr. Factor:,Height (mm):,Age (days):,Weight (kN):,Break Type:,Ramp Rate (MPa/s):,Load at Break (kN):,Stress at Break (MPa):
12,6/9/2021,06:12,Cylinder,100,1,200,0,3.6,3,0.25,502.16,63.94
Sample Time,Load (kN),Stress (MPa),Long. Strain,Trans. Strain,Chan1 Deflection (mm),Chan2 Deflection (mm)
0:0:6.043,5.04428,0.641212,0,0.000885,0,0
0:0:6.345,9.96846,1.26864,0,0.000885,0,0
0:0:6.654,10.0307,1.27553,0,0.000885,0,0
0:0:6.948,10.262,1.31,0,0.000885,0,0
0:0:7.249,9.73716,1.24106,0,0.000885,0,0
0:0:7.542,9.73716,1.24106,0,0.000885,0,0
0:0:7.843,9.61706,1.22727,0,0.000885,0,0
0:0:8.138,9.38575,1.19279,0,0.000885,0,0
0:0:8.435,9.79498,1.24795,0,0.000885,0,0
0:0:8.743,9.44357,1.19969,0,0.000885,0,0
0:0:9.060,9.32347,1.1859,0,0.000885,0,0
0:0:9.362,10.7336,1.36516,0,0.000885,0,0
0:0:9.658,11.552,1.46858,0,0.000885,0,0
0:0:9.957,12.6107,1.60648,0,0.000885,0,0
0:0:10.257,13.1979,1.68232,0,0.000885,0,0
0:0:10.561,13.6649,1.73748,0,0.000885,0,0
0:0:10.863,14.0742,1.79264,0,0.000885,0,0
0:0:11.158,14.7192,1.87537,0,0.000885,0,0
0:0:11.461,15.4264,1.96501,0,0.000885,0,0
0:0:11.766,16.365,2.08222,0,0.000885,0,0
0:0:12.070,17.3036,2.20632,0,0.000885,0,0
0:0:12.374,17.7706,2.26148,0,0.000885,0,0
0:0:12.675,18.4156,2.34422,0,0.000885,0,0
0:0:12.978,19.0606,2.42695,0,0.000885,0,0
0:0:13.277,20.2928,2.58553,0,0.000885,0,0
0:0:13.576,20.4707,2.60622,0,0.000885,0,0
0:0:13.874,20.88,2.66138,0,0.000885,0,0
0:0:14.173,21.4093,2.72343,0,0.000885,0,0
0:0:14.473,21.6406,2.7579,0,0.000885,0,0
0:0:14.769,23.1085,2.94406,0,0.000885,0,0
0:0:15.068,22.9306,2.91648,0,0.000885,0,0
0:0:15.368,24.2206,3.08196,0,0.000885,0,0
0:0:15.664,24.1049,3.06817,0,0.000885,0,0
0:0:15.964,24.7499,3.1509,0,0.000885,0,0
0:0:16.262,24.9857,3.17848,0,0.000885,0,0
0:0:16.566,26.2178,3.33706,0,0.000885,0,0
0:0:16.872,26.805,3.4129,0,0.000885,0,0
0:0:17.175,27.0986,3.44738,0,0.000885,0,0
0:0:17.479,27.9749,3.56459,0,0.000885,0,0
0:0:17.781,28.2684,3.59906,0,0.000885,0,0
0:0:18.082,28.6821,3.65422,0,0.000885,0,0
0:0:18.379,29.4428,3.75075,0,0.000885,0,0
0:0:18.679,29.7364,3.78522,0,0.000885,0,0
0:0:18.978,30.6749,3.90243,0,0.000885,0,0
0:0:19.275,31.2043,3.97138,0,0.000885,0,0
0:0:19.578,31.6713,4.03343,0,0.000885,0,0
0:0:19.875,32.2007,4.10238,0,0.000885,0,0
0:0:20.176,33.3127,4.24028,0,0.000885,0,0
0:0:20.471,33.9577,4.32301,0,0.000885,0,0
0:0:20.772,34.4292,4.38507,0,0.000885,0,0
0:0:21.070,35.1321,4.4747,0,0.000885,0,0
0:0:21.365,35.4256,4.50917,0,0.000885,0,0
0:0:21.668,35.8927,4.57122,0,0.000885,0,0
0:0:21.972,36.3064,4.61949,0,0.000885,0,0
0:0:22.277,37.1249,4.7298,0,0.000885,0,0
0:0:22.580,37.3028,4.75049,0,0.000885,0,0
0:0:22.882,38.6506,4.92286,0,0.000885,0,0
0:0:23.187,39.5313,5.03317,0,0.000885,0,0
0:0:23.481,39.647,5.04696,0,0.000885,0,0
0:0:23.785,39.9984,5.09523,0,0.000885,0,0
0:0:24.081,40.7012,5.18486,0,0.000885,0,0
0:0:24.379,41.582,5.29517,0,0.000885,0,0
0:0:24.680,42.0535,5.35723,0,0.000885,0,0
0:0:24.975,42.1691,5.37102,0,0.000885,0,0
0:0:25.278,42.6985,5.43307,0,0.000885,0,0
0:0:25.573,43.517,5.54338,0,0.000885,0,0
0:0:25.875,43.8105,5.57786,0,0.000885,0,0
0:0:26.173,44.5178,5.66749,0,0.000885,0,0
0:0:26.476,45.3941,5.77781,0,0.000885,0,0
0:0:26.782,45.8656,5.83986,0,0.000885,0,0
0:0:27.083,47.0978,5.99844,0,0.000885,0,0
0:0:27.387,47.2713,6.01912,0,0.000885,0,0
0:0:27.689,48.2098,6.13633,0,0.000885,0,0
0:0:27.989,48.4456,6.17081,0,0.000885,0,0
0:0:28.288,49.2685,6.27423,0,0.000885,0,0
0:0:28.582,49.4998,6.30181,0,0.000885,0,0
0:0:28.886,49.8512,6.35007,0,0.000885,0,0
0:0:29.182,50.732,6.46039,0,0.000885,0,0
0:0:29.481,50.9677,6.48797,0,0.000885,0,0
0:0:29.780,51.9063,6.61207,0,0.000885,0,0
0:0:30.079,52.3734,6.66723,0,0.000885,0,0
0:0:30.380,53.2541,6.77755,0,0.000885,0,0
0:0:30.675,53.7256,6.8396,0,0.000885,0,0
0:0:30.977,54.077,6.88786,0,0.000885,0,0
0:0:31.275,54.5441,6.94302,0,0.000885,0,0
0:0:31.578,55.4827,7.06713,0,0.000885,0,0
0:0:31.884,55.7763,7.1016,0,0.000885,0,0
0:0:32.188,56.5992,7.20502,0,0.000885,0,0
0:0:32.490,57.5956,7.33602,0,0.000885,0,0
0:0:32.793,58.0626,7.39118,0,0.000885,0,0
0:0:33.093,58.592,7.46013,0,0.000885,0,0
0:0:33.391,59.1213,7.52907,0,0.000885,0,0
0:0:33.689,59.4727,7.57044,0,0.000885,0,0
0:0:33.989,60.0599,7.64629,0,0.000885,0,0
0:0:34.286,61.1719,7.79108,0,0.000885,0,0
0:0:34.588,61.1719,7.79108,0,0.000885,0,0
0:0:34.883,61.5234,7.83244,0,0.000885,0,0
0:0:35.182,62.2884,7.92897,0,0.000885,0,0
0:0:35.481,63.1069,8.03239,0,0.000885,0,0
0:0:35.778,63.6363,8.10134,0,0.000885,0,0
0:0:36.079,63.9298,8.14271,0,0.000885,0,0
0:0:36.375,64.6327,8.23234,0,0.000885,0,0
0:0:36.678,65.8648,8.38402,0,0.000885,0,0
0:0:36.983,66.1584,8.42539,0,0.000885,0,0
0:0:37.286,66.8034,8.50813,0,0.000885,0,0
0:0:37.589,67.2705,8.56329,0,0.000885,0,0
0:0:37.891,67.6219,8.61155,0,0.000885,0,0
0:0:38.192,68.4448,8.71497,0,0.000885,0,0
0:0:38.488,68.5604,8.72876,0,0.000885,0,0
0:0:38.788,69.032,8.79082,0,0.000885,0,0
0:0:39.087,70.3798,8.96318,0,0.000885,0,0
0:0:39.382,71.0248,9.04592,0,0.000885,0,0
0:0:39.685,71.4384,9.09418,0,0.000885,0,0
0:0:39.981,71.8477,9.14934,0,0.000885,0,0
0:0:40.281,72.6661,9.25276,0,0.000885,0,0
0:0:40.578,73.022,9.29413,0,0.000885,0,0
0:0:40.877,73.6047,9.36998,0,0.000885,0,0
0:0:41.178,73.8983,9.41134,0,0.000885,0,0
0:0:41.472,74.8369,9.52855,0,0.000885,0,0
0:0:41.776,75.3662,9.5975,0,0.000885,0,0
0:0:42.080,75.9534,9.67334,0,0.000885,0,0
0:0:42.386,76.6562,9.76298,0,0.000885,0,0
0:0:42.689,77.0654,9.81124,0,0.000885,0,0
0:0:42.990,77.359,9.85261,0,0.000885,0,0
0:0:43.295,78.1819,9.95603,0,0.000885,0,0
0:0:43.591,79.0627,10.0663,0,0.000885,0,0
0:0:43.890,79.7655,10.156,0,0.000885,0,0
0:0:44.189,80.1169,10.1973,0,0.000885,0,0
0:0:44.486,80.4683,10.2456,0,0.000885,0,0
0:0:44.786,81.1711,10.3352,0,0.000885,0,0
0:0:45.082,81.9362,10.4318,0,0.000885,0,0
0:0:45.384,82.4033,10.4938,0,0.000885,0,0
0:0:45.679,83.1061,10.5835,0,0.000885,0,0
0:0:45.979,83.7511,10.6662,0,0.000885,0,0
0:0:46.278,84.4584,10.7558,0,0.000885,0,0
0:0:46.581,85.3347,10.8661,0,0.000885,0,0
0:0:46.888,85.8062,10.9282,0,0.000885,0,0
0:0:47.190,85.9797,10.9489,0,0.000885,0,0
0:0:47.492,86.6869,11.0385,0,0.000885,0,0
0:0:47.796,86.9805,11.073,0,0.000885,0,0
0:0:48.092,87.3898,11.1281,0,0.000885,0,0
0:0:48.394,88.5641,11.2729,0,0.000885,0,0
0:0:48.689,88.9733,11.3281,0,0.000885,0,0
0:0:48.989,89.8541,11.4384,0,0.000885,0,0
0:0:49.286,90.2633,11.4936,0,0.000885,0,0
0:0:49.585,90.6725,11.5418,0,0.000885,0,0
0:0:49.883,91.3175,11.6246,0,0.000885,0,0
0:0:50.180,92.0826,11.7211,0,0.000885,0,0
0:0:50.481,92.4919,11.7762,0,0.000885,0,0
0:0:50.776,92.8433,11.8245,0,0.000885,0,0
0:0:51.077,93.3726,11.8866,0,0.000885,0,0
0:0:51.374,94.4847,12.0314,0,0.000885,0,0
0:0:51.677,94.8361,12.0727,0,0.000885,0,0
0:0:51.983,95.7168,12.1899,0,0.000885,0,0
0:0:52.287,95.8948,12.2106,0,0.000885,0,0
0:0:52.589,96.8333,12.3278,0,0.000885,0,0
0:0:52.892,97.3582,12.3968,0,0.000885,0,0
0:0:53.191,98.0655,12.4864,0,0.000885,0,0
0:0:53.490,98.4747,12.5416,0,0.000885,0,0
0:0:53.788,98.8261,12.5829,0,0.000885,0,0
0:0:54.089,99.8225,12.707,0,0.000885,0,0
0:0:54.382,100.174,12.7553,0,0.000885,0,0
0:0:54.685,100.703,12.8242,0,0.000885,0,0
0:0:54.980,100.939,12.8518,0,0.000885,0,0
0:0:55.277,102.287,13.0242,0,0.000885,0,0
0:0:55.578,102.638,13.0656,0,0.000885,0,0
0:0:55.873,103.283,13.1483,0,0.000885,0,0
0:0:56.176,103.755,13.2104,0,0.000885,0,0
0:0:56.470,104.458,13.3,0,0.000885,0,0
0:0:56.773,105.045,13.3758,0,0.000885,0,0
0:0:57.077,105.103,13.3827,0,0.000885,0,0
0:0:57.381,106.393,13.5482,0,0.000885,0,0
0:0:57.685,106.393,13.5482,0,0.000885,0,0
0:0:57.987,106.686,13.5827,0,0.000885,0,0
0:0:58.288,107.74,13.7206,0,0.000885,0,0
0:0:58.586,108.505,13.8171,0,0.000885,0,0
0:0:58.885,109.618,13.955,0,0.000885,0,0
0:0:59.186,110.44,14.0584,0,0.000885,0,0
0:0:59.479,110.089,14.017,0,0.000885,0,0
0:0:59.781,110.263,14.0377,0,0.000885,0,0
0:1:0.076,110.32,14.0446,0,0.000885,0,0
0:1:0.376,111.553,14.2032,0,0.000885,0,0
0:1:0.674,112.433,14.3135,0,0.000885,0,0
0:1:0.972,113.194,14.41,0,0.000885,0,0
0:1:1.273,113.781,14.4859,0,0.000885,0,0
0:1:1.579,114.84,14.6238,0,0.000885,0,0
0:1:1.881,115.485,14.7065,0,0.000885,0,0
0:1:2.186,115.543,14.7134,0,0.000885,0,0
0:1:2.488,116.303,14.8099,0,0.000885,0,0
0:1:2.792,116.948,14.8927,0,0.000885,0,0
0:1:3.087,116.597,14.8444,0,0.000885,0,0
0:1:3.390,117.651,14.9823,0,0.000885,0,0
0:1:3.682,118.18,15.0444,0,0.000885,0,0
0:1:3.982,118.883,15.134,0,0.000885,0,0
0:1:4.280,119.297,15.1892,0,0.000885,0,0
0:1:4.577,119.942,15.2719,0,0.000885,0,0
0:1:4.878,120.587,15.3546,0,0.000885,0,0
0:1:5.174,121.112,15.4236,0,0.000885,0,0
0:1:5.476,121.992,15.5339,0,0.000885,0,0
0:1:5.771,122.695,15.6235,0,0.000885,0,0
0:1:6.068,123.282,15.6994,0,0.000885,0,0
0:1:6.369,123.403,15.7132,0,0.000885,0,0
0:1:6.672,123.812,15.7614,0,0.000885,0,0
0:1:6.978,124.693,15.8786,0,0.000885,0,0
0:1:7.282,125.689,16.0027,0,0.000885,0,0
0:1:7.582,125.983,16.0372,0,0.000885,0,0
0:1:7.886,126.57,16.113,0,0.000885,0,0
0:1:8.182,127.446,16.2303,0,0.000885,0,0
0:1:8.486,128.269,16.3337,0,0.000885,0,0
0:1:8.780,128.442,16.3544,0,0.000885,0,0
0:1:9.079,128.914,16.4164,0,0.000885,0,0
0:1:9.379,129.675,16.5129,0,0.000885,0,0
0:1:9.674,130.088,16.5612,0,0.000885,0,0
0:1:9.976,130.907,16.6646,0,0.000885,0,0
0:1:10.270,131.2,16.706,0,0.000885,0,0
0:1:10.572,132.317,16.8439,0,0.000885,0,0
0:1:10.869,133.02,16.9335,0,0.000885,0,0
0:1:11.165,133.255,16.968,0,0.000885,0,0
0:1:11.466,133.722,17.0232,0,0.000885,0,0
0:1:11.770,134.074,17.0714,0,0.000885,0,0
0:1:12.072,134.661,17.1473,0,0.000885,0,0
0:1:12.376,134.897,17.1748,0,0.000885,0,0
0:1:12.678,135.248,17.2231,0,0.000885,0,0
0:1:12.981,136.187,17.3403,0,0.000885,0,0
0:1:13.277,137.299,17.4851,0,0.000885,0,0
0:1:13.578,138.357,17.6161,0,0.000885,0,0
0:1:13.876,138.767,17.6713,0,0.000885,0,0
0:1:14.175,139.647,17.7816,0,0.000885,0,0
0:1:14.475,139.941,17.8161,0,0.000885,0,0
0:1:14.771,140.528,17.8919,0,0.000885,0,0
0:1:15.073,140.76,17.9195,0,0.000885,0,0
0:1:15.367,141.347,17.9953,0,0.000885,0,0
0:1:15.667,142.17,18.0987,0,0.000885,0,0
0:1:15.966,142.988,18.2091,0,0.000885,0,0
0:1:16.263,142.815,18.1815,0,0.000885,0,0
0:1:16.565,143.575,18.278,0,0.000885,0,0
0:1:16.869,144.34,18.3745,0,0.000885,0,0
0:1:17.174,144.928,18.4504,0,0.000885,0,0
0:1:17.475,145.63,18.54,0,0.000885,0,0
0:1:17.778,145.804,18.5676,0,0.000885,0,0
0:1:18.080,146.978,18.7124,0,0.000885,0,0
0:1:18.377,147.507,18.7813,0,0.000885,0,0
0:1:18.678,147.917,18.8365,0,0.000885,0,0
0:1:18.975,148.504,18.9054,0,0.000885,0,0
0:1:19.273,149.029,18.9744,0,0.000885,0,0
0:1:19.573,149.265,19.002,0,0.000885,0,0
0:1:19.867,149.967,19.0916,0,0.000885,0,0
0:1:20.170,150.612,19.1743,0,0.000885,0,0
0:1:20.467,151.613,19.3053,0,0.000885,0,0
0:1:20.765,152.08,19.3605,0,0.000885,0,0
0:1:21.064,152.432,19.4087,0,0.000885,0,0
0:1:21.360,152.845,19.4639,0,0.000885,0,0
0:1:21.662,153.779,19.5811,0,0.000885,0,0
0:1:21.967,154.193,19.6294,0,0.000885,0,0
0:1:22.270,154.487,19.6707,0,0.000885,0,0
0:1:22.573,155.892,19.85,0,0.000885,0,0
0:1:22.875,156.364,19.9121,0,0.000885,0,0
0:1:23.177,156.595,19.9396,0,0.000885,0,0
0:1:23.474,157.182,20.0155,0,0.000885,0,0
0:1:23.774,157.77,20.0844,0,0.000885,0,0
0:1:24.073,158.824,20.2223,0,0.000885,0,0
0:1:24.370,159.998,20.374,0,0.000885,0,0
0:1:24.672,160.407,20.4223,0,0.000885,0,0
0:1:24.964,159.647,20.3257,0,0.000885,0,0
0:1:25.266,160.879,20.4843,0,0.000885,0,0
0:1:25.564,161.115,20.5119,0,0.000885,0,0
0:1:25.861,161.76,20.5946,0,0.000885,0,0
0:1:26.162,162.636,20.705,0,0.000885,0,0
0:1:26.466,163.107,20.767,0,0.000885,0,0
0:1:26.770,163.574,20.8291,0,0.000885,0,0
0:1:27.073,164.513,20.9463,0,0.000885,0,0
0:1:27.375,165.042,21.0152,0,0.000885,0,0
0:1:27.678,165.514,21.0704,0,0.000885,0,0
0:1:27.975,166.626,21.2152,0,0.000885,0,0
0:1:28.277,166.742,21.229,0,0.000885,0,0
0:1:28.572,167.742,21.36,0,0.000885,0,0
0:1:28.872,167.916,21.3806,0,0.000885,0,0
0:1:29.171,168.681,21.4772,0,0.000885,0,0
0:1:29.466,169.264,21.553,0,0.000885,0,0
0:1:29.769,169.851,21.6289,0,0.000885,0,0
0:1:30.065,170.029,21.6495,0,0.000885,0,0
0:1:30.365,170.789,21.7461,0,0.000885,0,0
0:1:30.663,171.434,21.8288,0,0.000885,0,0
0:1:30.957,171.964,21.8977,0,0.000885,0,0
0:1:31.261,172.667,21.9874,0,0.000885,0,0
0:1:31.566,173.663,22.1115,0,0.000885,0,0
0:1:31.869,174.135,22.1735,0,0.000885,0,0
0:1:32.173,175.247,22.3114,0,0.000885,0,0
0:1:32.474,175.189,22.3045,0,0.000885,0,0
0:1:32.776,174.486,22.2149,0,0.000885,0,0
0:1:33.073,175.776,22.3804,0,0.000885,0,0
0:1:33.376,176.537,22.4769,0,0.000885,0,0
0:1:33.673,177.008,22.539,0,0.000885,0,0
0:1:33.972,178.004,22.6631,0,0.000885,0,0
0:1:34.270,178.12,22.6769,0,0.000885,0,0
0:1:34.565,178.765,22.7596,0,0.000885,0,0
0:1:34.867,179.53,22.8561,0,0.000885,0,0
0:1:35.164,180.527,22.9871,0,0.000885,0,0
0:1:35.463,181.287,23.0836,0,0.000885,0,0
0:1:35.763,181.759,23.1388,0,0.000885,0,0
0:1:36.058,182.284,23.2078,0,0.000885,0,0
0:1:36.362,183.049,23.3043,0,0.000885,0,0
0:1:36.666,182.697,23.2629,0,0.000885,0,0
0:1:36.968,183.516,23.3663,0,0.000885,0,0
0:1:37.272,183.752,23.3939,0,0.000885,0,0
0:1:37.574,184.984,23.5525,0,0.000885,0,0
0:1:37.877,185.864,23.6628,0,0.000885,0,0
0:1:38.172,186.332,23.7249,0,0.000885,0,0
0:1:38.473,186.509,23.7455,0,0.000885,0,0
0:1:38.770,187.154,23.8283,0,0.000885,0,0
0:1:39.067,187.622,23.8903,0,0.000885,0,0
0:1:39.368,187.915,23.9248,0,0.000885,0,0
0:1:39.663,188.738,24.0282,0,0.000885,0,0
0:1:39.965,189.032,24.0696,0,0.000885,0,0
0:1:40.270,190.437,24.2489,0,0.000885,0,0
0:1:40.569,190.789,24.2902,0,0.000885,0,0
0:1:40.869,191.727,24.4143,0,0.000885,0,0
0:1:41.164,191.963,24.4419,0,0.000885,0,0
0:1:41.463,192.666,24.5315,0,0.000885,0,0
0:1:41.766,193.724,24.6625,0,0.000885,0,0
0:1:42.067,194.076,24.7108,0,0.000885,0,0
0:1:42.369,194.134,24.7177,0,0.000885,0,0
0:1:42.668,194.427,24.7522,0,0.000885,0,0
0:1:42.969,195.246,24.8625,0,0.000885,0,0
0:1:43.262,196.184,24.9797,0,0.000885,0,0
0:1:43.561,196.892,25.0693,0,0.000885,0,0
0:1:43.865,197.243,25.1107,0,0.000885,0,0
0:1:44.162,197.83,25.1865,0,0.000885,0,0
0:1:44.469,198.769,25.3107,0,0.000885,0,0
0:1:44.764,199.294,25.3727,0,0.000885,0,0
0:1:45.063,200.059,25.4692,0,0.000885,0,0
0:1:45.363,200.29,25.5037,0,0.000885,0,0
0:1:45.664,200.877,25.5795,0,0.000885,0,0
0:1:45.969,201.464,25.6485,0,0.000885,0,0
0:1:46.264,202.167,25.7381,0,0.000885,0,0
0:1:46.571,202.754,25.814,0,0.000885,0,0
0:1:46.873,203.342,25.8898,0,0.000885,0,0
0:1:47.177,204.222,26.0001,0,0.000885,0,0
0:1:47.476,204.454,26.0346,0,0.000885,0,0
0:1:47.777,205.099,26.1173,0,0.000885,0,0
0:1:48.078,205.628,26.1794,0,0.000885,0,0
0:1:48.373,206.273,26.2621,0,0.000885,0,0
0:1:48.672,206.918,26.3449,0,0.000885,0,0
0:1:48.965,207.389,26.4069,0,0.000885,0,0
0:1:49.263,207.505,26.4207,0,0.000885,0,0
0:1:49.556,208.034,26.4897,0,0.000885,0,0
0:1:49.853,208.386,26.531,0,0.000885,0,0
0:1:50.150,210.143,26.7586,0,0.000885,0,0
0:1:50.464,210.672,26.8206,0,0.000885,0,0
0:1:50.763,211.553,26.9378,0,0.000885,0,0
0:1:51.066,211.259,26.8964,0,0.000885,0,0
0:1:51.368,212.256,27.0274,0,0.000885,0,0
0:1:51.669,212.314,27.0343,0,0.000885,0,0
0:1:51.972,212.959,27.1171,0,0.000885,0,0
0:1:52.272,213.666,27.2067,0,0.000885,0,0
0:1:52.572,214.191,27.2688,0,0.000885,0,0
0:1:52.871,214.778,27.3446,0,0.000885,0,0
0:1:53.167,215.481,27.4342,0,0.000885,0,0
0:1:53.463,216.01,27.5032,0,0.000885,0,0
0:1:53.769,217.006,27.6273,0,0.000885,0,0
0:1:54.062,217.3,27.6687,0,0.000885,0,0
0:1:54.364,218.181,27.779,0,0.000885,0,0
0:1:54.666,219.062,27.8893,0,0.000885,0,0
0:1:54.963,219.177,27.9031,0,0.000885,0,0
0:1:55.258,219.471,27.9445,0,0.000885,0,0
0:1:55.553,220.116,28.0272,0,0.000885,0,0
0:1:55.850,220.997,28.1375,0,0.000885,0,0
0:1:56.153,221.699,28.2271,0,0.000885,0,0
0:1:56.452,222.051,28.2754,0,0.000885,0,0
0:1:56.754,222.811,28.3719,0,0.000885,0,0
0:1:57.055,223.047,28.3995,0,0.000885,0,0
0:1:57.356,223.986,28.5167,0,0.000885,0,0
0:1:57.655,223.986,28.5167,0,0.000885,0,0
0:1:57.957,224.751,28.6132,0,0.000885,0,0
0:1:58.250,225.747,28.7442,0,0.000885,0,0
0:1:58.549,226.214,28.7994,0,0.000885,0,0
0:1:58.853,226.566,28.8477,0,0.000885,0,0
0:1:59.149,227.211,28.9304,0,0.000885,0,0
0:1:59.446,227.682,28.9925,0,0.000885,0,0
0:1:59.740,228.385,29.0821,0,0.000885,0,0
0:2:0.041,229.088,29.1717,0,0.000885,0,0
0:2:0.333,229.791,29.2613,0,0.000885,0,0
0:2:0.632,230.378,29.3303,0,0.000885,0,0
0:2:0.927,231.143,29.4268,0,0.000885,0,0
0:2:1.223,231.61,29.4889,0,0.000885,0,0
0:2:1.521,231.904,29.5302,0,0.000885,0,0
0:2:1.823,232.669,29.6268,0,0.000885,0,0
0:2:2.126,232.9,29.6544,0,0.000885,0,0
0:2:2.426,233.429,29.7233,0,0.000885,0,0
0:2:2.726,234.777,29.8957,0,0.000885,0,0
0:2:3.028,235.249,29.9508,0,0.000885,0,0
0:2:3.320,235.951,30.0405,0,0.000885,0,0
0:2:3.619,236.361,30.0956,0,0.000885,0,0
0:2:3.913,236.712,30.137,0,0.000885,0,0
0:2:4.212,237.064,30.1852,0,0.000885,0,0
0:2:4.508,237.593,30.2542,0,0.000885,0,0
0:2:4.805,238.238,30.33,0,0.000885,0,0
0:2:5.103,238.589,30.3783,0,0.000885,0,0
0:2:5.396,239.292,30.4679,0,0.000885,0,0
0:2:5.696,240.115,30.5714,0,0.000885,0,0
0:2:5.989,240.876,30.6679,0,0.000885,0,0
0:2:6.290,241.405,30.7368,0,0.000885,0,0
0:2:6.593,241.934,30.8058,0,0.000885,0,0
0:2:6.895,242.459,30.8678,0,0.000885,0,0
0:2:7.197,243.34,30.985,0,0.000885,0,0
0:2:7.496,243.811,31.0402,0,0.000885,0,0
0:2:7.795,244.63,31.1505,0,0.000885,0,0
0:2:8.091,245.044,31.1988,0,0.000885,0,0
0:2:8.388,244.981,31.1919,0,0.000885,0,0
0:2:8.685,245.689,31.2815,0,0.000885,0,0
0:2:8.977,246.214,31.3505,0,0.000885,0,0
0:2:9.279,247.094,31.4608,0,0.000885,0,0
0:2:9.572,247.855,31.5573,0,0.000885,0,0
0:2:9.871,248.504,31.64,0,0.000885,0,0
0:2:10.167,249.029,31.709,0,0.000885,0,0
0:2:10.472,249.794,31.8055,0,0.000885,0,0
0:2:10.770,250.613,31.9089,0,0.000885,0,0
0:2:11.070,250.671,31.9158,0,0.000885,0,0
0:2:11.372,251.729,32.0537,0,0.000885,0,0
0:2:11.675,251.961,32.0813,0,0.000885,0,0
0:2:11.976,252.548,32.1571,0,0.000885,0,0
0:2:12.276,252.784,32.1847,0,0.000885,0,0
0:2:12.576,253.722,32.3019,0,0.000885,0,0
0:2:12.878,253.958,32.3364,0,0.000885,0,0
0:2:13.172,254.251,32.3709,0,0.000885,0,0
0:2:13.471,255.128,32.4812,0,0.000885,0,0
0:2:13.766,255.835,32.5708,0,0.000885,0,0
0:2:14.071,256.596,32.6674,0,0.000885,0,0
0:2:14.369,257.067,32.7294,0,0.000885,0,0
0:2:14.672,257.592,32.7984,0,0.000885,0,0
0:2:14.971,258.179,32.8742,0,0.000885,0,0
0:2:15.265,259.296,33.0121,0,0.000885,0,0
0:2:15.562,259.763,33.0742,0,0.000885,0,0
0:2:15.869,260.523,33.1707,0,0.000885,0,0
0:2:16.162,261.462,33.2879,0,0.000885,0,0
0:2:16.460,261.756,33.3293,0,0.000885,0,0
0:2:16.762,261.934,33.3499,0,0.000885,0,0
0:2:17.062,262.227,33.3844,0,0.000885,0,0
0:2:17.366,262.814,33.4603,0,0.000885,0,0
0:2:17.666,262.988,33.4878,0,0.000885,0,0
0:2:17.968,263.575,33.5568,0,0.000885,0,0
0:2:18.271,265.043,33.7429,0,0.000885,0,0
0:2:18.571,265.336,33.7843,0,0.000885,0,0
0:2:18.863,265.919,33.8602,0,0.000885,0,0
0:2:19.172,266.155,33.8877,0,0.000885,0,0
0:2:19.469,267.093,34.0049,0,0.000885,0,0
0:2:19.773,268.09,34.1359,0,0.000885,0,0
0:2:20.072,268.619,34.2049,0,0.000885,0,0
0:2:20.362,269.206,34.2738,0,0.000885,0,0
0:2:20.661,269.736,34.3428,0,0.000885,0,0
0:2:20.968,270.261,34.4117,0,0.000885,0,0
0:2:21.268,270.381,34.4255,0,0.000885,0,0
0:2:21.571,270.963,34.5014,0,0.000885,0,0
0:2:21.873,271.729,34.5979,0,0.000885,0,0
0:2:22.172,272.489,34.6944,0,0.000885,0,0
0:2:22.470,272.783,34.7289,0,0.000885,0,0
0:2:22.768,273.37,34.8047,0,0.000885,0,0
0:2:23.063,273.957,34.8806,0,0.000885,0,0
0:2:23.359,274.486,34.9495,0,0.000885,0,0
0:2:23.656,275.483,35.0736,0,0.000885,0,0
0:2:23.950,276.07,35.1495,0,0.000885,0,0
0:2:24.250,276.946,35.2598,0,0.000885,0,0
0:2:24.553,277.591,35.3425,0,0.000885,0,0
0:2:24.850,278.005,35.3977,0,0.000885,0,0
0:2:25.149,278.881,35.508,0,0.000885,0,0
0:2:25.452,279.589,35.5976,0,0.000885,0,0
0:2:25.750,280.113,35.6666,0,0.000885,0,0
0:2:26.063,280.234,35.6804,0,0.000885,0,0
0:2:26.363,280.643,35.7355,0,0.000885,0,0
0:2:26.669,282.168,35.9286,0,0.000885,0,0
0:2:26.969,282.462,35.9631,0,0.000885,0,0
0:2:27.269,282.404,35.9562,0,0.000885,0,0
0:2:27.569,282.871,36.0182,0,0.000885,0,0
0:2:27.868,283.694,36.1216,0,0.000885,0,0
0:2:28.172,284.277,36.1975,0,0.000885,0,0
0:2:28.469,284.397,36.2113,0,0.000885,0,0
0:2:28.763,284.984,36.2871,0,0.000885,0,0
0:2:29.068,285.923,36.4043,0,0.000885,0,0
0:2:29.369,286.332,36.4595,0,0.000885,0,0
0:2:29.672,287.093,36.556,0,0.000885,0,0
0:2:29.969,287.738,36.6387,0,0.000885,0,0
0:2:30.267,288.618,36.7491,0,0.000885,0,0
0:2:30.571,289.384,36.8456,0,0.000885,0,0
0:2:30.869,289.851,36.9076,0,0.000885,0,0
0:2:31.170,290.38,36.9697,0,0.000885,0,0
0:2:31.471,290.553,36.9973,0,0.000885,0,0
0:2:31.772,290.789,37.0248,0,0.000885,0,0
0:2:32.075,292.431,37.2317,0,0.000885,0,0
0:2:32.376,292.96,37.3006,0,0.000885,0,0
0:2:32.675,292.902,37.2937,0,0.000885,0,0
0:2:32.976,293.311,37.3489,0,0.000885,0,0
0:2:33.269,293.956,37.4247,0,0.000885,0,0
0:2:33.567,294.895,37.5488,0,0.000885,0,0
0:2:33.873,295.718,37.6523,0,0.000885,0,0
0:2:34.168,295.776,37.6592,0,0.000885,0,0
0:2:34.477,296.421,37.7419,0,0.000885,0,0
0:2:34.769,297.301,37.8522,0,0.000885,0,0
0:2:35.070,298.004,37.9418,0,0.000885,0,0
0:2:35.373,298.178,37.9625,0,0.000885,0,0
0:2:35.671,298.707,38.0315,0,0.000885,0,0
0:2:35.969,299.174,38.0935,0,0.000885,0,0
0:2:36.272,300.348,38.2383,0,0.000885,0,0
0:2:36.571,300.584,38.2728,0,0.000885,0,0
0:2:36.874,301.229,38.3555,0,0.000885,0,0
0:2:37.175,301.932,38.4452,0,0.000885,0,0
0:2:37.476,302.519,38.521,0,0.000885,0,0
0:2:37.775,303.164,38.5969,0,0.000885,0,0
0:2:38.077,303.987,38.7072,0,0.000885,0,0
0:2:38.370,304.396,38.7554,0,0.000885,0,0
0:2:38.670,304.863,38.8175,0,0.000885,0,0
0:2:38.974,305.686,38.9209,0,0.000885,0,0
0:2:39.271,306.038,38.9692,0,0.000885,0,0
0:2:39.568,306.683,39.045,0,0.000885,0,0
0:2:39.872,307.385,39.1346,0,0.000885,0,0
0:2:40.173,308.208,39.245,0,0.000885,0,0
0:2:40.474,308.151,39.2381,0,0.000885,0,0
0:2:40.772,308.853,39.3277,0,0.000885,0,0
0:2:41.069,309.614,39.4242,0,0.000885,0,0
0:2:41.370,310.321,39.5139,0,0.000885,0,0
0:2:41.673,310.908,39.5828,0,0.000885,0,0
0:2:41.975,311.669,39.6862,0,0.000885,0,0
0:2:42.274,312.136,39.7414,0,0.000885,0,0
0:2:42.575,312.901,39.8379,0,0.000885,0,0
0:2:42.870,313.195,39.8793,0,0.000885,0,0
0:2:43.176,313.546,39.9206,0,0.000885,0,0
0:2:43.470,314.076,39.9896,0,0.000885,0,0
0:2:43.771,314.836,40.0861,0,0.000885,0,0
0:2:44.073,315.481,40.1689,0,0.000885,0,0
0:2:44.371,315.775,40.2033,0,0.000885,0,0
0:2:44.676,316.304,40.2723,0,0.000885,0,0
0:2:44.971,317.18,40.3826,0,0.000885,0,0
0:2:45.270,317.652,40.4446,0,0.000885,0,0
0:2:45.573,318.591,40.5619,0,0.000885,0,0
0:2:45.871,319.058,40.6239,0,0.000885,0,0
0:2:46.176,319.587,40.6929,0,0.000885,0,0
0:2:46.476,320.174,40.7687,0,0.000885,0,0
0:2:46.780,321.228,40.8997,0,0.000885,0,0
0:2:47.082,321.58,40.948,0,0.000885,0,0
0:2:47.383,321.993,40.9962,0,0.000885,0,0
0:2:47.682,322.403,41.0514,0,0.000885,0,0
0:2:47.979,323.163,41.1479,0,0.000885,0,0
0:2:48.276,323.399,41.1755,0,0.000885,0,0
0:2:48.570,324.16,41.272,0,0.000885,0,0
0:2:48.871,324.631,41.3341,0,0.000885,0,0
0:2:49.172,325.628,41.4582,0,0.000885,0,0
0:2:49.472,326.037,41.5133,0,0.000885,0,0
0:2:49.765,326.451,41.5616,0,0.000885,0,0
0:2:50.072,327.389,41.6857,0,0.000885,0,0
0:2:50.371,327.972,41.7615,0,0.000885,0,0
0:2:50.672,328.679,41.8512,0,0.000885,0,0
0:2:50.972,328.679,41.8512,0,0.000885,0,0
0:2:51.275,329.733,41.9822,0,0.000885,0,0
0:2:51.576,330.436,42.0718,0,0.000885,0,0
0:2:51.880,331.023,42.1477,0,0.000885,0,0
0:2:52.181,330.845,42.127,0,0.000885,0,0
0:2:52.480,331.726,42.2373,0,0.000885,0,0
0:2:52.781,332.723,42.3614,0,0.000885,0,0
0:2:53.079,333.839,42.5062,0,0.000885,0,0
0:2:53.374,333.781,42.4993,0,0.000885,0,0
0:2:53.669,334.6,42.6027,0,0.000885,0,0
0:2:53.966,335.013,42.6579,0,0.000885,0,0
0:2:54.270,335.716,42.7475,0,0.000885,0,0
0:2:54.570,336.477,42.844,0,0.000885,0,0
0:2:54.874,336.828,42.8854,0,0.000885,0,0
0:2:55.170,337.006,42.9061,0,0.000885,0,0
0:2:55.477,338.118,43.0509,0,0.000885,0,0
0:2:55.770,338.474,43.0922,0,0.000885,0,0
0:2:56.070,338.532,43.106,0,0.000885,0,0
0:2:56.373,339.586,43.237,0,0.000885,0,0
0:2:56.672,340.231,43.3198,0,0.000885,0,0
0:2:56.976,340.992,43.4163,0,0.000885,0,0
0:2:57.277,340.934,43.4094,0,0.000885,0,0
0:2:57.578,342.518,43.6093,0,0.000885,0,0
0:2:57.876,343.105,43.6852,0,0.000885,0,0
0:2:58.177,343.283,43.7059,0,0.000885,0,0
0:2:58.472,343.928,43.7886,0,0.000885,0,0
0:2:58.777,344.043,43.8024,0,0.000885,0,0
0:2:59.074,344.63,43.8782,0,0.000885,0,0
0:2:59.378,345.569,44.0023,0,0.000885,0,0
0:2:59.678,346.508,44.1196,0,0.000885,0,0
0:2:59.967,346.975,44.1816,0,0.000885,0,0
0:3:0.267,347.446,44.2368,0,0.000885,0,0
0:3:0.572,347.62,44.2574,0,0.000885,0,0
0:3:0.867,348.149,44.3264,0,0.000885,0,0
0:3:1.176,349.323,44.4781,0,0.000885,0,0
0:3:1.477,349.439,44.4919,0,0.000885,0,0
0:3:1.781,350.32,44.6022,0,0.000885,0,0
0:3:2.080,350.787,44.6642,0,0.000885,0,0
0:3:2.381,351.552,44.7608,0,0.000885,0,0
0:3:2.682,351.845,44.7952,0,0.000885,0,0
0:3:2.976,352.842,44.9262,0,0.000885,0,0
0:3:3.277,352.842,44.9262,0,0.000885,0,0
0:3:3.578,353.954,45.0641,0,0.000885,0,0
0:3:3.877,354.074,45.0848,0,0.000885,0,0
0:3:4.171,355.306,45.2365,0,0.000885,0,0
0:3:4.477,355.6,45.2779,0,0.000885,0,0
0:3:4.776,355.893,45.3123,0,0.000885,0,0
0:3:5.077,356.77,45.4227,0,0.000885,0,0
0:3:5.378,357.65,45.5399,0,0.000885,0,0
0:3:5.670,357.766,45.5537,0,0.000885,0,0
0:3:5.977,358.411,45.6364,0,0.000885,0,0
0:3:6.275,359.234,45.7398,0,0.000885,0,0
0:3:6.574,359.937,45.8295,0,0.000885,0,0
0:3:6.878,360.115,45.8501,0,0.000885,0,0
0:3:7.180,360.702,45.926,0,0.000885,0,0
0:3:7.480,361.111,45.9811,0,0.000885,0,0
0:3:7.780,362.343,46.1328,0,0.000885,0,0
0:3:8.076,362.517,46.1604,0,0.000885,0,0
0:3:8.375,363.224,46.25,0,0.000885,0,0
0:3:8.678,363.869,46.3259,0,0.000885,0,0
0:3:8.978,364.042,46.3535,0,0.000885,0,0
0:3:9.268,365.217,46.4982,0,0.000885,0,0
0:3:9.577,365.92,46.5879,0,0.000885,0,0
0:3:9.874,365.862,46.581,0,0.000885,0,0
0:3:10.166,366.858,46.712,0,0.000885,0,0
0:3:10.464,367.267,46.7602,0,0.000885,0,0
0:3:10.757,367.681,46.8154,0,0.000885,0,0
0:3:11.056,368.384,46.905,0,0.000885,0,0
0:3:11.350,369.265,47.0153,0,0.000885,0,0
0:3:11.650,369.38,47.0291,0,0.000885,0,0
0:3:11.954,370.083,47.1188,0,0.000885,0,0
0:3:12.254,370.67,47.1946,0,0.000885,0,0
0:3:12.556,371.787,47.3394,0,0.000885,0,0
0:3:12.855,371.845,47.3463,0,0.000885,0,0
0:3:13.155,372.663,47.4497,0,0.000885,0,0
0:3:13.459,373.428,47.5462,0,0.000885,0,0
0:3:13.754,373.192,47.5187,0,0.000885,0,0
0:3:14.053,374.247,47.6497,0,0.000885,0,0
0:3:14.356,374.54,47.691,0,0.000885,0,0
0:3:14.654,375.421,47.8014,0,0.000885,0,0
0:3:14.960,376.066,47.8841,0,0.000885,0,0
0:3:15.265,376.595,47.9461,0,0.000885,0,0
0:3:15.574,377.298,48.0358,0,0.000885,0,0
0:3:15.876,377.943,48.1185,0,0.000885,0,0
0:3:16.178,379.175,48.2771,0,0.000885,0,0
0:3:16.481,379.411,48.3047,0,0.000885,0,0
0:3:16.781,379.705,48.346,0,0.000885,0,0
0:3:17.082,380.407,48.4357,0,0.000885,0,0
0:3:17.382,381.11,48.5253,0,0.000885,0,0
0:3:17.684,381.697,48.6011,0,0.000885,0,0
0:3:17.975,381.933,48.6287,0,0.000885,0,0
0:3:18.276,382.342,48.6839,0,0.000885,0,0
0:3:18.579,382.987,48.7666,0,0.000885,0,0
0:3:18.875,383.868,48.8769,0,0.000885,0,0
0:3:19.174,384.22,48.9183,0,0.000885,0,0
0:3:19.477,384.922,49.0079,0,0.000885,0,0
0:3:19.777,385.51,49.0838,0,0.000885,0,0
0:3:20.079,386.332,49.1872,0,0.000885,0,0
0:3:20.377,386.977,49.2699,0,0.000885,0,0
0:3:20.674,387.271,49.3113,0,0.000885,0,0
0:3:20.978,387.502,49.3389,0,0.000885,0,0
0:3:21.278,388.383,49.4492,0,0.000885,0,0
0:3:21.580,388.677,49.4906,0,0.000885,0,0
0:3:21.882,389.731,49.6216,0,0.000885,0,0
0:3:22.183,390.554,49.725,0,0.000885,0,0
0:3:22.482,391.083,49.7939,0,0.000885,0,0
0:3:22.783,392.022,49.9111,0,0.000885,0,0
0:3:23.076,392.08,49.918,0,0.000885,0,0
0:3:23.377,392.667,49.9939,0,0.000885,0,0
0:3:23.679,393.605,50.118,0,0.000885,0,0
0:3:23.977,393.605,50.118,0,0.000885,0,0
0:3:24.272,394.717,50.2559,0,0.000885,0,0
0:3:24.577,394.717,50.2559,0,0.000885,0,0
0:3:24.875,395.42,50.3455,0,0.000885,0,0
0:3:25.167,396.127,50.4351,0,0.000885,0,0
0:3:25.466,396.652,50.5041,0,0.000885,0,0
0:3:25.761,397.182,50.573,0,0.000885,0,0
0:3:26.058,398.12,50.6903,0,0.000885,0,0
0:3:26.354,398.65,50.7592,0,0.000885,0,0
0:3:26.656,399.059,50.8075,0,0.000885,0,0
0:3:26.958,399.468,50.8626,0,0.000885,0,0
0:3:27.259,400.349,50.9729,0,0.000885,0,0
0:3:27.560,400.758,51.0281,0,0.000885,0,0
0:3:27.860,401.523,51.1246,0,0.000885,0,0
0:3:28.157,401.754,51.1522,0,0.000885,0,0
0:3:28.454,402.52,51.2487,0,0.000885,0,0
0:3:28.748,403.516,51.3797,0,0.000885,0,0
0:3:29.049,403.867,51.4211,0,0.000885,0,0
0:3:29.341,404.748,51.5314,0,0.000885,0,0
0:3:29.639,404.806,51.5383,0,0.000885,0,0
0:3:29.936,405.273,51.6004,0,0.000885,0,0
0:3:30.231,406.274,51.7314,0,0.000885,0,0
0:3:30.529,406.857,51.8003,0,0.000885,0,0
0:3:30.823,407.386,51.8693,0,0.000885,0,0
0:3:31.123,407.795,51.9244,0,0.000885,0,0
0:3:31.426,408.44,52.0072,0,0.000885,0,0
0:3:31.726,408.796,52.0485,0,0.000885,0,0
0:3:32.028,409.792,52.1795,0,0.000885,0,0
0:3:32.328,410.144,52.2209,0,0.000885,0,0
0:3:32.627,410.495,52.2692,0,0.000885,0,0
0:3:32.920,411.082,52.3381,0,0.000885,0,0
0:3:33.220,411.901,52.4484,0,0.000885,0,0
0:3:33.515,412.488,52.5174,0,0.000885,0,0
0:3:33.811,412.897,52.5725,0,0.000885,0,0
0:3:34.108,413.484,52.6484,0,0.000885,0,0
0:3:34.402,414.014,52.7173,0,0.000885,0,0
0:3:34.703,415.246,52.869,0,0.000885,0,0
0:3:34.995,415.54,52.9104,0,0.000885,0,0
0:3:35.294,416.064,52.9724,0,0.000885,0,0
0:3:35.590,416.42,53.0207,0,0.000885,0,0
0:3:35.893,417.417,53.1448,0,0.000885,0,0
0:3:36.192,417.768,53.1931,0,0.000885,0,0
0:3:36.493,418.413,53.2758,0,0.000885,0,0
0:3:36.794,418.942,53.3378,0,0.000885,0,0
0:3:37.096,419.232,53.3792,0,0.000885,0,0
0:3:37.398,420.29,53.5102,0,0.000885,0,0
0:3:37.698,420.935,53.5929,0,0.000885,0,0
0:3:37.993,421.932,53.7239,0,0.000885,0,0
0:3:38.293,422.461,53.786,0,0.000885,0,0
0:3:38.584,422.399,53.7791,0,0.000885,0,0
0:3:38.883,423.164,53.8756,0,0.000885,0,0
0:3:39.178,423.924,53.9791,0,0.000885,0,0
0:3:39.475,424.276,54.0204,0,0.000885,0,0
0:3:39.783,424.805,54.0894,0,0.000885,0,0
0:3:40.075,425.508,54.179,0,0.000885,0,0
0:3:40.376,426.153,54.2617,0,0.000885,0,0
0:3:40.678,426.389,54.2893,0,0.000885,0,0
0:3:40.975,426.976,54.3652,0,0.000885,0,0
0:3:41.282,427.505,54.4341,0,0.000885,0,0
0:3:41.583,428.382,54.5444,0,0.000885,0,0
0:3:41.885,428.733,54.5858,0,0.000885,0,0
0:3:42.188,429.498,54.6823,0,0.000885,0,0
0:3:42.489,430.201,54.772,0,0.000885,0,0
0:3:42.790,430.552,54.8202,0,0.000885,0,0
0:3:43.086,431.611,54.9512,0,0.000885,0,0
0:3:43.385,432.078,55.0133,0,0.000885,0,0
0:3:43.678,432.607,55.0822,0,0.000885,0,0
0:3:43.978,432.959,55.1236,0,0.000885,0,0
0:3:44.270,433.777,55.2339,0,0.000885,0,0
0:3:44.578,434.484,55.3166,0,0.000885,0,0
0:3:44.877,434.364,55.3028,0,0.000885,0,0
0:3:45.180,435.129,55.3994,0,0.000885,0,0
0:3:45.479,435.89,55.4959,0,0.000885,0,0
0:3:45.782,436.713,55.6062,0,0.000885,0,0
0:3:46.079,436.944,55.6338,0,0.000885,0,0
0:3:46.377,437.589,55.7165,0,0.000885,0,0
0:3:46.678,438.177,55.7924,0,0.000885,0,0
0:3:46.981,439.173,55.9165,0,0.000885,0,0
0:3:47.283,440.111,56.0337,0,0.000885,0,0
0:3:47.582,440.405,56.0751,0,0.000885,0,0
0:3:47.882,440.819,56.1233,0,0.000885,0,0
0:3:48.177,441.112,56.1647,0,0.000885,0,0
0:3:48.477,442.051,56.2819,0,0.000885,0,0
0:3:48.778,442.518,56.344,0,0.000885,0,0
0:3:49.077,442.927,56.3922,0,0.000885,0,0
0:3:49.372,443.75,56.5025,0,0.000885,0,0
0:3:49.678,443.924,56.5232,0,0.000885,0,0
0:3:49.979,444.804,56.6335,0,0.000885,0,0
0:3:50.281,445.507,56.7232,0,0.000885,0,0
0:3:50.579,445.979,56.7852,0,0.000885,0,0
0:3:50.883,446.272,56.8197,0,0.000885,0,0
0:3:51.180,447.62,56.9921,0,0.000885,0,0
0:3:51.479,448.265,57.0748,0,0.000885,0,0
0:3:51.780,448.149,57.061,0,0.000885,0,0
0:3:52.083,448.968,57.1644,0,0.000885,0,0
0:3:52.384,449.319,57.2127,0,0.000885,0,0
0:3:52.684,450.027,57.3023,0,0.000885,0,0
0:3:52.986,451.023,57.4264,0,0.000885,0,0
0:3:53.279,451.374,57.4678,0,0.000885,0,0
0:3:53.580,451.841,57.5299,0,0.000885,0,0
0:3:53.882,452.077,57.5574,0,0.000885,0,0
0:3:54.180,452.607,57.6264,0,0.000885,0,0
0:3:54.478,453.661,57.7643,0,0.000885,0,0
0:3:54.782,454.248,57.8332,0,0.000885,0,0
0:3:55.081,454.893,57.916,0,0.000885,0,0
0:3:55.375,455.832,58.0401,0,0.000885,0,0
0:3:55.683,456.477,58.1228,0,0.000885,0,0
0:3:55.980,456.828,58.1642,0,0.000885,0,0
0:3:56.281,457.299,58.2262,0,0.000885,0,0
0:3:56.584,457.415,58.24,0,0.000885,0,0
0:3:56.885,458.469,58.371,0,0.000885,0,0
0:3:57.187,459.056,58.4469,0,0.000885,0,0
0:3:57.487,459.114,58.4538,0,0.000885,0,0
0:3:57.783,460.173,58.5916,0,0.000885,0,0
0:3:58.083,461.405,58.7502,0,0.000885,0,0
0:3:58.382,461.343,58.7433,0,0.000885,0,0
0:3:58.684,461.988,58.8192,0,0.000885,0,0
0:3:58.977,461.988,58.8192,0,0.000885,0,0
0:3:59.282,462.459,58.8812,0,0.000885,0,0
0:3:59.581,463.807,59.0536,0,0.000885,0,0
0:3:59.884,464.394,59.1294,0,0.000885,0,0
0:4:0.184,465.217,59.2329,0,0.000885,0,0
0:4:0.477,465.511,59.2673,0,0.000885,0,0
0:4:0.776,466.214,59.357,0,0.000885,0,0
0:4:1.071,466.801,59.4328,0,0.000885,0,0
0:4:1.374,467.388,59.5087,0,0.000885,0,0
0:4:1.679,467.739,59.5569,0,0.000885,0,0
0:4:1.979,468.206,59.6121,0,0.000885,0,0
0:4:2.280,469.029,59.7155,0,0.000885,0,0
0:4:2.580,469.554,59.7844,0,0.000885,0,0
0:4:2.876,469.906,59.8327,0,0.000885,0,0
0:4:3.173,470.907,59.9568,0,0.000885,0,0
0:4:3.478,471.316,60.012,0,0.000885,0,0
0:4:3.777,472.019,60.1016,0,0.000885,0,0
0:4:4.083,472.312,60.1361,0,0.000885,0,0
0:4:4.378,473.135,60.2395,0,0.000885,0,0
0:4:4.676,473.718,60.3153,0,0.000885,0,0
0:4:4.968,473.78,60.3222,0,0.000885,0,0
0:4:5.269,474.892,60.467,0,0.000885,0,0
0:4:5.573,475.364,60.5222,0,0.000885,0,0
0:4:5.879,475.537,60.5498,0,0.000885,0,0
0:4:6.179,476.534,60.6739,0,0.000885,0,0
0:4:6.481,477.299,60.7704,0,0.000885,0,0
0:4:6.783,477.944,60.8531,0,0.000885,0,0
0:4:7.082,478.411,60.9152,0,0.000885,0,0
0:4:7.383,478.824,60.9634,0,0.000885,0,0
0:4:7.685,479.527,61.0531,0,0.000885,0,0
0:4:7.978,479.763,61.0875,0,0.000885,0,0
0:4:8.280,480.759,61.2117,0,0.000885,0,0
0:4:8.583,481.226,61.2737,0,0.000885,0,0
0:4:8.880,481.756,61.3358,0,0.000885,0,0
0:4:9.186,482.752,61.4668,0,0.000885,0,0
0:4:9.480,482.636,61.453,0,0.000885,0,0
0:4:9.780,483.455,61.5564,0,0.000885,0,0
0:4:10.082,484.22,61.6529,0,0.000885,0,0
0:4:10.382,484.514,61.6874,0,0.000885,0,0
0:4:10.678,485.568,61.8253,0,0.000885,0,0
0:4:10.982,486.035,61.8873,0,0.000885,0,0
0:4:11.282,486.564,61.9494,0,0.000885,0,0
0:4:11.583,486.858,61.9908,0,0.000885,0,0
0:4:11.884,487.854,62.1149,0,0.000885,0,0
0:4:12.185,488.326,62.1769,0,0.000885,0,0
0:4:12.484,488.851,62.2459,0,0.000885,0,0
0:4:12.784,489.029,62.2666,0,0.000885,0,0
0:4:13.079,489.322,62.301,0,0.000885,0,0
0:4:13.377,490.261,62.4251,0,0.000885,0,0
0:4:13.683,491.137,62.5354,0,0.000885,0,0
0:4:13.977,491.786,62.6182,0,0.000885,0,0
0:4:14.284,492.605,62.7216,0,0.000885,0,0
0:4:14.579,492.956,62.763,0,0.000885,0,0
0:4:14.879,493.37,62.8181,0,0.000885,0,0
0:4:15.181,494.366,62.9422,0,0.000885,0,0
0:4:15.480,494.718,62.9905,0,0.000885,0,0
0:4:15.774,495.305,63.0663,0,0.000885,0,0
0:4:16.082,496.595,63.2249,0,0.000885,0,0
0:4:16.380,496.711,63.2456,0,0.000885,0,0
0:4:16.680,496.826,63.2594,0,0.000885,0,0
0:4:16.983,497.413,63.3352,0,0.000885,0,0
0:4:17.283,494.718,62.9905,0,0.000885,0,0
0:4:17.584,491.199,62.5423,0,0.000885,0,0
0:4:17.882,490.67,62.4734,0,0.000885,0,0
0:4:18.185,490.67,62.4734,0,0.000885,0,0
0:4:18.485,491.431,62.5699,0,0.000885,0,0
0:4:18.778,493.601,62.8457,0,0.000885,0,0
0:4:19.075,495.011,63.025,0,0.000885,0,0
0:4:19.381,496.946,63.2732,0,0.000885,0,0
0:4:19.675,497.591,63.3559,0,0.000885,0,0
0:4:19.974,498.997,63.5352,0,0.000885,0,0
0:4:20.268,500.932,63.7834,0,0.000885,0,0
0:4:20.568,502.164,63.9351,0,0.000885,0,0
0:4:20.872,500.407,63.7145,0,0.000885,0,0
0:4:21.171,499.878,63.6455,0,0.000885,0,0
0:4:21.474,500.874,63.7765,0,0.000885,0,0
0:4:21.773,502.578,63.9902,0,0.000885,0,0
0:4:22.073,501.11,63.8041,0,0.000885,0,0
0:4:22.372,500.114,63.6731,0,0.000885,0,0
0:4:22.670,498.646,63.4869,0,0.000885,0,0
0:4:22.973,495.363,63.0732,0,0.000885,0,0
0:4:23.270,484.571,61.6943,0,0.000885,0,0
0:4:23.575,466.916,59.4466,0,0.000885,0,0
0:4:23.880,438.177,55.7924,0,0.000885,0,0
0:4:24.179,430.552,54.8202,0,0.000885,0,0
0:4:24.482,424.218,54.0135,0,0.000885,0,0
0:4:24.788,420.877,53.5861,0,0.000885,0,0
0:4:25.084,417.826,53.1999,0,0.000885,0,0
0:4:25.378,409.557,52.145,0,0.000885,0,0
0:4:25.675,402.106,51.2005,0,0.000885,0,0
0:4:25.978,399.526,50.8695,0,0.000885,0,0
0:4:26.278,395.714,50.3869,0,0.000885,0,0
0:4:26.581,392.08,49.918,0,0.000885,0,0
0:4:26.880,390.082,49.6698,0,0.000885,0,0
0:4:27.181,386.857,49.2561,0,0.000885,0,0
0:4:27.479,384.749,48.9873,0,0.000885,0,0
0:4:27.780,382.049,48.6425,0,0.000885,0,0
0:4:28.081,377.943,48.1185,0,0.000885,0,0
0:4:28.379,374.189,47.6428,0,0.000885,0,0
0:4:28.684,371.2,47.2636,0,0.000885,0,0
0:4:28.987,369.087,46.9947,0,0.000885,0,0
0:4:29.287,366.565,46.6706,0,0.000885,0,0
0:4:29.579,364.687,46.4362,0,0.000885,0,0
0:4:29.888,361.347,46.0087,0,0.000885,0,0
0:4:30.182,359.412,45.7605,0,0.000885,0,0
0:4:30.488,356.77,45.4227,0,0.000885,0,0
0:4:30.784,353.429,45.0021,0,0.000885,0,0
0:4:30.940,352.019,44.8228,0,0.000885,0,0