File: DataFile2021-06-30_055816.csv
Test ID:,Date Tested:,Time:,Test Type:,Diameter Avg. (mm):,Cyl. Corr. Factor:,Height (mm):,Age (days):,Weight (kN):,Break Type:,Ramp Rate (MPa/s):,Load at Break (kN):,Stress at Break (MPa):
12,6/30/2021,05:58,Cylinder,150,1,300,0,3.6,3,0.25,1781.98,100.84
Sample Time,Load (kN),Stress (MPa),Long. Strain,Trans. Strain,Chan1 Deflection (mm),Chan2 Deflection (mm)
0:0:16.995,5.21776,0.296475,0,0.000885,0,0
0:0:17.412,11.9079,0.675686,0,0.000885,0,0
0:0:17.809,11.9657,0.675686,0,0.000885,0,0
0:0:18.207,12.0814,0.682581,0,0.000885,0,0
0:0:18.615,12.4328,0.703265,0,0.000885,0,0
0:0:19.021,12.6685,0.717055,0,0.000885,0,0
0:0:19.416,14.7814,0.834266,0,0.000885,0,0
0:0:19.815,16.7742,0.951477,0,0.000885,0,0
0:0:20.226,18.7092,1.06179,0,0.000885,0,0
0:0:20.623,20.5864,1.16521,0,0.000885,0,0
0:0:21.016,22.637,1.28242,0,0.000885,0,0
0:0:21.415,24.2828,1.37206,0,0.000885,0,0
0:0:21.815,26.5692,1.50306,0,0.000885,0,0
0:0:22.214,28.9134,1.63406,0,0.000885,0,0
0:0:22.623,31.3778,1.77885,0,0.000885,0,0
0:0:23.027,33.9577,1.92364,0,0.000885,0,0
0:0:23.431,35.1321,1.98569,0,0.000885,0,0
0:0:23.833,36.422,2.06153,0,0.000885,0,0
0:0:24.232,37.5341,2.12359,0,0.000885,0,0
0:0:24.629,38.9442,2.20632,0,0.000885,0,0
0:0:25.026,40.3498,2.28216,0,0.000885,0,0
0:0:25.426,41.7599,2.3649,0,0.000885,0,0
0:0:25.826,44.0463,2.4959,0,0.000885,0,0
0:0:26.222,45.5142,2.57864,0,0.000885,0,0
0:0:26.616,47.3291,2.67517,0,0.000885,0,0
0:0:27.014,49.0906,2.77859,0,0.000885,0,0
0:0:27.420,51.0834,2.8889,0,0.000885,0,0
0:0:27.826,53.4899,3.0268,0,0.000885,0,0
0:0:28.230,55.4827,3.13711,0,0.000885,0,0
0:0:28.633,56.7727,3.21296,0,0.000885,0,0
0:0:29.032,58.592,3.31638,0,0.000885,0,0
0:0:29.432,60.6426,3.43359,0,0.000885,0,0
0:0:29.830,62.2262,3.52322,0,0.000885,0,0
0:0:30.227,62.9334,3.56459,0,0.000885,0,0
0:0:30.623,65.3933,3.70248,0,0.000885,0,0
0:0:31.023,67.1548,3.79901,0,0.000885,0,0
0:0:31.423,68.7962,3.89554,0,0.000885,0,0
0:0:31.820,70.8513,4.00585,0,0.000885,0,0
0:0:32.229,72.8441,4.12306,0,0.000885,0,0
0:0:32.633,74.8369,4.23338,0,0.000885,0,0
0:0:33.038,76.8341,4.35059,0,0.000885,0,0
0:0:33.441,77.4168,4.37817,0,0.000885,0,0
0:0:33.843,79.8233,4.51607,0,0.000885,0,0
0:0:34.242,80.8197,4.57122,0,0.000885,0,0
0:0:34.638,81.5226,4.61259,0,0.000885,0,0
0:0:35.038,83.6355,4.7298,0,0.000885,0,0
0:0:35.440,86.042,4.8677,0,0.000885,0,0
0:0:35.836,88.1504,4.9918,0,0.000885,0,0
0:0:36.232,90.3211,5.10902,0,0.000885,0,0
0:0:36.629,92.9011,5.25381,0,0.000885,0,0
0:0:37.030,94.1333,5.32965,0,0.000885,0,0
0:0:37.430,96.0104,5.43307,0,0.000885,0,0
0:0:37.836,97.4783,5.51581,0,0.000885,0,0
0:0:38.240,98.884,5.59854,0,0.000885,0,0
0:0:38.643,100.525,5.68817,0,0.000885,0,0
0:0:39.046,102.816,5.81918,0,0.000885,0,0
0:0:39.444,104.458,5.90881,0,0.000885,0,0
0:0:39.841,106.041,5.99844,0,0.000885,0,0
0:0:40.235,107.798,6.10186,0,0.000885,0,0
0:0:40.637,109.502,6.19839,0,0.000885,0,0
0:0:41.036,110.556,6.25354,0,0.000885,0,0
0:0:41.435,112.669,6.37765,0,0.000885,0,0
0:0:41.831,114.31,6.46728,0,0.000885,0,0
0:0:42.227,116.833,6.61207,0,0.000885,0,0
0:0:42.631,118.652,6.71549,0,0.000885,0,0
0:0:43.037,120.76,6.8327,0,0.000885,0,0
0:0:43.441,122.815,6.94992,0,0.000885,0,0
0:0:43.843,124.866,7.06713,0,0.000885,0,0
0:0:44.242,126.214,7.14297,0,0.000885,0,0
0:0:44.642,128.153,7.25328,0,0.000885,0,0
0:0:45.043,130.026,7.35671,0,0.000885,0,0
0:0:45.439,131.378,7.43255,0,0.000885,0,0
0:0:45.836,133.429,7.54976,0,0.000885,0,0
0:0:46.236,135.133,7.64629,0,0.000885,0,0
0:0:46.635,136.832,7.74281,0,0.000885,0,0
0:0:47.033,137.592,7.78418,0,0.000885,0,0
0:0:47.430,139.412,7.8876,0,0.000885,0,0
0:0:47.834,141.467,8.00481,0,0.000885,0,0
0:0:48.240,143.575,8.12202,0,0.000885,0,0
0:0:48.643,145.452,8.23234,0,0.000885,0,0
0:0:49.048,146.978,8.31508,0,0.000885,0,0
0:0:49.444,148.384,8.39781,0,0.000885,0,0
0:0:49.842,150.261,8.50124,0,0.000885,0,0
0:0:50.244,152.138,8.61155,0,0.000885,0,0
0:0:50.641,154.015,8.71497,0,0.000885,0,0
0:0:51.036,155.777,8.81839,0,0.000885,0,0
0:0:51.434,157.596,8.91492,0,0.000885,0,0
0:0:51.834,159.589,9.03213,0,0.000885,0,0
0:0:52.232,160.821,9.10108,0,0.000885,0,0
0:0:52.639,162.698,9.2045,0,0.000885,0,0
0:0:53.042,164.104,9.28724,0,0.000885,0,0
0:0:53.444,165.923,9.39066,0,0.000885,0,0
0:0:53.849,167.8,9.49408,0,0.000885,0,0
0:0:54.246,169.326,9.58371,0,0.000885,0,0
0:0:54.641,170.847,9.66645,0,0.000885,0,0
0:0:55.039,172.96,9.79056,0,0.000885,0,0
0:0:55.440,174.953,9.90087,0,0.000885,0,0
0:0:55.839,176.772,10.0043,0,0.000885,0,0
0:0:56.234,178.534,10.1008,0,0.000885,0,0
0:0:56.632,180.349,10.2042,0,0.000885,0,0
0:0:57.031,181.932,10.2939,0,0.000885,0,0
0:0:57.432,183.636,10.3904,0,0.000885,0,0
0:0:57.838,185.629,10.5076,0,0.000885,0,0
0:0:58.242,187.799,10.6248,0,0.000885,0,0
0:0:58.645,189.325,10.7145,0,0.000885,0,0
0:0:59.047,191.785,10.8523,0,0.000885,0,0
0:0:59.444,193.489,10.9489,0,0.000885,0,0
0:0:59.839,194.601,11.0109,0,0.000885,0,0
0:1:0.231,196.598,11.1281,0,0.000885,0,0
0:1:0.628,198.239,11.2178,0,0.000885,0,0
0:1:1.027,200.117,11.3212,0,0.000885,0,0
0:1:1.430,202.052,11.4315,0,0.000885,0,0
0:1:1.823,202.932,11.4867,0,0.000885,0,0
0:1:2.216,204.689,11.5832,0,0.000885,0,0
0:1:2.615,206.624,11.6935,0,0.000885,0,0
0:1:3.019,208.679,11.8107,0,0.000885,0,0
0:1:3.420,209.969,11.8797,0,0.000885,0,0
0:1:3.820,211.726,11.9831,0,0.000885,0,0
0:1:4.229,213.604,12.0865,0,0.000885,0,0
0:1:4.627,215.187,12.1761,0,0.000885,0,0
0:1:5.030,216.949,12.2796,0,0.000885,0,0
0:1:5.424,218.706,12.3761,0,0.000885,0,0
0:1:5.817,221.17,12.514,0,0.000885,0,0
0:1:6.215,223.167,12.6312,0,0.000885,0,0
0:1:6.610,224.751,12.7208,0,0.000885,0,0
0:1:7.013,226.45,12.8174,0,0.000885,0,0
0:1:7.415,228.327,12.9208,0,0.000885,0,0
0:1:7.819,230.084,13.0173,0,0.000885,0,0
0:1:8.218,232.197,13.1414,0,0.000885,0,0
0:1:8.619,234.074,13.2448,0,0.000885,0,0
0:1:9.011,235.774,13.3414,0,0.000885,0,0
0:1:9.418,236.77,13.3965,0,0.000885,0,0
0:1:9.814,238.416,13.493,0,0.000885,0,0
0:1:10.218,239.821,13.5689,0,0.000885,0,0
0:1:10.613,241.699,13.6792,0,0.000885,0,0
0:1:11.016,243.927,13.8033,0,0.000885,0,0
0:1:11.414,245.275,13.8791,0,0.000885,0,0
0:1:11.810,246.801,13.9688,0,0.000885,0,0
0:1:12.204,248.504,14.0653,0,0.000885,0,0
0:1:12.606,250.733,14.1894,0,0.000885,0,0
0:1:13.009,252.726,14.2997,0,0.000885,0,0
0:1:13.409,254.483,14.4031,0,0.000885,0,0
0:1:13.810,256.653,14.5204,0,0.000885,0,0
0:1:14.224,258.121,14.61,0,0.000885,0,0
0:1:14.629,259.999,14.7134,0,0.000885,0,0
0:1:15.026,261.524,14.7961,0,0.000885,0,0
0:1:15.419,263.691,14.9203,0,0.000885,0,0
0:1:15.815,265.043,14.9961,0,0.000885,0,0
0:1:16.217,267.271,15.1271,0,0.000885,0,0
0:1:16.614,268.855,15.2167,0,0.000885,0,0
0:1:17.021,270.554,15.3133,0,0.000885,0,0
0:1:17.416,271.671,15.3753,0,0.000885,0,0
0:1:17.820,274.193,15.5132,0,0.000885,0,0
0:1:18.221,275.776,15.6028,0,0.000885,0,0
0:1:18.625,278.063,15.7338,0,0.000885,0,0
0:1:19.026,279.704,15.8304,0,0.000885,0,0
0:1:19.428,281.697,15.9407,0,0.000885,0,0
0:1:19.819,282.284,15.9752,0,0.000885,0,0
0:1:20.216,284.513,16.0993,0,0.000885,0,0
0:1:20.613,286.332,16.2027,0,0.000885,0,0
0:1:21.019,287.858,16.2923,0,0.000885,0,0
0:1:21.420,290.202,16.4233,0,0.000885,0,0
0:1:21.813,291.434,16.4923,0,0.000885,0,0
0:1:22.212,292.902,16.575,0,0.000885,0,0
0:1:22.618,295.011,16.6922,0,0.000885,0,0
0:1:23.021,296.478,16.7749,0,0.000885,0,0
0:1:23.425,298.471,16.8922,0,0.000885,0,0
0:1:23.826,300.348,16.9956,0,0.000885,0,0
0:1:24.227,301.874,17.0852,0,0.000885,0,0
0:1:24.630,304.16,17.2093,0,0.000885,0,0
0:1:25.032,306.158,17.3265,0,0.000885,0,0
0:1:25.427,308.151,17.4368,0,0.000885,0,0
0:1:25.823,309.908,17.5403,0,0.000885,0,0
0:1:26.230,311.376,17.623,0,0.000885,0,0
0:1:26.626,312.723,17.6988,0,0.000885,0,0
0:1:27.028,314.365,17.7885,0,0.000885,0,0
0:1:27.429,316.184,17.8919,0,0.000885,0,0
0:1:27.834,317.71,17.9815,0,0.000885,0,0
0:1:28.234,319.76,18.0918,0,0.000885,0,0
0:1:28.634,321.758,18.2091,0,0.000885,0,0
0:1:29.027,323.341,18.2987,0,0.000885,0,0
0:1:29.426,325.098,18.3952,0,0.000885,0,0
0:1:29.831,326.624,18.4848,0,0.000885,0,0
0:1:30.223,328.679,18.6021,0,0.000885,0,0
0:1:30.627,330.556,18.7055,0,0.000885,0,0
0:1:31.033,332.14,18.7951,0,0.000885,0,0
0:1:31.430,334.368,18.9192,0,0.000885,0,0
0:1:31.834,335.538,18.9882,0,0.000885,0,0
0:1:32.227,337.358,19.0916,0,0.000885,0,0
0:1:32.629,338.883,19.1743,0,0.000885,0,0
0:1:33.033,340.64,19.2777,0,0.000885,0,0
0:1:33.433,342.931,19.4087,0,0.000885,0,0
0:1:33.834,344.573,19.4984,0,0.000885,0,0
0:1:34.226,347.153,19.6432,0,0.000885,0,0
0:1:34.622,348.852,19.7397,0,0.000885,0,0
0:1:35.019,350.378,19.8293,0,0.000885,0,0
0:1:35.421,351.788,19.9052,0,0.000885,0,0
0:1:35.816,353.371,19.9948,0,0.000885,0,0
0:1:36.220,355.244,20.1051,0,0.000885,0,0
0:1:36.617,357.357,20.2223,0,0.000885,0,0
0:1:37.014,358.825,20.3051,0,0.000885,0,0
0:1:37.429,360.76,20.4154,0,0.000885,0,0
0:1:37.831,362.81,20.5326,0,0.000885,0,0
0:1:38.234,364.336,20.6153,0,0.000885,0,0
0:1:38.634,365.395,20.6774,0,0.000885,0,0
0:1:39.035,367.094,20.7739,0,0.000885,0,0
0:1:39.429,368.971,20.8773,0,0.000885,0,0
0:1:39.821,371.142,21.0014,0,0.000885,0,0
0:1:40.230,372.663,21.0911,0,0.000885,0,0
0:1:40.627,374.718,21.2014,0,0.000885,0,0
0:1:41.029,376.417,21.2979,0,0.000885,0,0
0:1:41.421,378.001,21.3875,0,0.000885,0,0
0:1:41.817,379.878,21.4979,0,0.000885,0,0
0:1:42.228,381.52,21.5875,0,0.000885,0,0
0:1:42.631,383.984,21.7323,0,0.000885,0,0
0:1:43.033,385.625,21.8219,0,0.000885,0,0
0:1:43.433,387.093,21.9046,0,0.000885,0,0
0:1:43.831,388.792,22.0012,0,0.000885,0,0
0:1:44.229,390.376,22.0908,0,0.000885,0,0
0:1:44.632,392.431,22.208,0,0.000885,0,0
0:1:45.023,394.366,22.3183,0,0.000885,0,0
0:1:45.431,396.065,22.4149,0,0.000885,0,0
0:1:45.837,397.591,22.4976,0,0.000885,0,0
0:1:46.231,399.41,22.601,0,0.000885,0,0
0:1:46.623,401.639,22.7251,0,0.000885,0,0
0:1:47.028,403.458,22.8285,0,0.000885,0,0
0:1:47.428,404.277,22.8768,0,0.000885,0,0
0:1:47.832,406.212,22.9871,0,0.000885,0,0
0:1:48.232,408.151,23.0974,0,0.000885,0,0
0:1:48.633,409.792,23.1871,0,0.000885,0,0
0:1:49.030,411.314,23.2767,0,0.000885,0,0
0:1:49.425,413.484,23.4008,0,0.000885,0,0
0:1:49.820,415.419,23.5111,0,0.000885,0,0
0:1:50.234,416.945,23.5939,0,0.000885,0,0
0:1:50.630,418.649,23.6904,0,0.000885,0,0
0:1:51.028,420.757,23.8076,0,0.000885,0,0
0:1:51.421,422.634,23.9179,0,0.000885,0,0
0:1:51.817,424.454,24.0213,0,0.000885,0,0
0:1:52.218,426.153,24.1179,0,0.000885,0,0
0:1:52.620,427.385,24.1868,0,0.000885,0,0
0:1:53.023,429.262,24.2902,0,0.000885,0,0
0:1:53.424,430.846,24.3799,0,0.000885,0,0
0:1:53.825,432.55,24.4764,0,0.000885,0,0
0:1:54.231,434.778,24.6005,0,0.000885,0,0
0:1:54.628,436.713,24.7108,0,0.000885,0,0
0:1:55.024,438.822,24.8349,0,0.000885,0,0
0:1:55.430,440.467,24.9245,0,0.000885,0,0
0:1:55.834,442.109,25.0211,0,0.000885,0,0
0:1:56.229,444.279,25.1383,0,0.000885,0,0
0:1:56.623,445.392,25.2072,0,0.000885,0,0
0:1:57.018,447.269,25.3107,0,0.000885,0,0
0:1:57.421,448.852,25.4003,0,0.000885,0,0
0:1:57.825,450.551,25.4968,0,0.000885,0,0
0:1:58.229,452.135,25.5864,0,0.000885,0,0
0:1:58.629,453.487,25.6623,0,0.000885,0,0
0:1:59.031,455.302,25.7657,0,0.000885,0,0
0:1:59.424,457.709,25.9036,0,0.000885,0,0
0:1:59.818,459.408,26.0001,0,0.000885,0,0
0:2:0.216,461.169,26.0967,0,0.000885,0,0
0:2:0.621,463.162,26.207,0,0.000885,0,0
0:2:1.026,465.391,26.338,0,0.000885,0,0
0:2:1.421,466.859,26.4207,0,0.000885,0,0
0:2:1.824,468.264,26.4966,0,0.000885,0,0
0:2:2.221,469.617,26.5724,0,0.000885,0,0
0:2:2.619,471.783,26.6965,0,0.000885,0,0
0:2:3.021,473.78,26.8137,0,0.000885,0,0
0:2:3.422,475.364,26.9033,0,0.000885,0,0
0:2:3.823,477.472,27.0206,0,0.000885,0,0
0:2:4.222,478.998,27.1033,0,0.000885,0,0
0:2:4.619,481.347,27.2412,0,0.000885,0,0
0:2:5.012,482.285,27.2894,0,0.000885,0,0
0:2:5.425,483.633,27.3653,0,0.000885,0,0
0:2:5.822,485.452,27.4687,0,0.000885,0,0
0:2:6.218,487.094,27.5652,0,0.000885,0,0
0:2:6.614,488.851,27.6618,0,0.000885,0,0
0:2:7.007,490.906,27.779,0,0.000885,0,0
0:2:7.410,492.899,27.8893,0,0.000885,0,0
0:2:7.812,495.011,28.0134,0,0.000885,0,0
0:2:8.212,496.301,28.0823,0,0.000885,0,0
0:2:8.614,498.294,28.1996,0,0.000885,0,0
0:2:9.018,499.936,28.2892,0,0.000885,0,0
0:2:9.432,501.813,28.3995,0,0.000885,0,0
0:2:9.827,503.396,28.4891,0,0.000885,0,0
0:2:10.224,505.216,28.5926,0,0.000885,0,0
0:2:10.627,507.386,28.7098,0,0.000885,0,0
0:2:11.022,509.086,28.8063,0,0.000885,0,0
0:2:11.417,510.669,28.8959,0,0.000885,0,0
0:2:11.814,512.311,28.9925,0,0.000885,0,0
0:2:12.221,514.366,29.1097,0,0.000885,0,0
0:2:12.622,516.185,29.2131,0,0.000885,0,0
0:2:13.024,517.884,29.3096,0,0.000885,0,0
0:2:13.426,519.997,29.4268,0,0.000885,0,0
0:2:13.825,521.812,29.5302,0,0.000885,0,0
0:2:14.221,522.928,29.5923,0,0.000885,0,0
0:2:14.614,524.276,29.6681,0,0.000885,0,0
0:2:15.019,525.918,29.7578,0,0.000885,0,0
0:2:15.417,527.853,29.8681,0,0.000885,0,0
0:2:15.822,530.143,29.9991,0,0.000885,0,0
0:2:16.217,531.785,30.0956,0,0.000885,0,0
0:2:16.620,533.017,30.1646,0,0.000885,0,0
0:2:17.014,534.894,30.268,0,0.000885,0,0
0:2:17.415,537.296,30.4059,0,0.000885,0,0
0:2:17.818,539.116,30.5093,0,0.000885,0,0
0:2:18.220,540.877,30.6058,0,0.000885,0,0
0:2:18.619,542.928,30.723,0,0.000885,0,0
0:2:19.016,544.627,30.8196,0,0.000885,0,0
0:2:19.413,546.273,30.9092,0,0.000885,0,0
0:2:19.818,547.914,31.0057,0,0.000885,0,0
0:2:20.220,549.204,31.0816,0,0.000885,0,0
0:2:20.624,551.197,31.1919,0,0.000885,0,0
0:2:21.021,553.252,31.3091,0,0.000885,0,0
0:2:21.428,555.009,31.4056,0,0.000885,0,0
0:2:21.834,556.593,31.4953,0,0.000885,0,0
0:2:22.236,558.941,31.6263,0,0.000885,0,0
0:2:22.637,560.525,31.7159,0,0.000885,0,0
0:2:23.041,562.046,31.8055,0,0.000885,0,0
0:2:23.443,564.159,31.9227,0,0.000885,0,0
0:2:23.842,566.152,32.0399,0,0.000885,0,0
0:2:24.236,566.917,32.0813,0,0.000885,0,0
0:2:24.634,568.794,32.1847,0,0.000885,0,0
0:2:25.040,570.551,32.2881,0,0.000885,0,0
0:2:25.434,572.664,32.4054,0,0.000885,0,0
0:2:25.826,574.421,32.5088,0,0.000885,0,0
0:2:26.222,576.24,32.6053,0,0.000885,0,0
0:2:26.619,577.708,32.6949,0,0.000885,0,0
0:2:27.014,579.585,32.7984,0,0.000885,0,0
0:2:27.427,581.636,32.9156,0,0.000885,0,0
0:2:27.828,583.278,33.0052,0,0.000885,0,0
0:2:28.234,584.803,33.0948,0,0.000885,0,0
0:2:28.635,586.445,33.1845,0,0.000885,0,0
0:2:29.034,588.615,33.3086,0,0.000885,0,0
0:2:29.428,589.968,33.3844,0,0.000885,0,0
0:2:29.825,591.667,33.4809,0,0.000885,0,0
0:2:30.224,594.193,33.6257,0,0.000885,0,0
0:2:30.634,596.013,33.7292,0,0.000885,0,0
0:2:31.027,597.423,33.805,0,0.000885,0,0
0:2:31.423,598.949,33.8946,0,0.000885,0,0
0:2:31.822,601.119,34.0187,0,0.000885,0,0
0:2:32.221,603.059,34.129,0,0.000885,0,0
0:2:32.625,604.229,34.1911,0,0.000885,0,0
0:2:33.029,606.284,34.3083,0,0.000885,0,0
0:2:33.433,607.285,34.3635,0,0.000885,0,0
0:2:33.834,609.513,34.4945,0,0.000885,0,0
0:2:34.241,611.39,34.5979,0,0.000885,0,0
0:2:34.636,612.449,34.6599,0,0.000885,0,0
0:2:35.033,614.678,34.7841,0,0.000885,0,0
0:2:35.441,616.439,34.8806,0,0.000885,0,0
0:2:35.841,618.672,35.0116,0,0.000885,0,0
0:2:36.235,620.491,35.115,0,0.000885,0,0
0:2:36.630,622.253,35.2115,0,0.000885,0,0
0:2:37.027,623.721,35.2943,0,0.000885,0,0
0:2:37.430,625.714,35.4115,0,0.000885,0,0
0:2:37.837,627.239,35.4942,0,0.000885,0,0
0:2:38.241,629.53,35.6252,0,0.000885,0,0
0:2:38.642,630.998,35.7079,0,0.000885,0,0
0:2:39.041,632.408,35.7838,0,0.000885,0,0
0:2:39.441,634.752,35.9217,0,0.000885,0,0
0:2:39.837,636.398,36.0113,0,0.000885,0,0
0:2:40.230,637.982,36.1009,0,0.000885,0,0
0:2:40.629,639.921,36.2113,0,0.000885,0,0
0:2:41.028,641.683,36.3147,0,0.000885,0,0
0:2:41.425,643.266,36.4043,0,0.000885,0,0
0:2:41.829,645.495,36.5284,0,0.000885,0,0
0:2:42.224,646.553,36.5905,0,0.000885,0,0
0:2:42.628,648.079,36.6732,0,0.000885,0,0
0:2:43.035,649.605,36.7628,0,0.000885,0,0
0:2:43.438,651.896,36.887,0,0.000885,0,0
0:2:43.842,653.186,36.9628,0,0.000885,0,0
0:2:44.239,655.65,37.1007,0,0.000885,0,0
0:2:44.638,657.589,37.211,0,0.000885,0,0
0:2:45.036,659.289,37.3075,0,0.000885,0,0
0:2:45.429,661.05,37.411,0,0.000885,0,0
0:2:45.825,662.225,37.473,0,0.000885,0,0
0:2:46.225,664.28,37.5902,0,0.000885,0,0
0:2:46.624,665.983,37.6867,0,0.000885,0,0
0:2:47.018,668.332,37.8177,0,0.000885,0,0
0:2:47.423,669.973,37.9143,0,0.000885,0,0
0:2:47.827,670.854,37.9625,0,0.000885,0,0
0:2:48.230,673.261,38.1004,0,0.000885,0,0
0:2:48.636,674.844,38.1901,0,0.000885,0,0
0:2:49.042,676.784,38.3004,0,0.000885,0,0
0:2:49.438,678.839,38.4176,0,0.000885,0,0
0:2:49.836,680.716,38.521,0,0.000885,0,0
0:2:50.235,682.944,38.6451,0,0.000885,0,0
0:2:50.641,684.764,38.7485,0,0.000885,0,0
0:2:51.036,686.467,38.8451,0,0.000885,0,0
0:2:51.431,687.757,38.9209,0,0.000885,0,0
0:2:51.830,689.225,39.0036,0,0.000885,0,0
0:2:52.230,690.226,39.0588,0,0.000885,0,0
0:2:52.636,692.397,39.1829,0,0.000885,0,0
0:2:53.039,693.98,39.2725,0,0.000885,0,0
0:2:53.442,696.271,39.4035,0,0.000885,0,0
0:2:53.844,697.446,39.4656,0,0.000885,0,0
0:2:54.240,699.91,39.6035,0,0.000885,0,0
0:2:54.636,701.142,39.6793,0,0.000885,0,0
0:2:55.031,703.139,39.7896,0,0.000885,0,0
0:2:55.441,704.901,39.8862,0,0.000885,0,0
0:2:55.841,706.894,40.0034,0,0.000885,0,0
0:2:56.235,708.833,40.1137,0,0.000885,0,0
0:2:56.628,710.007,40.1758,0,0.000885,0,0
0:2:57.027,711.942,40.2861,0,0.000885,0,0
0:2:57.427,713.468,40.3757,0,0.000885,0,0
0:2:57.831,715.995,40.5136,0,0.000885,0,0
0:2:58.237,718.108,40.6377,0,0.000885,0,0
0:2:58.641,719.691,40.7273,0,0.000885,0,0
0:2:59.041,721.395,40.8239,0,0.000885,0,0
0:2:59.440,722.863,40.9066,0,0.000885,0,0
0:2:59.835,724.856,41.0169,0,0.000885,0,0
0:3:0.229,726.501,41.1134,0,0.000885,0,0
0:3:0.626,728.321,41.2169,0,0.000885,0,0
0:3:1.026,730.024,41.3134,0,0.000885,0,0
0:3:1.424,730.843,41.3548,0,0.000885,0,0
0:3:1.819,732.898,41.472,0,0.000885,0,0
0:3:2.214,735.131,41.603,0,0.000885,0,0
0:3:2.617,736.892,41.6995,0,0.000885,0,0
0:3:3.023,738.77,41.8029,0,0.000885,0,0
0:3:3.427,740.117,41.8788,0,0.000885,0,0
0:3:3.829,741.763,41.9753,0,0.000885,0,0
0:3:4.226,743.347,42.0649,0,0.000885,0,0
0:3:4.626,745.166,42.1683,0,0.000885,0,0
0:3:5.024,747.341,42.2924,0,0.000885,0,0
0:3:5.430,749.57,42.4165,0,0.000885,0,0
0:3:5.826,751.567,42.5269,0,0.000885,0,0
0:3:6.223,753.796,42.6579,0,0.000885,0,0
0:3:6.622,755.441,42.7475,0,0.000885,0,0
0:3:7.022,756.554,42.8095,0,0.000885,0,0
0:3:7.418,758.435,42.9199,0,0.000885,0,0
0:3:7.822,759.783,42.9957,0,0.000885,0,0
0:3:8.226,761.193,43.0715,0,0.000885,0,0
0:3:8.629,763.364,43.1957,0,0.000885,0,0
0:3:9.032,764.832,43.2784,0,0.000885,0,0
0:3:9.427,767.002,43.4025,0,0.000885,0,0
0:3:9.824,768.706,43.499,0,0.000885,0,0
0:3:10.231,770.583,43.6093,0,0.000885,0,0
0:3:10.631,773.048,43.7472,0,0.000885,0,0
0:3:11.028,774.106,43.8024,0,0.000885,0,0
0:3:11.432,775.983,43.9127,0,0.000885,0,0
0:3:11.828,777.278,43.9817,0,0.000885,0,0
0:3:12.227,778.919,44.0782,0,0.000885,0,0
0:3:12.627,780.503,44.1678,0,0.000885,0,0
0:3:13.032,782.442,44.2781,0,0.000885,0,0
0:3:13.439,783.968,44.3609,0,0.000885,0,0
0:3:13.840,786.432,44.5057,0,0.000885,0,0
0:3:14.242,788.487,44.616,0,0.000885,0,0
0:3:14.641,790.422,44.7263,0,0.000885,0,0
0:3:15.038,792.126,44.8228,0,0.000885,0,0
0:3:15.430,793.122,44.8849,0,0.000885,0,0
0:3:15.829,794.826,44.9814,0,0.000885,0,0
0:3:16.228,796.765,45.0848,0,0.000885,0,0
0:3:16.627,798.465,45.1813,0,0.000885,0,0
0:3:17.022,800.462,45.2986,0,0.000885,0,0
0:3:17.417,802.103,45.3882,0,0.000885,0,0
0:3:17.820,803.927,45.4916,0,0.000885,0,0
0:3:18.225,805.626,45.5881,0,0.000885,0,0
0:3:18.629,807.975,45.7191,0,0.000885,0,0
0:3:19.032,809.443,45.8019,0,0.000885,0,0
0:3:19.429,811.498,45.9191,0,0.000885,0,0
0:3:19.827,813.202,46.0156,0,0.000885,0,0
0:3:20.239,815.488,46.1466,0,0.000885,0,0
0:3:20.631,816.605,46.2087,0,0.000885,0,0
0:3:21.027,817.721,46.2707,0,0.000885,0,0
0:3:21.424,819.656,46.381,0,0.000885,0,0
0:3:21.832,821.302,46.4776,0,0.000885,0,0
0:3:22.231,823.001,46.5741,0,0.000885,0,0
0:3:22.637,825.35,46.7051,0,0.000885,0,0
0:3:23.041,827.053,46.8016,0,0.000885,0,0
0:3:23.442,828.521,46.8843,0,0.000885,0,0
0:3:23.845,830.692,47.0085,0,0.000885,0,0
0:3:24.241,831.631,47.0636,0,0.000885,0,0
0:3:24.638,834.273,47.2084,0,0.000885,0,0
0:3:25.032,836.15,47.3187,0,0.000885,0,0
0:3:25.432,837.618,47.4015,0,0.000885,0,0
0:3:25.830,839.264,47.4911,0,0.000885,0,0
0:3:26.226,841.377,47.6152,0,0.000885,0,0
0:3:26.621,842.782,47.691,0,0.000885,0,0
0:3:27.019,845.131,47.822,0,0.000885,0,0
0:3:27.419,847.302,47.9461,0,0.000885,0,0
0:3:27.825,848.832,48.0358,0,0.000885,0,0
0:3:28.228,850.18,48.1116,0,0.000885,0,0
0:3:28.631,852.119,48.2219,0,0.000885,0,0
0:3:29.032,854.054,48.3322,0,0.000885,0,0
0:3:29.429,854.757,48.3667,0,0.000885,0,0
0:3:29.826,856.812,48.4839,0,0.000885,0,0
0:3:30.221,858.4,48.5736,0,0.000885,0,0
0:3:30.619,860.277,48.6839,0,0.000885,0,0
0:3:31.020,862.332,48.8011,0,0.000885,0,0
0:3:31.425,864.209,48.9045,0,0.000885,0,0
0:3:31.831,866.264,49.0217,0,0.000885,0,0
0:3:32.247,867.261,49.0769,0,0.000885,0,0
0:3:32.649,869.494,49.201,0,0.000885,0,0
0:3:33.055,871.251,49.3044,0,0.000885,0,0
0:3:33.459,873.012,49.4009,0,0.000885,0,0
0:3:33.862,874.716,49.4975,0,0.000885,0,0
0:3:34.259,876.42,49.594,0,0.000885,0,0
0:3:34.659,878.706,49.725,0,0.000885,0,0
0:3:35.057,880.058,49.8008,0,0.000885,0,0
0:3:35.453,882.287,49.9249,0,0.000885,0,0
0:3:35.848,884.169,50.0353,0,0.000885,0,0
0:3:36.249,884.929,50.0766,0,0.000885,0,0
0:3:36.647,887.278,50.2076,0,0.000885,0,0
0:3:37.041,888.982,50.3041,0,0.000885,0,0
0:3:37.436,891.037,50.4214,0,0.000885,0,0
0:3:37.841,892.856,50.5248,0,0.000885,0,0
0:3:38.246,894.555,50.6213,0,0.000885,0,0
0:3:38.649,896.201,50.7178,0,0.000885,0,0
0:3:39.051,898.194,50.8282,0,0.000885,0,0
0:3:39.448,899.137,50.8833,0,0.000885,0,0
0:3:39.847,900.778,50.9729,0,0.000885,0,0
0:3:40.247,903.127,51.1039,0,0.000885,0,0
0:3:40.642,904.417,51.1798,0,0.000885,0,0
0:3:41.033,906.178,51.2763,0,0.000885,0,0
0:3:41.434,908.527,51.4142,0,0.000885,0,0
0:3:41.832,909.817,51.4832,0,0.000885,0,0
0:3:42.227,911.814,51.6004,0,0.000885,0,0
0:3:42.631,913.749,51.7107,0,0.000885,0,0
0:3:43.035,915.395,51.8003,0,0.000885,0,0
0:3:43.440,916.979,51.8899,0,0.000885,0,0
0:3:43.843,919.149,52.014,0,0.000885,0,0
0:3:44.237,920.502,52.0899,0,0.000885,0,0
0:3:44.632,922.499,52.2002,0,0.000885,0,0
0:3:45.030,924.612,52.3243,0,0.000885,0,0
0:3:45.430,926.373,52.4208,0,0.000885,0,0
0:3:45.828,928.015,52.5174,0,0.000885,0,0
0:3:46.222,929.54,52.6001,0,0.000885,0,0
0:3:46.629,931.538,52.7173,0,0.000885,0,0
0:3:47.029,933.179,52.8069,0,0.000885,0,0
0:3:47.426,934.647,52.8897,0,0.000885,0,0
0:3:47.830,936.586,53,0,0.000885,0,0
0:3:48.235,938.054,53.0827,0,0.000885,0,0
0:3:48.638,939.989,53.1931,0,0.000885,0,0
0:3:49.044,942.102,53.3103,0,0.000885,0,0
0:3:49.438,943.392,53.3861,0,0.000885,0,0
0:3:49.833,944.98,53.4757,0,0.000885,0,0
0:3:50.241,946.973,53.5861,0,0.000885,0,0
0:3:50.640,949.09,53.7102,0,0.000885,0,0
0:3:51.036,950.91,53.8136,0,0.000885,0,0
0:3:51.432,952.435,53.8963,0,0.000885,0,0
0:3:51.826,954.077,53.9928,0,0.000885,0,0
0:3:52.235,956.19,54.1101,0,0.000885,0,0
0:3:52.645,957.893,54.2066,0,0.000885,0,0
0:3:53.050,959.828,54.3169,0,0.000885,0,0
0:3:53.454,961.532,54.4134,0,0.000885,0,0
0:3:53.855,963.236,54.51,0,0.000885,0,0
0:3:54.255,964.584,54.5858,0,0.000885,0,0
0:3:54.653,966.639,54.703,0,0.000885,0,0
0:3:55.049,968.107,54.7857,0,0.000885,0,0
0:3:55.444,969.926,54.8892,0,0.000885,0,0
0:3:55.842,971.923,54.9995,0,0.000885,0,0
0:3:56.252,973.8,55.1029,0,0.000885,0,0
0:3:56.649,975.797,55.2201,0,0.000885,0,0
0:3:57.044,977.439,55.3097,0,0.000885,0,0
0:3:57.447,979.61,55.4338,0,0.000885,0,0
0:3:57.853,981.549,55.5442,0,0.000885,0,0
0:3:58.254,981.958,55.5648,0,0.000885,0,0
0:3:58.658,984.427,55.7096,0,0.000885,0,0
0:3:59.053,986.304,55.8131,0,0.000885,0,0
0:3:59.452,987.946,55.9096,0,0.000885,0,0
0:3:59.851,989.356,55.9854,0,0.000885,0,0
0:4:0.247,991.059,56.082,0,0.000885,0,0
0:4:0.642,992.407,56.1578,0,0.000885,0,0
0:4:1.037,994.52,56.275,0,0.000885,0,0
0:4:1.435,996.633,56.3991,0,0.000885,0,0
0:4:1.834,998.452,56.5025,0,0.000885,0,0
0:4:2.242,1000.63,56.6266,0,0.000885,0,0
0:4:2.647,1001.8,56.6887,0,0.000885,0,0
0:4:3.051,1003.39,56.7783,0,0.000885,0,0
0:4:3.453,1005.44,56.8955,0,0.000885,0,0
0:4:3.856,1007.14,56.9921,0,0.000885,0,0
0:4:4.251,1009.31,57.1162,0,0.000885,0,0
0:4:4.648,1011.37,57.2334,0,0.000885,0,0
0:4:5.048,1013.3,57.3437,0,0.000885,0,0
0:4:5.444,1015.36,57.4609,0,0.000885,0,0
0:4:5.839,1016.59,57.5299,0,0.000885,0,0
0:4:6.234,1017.29,57.5643,0,0.000885,0,0
0:4:6.643,1019,57.6609,0,0.000885,0,0
0:4:7.043,1020.82,57.7643,0,0.000885,0,0
0:4:7.439,1022.64,57.8677,0,0.000885,0,0
0:4:7.845,1024.58,57.978,0,0.000885,0,0
0:4:8.250,1026.93,58.109,0,0.000885,0,0
0:4:8.651,1028.86,58.2193,0,0.000885,0,0
0:4:9.054,1030.56,58.3159,0,0.000885,0,0
0:4:9.448,1032.15,58.4055,0,0.000885,0,0
0:4:9.843,1034.32,58.5296,0,0.000885,0,0
0:4:10.240,1035.43,58.5916,0,0.000885,0,0
0:4:10.640,1037.14,58.6882,0,0.000885,0,0
0:4:11.035,1039.07,58.7985,0,0.000885,0,0
0:4:11.451,1041.19,58.9157,0,0.000885,0,0
0:4:11.848,1042.71,59.0053,0,0.000885,0,0
0:4:12.248,1044.71,59.1156,0,0.000885,0,0
0:4:12.646,1045.71,59.1777,0,0.000885,0,0
0:4:13.051,1047.41,59.2742,0,0.000885,0,0
0:4:13.454,1049.17,59.3708,0,0.000885,0,0
0:4:13.856,1051.23,59.488,0,0.000885,0,0
0:4:14.258,1053.63,59.6259,0,0.000885,0,0
0:4:14.653,1055.8,59.7431,0,0.000885,0,0
0:4:15.047,1057.56,59.8465,0,0.000885,0,0
0:4:15.445,1058.74,59.9154,0,0.000885,0,0
0:4:15.845,1059.68,59.9637,0,0.000885,0,0
0:4:16.239,1061.67,60.0809,0,0.000885,0,0
0:4:16.635,1063.67,60.1912,0,0.000885,0,0
0:4:17.030,1065.37,60.2878,0,0.000885,0,0
0:4:17.433,1067.31,60.3981,0,0.000885,0,0
0:4:17.840,1068.84,60.4808,0,0.000885,0,0
0:4:18.244,1070.95,60.6049,0,0.000885,0,0
0:4:18.646,1072.71,60.7014,0,0.000885,0,0
0:4:19.045,1074.41,60.798,0,0.000885,0,0
0:4:19.444,1076.35,60.9083,0,0.000885,0,0
0:4:19.838,1078.4,61.0255,0,0.000885,0,0
0:4:20.244,1079.64,61.0944,0,0.000885,0,0
0:4:20.637,1081.22,61.1841,0,0.000885,0,0
0:4:21.038,1082.92,61.2806,0,0.000885,0,0
0:4:21.437,1084.92,61.3909,0,0.000885,0,0
0:4:21.830,1087.03,61.515,0,0.000885,0,0
0:4:22.227,1088.97,61.6253,0,0.000885,0,0
0:4:22.630,1090.26,61.6943,0,0.000885,0,0
0:4:23.037,1092.72,61.8322,0,0.000885,0,0
0:4:23.439,1094.31,61.9287,0,0.000885,0,0
0:4:23.841,1096.01,62.0183,0,0.000885,0,0
0:4:24.237,1097.13,62.0873,0,0.000885,0,0
0:4:24.636,1098.65,62.17,0,0.000885,0,0
0:4:25.047,1100.53,62.2803,0,0.000885,0,0
0:4:25.452,1101.88,62.3562,0,0.000885,0,0
0:4:25.846,1104.11,62.4803,0,0.000885,0,0
0:4:26.245,1105.99,62.5837,0,0.000885,0,0
0:4:26.641,1107.87,62.694,0,0.000885,0,0
0:4:27.039,1109.69,62.7974,0,0.000885,0,0
0:4:27.434,1111.8,62.9147,0,0.000885,0,0
0:4:27.838,1112.92,62.9767,0,0.000885,0,0
0:4:28.246,1115.03,63.1008,0,0.000885,0,0
0:4:28.648,1116.97,63.2042,0,0.000885,0,0
0:4:29.051,1118.61,63.3008,0,0.000885,0,0
0:4:29.447,1120.55,63.4111,0,0.000885,0,0
0:4:29.853,1122.43,63.5145,0,0.000885,0,0
0:4:30.252,1124.36,63.6248,0,0.000885,0,0
0:4:30.653,1126.18,63.7282,0,0.000885,0,0
0:4:31.047,1127.65,63.811,0,0.000885,0,0
0:4:31.440,1129.06,63.8937,0,0.000885,0,0
0:4:31.839,1130.82,63.9902,0,0.000885,0,0
0:4:32.238,1132.82,64.1075,0,0.000885,0,0
0:4:32.635,1134.7,64.2109,0,0.000885,0,0
0:4:33.040,1136.34,64.3005,0,0.000885,0,0
0:4:33.446,1138.04,64.397,0,0.000885,0,0
0:4:33.848,1140.15,64.5211,0,0.000885,0,0
0:4:34.251,1141.68,64.6039,0,0.000885,0,0
0:4:34.649,1143.32,64.7004,0,0.000885,0,0
0:4:35.041,1145.26,64.8107,0,0.000885,0,0
0:4:35.437,1146.61,64.8866,0,0.000885,0,0
0:4:35.837,1148.31,64.9831,0,0.000885,0,0
0:4:36.237,1150.13,65.0865,0,0.000885,0,0
0:4:36.631,1152.3,65.2037,0,0.000885,0,0
0:4:37.037,1154.18,65.314,0,0.000885,0,0
0:4:37.441,1156.12,65.4244,0,0.000885,0,0
0:4:37.848,1157.77,65.514,0,0.000885,0,0
0:4:38.250,1159.35,65.6036,0,0.000885,0,0
0:4:38.653,1160.76,65.6864,0,0.000885,0,0
0:4:39.050,1162.34,65.776,0,0.000885,0,0
0:4:39.449,1163.93,65.8656,0,0.000885,0,0
0:4:39.847,1166.04,65.9828,0,0.000885,0,0
0:4:40.246,1168.21,66.1069,0,0.000885,0,0
0:4:40.650,1170.15,66.2172,0,0.000885,0,0
0:4:41.047,1172.15,66.3276,0,0.000885,0,0
0:4:41.446,1173.85,66.4241,0,0.000885,0,0
0:4:41.842,1175.2,66.4999,0,0.000885,0,0
0:4:42.237,1176.78,66.5896,0,0.000885,0,0
0:4:42.642,1179.54,66.7481,0,0.000885,0,0
0:4:43.047,1180.71,66.8171,0,0.000885,0,0
0:4:43.449,1182.12,66.8929,0,0.000885,0,0
0:4:43.852,1183.48,66.9688,0,0.000885,0,0
0:4:44.250,1185.12,67.0653,0,0.000885,0,0
0:4:44.643,1187.52,67.2032,0,0.000885,0,0
0:4:45.041,1189.23,67.2997,0,0.000885,0,0
0:4:45.442,1191.28,67.41,0,0.000885,0,0
0:4:45.839,1192.87,67.4997,0,0.000885,0,0
0:4:46.243,1194.69,67.6031,0,0.000885,0,0
0:4:46.640,1196.1,67.6858,0,0.000885,0,0
0:4:47.037,1197.74,67.7755,0,0.000885,0,0
0:4:47.438,1199.68,67.8858,0,0.000885,0,0
0:4:47.844,1202.02,68.0237,0,0.000885,0,0
0:4:48.249,1203.84,68.1202,0,0.000885,0,0
0:4:48.651,1205.25,68.2029,0,0.000885,0,0
0:4:49.052,1207.36,68.3201,0,0.000885,0,0
0:4:49.450,1208.77,68.4029,0,0.000885,0,0
0:4:49.847,1210.77,68.5132,0,0.000885,0,0
0:4:50.253,1212.24,68.5959,0,0.000885,0,0
0:4:50.650,1214.12,68.7063,0,0.000885,0,0
0:4:51.048,1215.58,68.789,0,0.000885,0,0
0:4:51.457,1217.93,68.92,0,0.000885,0,0
0:4:51.854,1220.28,69.051,0,0.000885,0,0
0:4:52.248,1221.98,69.1475,0,0.000885,0,0
0:4:52.652,1223.39,69.2303,0,0.000885,0,0
0:4:53.056,1224.86,69.313,0,0.000885,0,0
0:4:53.459,1225.85,69.3682,0,0.000885,0,0
0:4:53.860,1227.03,69.4371,0,0.000885,0,0
0:4:54.259,1229.38,69.5681,0,0.000885,0,0
0:4:54.656,1231.49,69.6853,0,0.000885,0,0
0:4:55.056,1233.66,69.8094,0,0.000885,0,0
0:4:55.452,1235.13,69.8922,0,0.000885,0,0
0:4:55.856,1236.54,69.9749,0,0.000885,0,0
0:4:56.253,1238.77,70.099,0,0.000885,0,0
0:4:56.651,1240.71,70.2093,0,0.000885,0,0
0:4:57.050,1242.58,70.3127,0,0.000885,0,0
0:4:57.447,1244.4,70.4162,0,0.000885,0,0
0:4:57.853,1246.16,70.5196,0,0.000885,0,0
0:4:58.256,1247.98,70.623,0,0.000885,0,0
0:4:58.659,1249.34,70.6988,0,0.000885,0,0
0:4:59.062,1251.45,70.8161,0,0.000885,0,0
0:4:59.458,1253.03,70.9057,0,0.000885,0,0
0:4:59.853,1255.09,71.0229,0,0.000885,0,0
0:5:0.253,1256.2,71.0849,0,0.000885,0,0
0:5:0.652,1258.32,71.2091,0,0.000885,0,0
0:5:1.048,1260.37,71.3194,0,0.000885,0,0
0:5:1.453,1262.37,71.4366,0,0.000885,0,0
0:5:1.850,1263.83,71.5193,0,0.000885,0,0
0:5:2.251,1264.95,71.5814,0,0.000885,0,0
0:5:2.656,1266.77,71.6848,0,0.000885,0,0
0:5:3.060,1268.76,71.7951,0,0.000885,0,0
0:5:3.462,1270.64,71.9054,0,0.000885,0,0
0:5:3.862,1272.46,72.0088,0,0.000885,0,0
0:5:4.262,1274.1,72.0985,0,0.000885,0,0
0:5:4.659,1275.87,72.2019,0,0.000885,0,0
0:5:5.052,1277.81,72.3122,0,0.000885,0,0
0:5:5.449,1279.27,72.395,0,0.000885,0,0
0:5:5.850,1280.97,72.4915,0,0.000885,0,0
0:5:6.244,1282.85,72.5949,0,0.000885,0,0
0:5:6.639,1285.02,72.719,0,0.000885,0,0
0:5:7.044,1287.08,72.8362,0,0.000885,0,0
0:5:7.449,1288.08,72.8914,0,0.000885,0,0
0:5:7.854,1290.01,73.0017,0,0.000885,0,0
0:5:8.256,1291.95,73.112,0,0.000885,0,0
0:5:8.659,1294.01,73.2223,0,0.000885,0,0
0:5:9.057,1295.24,73.2982,0,0.000885,0,0
0:5:9.457,1297.11,73.4016,0,0.000885,0,0
0:5:9.853,1298.7,73.4912,0,0.000885,0,0
0:5:10.250,1300.87,73.6153,0,0.000885,0,0
0:5:10.643,1302.99,73.7325,0,0.000885,0,0
0:5:11.042,1304.39,73.8153,0,0.000885,0,0
0:5:11.440,1306.22,73.9187,0,0.000885,0,0
0:5:11.835,1307.56,73.9945,0,0.000885,0,0
0:5:12.231,1309.21,74.0842,0,0.000885,0,0
0:5:12.633,1310.5,74.16,0,0.000885,0,0
0:5:13.039,1312.5,74.2703,0,0.000885,0,0
0:5:13.442,1314.55,74.3875,0,0.000885,0,0
0:5:13.843,1316.95,74.5254,0,0.000885,0,0
0:5:14.252,1318.54,74.6151,0,0.000885,0,0
0:5:14.651,1320.01,74.6978,0,0.000885,0,0
0:5:15.046,1321.83,74.8012,0,0.000885,0,0
0:5:15.443,1323.88,74.9184,0,0.000885,0,0
0:5:15.837,1325.58,75.015,0,0.000885,0,0
0:5:16.236,1327.05,75.0977,0,0.000885,0,0
0:5:16.635,1329.05,75.208,0,0.000885,0,0
0:5:17.052,1331.1,75.3252,0,0.000885,0,0
0:5:17.457,1332.63,75.408,0,0.000885,0,0
0:5:17.861,1334.16,75.4976,0,0.000885,0,0
0:5:18.267,1335.39,75.5665,0,0.000885,0,0
0:5:18.669,1337.91,75.7113,0,0.000885,0,0
0:5:19.073,1339.67,75.8079,0,0.000885,0,0
0:5:19.469,1341.32,75.9044,0,0.000885,0,0
0:5:19.866,1343.55,76.0285,0,0.000885,0,0
0:5:20.264,1345.07,76.1181,0,0.000885,0,0
0:5:20.662,1346.95,76.2215,0,0.000885,0,0
0:5:21.057,1348.48,76.3112,0,0.000885,0,0
0:5:21.451,1350.36,76.4146,0,0.000885,0,0
0:5:21.851,1351.53,76.4835,0,0.000885,0,0
0:5:22.246,1353.7,76.6008,0,0.000885,0,0
0:5:22.652,1355.52,76.7042,0,0.000885,0,0
0:5:23.056,1356.93,76.7869,0,0.000885,0,0
0:5:23.459,1358.69,76.8834,0,0.000885,0,0
0:5:23.860,1360.45,76.9869,0,0.000885,0,0
0:5:24.257,1362.04,77.0765,0,0.000885,0,0
0:5:24.652,1364.15,77.1937,0,0.000885,0,0
0:5:25.046,1366.2,77.3109,0,0.000885,0,0
0:5:25.445,1368.02,77.4143,0,0.000885,0,0
0:5:25.853,1370.31,77.5453,0,0.000885,0,0
0:5:26.247,1371.66,77.6212,0,0.000885,0,0
0:5:26.642,1373.25,77.7108,0,0.000885,0,0
0:5:27.041,1375.07,77.8142,0,0.000885,0,0
0:5:27.441,1376.36,77.8832,0,0.000885,0,0
0:5:27.847,1378.77,78.0211,0,0.000885,0,0
0:5:28.252,1380.23,78.1038,0,0.000885,0,0
0:5:28.653,1382.4,78.2279,0,0.000885,0,0
0:5:29.052,1383.76,78.3038,0,0.000885,0,0
0:5:29.461,1385.63,78.4141,0,0.000885,0,0
0:5:29.858,1387.4,78.5106,0,0.000885,0,0
0:5:30.253,1388.86,78.5933,0,0.000885,0,0
0:5:30.647,1390.74,78.6968,0,0.000885,0,0
0:5:31.045,1392.03,78.7726,0,0.000885,0,0
0:5:31.454,1394.5,78.9105,0,0.000885,0,0
0:5:31.847,1396.14,79.007,0,0.000885,0,0
0:5:32.243,1398.14,79.1173,0,0.000885,0,0
0:5:32.646,1399.84,79.2139,0,0.000885,0,0
0:5:33.053,1401.07,79.2828,0,0.000885,0,0
0:5:33.456,1403.24,79.4069,0,0.000885,0,0
0:5:33.858,1405.24,79.5172,0,0.000885,0,0
0:5:34.254,1406.59,79.6,0,0.000885,0,0
0:5:34.653,1408.52,79.7034,0,0.000885,0,0
0:5:35.061,1410.29,79.8068,0,0.000885,0,0
0:5:35.455,1411.87,79.8964,0,0.000885,0,0
0:5:35.849,1413.75,79.9999,0,0.000885,0,0
0:5:36.245,1415.81,80.1171,0,0.000885,0,0
0:5:36.646,1417.39,80.2067,0,0.000885,0,0
0:5:37.054,1419.74,80.3377,0,0.000885,0,0
0:5:37.446,1420.97,80.4136,0,0.000885,0,0
0:5:37.853,1422.61,80.5032,0,0.000885,0,0
0:5:38.256,1424.85,80.6273,0,0.000885,0,0
0:5:38.660,1426.84,80.7445,0,0.000885,0,0
0:5:39.063,1428.25,80.8203,0,0.000885,0,0
0:5:39.459,1429.95,80.9169,0,0.000885,0,0
0:5:39.856,1430.83,80.9651,0,0.000885,0,0
0:5:40.254,1432.59,81.0686,0,0.000885,0,0
0:5:40.652,1434.65,81.1858,0,0.000885,0,0
0:5:41.047,1436.7,81.303,0,0.000885,0,0
0:5:41.442,1438.46,81.3995,0,0.000885,0,0
0:5:41.838,1440.05,81.4891,0,0.000885,0,0
0:5:42.238,1441.58,81.5788,0,0.000885,0,0
0:5:42.636,1443.86,81.7029,0,0.000885,0,0
0:5:43.041,1445.33,81.7856,0,0.000885,0,0
0:5:43.446,1447.62,81.9166,0,0.000885,0,0
0:5:43.848,1449.15,82.0062,0,0.000885,0,0
0:5:44.253,1450.85,82.1028,0,0.000885,0,0
0:5:44.647,1452.9,82.22,0,0.000885,0,0
0:5:45.042,1454.78,82.3234,0,0.000885,0,0
0:5:45.439,1456.49,82.4199,0,0.000885,0,0
0:5:45.837,1457.89,82.5027,0,0.000885,0,0
0:5:46.237,1459.95,82.613,0,0.000885,0,0
0:5:46.643,1461.65,82.7095,0,0.000885,0,0
0:5:47.047,1463.29,82.806,0,0.000885,0,0
0:5:47.453,1465.23,82.9164,0,0.000885,0,0
0:5:47.859,1467.29,83.0336,0,0.000885,0,0
0:5:48.263,1468.52,83.1025,0,0.000885,0,0
0:5:48.667,1470.75,83.2266,0,0.000885,0,0
0:5:49.063,1472.69,83.3369,0,0.000885,0,0
0:5:49.461,1473.92,83.4059,0,0.000885,0,0
0:5:49.860,1475.33,83.4886,0,0.000885,0,0
0:5:50.258,1477.15,83.592,0,0.000885,0,0
0:5:50.654,1478.79,83.6817,0,0.000885,0,0
0:5:51.048,1480.5,83.7782,0,0.000885,0,0
0:5:51.448,1482.56,83.8954,0,0.000885,0,0
0:5:51.846,1484.27,83.9919,0,0.000885,0,0
0:5:52.242,1486.39,84.1091,0,0.000885,0,0
0:5:52.648,1488.04,84.2057,0,0.000885,0,0
0:5:53.054,1489.69,84.3022,0,0.000885,0,0
0:5:53.456,1491.33,84.3918,0,0.000885,0,0
0:5:53.859,1493.1,84.4953,0,0.000885,0,0
0:5:54.256,1494.93,84.5987,0,0.000885,0,0
0:5:54.654,1497.34,84.7297,0,0.000885,0,0
0:5:55.047,1499.28,84.84,0,0.000885,0,0
0:5:55.446,1501.11,84.9434,0,0.000885,0,0
0:5:55.858,1502.28,85.0124,0,0.000885,0,0
0:5:56.263,1503.76,85.0951,0,0.000885,0,0
0:5:56.659,1505.94,85.2192,0,0.000885,0,0
0:5:57.057,1507.64,85.3157,0,0.000885,0,0
0:5:57.460,1509.17,85.3985,0,0.000885,0,0
0:5:57.864,1511.3,85.5226,0,0.000885,0,0
0:5:58.268,1513.24,85.6329,0,0.000885,0,0
0:5:58.670,1515.01,85.7294,0,0.000885,0,0
0:5:59.068,1516.36,85.8053,0,0.000885,0,0
0:5:59.468,1518.07,85.9018,0,0.000885,0,0
0:5:59.863,1519.95,86.0121,0,0.000885,0,0
0:6:0.260,1521.6,86.1017,0,0.000885,0,0
0:6:0.656,1523.01,86.1845,0,0.000885,0,0
0:6:1.057,1525.19,86.3086,0,0.000885,0,0
0:6:1.464,1526.72,86.3982,0,0.000885,0,0
0:6:1.859,1528.61,86.5016,0,0.000885,0,0
0:6:2.255,1530.25,86.5982,0,0.000885,0,0
0:6:2.659,1532.14,86.7016,0,0.000885,0,0
0:6:3.064,1534.26,86.8188,0,0.000885,0,0
0:6:3.468,1535.73,86.9015,0,0.000885,0,0
0:6:3.869,1537.27,86.9912,0,0.000885,0,0
0:6:4.266,1539.09,87.0946,0,0.000885,0,0
0:6:4.666,1540.98,87.198,0,0.000885,0,0
0:6:5.064,1542.74,87.3014,0,0.000885,0,0
0:6:5.461,1544.74,87.4117,0,0.000885,0,0
0:6:5.856,1546.92,87.5358,0,0.000885,0,0
0:6:6.255,1548.33,87.6186,0,0.000885,0,0
0:6:6.655,1550.16,87.722,0,0.000885,0,0
0:6:7.049,1550.98,87.7703,0,0.000885,0,0
0:6:7.446,1552.87,87.8737,0,0.000885,0,0
0:6:7.850,1554.93,87.9909,0,0.000885,0,0
0:6:8.258,1556.81,88.0943,0,0.000885,0,0
0:6:8.660,1558.52,88.1908,0,0.000885,0,0
0:6:9.064,1560.58,88.3081,0,0.000885,0,0
0:6:9.459,1562.7,88.4322,0,0.000885,0,0
0:6:9.857,1563.94,88.5011,0,0.000885,0,0
0:6:10.257,1565.82,88.6045,0,0.000885,0,0
0:6:10.652,1567.47,88.7011,0,0.000885,0,0
0:6:11.047,1569.23,88.7976,0,0.000885,0,0
0:6:11.452,1571.18,88.9079,0,0.000885,0,0
0:6:11.856,1573.06,89.0182,0,0.000885,0,0
0:6:12.261,1574.24,89.0872,0,0.000885,0,0
0:6:12.666,1576.6,89.2182,0,0.000885,0,0
0:6:13.070,1577.95,89.294,0,0.000885,0,0
0:6:13.473,1580.31,89.425,0,0.000885,0,0
0:6:13.876,1581.78,89.5077,0,0.000885,0,0
0:6:14.272,1583.25,89.5905,0,0.000885,0,0
0:6:14.667,1585.14,89.7008,0,0.000885,0,0
0:6:15.066,1587.43,89.8318,0,0.000885,0,0
0:6:15.463,1589.2,89.9283,0,0.000885,0,0
0:6:15.861,1590.73,90.018,0,0.000885,0,0
0:6:16.257,1592.49,90.1145,0,0.000885,0,0
0:6:16.650,1593.97,90.1972,0,0.000885,0,0
0:6:17.061,1595.38,90.28,0,0.000885,0,0
0:6:17.460,1597.44,90.3972,0,0.000885,0,0
0:6:17.866,1598.8,90.473,0,0.000885,0,0
0:6:18.270,1600.86,90.5902,0,0.000885,0,0
0:6:18.673,1602.45,90.6798,0,0.000885,0,0
0:6:19.073,1604.62,90.804,0,0.000885,0,0
0:6:19.471,1606.04,90.8798,0,0.000885,0,0
0:6:19.866,1608.04,90.997,0,0.000885,0,0
0:6:20.262,1609.86,91.1004,0,0.000885,0,0
0:6:20.661,1611.93,91.2176,0,0.000885,0,0
0:6:21.060,1613.34,91.2935,0,0.000885,0,0
0:6:21.466,1615.4,91.4107,0,0.000885,0,0
0:6:21.860,1617.28,91.521,0,0.000885,0,0
0:6:22.260,1619.41,91.6382,0,0.000885,0,0
0:6:22.660,1620.46,91.7003,0,0.000885,0,0
0:6:23.066,1622,91.783,0,0.000885,0,0
0:6:23.470,1624.17,91.9071,0,0.000885,0,0
0:6:23.873,1626.06,92.0174,0,0.000885,0,0
0:6:24.270,1627.94,92.1209,0,0.000885,0,0
0:6:24.672,1629.53,92.2105,0,0.000885,0,0
0:6:25.067,1631.47,92.3208,0,0.000885,0,0
0:6:25.462,1632.83,92.3966,0,0.000885,0,0
0:6:25.859,1634.42,92.4863,0,0.000885,0,0
0:6:26.258,1636.18,92.5897,0,0.000885,0,0
0:6:26.658,1638.07,92.6931,0,0.000885,0,0
0:6:27.050,1640.6,92.8379,0,0.000885,0,0
0:6:27.454,1641.9,92.9137,0,0.000885,0,0
0:6:27.860,1643.6,93.0103,0,0.000885,0,0
0:6:28.262,1644.9,93.0792,0,0.000885,0,0
0:6:28.666,1647.08,93.2033,0,0.000885,0,0
0:6:29.062,1648.91,93.3068,0,0.000885,0,0
0:6:29.460,1650.44,93.3964,0,0.000885,0,0
0:6:29.859,1651.97,93.4791,0,0.000885,0,0
0:6:30.254,1654.09,93.6032,0,0.000885,0,0
0:6:30.648,1655.97,93.7066,0,0.000885,0,0
0:6:31.046,1658.27,93.8376,0,0.000885,0,0
0:6:31.445,1659.68,93.9204,0,0.000885,0,0
0:6:31.843,1661.21,94.0031,0,0.000885,0,0
0:6:32.239,1663.04,94.1065,0,0.000885,0,0
0:6:32.644,1664.8,94.21,0,0.000885,0,0
0:6:33.048,1666.45,94.2996,0,0.000885,0,0
0:6:33.451,1668.39,94.4099,0,0.000885,0,0
0:6:33.852,1670.52,94.534,0,0.000885,0,0
0:6:34.249,1671.34,94.5754,0,0.000885,0,0
0:6:34.653,1673.4,94.6926,0,0.000885,0,0
0:6:35.053,1674.99,94.7822,0,0.000885,0,0
0:6:35.452,1676.94,94.8925,0,0.000885,0,0
0:6:35.847,1678.88,95.0029,0,0.000885,0,0
0:6:36.242,1680.35,95.0856,0,0.000885,0,0
0:6:36.651,1682.05,95.1821,0,0.000885,0,0
0:6:37.050,1683.83,95.2855,0,0.000885,0,0
0:6:37.447,1686.12,95.4165,0,0.000885,0,0
0:6:37.852,1688.06,95.5269,0,0.000885,0,0
0:6:38.258,1689.07,95.582,0,0.000885,0,0
0:6:38.660,1691.18,95.6992,0,0.000885,0,0
0:6:39.064,1693.07,95.8095,0,0.000885,0,0
0:6:39.460,1694.66,95.8992,0,0.000885,0,0
0:6:39.852,1696.48,96.0026,0,0.000885,0,0
0:6:40.250,1698.37,96.106,0,0.000885,0,0
0:6:40.650,1700.13,96.2094,0,0.000885,0,0
0:6:41.048,1702.2,96.3267,0,0.000885,0,0
0:6:41.453,1703.84,96.4163,0,0.000885,0,0
0:6:41.847,1705.61,96.5197,0,0.000885,0,0
0:6:42.247,1707.32,96.6162,0,0.000885,0,0
0:6:42.655,1709.38,96.7334,0,0.000885,0,0
0:6:43.063,1710.97,96.8231,0,0.000885,0,0
0:6:43.468,1712.68,96.9196,0,0.000885,0,0
0:6:43.871,1714.26,97.0092,0,0.000885,0,0
0:6:44.272,1716.09,97.1127,0,0.000885,0,0
0:6:44.669,1717.33,97.1816,0,0.000885,0,0
0:6:45.065,1719.15,97.285,0,0.000885,0,0
0:6:45.460,1721.15,97.3953,0,0.000885,0,0
0:6:45.861,1722.86,97.4919,0,0.000885,0,0
0:6:46.259,1724.45,97.5815,0,0.000885,0,0
0:6:46.653,1726.1,97.678,0,0.000885,0,0
0:6:47.048,1728.22,97.7952,0,0.000885,0,0
0:6:47.452,1729.93,97.8918,0,0.000885,0,0
0:6:47.859,1731.81,98.0021,0,0.000885,0,0
0:6:48.262,1733.52,98.0986,0,0.000885,0,0
0:6:48.664,1735.34,98.202,0,0.000885,0,0
0:6:49.060,1737.11,98.2986,0,0.000885,0,0
0:6:49.460,1738.82,98.3951,0,0.000885,0,0
0:6:49.867,1740.94,98.5192,0,0.000885,0,0
0:6:50.264,1742.76,98.6226,0,0.000885,0,0
0:6:50.659,1744.47,98.7191,0,0.000885,0,0
0:6:51.056,1746.59,98.8363,0,0.000885,0,0
0:6:51.455,1747.95,98.9122,0,0.000885,0,0
0:6:51.851,1749.71,99.0156,0,0.000885,0,0
0:6:52.248,1751.54,99.119,0,0.000885,0,0
0:6:52.652,1753.19,99.2087,0,0.000885,0,0
0:6:53.057,1754.66,99.2914,0,0.000885,0,0
0:6:53.462,1756.37,99.3879,0,0.000885,0,0
0:6:53.865,1758.31,99.4982,0,0.000885,0,0
0:6:54.260,1760.13,99.6017,0,0.000885,0,0
0:6:54.655,1761.73,99.6913,0,0.000885,0,0
0:6:55.054,1762.61,99.7465,0,0.000885,0,0
0:6:55.463,1764.2,99.8361,0,0.000885,0,0
0:6:55.857,1766.14,99.9464,0,0.000885,0,0
0:6:56.252,1768.32,100.064,0,0.000885,0,0
0:6:56.650,1770.68,100.202,0,0.000885,0,0
0:6:57.048,1772.62,100.312,0,0.000885,0,0
0:6:57.442,1774.21,100.401,0,0.000885,0,0
0:6:57.848,1776.56,100.532,0,0.000885,0,0
0:6:58.252,1778.1,100.622,0,0.000885,0,0
0:6:58.654,1779.68,100.712,0,0.000885,0,0
0:6:59.057,1779.98,100.726,0,0.000885,0,0
0:6:59.453,1781.45,100.808,0,0.000885,0,0
0:6:59.848,1781.98,100.843,0,0.000885,0,0
0:7:0.254,1641.6,92.8931,0,0.000885,0,0
0:7:0.662,1614.52,91.3624,0,0.000885,0,0
0:7:1.067,1611.22,91.1763,0,0.000885,0,0
0:7:1.462,1612.93,91.2728,0,0.000885,0,0
0:7:1.857,1616.46,91.4727,0,0.000885,0,0
0:7:2.257,1619.05,91.6175,0,0.000885,0,0
0:7:2.664,1623.35,91.8657,0,0.000885,0,0
0:7:3.065,1628.06,92.1277,0,0.000885,0,0
0:7:3.464,1631.59,92.3277,0,0.000885,0,0
0:7:3.863,1635.13,92.5276,0,0.000885,0,0
0:7:4.261,1638.48,92.7207,0,0.000885,0,0
0:7:4.663,1641.6,92.8931,0,0.000885,0,0
0:7:5.056,1645.08,93.093,0,0.000885,0,0
0:7:5.453,1648.26,93.2723,0,0.000885,0,0
0:7:5.851,1651.38,93.4515,0,0.000885,0,0
0:7:6.248,1654.38,93.617,0,0.000885,0,0
0:7:6.641,1657.33,93.7825,0,0.000885,0,0
0:7:7.046,1659.97,93.9342,0,0.000885,0,0
0:7:7.448,1419.39,80.3239,0,0.000885,0,0
0:7:7.852,1401.07,79.2828,0,0.000885,0,0
0:7:8.254,1390.74,78.6968,0,0.000885,0,0
0:7:8.655,1385.46,78.4003,0,0.000885,0,0
0:7:9.050,1383.69,78.3038,0,0.000885,0,0
0:7:9.449,1381.23,78.159,0,0.000885,0,0
0:7:9.826,1282.32,72.5673,0,0.000885,0,0