File: DataFile2021-07-25_065850.csv
Test ID:,Date Tested:,Time:,Test Type:,Diameter Avg. (mm):,Cyl. Corr. Factor:,Height (mm):,Age (days):,Weight (kN):,Break Type:,Ramp Rate (MPa/s):,Load at Break (kN):,Stress at Break (MPa):
12,7/25/2021,06:58,Cylinder,100,1,200,0,3.5,3,0.32,266.27,33.9
Sample Time,Load (kN),Stress (MPa),Long. Strain,Trans. Strain,Chan1 Deflection (mm),Chan2 Deflection (mm)
0:0:13.884,8.67848,1.10316,0,0.000885,0,0
0:0:13.985,11.4942,1.46169,0,0.000885,0,0
0:0:14.085,13.3714,1.70301,0,0.000885,0,0
0:0:14.186,13.3714,1.70301,0,0.000885,0,0
0:0:14.283,13.4292,1.7099,0,0.000885,0,0
0:0:14.379,13.3714,1.70301,0,0.000885,0,0
0:0:14.480,13.3714,1.70301,0,0.000885,0,0
0:0:14.581,13.1356,1.67543,0,0.000885,0,0
0:0:14.680,13.1979,1.68232,0,0.000885,0,0
0:0:14.779,12.9043,1.64095,0,0.000885,0,0
0:0:14.876,12.9043,1.64095,0,0.000885,0,0
0:0:14.976,12.7842,1.62716,0,0.000885,0,0
0:0:15.078,12.7264,1.62027,0,0.000885,0,0
0:0:15.178,12.9043,1.64095,0,0.000885,0,0
0:0:15.276,12.9043,1.64095,0,0.000885,0,0
0:0:15.373,12.6107,1.60648,0,0.000885,0,0
0:0:15.471,12.3171,1.56511,0,0.000885,0,0
0:0:15.573,12.3171,1.56511,0,0.000885,0,0
0:0:15.673,12.4906,1.59269,0,0.000885,0,0
0:0:15.772,12.2015,1.55132,0,0.000885,0,0
0:0:15.870,12.2015,1.55132,0,0.000885,0,0
0:0:15.967,12.2015,1.55132,0,0.000885,0,0
0:0:16.068,12.2015,1.55132,0,0.000885,0,0
0:0:16.169,12.6685,1.61337,0,0.000885,0,0
0:0:16.267,12.375,1.5789,0,0.000885,0,0
0:0:16.364,12.375,1.5789,0,0.000885,0,0
0:0:16.462,12.4328,1.58579,0,0.000885,0,0
0:0:16.563,12.375,1.5789,0,0.000885,0,0
0:0:16.663,12.2015,1.55132,0,0.000885,0,0
0:0:16.762,12.2015,1.55132,0,0.000885,0,0
0:0:16.860,12.375,1.5789,0,0.000885,0,0
0:0:16.959,12.2593,1.55822,0,0.000885,0,0
0:0:17.059,12.2593,1.55822,0,0.000885,0,0
0:0:17.160,12.8465,1.63406,0,0.000885,0,0
0:0:17.260,12.6685,1.61337,0,0.000885,0,0
0:0:17.356,12.6685,1.61337,0,0.000885,0,0
0:0:17.451,12.6685,1.61337,0,0.000885,0,0
0:0:17.552,13.3714,1.70301,0,0.000885,0,0
0:0:17.655,13.7228,1.74437,0,0.000885,0,0
0:0:17.756,14.2521,1.81332,0,0.000885,0,0
0:0:17.852,14.2521,1.81332,0,0.000885,0,0
0:0:17.962,14.9549,1.90295,0,0.000885,0,0
0:0:18.061,14.9549,1.90295,0,0.000885,0,0
0:0:18.162,15.6577,1.99258,0,0.000885,0,0
0:0:18.263,15.6577,1.99258,0,0.000885,0,0
0:0:18.360,16.2449,2.06843,0,0.000885,0,0
0:0:18.458,16.4228,2.08911,0,0.000885,0,0
0:0:18.557,17.1257,2.17874,0,0.000885,0,0
0:0:18.658,17.1257,2.17874,0,0.000885,0,0
0:0:18.758,17.4771,2.22701,0,0.000885,0,0
0:0:18.857,18.1799,2.31664,0,0.000885,0,0
0:0:18.955,18.1799,2.31664,0,0.000885,0,0
0:0:19.055,18.7092,2.38559,0,0.000885,0,0
0:0:19.156,19.1185,2.43385,0,0.000885,0,0
0:0:19.258,19.6478,2.5028,0,0.000885,0,0
0:0:19.358,19.6478,2.5028,0,0.000885,0,0
0:0:19.460,19.9414,2.53727,0,0.000885,0,0
0:0:19.562,20.5285,2.61311,0,0.000885,0,0
0:0:19.664,20.88,2.66138,0,0.000885,0,0
0:0:19.765,20.88,2.66138,0,0.000885,0,0
0:0:19.867,21.4671,2.73032,0,0.000885,0,0
0:0:19.968,21.6406,2.7579,0,0.000885,0,0
0:0:20.069,21.9342,2.79238,0,0.000885,0,0
0:0:20.170,21.9342,2.79238,0,0.000885,0,0
0:0:20.272,22.2278,2.82685,0,0.000885,0,0
0:0:20.373,22.3479,2.84753,0,0.000885,0,0
0:0:20.474,23.2242,2.95785,0,0.000885,0,0
0:0:20.573,23.2242,2.95785,0,0.000885,0,0
0:0:20.674,23.3443,2.97164,0,0.000885,0,0
0:0:20.775,23.7535,3.0268,0,0.000885,0,0
0:0:20.876,24.5141,3.12333,0,0.000885,0,0
0:0:20.974,24.5141,3.12333,0,0.000885,0,0
0:0:21.074,24.6343,3.13711,0,0.000885,0,0
0:0:21.174,25.1591,3.20606,0,0.000885,0,0
0:0:21.275,25.8664,3.29569,0,0.000885,0,0
0:0:21.374,25.8664,3.29569,0,0.000885,0,0
0:0:21.472,26.3913,3.35775,0,0.000885,0,0
0:0:21.570,26.5692,3.38533,0,0.000885,0,0
0:0:21.671,26.8628,3.4198,0,0.000885,0,0
0:0:21.771,26.8628,3.4198,0,0.000885,0,0
0:0:21.872,27.3877,3.48875,0,0.000885,0,0
0:0:21.969,27.917,3.55769,0,0.000885,0,0
0:0:22.066,27.917,3.55769,0,0.000885,0,0
0:0:22.168,28.2684,3.59906,0,0.000885,0,0
0:0:22.270,28.9713,3.6887,0,0.000885,0,0
0:0:22.371,29.3271,3.73696,0,0.000885,0,0
0:0:22.469,29.3271,3.73696,0,0.000885,0,0
0:0:22.565,29.385,3.74385,0,0.000885,0,0
0:0:22.665,29.852,3.79901,0,0.000885,0,0
0:0:22.766,29.9721,3.8128,0,0.000885,0,0
0:0:22.867,29.9721,3.8128,0,0.000885,0,0
0:0:22.966,30.6749,3.90243,0,0.000885,0,0
0:0:23.063,30.7328,3.91622,0,0.000885,0,0
0:0:23.163,31.6135,4.02654,0,0.000885,0,0
0:0:23.263,31.6135,4.02654,0,0.000885,0,0
0:0:23.365,31.8493,4.05412,0,0.000885,0,0
0:0:23.465,32.1384,4.09549,0,0.000885,0,0
0:0:23.563,32.9035,4.19201,0,0.000885,0,0
0:0:23.661,32.9035,4.19201,0,0.000885,0,0
0:0:23.762,33.2549,4.23338,0,0.000885,0,0
0:0:23.864,33.3127,4.24028,0,0.000885,0,0
0:0:23.963,33.6641,4.28854,0,0.000885,0,0
0:0:24.061,33.6641,4.28854,0,0.000885,0,0
0:0:24.160,34.1935,4.35059,0,0.000885,0,0
0:0:24.260,34.1935,4.35059,0,0.000885,0,0
0:0:24.361,34.1935,4.35059,0,0.000885,0,0
0:0:24.462,34.6605,4.41264,0,0.000885,0,0
0:0:24.563,34.8385,4.43333,0,0.000885,0,0
0:0:24.665,34.8963,4.44022,0,0.000885,0,0
0:0:24.767,34.8963,4.44022,0,0.000885,0,0
0:0:24.868,35.1899,4.48159,0,0.000885,0,0
0:0:24.971,35.6614,4.54365,0,0.000885,0,0
0:0:25.070,35.955,4.57812,0,0.000885,0,0
0:0:25.171,35.955,4.57812,0,0.000885,0,0
0:0:25.273,36.4799,4.64707,0,0.000885,0,0
0:0:25.374,36.7156,4.67465,0,0.000885,0,0
0:0:25.475,37.3606,4.75738,0,0.000885,0,0
0:0:25.575,37.3606,4.75738,0,0.000885,0,0
0:0:25.675,37.5964,4.78496,0,0.000885,0,0
0:0:25.776,37.7698,4.81254,0,0.000885,0,0
0:0:25.878,37.89,4.82633,0,0.000885,0,0
0:0:25.979,37.89,4.82633,0,0.000885,0,0
0:0:26.076,38.1213,4.85391,0,0.000885,0,0
0:0:26.174,38.6506,4.92286,0,0.000885,0,0
0:0:26.274,38.8285,4.94354,0,0.000885,0,0
0:0:26.375,38.8285,4.94354,0,0.000885,0,0
0:0:26.476,39.4112,5.01938,0,0.000885,0,0
0:0:26.576,39.8828,5.07454,0,0.000885,0,0
0:0:26.674,40.5277,5.15728,0,0.000885,0,0
0:0:26.773,40.5277,5.15728,0,0.000885,0,0
0:0:26.874,40.8213,5.19865,0,0.000885,0,0
0:0:26.975,41.1149,5.23312,0,0.000885,0,0
0:0:27.074,41.6398,5.30207,0,0.000885,0,0
0:0:27.171,41.6398,5.30207,0,0.000885,0,0
0:0:27.270,41.9334,5.33654,0,0.000885,0,0
0:0:27.371,41.7599,5.31586,0,0.000885,0,0
0:0:27.471,41.7599,5.31586,0,0.000885,0,0
0:0:27.571,42.227,5.37791,0,0.000885,0,0
0:0:27.669,42.7563,5.44686,0,0.000885,0,0
0:0:27.768,43.4013,5.5227,0,0.000885,0,0
0:0:27.868,43.4013,5.5227,0,0.000885,0,0
0:0:27.970,43.6949,5.56407,0,0.000885,0,0
0:0:28.069,43.9885,5.59854,0,0.000885,0,0
0:0:28.166,44.8692,5.71575,0,0.000885,0,0
0:0:28.264,44.8692,5.71575,0,0.000885,0,0
0:0:28.365,44.8692,5.71575,0,0.000885,0,0
0:0:28.465,45.3363,5.77091,0,0.000885,0,0
0:0:28.567,45.7455,5.82607,0,0.000885,0,0
0:0:28.663,45.7455,5.82607,0,0.000885,0,0
0:0:28.761,46.3327,5.90191,0,0.000885,0,0
0:0:28.862,46.5684,5.92949,0,0.000885,0,0
0:0:28.963,46.5684,5.92949,0,0.000885,0,0
0:0:29.064,46.9198,5.97086,0,0.000885,0,0
0:0:29.165,47.2713,6.01912,0,0.000885,0,0
0:0:29.267,48.0942,6.12254,0,0.000885,0,0
0:0:29.369,48.0942,6.12254,0,0.000885,0,0
0:0:29.471,48.2098,6.13633,0,0.000885,0,0
0:0:29.573,48.6191,6.19149,0,0.000885,0,0
0:0:29.673,49.1484,6.26044,0,0.000885,0,0
0:0:29.774,49.1484,6.26044,0,0.000885,0,0
0:0:29.875,49.4998,6.30181,0,0.000885,0,0
0:0:29.977,49.6199,6.3156,0,0.000885,0,0
0:0:30.078,49.9713,6.36386,0,0.000885,0,0
0:0:30.177,49.9713,6.36386,0,0.000885,0,0
0:0:30.278,50.4962,6.43281,0,0.000885,0,0
0:0:30.379,50.4384,6.41902,0,0.000885,0,0
0:0:30.480,50.8521,6.47418,0,0.000885,0,0
0:0:30.581,50.8521,6.47418,0,0.000885,0,0
0:0:30.680,51.2035,6.52244,0,0.000885,0,0
0:0:30.779,51.6705,6.5776,0,0.000885,0,0
0:0:30.877,51.9063,6.61207,0,0.000885,0,0
0:0:30.978,51.9063,6.61207,0,0.000885,0,0
0:0:31.079,52.3734,6.66723,0,0.000885,0,0
0:0:31.179,52.8449,6.72928,0,0.000885,0,0
0:0:31.277,53.1963,6.77065,0,0.000885,0,0
0:0:31.374,53.1963,6.77065,0,0.000885,0,0
0:0:31.475,53.4899,6.81202,0,0.000885,0,0
0:0:31.576,53.5477,6.81891,0,0.000885,0,0
0:0:31.676,54.077,6.88786,0,0.000885,0,0
0:0:31.775,54.077,6.88786,0,0.000885,0,0
0:0:31.873,54.2505,6.90855,0,0.000885,0,0
0:0:31.974,54.4863,6.93613,0,0.000885,0,0
0:0:32.075,54.4863,6.93613,0,0.000885,0,0
0:0:32.176,54.9533,6.99818,0,0.000885,0,0
0:0:32.272,55.6606,7.08781,0,0.000885,0,0
0:0:32.370,56.1277,7.14986,0,0.000885,0,0
0:0:32.471,56.1277,7.14986,0,0.000885,0,0
0:0:32.572,56.5992,7.20502,0,0.000885,0,0
0:0:32.673,56.8305,7.2395,0,0.000885,0,0
0:0:32.771,57.1863,7.28086,0,0.000885,0,0
0:0:32.869,57.1863,7.28086,0,0.000885,0,0
0:0:32.969,57.947,7.37739,0,0.000885,0,0
0:0:33.071,58.414,7.43944,0,0.000885,0,0
0:0:33.172,58.4763,7.44634,0,0.000885,0,0
0:0:33.269,58.4763,7.44634,0,0.000885,0,0
0:0:33.366,58.8856,7.4946,0,0.000885,0,0
0:0:33.466,59.4727,7.57044,0,0.000885,0,0
0:0:33.568,59.4727,7.57044,0,0.000885,0,0
0:0:33.669,59.6462,7.59113,0,0.000885,0,0
0:0:33.766,60.0599,7.64629,0,0.000885,0,0
0:0:33.865,60.2912,7.67386,0,0.000885,0,0
0:0:33.965,60.2912,7.67386,0,0.000885,0,0
0:0:34.066,60.8205,7.74281,0,0.000885,0,0
0:0:34.168,60.9985,7.7635,0,0.000885,0,0
0:0:34.269,61.0563,7.77039,0,0.000885,0,0
0:0:34.370,61.0563,7.77039,0,0.000885,0,0
0:0:34.473,61.3499,7.81176,0,0.000885,0,0
0:0:34.574,61.9949,7.8945,0,0.000885,0,0
0:0:34.676,62.2884,7.92897,0,0.000885,0,0
0:0:34.777,62.2884,7.92897,0,0.000885,0,0
0:0:34.879,62.9334,8.01171,0,0.000885,0,0
0:0:34.979,63.1069,8.03239,0,0.000885,0,0
0:0:35.080,63.7519,8.11513,0,0.000885,0,0
0:0:35.182,63.7519,8.11513,0,0.000885,0,0
0:0:35.281,64.0455,8.1565,0,0.000885,0,0
0:0:35.382,64.3391,8.19097,0,0.000885,0,0
0:0:35.483,64.6905,8.23923,0,0.000885,0,0
0:0:35.584,64.6905,8.23923,0,0.000885,0,0
0:0:35.685,65.162,8.29439,0,0.000885,0,0
0:0:35.784,65.3355,8.32197,0,0.000885,0,0
0:0:35.881,65.9226,8.39092,0,0.000885,0,0
0:0:35.981,65.9226,8.39092,0,0.000885,0,0
0:0:36.082,66.452,8.45987,0,0.000885,0,0
0:0:36.183,66.8034,8.50813,0,0.000885,0,0
0:0:36.283,66.9769,8.52881,0,0.000885,0,0
0:0:36.381,66.9769,8.52881,0,0.000885,0,0
0:0:36.479,67.6219,8.61155,0,0.000885,0,0
0:0:36.579,68.1512,8.6805,0,0.000885,0,0
0:0:36.681,68.1512,8.6805,0,0.000885,0,0
0:0:36.781,68.3291,8.70118,0,0.000885,0,0
0:0:36.878,68.2713,8.69429,0,0.000885,0,0
0:0:36.975,68.854,8.77013,0,0.000885,0,0
0:0:37.075,68.854,8.77013,0,0.000885,0,0
0:0:37.176,69.1476,8.80461,0,0.000885,0,0
0:0:37.277,69.7926,8.88734,0,0.000885,0,0
0:0:37.376,70.0862,8.92182,0,0.000885,0,0
0:0:37.472,70.0862,8.92182,0,0.000885,0,0
0:0:37.572,70.3219,8.95629,0,0.000885,0,0
0:0:37.674,70.5577,8.98387,0,0.000885,0,0
0:0:37.774,71.1449,9.05971,0,0.000885,0,0
0:0:37.871,71.1449,9.05971,0,0.000885,0,0
0:0:37.969,71.3183,9.0804,0,0.000885,0,0
0:0:38.070,71.8477,9.14934,0,0.000885,0,0
0:0:38.170,71.8477,9.14934,0,0.000885,0,0
0:0:38.271,72.1991,9.19071,0,0.000885,0,0
0:0:38.371,72.5505,9.23897,0,0.000885,0,0
0:0:38.469,72.6661,9.25276,0,0.000885,0,0
0:0:38.568,72.6661,9.25276,0,0.000885,0,0
0:0:38.669,73.4312,9.34929,0,0.000885,0,0
0:0:38.770,73.9561,9.41824,0,0.000885,0,0
0:0:38.869,74.4276,9.4734,0,0.000885,0,0
0:0:38.964,74.4276,9.4734,0,0.000885,0,0
0:0:39.063,74.6634,9.50787,0,0.000885,0,0
0:0:39.165,74.8947,9.53545,0,0.000885,0,0
0:0:39.266,74.8947,9.53545,0,0.000885,0,0
0:0:39.366,74.8947,9.53545,0,0.000885,0,0
0:0:39.468,75.3084,9.59061,0,0.000885,0,0
0:0:39.571,75.2506,9.58371,0,0.000885,0,0
0:0:39.671,75.9534,9.67334,0,0.000885,0,0
0:0:39.773,75.9534,9.67334,0,0.000885,0,0
0:0:39.874,76.4783,9.7354,0,0.000885,0,0
0:0:39.976,76.892,9.79056,0,0.000885,0,0
0:0:40.077,77.1855,9.82503,0,0.000885,0,0
0:0:40.178,77.1855,9.82503,0,0.000885,0,0
0:0:40.278,77.5948,9.88019,0,0.000885,0,0
0:0:40.380,77.8884,9.91466,0,0.000885,0,0
0:0:40.480,78.1241,9.94913,0,0.000885,0,0
0:0:40.581,78.1241,9.94913,0,0.000885,0,0
0:0:40.682,78.3554,9.97671,0,0.000885,0,0
0:0:40.784,78.7691,10.0319,0,0.000885,0,0
0:0:40.885,79.1783,10.0801,0,0.000885,0,0
0:0:40.981,79.1783,10.0801,0,0.000885,0,0
0:0:41.079,79.4719,10.1215,0,0.000885,0,0
0:0:41.180,80.1747,10.2111,0,0.000885,0,0
0:0:41.282,80.4683,10.2456,0,0.000885,0,0
0:0:41.382,80.4683,10.2456,0,0.000885,0,0
0:0:41.481,80.6463,10.2663,0,0.000885,0,0
0:0:41.579,81.229,10.3421,0,0.000885,0,0
0:0:41.680,81.229,10.3421,0,0.000885,0,0
0:0:41.781,81.5848,10.3904,0,0.000885,0,0
0:0:41.882,82.1097,10.4525,0,0.000885,0,0
0:0:41.979,82.4611,10.5007,0,0.000885,0,0
0:0:42.076,82.4611,10.5007,0,0.000885,0,0
0:0:42.178,82.9326,10.5559,0,0.000885,0,0
0:0:42.278,83.3997,10.6179,0,0.000885,0,0
0:0:42.379,83.8134,10.6731,0,0.000885,0,0
0:0:42.478,83.8134,10.6731,0,0.000885,0,0
0:0:42.575,84.2226,10.7213,0,0.000885,0,0
0:0:42.675,84.574,10.7696,0,0.000885,0,0
0:0:42.778,85.1034,10.8386,0,0.000885,0,0
0:0:42.878,85.1034,10.8386,0,0.000885,0,0
0:0:42.974,85.2769,10.8592,0,0.000885,0,0
0:0:43.072,85.6905,10.9075,0,0.000885,0,0
0:0:43.172,85.6905,10.9075,0,0.000885,0,0
0:0:43.272,86.2154,10.9765,0,0.000885,0,0
0:0:43.373,86.5668,11.0247,0,0.000885,0,0
0:0:43.473,86.9183,11.0661,0,0.000885,0,0
0:0:43.570,86.9183,11.0661,0,0.000885,0,0
0:0:43.669,86.9183,11.0661,0,0.000885,0,0
0:0:43.771,87.5054,11.1419,0,0.000885,0,0
0:0:43.871,87.3898,11.1281,0,0.000885,0,0
0:0:43.971,87.3898,11.1281,0,0.000885,0,0
0:0:44.068,88.2082,11.2316,0,0.000885,0,0
0:0:44.166,88.444,11.2591,0,0.000885,0,0
0:0:44.267,88.8577,11.3143,0,0.000885,0,0
0:0:44.368,88.8577,11.3143,0,0.000885,0,0
0:0:44.469,89.3247,11.3763,0,0.000885,0,0
0:0:44.570,89.6183,11.4108,0,0.000885,0,0
0:0:44.672,90.1477,11.4798,0,0.000885,0,0
0:0:44.774,90.1477,11.4798,0,0.000885,0,0
0:0:44.875,90.3211,11.5005,0,0.000885,0,0
0:0:44.977,90.379,11.5073,0,0.000885,0,0
0:0:45.078,90.6725,11.5418,0,0.000885,0,0
0:0:45.179,90.6725,11.5418,0,0.000885,0,0
0:0:45.280,91.024,11.5901,0,0.000885,0,0
0:0:45.382,91.4955,11.6521,0,0.000885,0,0
0:0:45.481,91.9047,11.7004,0,0.000885,0,0
0:0:45.582,91.9047,11.7004,0,0.000885,0,0
0:0:45.682,92.434,11.7694,0,0.000885,0,0
0:0:45.784,93.079,11.8521,0,0.000885,0,0
0:0:45.885,93.3148,11.8797,0,0.000885,0,0
0:0:45.986,93.3148,11.8797,0,0.000885,0,0
0:0:46.085,93.8397,11.9486,0,0.000885,0,0
0:0:46.182,94.2534,12.0038,0,0.000885,0,0
0:0:46.283,94.2534,12.0038,0,0.000885,0,0
0:0:46.384,94.6048,12.0451,0,0.000885,0,0
0:0:46.484,95.1919,12.121,0,0.000885,0,0
0:0:46.581,95.1297,12.1141,0,0.000885,0,0
0:0:46.679,95.1297,12.1141,0,0.000885,0,0
0:0:46.781,95.3076,12.1348,0,0.000885,0,0
0:0:46.882,95.7168,12.1899,0,0.000885,0,0
0:0:46.982,96.304,12.2589,0,0.000885,0,0
0:0:47.080,96.304,12.2589,0,0.000885,0,0
0:0:47.177,96.5398,12.2934,0,0.000885,0,0
0:0:47.278,97.3004,12.3899,0,0.000885,0,0
0:0:47.379,97.6518,12.4312,0,0.000885,0,0
0:0:47.480,97.6518,12.4312,0,0.000885,0,0
0:0:47.578,97.8297,12.4588,0,0.000885,0,0
0:0:47.677,98.239,12.5071,0,0.000885,0,0
0:0:47.776,98.5326,12.5485,0,0.000885,0,0
0:0:47.878,98.5326,12.5485,0,0.000885,0,0
0:0:47.978,99.1197,12.6174,0,0.000885,0,0
0:0:48.077,99.7647,12.7001,0,0.000885,0,0
0:0:48.174,99.7647,12.7001,0,0.000885,0,0
0:0:48.274,99.9426,12.7277,0,0.000885,0,0
0:0:48.376,100.41,12.7829,0,0.000885,0,0
0:0:48.475,100.525,12.7967,0,0.000885,0,0
0:0:48.573,100.525,12.7967,0,0.000885,0,0
0:0:48.671,100.703,12.8242,0,0.000885,0,0
0:0:48.772,101.17,12.8794,0,0.000885,0,0
0:0:48.873,101.522,12.9277,0,0.000885,0,0
0:0:48.974,101.522,12.9277,0,0.000885,0,0
0:0:49.073,101.815,12.9621,0,0.000885,0,0
0:0:49.170,102.638,13.0656,0,0.000885,0,0
0:0:49.269,102.58,13.0587,0,0.000885,0,0
0:0:49.370,102.58,13.0587,0,0.000885,0,0
0:0:49.471,102.523,13.0518,0,0.000885,0,0
0:0:49.571,103.048,13.1207,0,0.000885,0,0
0:0:49.673,103.048,13.1207,0,0.000885,0,0
0:0:49.776,103.692,13.2035,0,0.000885,0,0
0:0:49.878,103.986,13.2379,0,0.000885,0,0
0:0:49.979,104.4,13.2931,0,0.000885,0,0
0:0:50.081,104.751,13.3345,0,0.000885,0,0
0:0:50.182,104.751,13.3345,0,0.000885,0,0
0:0:50.283,105.103,13.3827,0,0.000885,0,0
0:0:50.384,105.512,13.431,0,0.000885,0,0
0:0:50.484,105.983,13.493,0,0.000885,0,0
0:0:50.585,105.983,13.493,0,0.000885,0,0
0:0:50.687,106.335,13.5413,0,0.000885,0,0
0:0:50.789,106.45,13.5551,0,0.000885,0,0
0:0:50.890,106.628,13.5758,0,0.000885,0,0
0:0:50.991,106.628,13.5758,0,0.000885,0,0
0:0:51.092,107.505,13.6861,0,0.000885,0,0
0:0:51.190,107.74,13.7206,0,0.000885,0,0
0:0:51.286,107.74,13.7206,0,0.000885,0,0
0:0:51.389,108.092,13.7619,0,0.000885,0,0
0:0:51.490,108.795,13.8516,0,0.000885,0,0
0:0:51.589,108.915,13.8654,0,0.000885,0,0
0:0:51.686,108.915,13.8654,0,0.000885,0,0
0:0:51.785,109.382,13.9274,0,0.000885,0,0
0:0:51.886,109.618,13.955,0,0.000885,0,0
0:0:51.988,109.911,13.9964,0,0.000885,0,0
0:0:52.089,109.911,13.9964,0,0.000885,0,0
0:0:52.185,110.498,14.0722,0,0.000885,0,0
0:0:52.284,110.965,14.1274,0,0.000885,0,0
0:0:52.384,111.673,14.217,0,0.000885,0,0
0:0:52.486,111.673,14.217,0,0.000885,0,0
0:0:52.585,111.437,14.1894,0,0.000885,0,0
0:0:52.683,111.846,14.2377,0,0.000885,0,0
0:0:52.781,111.846,14.2377,0,0.000885,0,0
0:0:52.882,111.904,14.2515,0,0.000885,0,0
0:0:52.984,112.549,14.3273,0,0.000885,0,0
0:0:53.083,113.02,14.3894,0,0.000885,0,0
0:0:53.181,113.02,14.3894,0,0.000885,0,0
0:0:53.279,113.02,14.3894,0,0.000885,0,0
0:0:53.380,113.545,14.4583,0,0.000885,0,0
0:0:53.481,113.781,14.4859,0,0.000885,0,0
0:0:53.581,113.781,14.4859,0,0.000885,0,0
0:0:53.678,114.31,14.5548,0,0.000885,0,0
0:0:53.776,114.604,14.5893,0,0.000885,0,0
0:0:53.877,115.013,14.6445,0,0.000885,0,0
0:0:53.978,115.013,14.6445,0,0.000885,0,0
0:0:54.079,115.774,14.741,0,0.000885,0,0
0:0:54.179,115.952,14.7617,0,0.000885,0,0
0:0:54.282,116.303,14.8099,0,0.000885,0,0
0:0:54.383,116.303,14.8099,0,0.000885,0,0
0:0:54.485,116.712,14.8582,0,0.000885,0,0
0:0:54.587,117.42,14.9478,0,0.000885,0,0
0:0:54.689,117.3,14.934,0,0.000885,0,0
0:0:54.790,117.3,14.934,0,0.000885,0,0
0:0:54.891,118.007,15.0237,0,0.000885,0,0
0:0:54.992,118.532,15.0926,0,0.000885,0,0
0:0:55.094,118.71,15.1133,0,0.000885,0,0
0:0:55.193,118.71,15.1133,0,0.000885,0,0
0:0:55.295,118.825,15.1271,0,0.000885,0,0
0:0:55.394,119.528,15.2167,0,0.000885,0,0
0:0:55.496,120.173,15.2995,0,0.000885,0,0
0:0:55.597,120.173,15.2995,0,0.000885,0,0
0:0:55.696,120.173,15.2995,0,0.000885,0,0
0:0:55.793,120.702,15.3684,0,0.000885,0,0
0:0:55.893,120.702,15.3684,0,0.000885,0,0
0:0:55.994,120.702,15.3684,0,0.000885,0,0
0:0:56.094,121.347,15.4512,0,0.000885,0,0
0:0:56.193,121.583,15.4787,0,0.000885,0,0
0:0:56.291,121.583,15.4787,0,0.000885,0,0
0:0:56.391,122.228,15.5615,0,0.000885,0,0
0:0:56.493,122.402,15.5822,0,0.000885,0,0
0:0:56.594,122.815,15.6373,0,0.000885,0,0
0:0:56.692,122.815,15.6373,0,0.000885,0,0
0:0:56.788,123.46,15.72,0,0.000885,0,0
0:0:56.887,123.225,15.6925,0,0.000885,0,0
0:0:56.989,123.927,15.7821,0,0.000885,0,0
0:0:57.090,123.927,15.7821,0,0.000885,0,0
0:0:57.189,124.163,15.8097,0,0.000885,0,0
0:0:57.288,124.572,15.8579,0,0.000885,0,0
0:0:57.386,124.924,15.9062,0,0.000885,0,0
0:0:57.486,124.924,15.9062,0,0.000885,0,0
0:0:57.589,125.044,15.92,0,0.000885,0,0
0:0:57.686,125.862,16.0234,0,0.000885,0,0
0:0:57.783,125.862,16.0234,0,0.000885,0,0
0:0:57.882,125.925,16.0303,0,0.000885,0,0
0:0:57.983,126.685,16.1268,0,0.000885,0,0
0:0:58.084,126.921,16.1613,0,0.000885,0,0
0:0:58.183,126.921,16.1613,0,0.000885,0,0
0:0:58.281,126.801,16.1475,0,0.000885,0,0
0:0:58.380,127.388,16.2165,0,0.000885,0,0
0:0:58.482,127.797,16.2716,0,0.000885,0,0
0:0:58.582,127.797,16.2716,0,0.000885,0,0
0:0:58.682,128.327,16.3406,0,0.000885,0,0
0:0:58.780,128.62,16.375,0,0.000885,0,0
0:0:58.878,128.678,16.3819,0,0.000885,0,0
0:0:58.979,128.678,16.3819,0,0.000885,0,0
0:0:59.080,129.381,16.4716,0,0.000885,0,0
0:0:59.181,129.443,16.4785,0,0.000885,0,0
0:0:59.283,130.204,16.575,0,0.000885,0,0
0:0:59.385,130.204,16.575,0,0.000885,0,0
0:0:59.486,130.32,16.5957,0,0.000885,0,0
0:0:59.588,131.027,16.6853,0,0.000885,0,0
0:0:59.691,131.32,16.7198,0,0.000885,0,0
0:0:59.790,131.32,16.7198,0,0.000885,0,0
0:0:59.892,131.436,16.7336,0,0.000885,0,0
0:0:59.993,131.73,16.7749,0,0.000885,0,0
0:1:0.094,132.197,16.8301,0,0.000885,0,0
0:1:0.194,132.197,16.8301,0,0.000885,0,0
0:1:0.295,132.432,16.8646,0,0.000885,0,0
0:1:0.396,132.904,16.9197,0,0.000885,0,0
0:1:0.498,133.487,16.9956,0,0.000885,0,0
0:1:0.599,133.487,16.9956,0,0.000885,0,0
0:1:0.700,133.429,16.9887,0,0.000885,0,0
0:1:0.798,134.074,17.0714,0,0.000885,0,0
0:1:0.894,134.074,17.0714,0,0.000885,0,0
0:1:0.996,134.31,17.099,0,0.000885,0,0
0:1:1.098,134.955,17.1817,0,0.000885,0,0
0:1:1.197,135.484,17.2507,0,0.000885,0,0
0:1:1.294,135.484,17.2507,0,0.000885,0,0
0:1:1.393,135.893,17.3058,0,0.000885,0,0
0:1:1.493,136.302,17.3541,0,0.000885,0,0
0:1:1.593,136.716,17.4093,0,0.000885,0,0
0:1:1.694,136.716,17.4093,0,0.000885,0,0
0:1:1.793,136.947,17.4368,0,0.000885,0,0
0:1:1.891,137.361,17.492,0,0.000885,0,0
0:1:1.991,137.592,17.5196,0,0.000885,0,0
0:1:2.092,137.592,17.5196,0,0.000885,0,0
0:1:2.193,137.944,17.5609,0,0.000885,0,0
0:1:2.291,138.709,17.6575,0,0.000885,0,0
0:1:2.386,138.709,17.6575,0,0.000885,0,0
0:1:2.486,138.593,17.6437,0,0.000885,0,0
0:1:2.589,138.945,17.6919,0,0.000885,0,0
0:1:2.689,139.47,17.7609,0,0.000885,0,0
0:1:2.789,139.47,17.7609,0,0.000885,0,0
0:1:2.886,139.763,17.7954,0,0.000885,0,0
0:1:2.985,139.999,17.8229,0,0.000885,0,0
0:1:3.086,140.586,17.8988,0,0.000885,0,0
0:1:3.187,140.586,17.8988,0,0.000885,0,0
0:1:3.285,140.702,17.9126,0,0.000885,0,0
0:1:3.381,141.582,18.0298,0,0.000885,0,0
0:1:3.481,141.582,18.0298,0,0.000885,0,0
0:1:3.582,141.582,18.0298,0,0.000885,0,0
0:1:3.683,141.64,18.0367,0,0.000885,0,0
0:1:3.782,142.343,18.1263,0,0.000885,0,0
0:1:3.881,142.405,18.1332,0,0.000885,0,0
0:1:3.978,142.405,18.1332,0,0.000885,0,0
0:1:4.080,142.757,18.1746,0,0.000885,0,0
0:1:4.180,143.108,18.2228,0,0.000885,0,0
0:1:4.281,143.108,18.2228,0,0.000885,0,0
0:1:4.382,144.047,18.3401,0,0.000885,0,0
0:1:4.485,143.927,18.3263,0,0.000885,0,0
0:1:4.586,144.634,18.4159,0,0.000885,0,0
0:1:4.689,144.634,18.4159,0,0.000885,0,0
0:1:4.789,144.692,18.4228,0,0.000885,0,0
0:1:4.891,145.395,18.5124,0,0.000885,0,0
0:1:4.992,145.746,18.5538,0,0.000885,0,0
0:1:5.093,145.746,18.5538,0,0.000885,0,0
0:1:5.194,146.097,18.6021,0,0.000885,0,0
0:1:5.295,146.742,18.6848,0,0.000885,0,0
0:1:5.396,147.036,18.7193,0,0.000885,0,0
0:1:5.496,147.036,18.7193,0,0.000885,0,0
0:1:5.598,147.387,18.7675,0,0.000885,0,0
0:1:5.700,147.801,18.8158,0,0.000885,0,0
0:1:5.800,148.562,18.9123,0,0.000885,0,0
0:1:5.898,148.562,18.9123,0,0.000885,0,0
0:1:5.994,148.562,18.9123,0,0.000885,0,0
0:1:6.096,149.029,18.9744,0,0.000885,0,0
0:1:6.196,149.322,19.0157,0,0.000885,0,0
0:1:6.297,149.322,19.0157,0,0.000885,0,0
0:1:6.394,149.558,19.0433,0,0.000885,0,0
0:1:6.491,150.145,19.1192,0,0.000885,0,0
0:1:6.591,150.555,19.1674,0,0.000885,0,0
0:1:6.693,150.555,19.1674,0,0.000885,0,0
0:1:6.794,150.79,19.2019,0,0.000885,0,0
0:1:6.893,151.435,19.2846,0,0.000885,0,0
0:1:6.991,151.551,19.2984,0,0.000885,0,0
0:1:7.090,151.551,19.2984,0,0.000885,0,0
0:1:7.191,151.613,19.3053,0,0.000885,0,0
0:1:7.292,152.196,19.3812,0,0.000885,0,0
0:1:7.390,152.196,19.3812,0,0.000885,0,0
0:1:7.487,152.196,19.3812,0,0.000885,0,0
0:1:7.584,152.961,19.4777,0,0.000885,0,0
0:1:7.686,153.49,19.5397,0,0.000885,0,0
0:1:7.787,153.49,19.5397,0,0.000885,0,0
0:1:7.886,153.428,19.5328,0,0.000885,0,0
0:1:7.984,153.548,19.5535,0,0.000885,0,0
0:1:8.082,154.015,19.6087,0,0.000885,0,0
0:1:8.183,154.015,19.6087,0,0.000885,0,0
0:1:8.285,154.429,19.6638,0,0.000885,0,0
0:1:8.384,154.66,19.6914,0,0.000885,0,0
0:1:8.482,155.363,19.7811,0,0.000885,0,0
0:1:8.579,155.363,19.7811,0,0.000885,0,0
0:1:8.680,155.483,19.7948,0,0.000885,0,0
0:1:8.781,155.892,19.85,0,0.000885,0,0
0:1:8.882,155.892,19.85,0,0.000885,0,0
0:1:8.981,156.422,19.919,0,0.000885,0,0
0:1:9.078,156.947,19.981,0,0.000885,0,0
0:1:9.180,157.534,20.0568,0,0.000885,0,0
0:1:9.280,157.534,20.0568,0,0.000885,0,0
0:1:9.382,157.654,20.0706,0,0.000885,0,0
0:1:9.482,158.005,20.1189,0,0.000885,0,0
0:1:9.585,158.179,20.1396,0,0.000885,0,0
0:1:9.686,158.179,20.1396,0,0.000885,0,0
0:1:9.789,158.53,20.1878,0,0.000885,0,0
0:1:9.891,159.002,20.243,0,0.000885,0,0
0:1:9.992,159.411,20.2982,0,0.000885,0,0
0:1:10.092,159.411,20.2982,0,0.000885,0,0
0:1:10.194,159.825,20.3464,0,0.000885,0,0
0:1:10.295,160.234,20.4016,0,0.000885,0,0
0:1:10.396,160.701,20.4636,0,0.000885,0,0
0:1:10.496,160.701,20.4636,0,0.000885,0,0
0:1:10.597,160.879,20.4843,0,0.000885,0,0
0:1:10.698,160.821,20.4774,0,0.000885,0,0
0:1:10.799,161.639,20.5809,0,0.000885,0,0
0:1:10.900,161.639,20.5809,0,0.000885,0,0
0:1:10.998,161.991,20.6222,0,0.000885,0,0
0:1:11.096,162.347,20.6705,0,0.000885,0,0
0:1:11.195,162.814,20.7325,0,0.000885,0,0
0:1:11.295,162.814,20.7325,0,0.000885,0,0
0:1:11.397,162.698,20.7119,0,0.000885,0,0
0:1:11.495,163.637,20.836,0,0.000885,0,0
0:1:11.592,163.517,20.8222,0,0.000885,0,0
0:1:11.691,163.517,20.8222,0,0.000885,0,0
0:1:11.793,164.104,20.8911,0,0.000885,0,0
0:1:11.893,164.162,20.9049,0,0.000885,0,0
0:1:11.992,164.162,20.9049,0,0.000885,0,0
0:1:12.090,164.691,20.967,0,0.000885,0,0
0:1:12.190,164.927,21.0014,0,0.000885,0,0
0:1:12.290,165.745,21.1049,0,0.000885,0,0
0:1:12.391,165.745,21.1049,0,0.000885,0,0
0:1:12.491,166.275,21.1738,0,0.000885,0,0
0:1:12.589,166.684,21.2221,0,0.000885,0,0
0:1:12.686,166.977,21.2634,0,0.000885,0,0
0:1:12.787,166.977,21.2634,0,0.000885,0,0
0:1:12.890,167.155,21.2841,0,0.000885,0,0
0:1:12.990,167.68,21.3531,0,0.000885,0,0
0:1:13.087,167.858,21.3737,0,0.000885,0,0
0:1:13.183,167.858,21.3737,0,0.000885,0,0
0:1:13.283,168.445,21.4496,0,0.000885,0,0
0:1:13.385,168.97,21.5116,0,0.000885,0,0
0:1:13.486,169.384,21.5668,0,0.000885,0,0
0:1:13.584,169.384,21.5668,0,0.000885,0,0
0:1:13.681,169.677,21.6013,0,0.000885,0,0
0:1:13.781,170.144,21.6633,0,0.000885,0,0
0:1:13.882,170.144,21.6633,0,0.000885,0,0
0:1:13.983,170.496,21.7116,0,0.000885,0,0
0:1:14.081,170.616,21.7254,0,0.000885,0,0
0:1:14.178,171.141,21.7874,0,0.000885,0,0
0:1:14.278,171.141,21.7874,0,0.000885,0,0
0:1:14.379,171.434,21.8288,0,0.000885,0,0
0:1:14.481,172.2,21.9253,0,0.000885,0,0
0:1:14.581,172.2,21.9253,0,0.000885,0,0
0:1:14.682,172.2,21.9253,0,0.000885,0,0
0:1:14.784,172.724,21.9943,0,0.000885,0,0
0:1:14.886,173.312,22.0701,0,0.000885,0,0
0:1:14.988,173.196,22.0494,0,0.000885,0,0
0:1:15.090,173.196,22.0494,0,0.000885,0,0
0:1:15.189,173.783,22.1253,0,0.000885,0,0
0:1:15.291,173.783,22.1253,0,0.000885,0,0
0:1:15.391,174.308,22.1942,0,0.000885,0,0
0:1:15.493,174.308,22.1942,0,0.000885,0,0
0:1:15.594,174.722,22.2494,0,0.000885,0,0
0:1:15.694,175.131,22.2976,0,0.000885,0,0
0:1:15.795,175.54,22.3528,0,0.000885,0,0
0:1:15.897,175.54,22.3528,0,0.000885,0,0
0:1:15.996,176.012,22.408,0,0.000885,0,0
0:1:16.097,176.95,22.5321,0,0.000885,0,0
0:1:16.194,176.95,22.5321,0,0.000885,0,0
0:1:16.292,176.95,22.5321,0,0.000885,0,0
0:1:16.393,177.244,22.5665,0,0.000885,0,0
0:1:16.494,177.595,22.6148,0,0.000885,0,0
0:1:16.594,177.595,22.6148,0,0.000885,0,0
0:1:16.693,177.889,22.6493,0,0.000885,0,0
0:1:16.790,177.889,22.6493,0,0.000885,0,0
0:1:16.890,178.356,22.7113,0,0.000885,0,0
0:1:16.991,178.356,22.7113,0,0.000885,0,0
0:1:17.092,179.059,22.801,0,0.000885,0,0
0:1:17.189,179.059,22.801,0,0.000885,0,0
0:1:17.285,179.766,22.8906,0,0.000885,0,0
0:1:17.385,179.766,22.8906,0,0.000885,0,0
0:1:17.486,179.766,22.8906,0,0.000885,0,0
0:1:17.587,180.411,22.9733,0,0.000885,0,0
0:1:17.686,180.762,23.0147,0,0.000885,0,0
0:1:17.784,180.762,23.0147,0,0.000885,0,0
0:1:17.883,180.82,23.0216,0,0.000885,0,0
0:1:17.984,181.056,23.0492,0,0.000885,0,0
0:1:18.085,181.056,23.0492,0,0.000885,0,0
0:1:18.183,181.701,23.1319,0,0.000885,0,0
0:1:18.280,181.759,23.1388,0,0.000885,0,0
0:1:18.379,182.462,23.2284,0,0.000885,0,0
0:1:18.481,182.462,23.2284,0,0.000885,0,0
0:1:18.582,182.577,23.2491,0,0.000885,0,0
0:1:18.682,182.755,23.2698,0,0.000885,0,0
0:1:18.780,183.4,23.3525,0,0.000885,0,0
0:1:18.877,183.4,23.3525,0,0.000885,0,0
0:1:18.978,183.342,23.3456,0,0.000885,0,0
0:1:19.079,184.161,23.4491,0,0.000885,0,0
0:1:19.180,184.632,23.5111,0,0.000885,0,0
0:1:19.281,184.632,23.5111,0,0.000885,0,0
0:1:19.384,185.277,23.587,0,0.000885,0,0
0:1:19.485,185.162,23.5732,0,0.000885,0,0
0:1:19.587,186.216,23.7111,0,0.000885,0,0
0:1:19.690,186.216,23.7111,0,0.000885,0,0
0:1:19.788,186.1,23.6973,0,0.000885,0,0
0:1:19.890,186.683,23.7662,0,0.000885,0,0
0:1:19.992,186.919,23.8007,0,0.000885,0,0
0:1:20.093,186.919,23.8007,0,0.000885,0,0
0:1:20.193,187.212,23.8352,0,0.000885,0,0
0:1:20.295,187.857,23.9179,0,0.000885,0,0
0:1:20.396,187.915,23.9248,0,0.000885,0,0
0:1:20.497,187.915,23.9248,0,0.000885,0,0
0:1:20.598,188.56,24.0075,0,0.000885,0,0
0:1:20.700,188.68,24.0213,0,0.000885,0,0
0:1:20.799,189.325,24.1041,0,0.000885,0,0
0:1:20.895,189.325,24.1041,0,0.000885,0,0
0:1:20.995,189.619,24.1454,0,0.000885,0,0
0:1:21.096,189.734,24.1592,0,0.000885,0,0
0:1:21.197,190.322,24.2351,0,0.000885,0,0
0:1:21.294,190.322,24.2351,0,0.000885,0,0
0:1:21.392,190.615,24.2695,0,0.000885,0,0
0:1:21.491,191.26,24.3523,0,0.000885,0,0
0:1:21.592,191.26,24.3523,0,0.000885,0,0
0:1:21.693,191.318,24.3592,0,0.000885,0,0
0:1:21.793,191.496,24.3799,0,0.000885,0,0
0:1:21.891,192.372,24.4971,0,0.000885,0,0
0:1:21.990,192.372,24.4971,0,0.000885,0,0
0:1:22.091,192.257,24.4764,0,0.000885,0,0
0:1:22.191,192.902,24.5591,0,0.000885,0,0
0:1:22.290,193.253,24.6074,0,0.000885,0,0
0:1:22.385,193.253,24.6074,0,0.000885,0,0
0:1:22.483,193.604,24.6488,0,0.000885,0,0
0:1:22.583,194.076,24.7108,0,0.000885,0,0
0:1:22.684,194.192,24.7246,0,0.000885,0,0
0:1:22.783,194.192,24.7246,0,0.000885,0,0
0:1:22.881,194.952,24.8211,0,0.000885,0,0
0:1:22.978,195.188,24.8556,0,0.000885,0,0
0:1:23.078,195.188,24.8556,0,0.000885,0,0
0:1:23.178,195.775,24.9245,0,0.000885,0,0
0:1:23.278,195.717,24.9177,0,0.000885,0,0
0:1:23.373,196.536,25.0211,0,0.000885,0,0
0:1:23.471,196.536,25.0211,0,0.000885,0,0
0:1:23.570,197.007,25.0831,0,0.000885,0,0
0:1:23.671,196.949,25.0762,0,0.000885,0,0
0:1:23.771,197.474,25.1452,0,0.000885,0,0
0:1:23.868,197.474,25.1452,0,0.000885,0,0
0:1:23.966,197.537,25.1521,0,0.000885,0,0
0:1:24.065,198.062,25.221,0,0.000885,0,0
0:1:24.165,198.062,25.221,0,0.000885,0,0
0:1:24.265,198.591,25.2831,0,0.000885,0,0
0:1:24.365,198.884,25.3244,0,0.000885,0,0
0:1:24.466,199,25.3382,0,0.000885,0,0
0:1:24.568,199,25.3382,0,0.000885,0,0
0:1:24.669,199.414,25.3865,0,0.000885,0,0
0:1:24.770,199.939,25.4554,0,0.000885,0,0
0:1:24.871,200.117,25.4761,0,0.000885,0,0
0:1:24.970,200.117,25.4761,0,0.000885,0,0
0:1:25.071,200.704,25.552,0,0.000885,0,0
0:1:25.171,200.641,25.5451,0,0.000885,0,0
0:1:25.271,201.642,25.6761,0,0.000885,0,0
0:1:25.371,201.642,25.6761,0,0.000885,0,0
0:1:25.472,201.464,25.6485,0,0.000885,0,0
0:1:25.572,202.167,25.7381,0,0.000885,0,0
0:1:25.672,202.697,25.8071,0,0.000885,0,0
0:1:25.773,202.697,25.8071,0,0.000885,0,0
0:1:25.871,203.164,25.8691,0,0.000885,0,0
0:1:25.968,203.577,25.9174,0,0.000885,0,0
0:1:26.066,203.871,25.9588,0,0.000885,0,0
0:1:26.167,203.871,25.9588,0,0.000885,0,0
0:1:26.268,204.28,26.007,0,0.000885,0,0
0:1:26.368,204.689,26.0622,0,0.000885,0,0
0:1:26.463,204.689,26.0622,0,0.000885,0,0
0:1:26.559,204.747,26.0691,0,0.000885,0,0
0:1:26.658,205.392,26.1518,0,0.000885,0,0
0:1:26.762,205.512,26.1656,0,0.000885,0,0
0:1:26.858,205.512,26.1656,0,0.000885,0,0
0:1:26.967,206.099,26.2414,0,0.000885,0,0
0:1:27.063,206.215,26.2552,0,0.000885,0,0
0:1:27.164,207.447,26.4138,0,0.000885,0,0
0:1:27.264,207.447,26.4138,0,0.000885,0,0
0:1:27.364,207.154,26.3724,0,0.000885,0,0
0:1:27.462,207.621,26.4345,0,0.000885,0,0
0:1:27.556,207.741,26.4483,0,0.000885,0,0
0:1:27.656,207.741,26.4483,0,0.000885,0,0
0:1:27.756,208.092,26.4966,0,0.000885,0,0
0:1:27.856,208.444,26.5379,0,0.000885,0,0
0:1:27.955,208.622,26.5655,0,0.000885,0,0
0:1:28.052,208.622,26.5655,0,0.000885,0,0
0:1:28.150,209.146,26.6276,0,0.000885,0,0
0:1:28.250,209.382,26.662,0,0.000885,0,0
0:1:28.350,209.382,26.662,0,0.000885,0,0
0:1:28.450,209.791,26.7103,0,0.000885,0,0
0:1:28.547,209.912,26.7241,0,0.000885,0,0
0:1:28.654,210.557,26.8068,0,0.000885,0,0
0:1:28.753,210.557,26.8068,0,0.000885,0,0
0:1:28.854,210.908,26.8551,0,0.000885,0,0
0:1:28.953,211.904,26.9792,0,0.000885,0,0
0:1:29.051,211.962,26.9861,0,0.000885,0,0
0:1:29.148,211.962,26.9861,0,0.000885,0,0
0:1:29.247,212.371,27.0412,0,0.000885,0,0
0:1:29.347,212.371,27.0412,0,0.000885,0,0
0:1:29.448,213.079,27.1309,0,0.000885,0,0
0:1:29.547,213.079,27.1309,0,0.000885,0,0
0:1:29.649,213.31,27.1584,0,0.000885,0,0
0:1:29.750,213.955,27.2412,0,0.000885,0,0
0:1:29.850,214.075,27.255,0,0.000885,0,0
0:1:29.951,214.075,27.255,0,0.000885,0,0
0:1:30.052,214.6,27.3239,0,0.000885,0,0
0:1:30.151,214.427,27.3032,0,0.000885,0,0
0:1:30.252,214.427,27.3032,0,0.000885,0,0
0:1:30.352,215.423,27.4273,0,0.000885,0,0
0:1:30.452,215.481,27.4342,0,0.000885,0,0
0:1:30.551,215.894,27.4894,0,0.000885,0,0
0:1:30.652,215.894,27.4894,0,0.000885,0,0
0:1:30.752,216.184,27.5239,0,0.000885,0,0
0:1:30.853,216.771,27.5997,0,0.000885,0,0
0:1:30.953,216.833,27.6066,0,0.000885,0,0
0:1:31.052,216.833,27.6066,0,0.000885,0,0
0:1:31.158,217.709,27.7169,0,0.000885,0,0
0:1:31.256,217.709,27.7169,0,0.000885,0,0
0:1:31.357,218.417,27.8066,0,0.000885,0,0
0:1:31.457,218.417,27.8066,0,0.000885,0,0
0:1:31.555,218.532,27.8272,0,0.000885,0,0
0:1:31.653,219.235,27.9169,0,0.000885,0,0
0:1:31.750,219.119,27.8962,0,0.000885,0,0
0:1:31.850,219.119,27.8962,0,0.000885,0,0
0:1:31.951,219.529,27.9513,0,0.000885,0,0
0:1:32.050,219.938,28.0065,0,0.000885,0,0
0:1:32.147,220.409,28.0617,0,0.000885,0,0
0:1:32.254,220.409,28.0617,0,0.000885,0,0
0:1:32.353,220.761,28.1099,0,0.000885,0,0
0:1:32.453,220.876,28.1237,0,0.000885,0,0
0:1:32.553,221.406,28.1927,0,0.000885,0,0
0:1:32.662,221.406,28.1927,0,0.000885,0,0
0:1:32.757,221.584,28.2133,0,0.000885,0,0
0:1:32.858,222.287,28.303,0,0.000885,0,0
0:1:32.958,222.58,28.3375,0,0.000885,0,0
0:1:33.057,222.58,28.3375,0,0.000885,0,0
0:1:33.154,222.932,28.3857,0,0.000885,0,0
0:1:33.252,223.519,28.4616,0,0.000885,0,0
0:1:33.350,223.519,28.4616,0,0.000885,0,0
0:1:33.451,223.812,28.496,0,0.000885,0,0
0:1:33.552,224.279,28.5581,0,0.000885,0,0
0:1:33.650,224.337,28.565,0,0.000885,0,0
0:1:33.746,224.337,28.565,0,0.000885,0,0
0:1:33.844,225.04,28.6546,0,0.000885,0,0
0:1:33.944,225.04,28.6546,0,0.000885,0,0
0:1:34.045,225.396,28.696,0,0.000885,0,0
0:1:34.144,225.396,28.696,0,0.000885,0,0
0:1:34.246,226.099,28.7856,0,0.000885,0,0
0:1:34.346,226.156,28.7925,0,0.000885,0,0
0:1:34.447,226.686,28.8615,0,0.000885,0,0
0:1:34.548,226.686,28.8615,0,0.000885,0,0
0:1:34.649,227.095,28.9166,0,0.000885,0,0
0:1:34.749,226.979,28.9028,0,0.000885,0,0
0:1:34.849,226.979,28.9028,0,0.000885,0,0
0:1:34.950,227.918,29.02,0,0.000885,0,0
0:1:35.050,227.918,29.02,0,0.000885,0,0
0:1:35.149,228.269,29.0614,0,0.000885,0,0
0:1:35.249,228.269,29.0614,0,0.000885,0,0
0:1:35.350,228.736,29.1235,0,0.000885,0,0
0:1:35.451,229.208,29.1855,0,0.000885,0,0
0:1:35.551,229.733,29.2476,0,0.000885,0,0
0:1:35.651,229.733,29.2476,0,0.000885,0,0
0:1:35.749,229.791,29.2613,0,0.000885,0,0
0:1:35.845,230.084,29.2958,0,0.000885,0,0
0:1:35.946,230.498,29.351,0,0.000885,0,0
0:1:36.047,230.498,29.351,0,0.000885,0,0
0:1:36.146,231.085,29.4199,0,0.000885,0,0
0:1:36.252,231.085,29.4199,0,0.000885,0,0
0:1:36.349,231.494,29.4751,0,0.000885,0,0
0:1:36.450,231.494,29.4751,0,0.000885,0,0
0:1:36.549,231.788,29.5096,0,0.000885,0,0
0:1:36.648,232.784,29.6406,0,0.000885,0,0
0:1:36.747,233.078,29.675,0,0.000885,0,0
0:1:36.853,233.078,29.675,0,0.000885,0,0
0:1:36.954,233.545,29.7371,0,0.000885,0,0
0:1:37.054,233.781,29.7647,0,0.000885,0,0
0:1:37.154,234.074,29.806,0,0.000885,0,0
0:1:37.251,234.074,29.806,0,0.000885,0,0
0:1:37.347,234.31,29.8336,0,0.000885,0,0
0:1:37.447,234.541,29.8612,0,0.000885,0,0
0:1:37.547,234.541,29.8612,0,0.000885,0,0
0:1:37.647,235.071,29.9301,0,0.000885,0,0
0:1:37.747,235.364,29.9646,0,0.000885,0,0
0:1:37.853,235.542,29.9922,0,0.000885,0,0
0:1:37.950,235.542,29.9922,0,0.000885,0,0
0:1:38.052,235.716,30.0129,0,0.000885,0,0
0:1:38.152,236.245,30.0818,0,0.000885,0,0
0:1:38.251,237.006,30.1784,0,0.000885,0,0
0:1:38.347,237.006,30.1784,0,0.000885,0,0
0:1:38.445,237.184,30.199,0,0.000885,0,0
0:1:38.544,237.709,30.268,0,0.000885,0,0
0:1:38.645,238.122,30.3162,0,0.000885,0,0
0:1:38.744,238.122,30.3162,0,0.000885,0,0
0:1:38.843,238.474,30.3645,0,0.000885,0,0
0:1:38.939,238.474,30.3645,0,0.000885,0,0
0:1:39.039,238.474,30.3645,0,0.000885,0,0
0:1:39.139,239.061,30.4404,0,0.000885,0,0
0:1:39.240,239.586,30.5024,0,0.000885,0,0
0:1:39.340,239.706,30.5231,0,0.000885,0,0
0:1:39.441,239.706,30.5231,0,0.000885,0,0
0:1:39.543,240.057,30.5645,0,0.000885,0,0
0:1:39.644,240.409,30.6127,0,0.000885,0,0
0:1:39.744,240.818,30.661,0,0.000885,0,0
0:1:39.844,240.818,30.661,0,0.000885,0,0
0:1:39.944,240.996,30.6817,0,0.000885,0,0
0:1:40.044,241.699,30.7713,0,0.000885,0,0
0:1:40.145,242.108,30.8265,0,0.000885,0,0
0:1:40.245,242.108,30.8265,0,0.000885,0,0
0:1:40.344,242.521,30.8816,0,0.000885,0,0
0:1:40.444,242.695,30.9023,0,0.000885,0,0
0:1:40.544,243.166,30.9575,0,0.000885,0,0
0:1:40.644,243.166,30.9575,0,0.000885,0,0
0:1:40.745,243.691,31.0264,0,0.000885,0,0
0:1:40.841,243.634,31.0195,0,0.000885,0,0
0:1:40.939,243.927,31.0609,0,0.000885,0,0
0:1:41.038,243.927,31.0609,0,0.000885,0,0
0:1:41.139,244.514,31.1298,0,0.000885,0,0
0:1:41.239,245.044,31.1988,0,0.000885,0,0
0:1:41.338,245.044,31.1988,0,0.000885,0,0
0:1:41.434,245.453,31.2539,0,0.000885,0,0
0:1:41.532,245.746,31.2884,0,0.000885,0,0
0:1:41.632,246.098,31.3367,0,0.000885,0,0
0:1:41.732,246.098,31.3367,0,0.000885,0,0
0:1:41.830,246.449,31.378,0,0.000885,0,0
0:1:41.927,246.859,31.4332,0,0.000885,0,0
0:1:42.026,247.21,31.4746,0,0.000885,0,0
0:1:42.125,247.21,31.4746,0,0.000885,0,0
0:1:42.225,247.33,31.4884,0,0.000885,0,0
0:1:42.326,247.917,31.5642,0,0.000885,0,0
0:1:42.422,248.384,31.6263,0,0.000885,0,0
0:1:42.519,248.384,31.6263,0,0.000885,0,0
0:1:42.618,248.736,31.6676,0,0.000885,0,0
0:1:42.719,249.149,31.7228,0,0.000885,0,0
0:1:42.819,249.149,31.7228,0,0.000885,0,0
0:1:42.917,249.501,31.7641,0,0.000885,0,0
0:1:43.014,250.146,31.8469,0,0.000885,0,0
0:1:43.114,250.497,31.8951,0,0.000885,0,0
0:1:43.215,250.497,31.8951,0,0.000885,0,0
0:1:43.316,250.555,31.902,0,0.000885,0,0
0:1:43.412,250.733,31.9227,0,0.000885,0,0
0:1:43.509,251.2,31.9848,0,0.000885,0,0
0:1:43.607,251.2,31.9848,0,0.000885,0,0
0:1:43.709,251.494,32.0193,0,0.000885,0,0
0:1:43.808,251.729,32.0537,0,0.000885,0,0
0:1:43.906,251.729,32.0537,0,0.000885,0,0
0:1:44.003,252.49,32.1503,0,0.000885,0,0
0:1:44.102,252.841,32.1916,0,0.000885,0,0
0:1:44.203,253.544,32.2813,0,0.000885,0,0
0:1:44.302,253.544,32.2813,0,0.000885,0,0
0:1:44.402,254.016,32.3433,0,0.000885,0,0
0:1:44.503,254.189,32.364,0,0.000885,0,0
0:1:44.605,254.483,32.4054,0,0.000885,0,0
0:1:44.706,254.483,32.4054,0,0.000885,0,0
0:1:44.807,254.776,32.4398,0,0.000885,0,0
0:1:44.908,255.128,32.4812,0,0.000885,0,0
0:1:45.008,255.835,32.5708,0,0.000885,0,0
0:1:45.109,255.835,32.5708,0,0.000885,0,0
0:1:45.207,255.773,32.5639,0,0.000885,0,0
0:1:45.307,256.186,32.6191,0,0.000885,0,0
0:1:45.407,256.774,32.6949,0,0.000885,0,0
0:1:45.508,256.774,32.6949,0,0.000885,0,0
0:1:45.608,256.947,32.7156,0,0.000885,0,0
0:1:45.709,257.241,32.7501,0,0.000885,0,0
0:1:45.810,257.534,32.7915,0,0.000885,0,0
0:1:45.909,257.534,32.7915,0,0.000885,0,0
0:1:46.007,257.886,32.8328,0,0.000885,0,0
0:1:46.104,257.886,32.8328,0,0.000885,0,0
0:1:46.202,257.886,32.8328,0,0.000885,0,0
0:1:46.301,258.121,32.8673,0,0.000885,0,0
0:1:46.402,258.531,32.9156,0,0.000885,0,0
0:1:46.502,258.766,32.95,0,0.000885,0,0
0:1:46.598,258.766,32.95,0,0.000885,0,0
0:1:46.696,259.176,32.9983,0,0.000885,0,0
0:1:46.798,259.411,33.0259,0,0.000885,0,0
0:1:46.897,260.172,33.1293,0,0.000885,0,0
0:1:46.995,260.172,33.1293,0,0.000885,0,0
0:1:47.092,260.408,33.1569,0,0.000885,0,0
0:1:47.190,260.701,33.1914,0,0.000885,0,0
0:1:47.290,260.701,33.1914,0,0.000885,0,0
0:1:47.390,260.759,33.1983,0,0.000885,0,0
0:1:47.490,261.231,33.2603,0,0.000885,0,0
0:1:47.587,261.462,33.2879,0,0.000885,0,0
0:1:47.682,261.462,33.2879,0,0.000885,0,0
0:1:47.783,261.582,33.3086,0,0.000885,0,0
0:1:47.883,262.169,33.3775,0,0.000885,0,0
0:1:47.983,262.401,33.412,0,0.000885,0,0
0:1:48.079,262.401,33.412,0,0.000885,0,0
0:1:48.176,262.694,33.4465,0,0.000885,0,0
0:1:48.276,262.872,33.4672,0,0.000885,0,0
0:1:48.377,262.872,33.4672,0,0.000885,0,0
0:1:48.475,263.046,33.4947,0,0.000885,0,0
0:1:48.574,263.401,33.5361,0,0.000885,0,0
0:1:48.672,263.753,33.5844,0,0.000885,0,0
0:1:53.734,194.601,24.7798,0,0.000885,0,0
0:1:53.783,194.601,24.7798,0,0.000885,0,0
0:1:48.771,263.753,33.5844,0,0.000885,0,0
0:1:48.871,263.984,33.6119,0,0.000885,0,0
0:1:48.972,263.984,33.6119,0,0.000885,0,0
0:1:49.071,264.398,33.6671,0,0.000885,0,0
0:1:49.172,264.398,33.6671,0,0.000885,0,0
0:1:49.273,264.456,33.674,0,0.000885,0,0
0:1:49.375,264.749,33.7085,0,0.000885,0,0
0:1:49.475,264.923,33.7292,0,0.000885,0,0
0:1:49.575,264.923,33.7292,0,0.000885,0,0
0:1:49.675,265.688,33.8257,0,0.000885,0,0
0:1:49.776,265.746,33.8326,0,0.000885,0,0
0:1:49.875,265.981,33.867,0,0.000885,0,0
0:1:49.975,265.981,33.867,0,0.000885,0,0
0:1:50.075,266.039,33.8739,0,0.000885,0,0
0:1:50.176,266.333,33.9084,0,0.000885,0,0
0:1:50.275,266.213,33.8946,0,0.000885,0,0
0:1:50.373,266.213,33.8946,0,0.000885,0,0
0:1:50.474,266.097,33.8808,0,0.000885,0,0
0:1:50.573,266.275,33.9015,0,0.000885,0,0
0:1:50.671,266.275,33.9015,0,0.000885,0,0
0:1:50.769,266.391,33.9153,0,0.000885,0,0
0:1:50.869,266.333,33.9084,0,0.000885,0,0
0:1:50.967,265.803,33.8464,0,0.000885,0,0
0:1:51.067,265.803,33.8464,0,0.000885,0,0
0:1:51.164,265.803,33.8464,0,0.000885,0,0
0:1:51.259,265.63,33.8188,0,0.000885,0,0
0:1:51.358,265.274,33.7774,0,0.000885,0,0
0:1:51.458,265.274,33.7774,0,0.000885,0,0
0:1:51.558,264.629,33.6947,0,0.000885,0,0
0:1:51.655,263.926,33.605,0,0.000885,0,0
0:1:51.752,263.926,33.605,0,0.000885,0,0
0:1:51.849,262.752,33.4534,0,0.000885,0,0
0:1:51.950,262.049,33.3637,0,0.000885,0,0
0:1:52.050,260.759,33.1983,0,0.000885,0,0
0:1:52.148,260.759,33.1983,0,0.000885,0,0
0:1:52.244,259.06,32.9845,0,0.000885,0,0
0:1:52.351,256.711,32.688,0,0.000885,0,0
0:1:52.451,254.016,32.3433,0,0.000885,0,0
0:1:52.550,254.016,32.3433,0,0.000885,0,0
0:1:52.651,251.2,31.9848,0,0.000885,0,0
0:1:52.747,247.094,31.4608,0,0.000885,0,0
0:1:52.844,242.637,30.8954,0,0.000885,0,0
0:1:52.943,242.637,30.8954,0,0.000885,0,0
0:1:53.044,238.238,30.33,0,0.000885,0,0
0:1:53.143,233.545,29.7371,0,0.000885,0,0
0:1:53.240,233.545,29.7371,0,0.000885,0,0
0:1:53.336,227.976,29.0269,0,0.000885,0,0
0:1:53.436,220.289,28.0479,0,0.000885,0,0
0:1:53.536,209.912,26.7241,0,0.000885,0,0
0:1:53.636,209.912,26.7241,0,0.000885,0,0