File: DataFile2021-07-28_104710.csv
Test ID:,Date Tested:,Time:,Test Type:,Diameter Avg. (mm):,Cyl. Corr. Factor:,Height (mm):,Age (days):,Weight (kN):,Break Type:,Ramp Rate (MPa/s):,Load at Break (kN):,Stress at Break (MPa):
12,7/28/2021,10:47,Cylinder,100,1,200,0,13.69,3,0.35,1286.43,163.79
Sample Time,Load (kN),Stress (MPa),Long. Strain,Trans. Strain,Chan1 Deflection (mm),Chan2 Deflection (mm)
0:0:13.571,5.8672,0.744634,0,0.000885,0,0
0:0:13.973,9.79498,1.24795,0,0.000885,0,0
0:0:14.371,9.61706,1.22727,0,0.000885,0,0
0:0:14.769,10.0307,1.27553,0,0.000885,0,0
0:0:15.167,9.5014,1.20658,0,0.000885,0,0
0:0:15.575,10.0307,1.27553,0,0.000885,0,0
0:0:15.969,10.7336,1.36516,0,0.000885,0,0
0:0:16.375,11.73,1.49616,0,0.000885,0,0
0:0:16.774,12.7842,1.62716,0,0.000885,0,0
0:0:17.172,14.6035,1.86158,0,0.000885,0,0
0:0:17.570,15.7778,2.00637,0,0.000885,0,0
0:0:17.975,16.7742,2.13737,0,0.000885,0,0
0:0:18.375,17.8863,2.27527,0,0.000885,0,0
0:0:18.776,19.0028,2.42006,0,0.000885,0,0
0:0:19.181,19.7634,2.51659,0,0.000885,0,0
0:0:19.584,21.0534,2.68206,0,0.000885,0,0
0:0:19.987,22.3479,2.84753,0,0.000885,0,0
0:0:20.389,23.6378,3.00611,0,0.000885,0,0
0:0:20.790,25.0435,3.18538,0,0.000885,0,0
0:0:21.186,26.2178,3.33706,0,0.000885,0,0
0:0:21.582,27.0363,3.44048,0,0.000885,0,0
0:0:21.980,28.562,3.63354,0,0.000885,0,0
0:0:22.380,29.385,3.74385,0,0.000885,0,0
0:0:22.778,31.1998,3.97138,0,0.000885,0,0
0:0:23.175,32.3163,4.11617,0,0.000885,0,0
0:0:23.572,33.1971,4.22649,0,0.000885,0,0
0:0:23.974,34.2513,4.36438,0,0.000885,0,0
0:0:24.380,35.3678,4.50228,0,0.000885,0,0
0:0:24.784,36.4799,4.64707,0,0.000885,0,0
0:0:25.185,37.1249,4.7298,0,0.000885,0,0
0:0:25.585,38.6506,4.92286,0,0.000885,0,0
0:0:25.986,39.2956,5.00559,0,0.000885,0,0
0:0:26.383,40.8792,5.20554,0,0.000885,0,0
0:0:26.779,40.9948,5.21933,0,0.000885,0,0
0:0:27.176,42.6985,5.43307,0,0.000885,0,0
0:0:27.576,44.3977,5.6537,0,0.000885,0,0
0:0:27.975,45.1005,5.74333,0,0.000885,0,0
0:0:28.371,45.8656,5.83986,0,0.000885,0,0
0:0:28.764,46.3905,5.90881,0,0.000885,0,0
0:0:29.170,48.2677,6.14323,0,0.000885,0,0
0:0:29.578,49.1484,6.26044,0,0.000885,0,0
0:0:29.983,50.3227,6.40523,0,0.000885,0,0
0:0:30.386,51.4348,6.55002,0,0.000885,0,0
0:0:30.784,52.3734,6.66723,0,0.000885,0,0
0:0:31.185,53.9569,6.86718,0,0.000885,0,0
0:0:31.584,54.722,6.9706,0,0.000885,0,0
0:0:31.979,55.4827,7.06713,0,0.000885,0,0
0:0:32.375,57.0662,7.26707,0,0.000885,0,0
0:0:32.775,57.7691,7.35671,0,0.000885,0,0
0:0:33.175,58.9434,7.50839,0,0.000885,0,0
0:0:33.573,60.5848,7.71523,0,0.000885,0,0
0:0:33.965,61.4655,7.82555,0,0.000885,0,0
0:0:34.371,62.8133,7.99792,0,0.000885,0,0
0:0:34.778,63.9877,8.1496,0,0.000885,0,0
0:0:35.181,65.0419,8.2806,0,0.000885,0,0
0:0:35.584,65.7492,8.37024,0,0.000885,0,0
0:0:35.982,66.7456,8.50124,0,0.000885,0,0
0:0:36.381,67.6841,8.61845,0,0.000885,0,0
0:0:36.782,69.0898,8.79771,0,0.000885,0,0
0:0:37.179,69.7926,8.88734,0,0.000885,0,0
0:0:37.576,70.6155,8.99076,0,0.000885,0,0
0:0:37.972,71.7898,9.14245,0,0.000885,0,0
0:0:38.371,72.7863,9.26655,0,0.000885,0,0
0:0:38.772,74.7212,9.51477,0,0.000885,0,0
0:0:39.177,75.6598,9.63198,0,0.000885,0,0
0:0:39.582,77.0076,9.80434,0,0.000885,0,0
0:0:39.985,77.8884,9.91466,0,0.000885,0,0
0:0:40.388,78.5334,9.9974,0,0.000885,0,0
0:0:40.785,79.3563,10.1008,0,0.000885,0,0
0:0:41.182,80.8197,10.287,0,0.000885,0,0
0:0:41.578,82.2877,10.48,0,0.000885,0,0
0:0:41.980,83.3997,10.6179,0,0.000885,0,0
0:0:42.379,84.1648,10.7145,0,0.000885,0,0
0:0:42.774,85.864,10.9351,0,0.000885,0,0
0:0:43.171,86.6247,11.0316,0,0.000885,0,0
0:0:43.570,87.9769,11.204,0,0.000885,0,0
0:0:43.967,89.0312,11.335,0,0.000885,0,0
0:0:44.376,89.9697,11.4522,0,0.000885,0,0
0:0:44.780,90.8505,11.5694,0,0.000885,0,0
0:0:45.183,92.5497,11.7831,0,0.000885,0,0
0:0:45.585,93.1369,11.859,0,0.000885,0,0
0:0:45.984,94.3112,12.0107,0,0.000885,0,0
0:0:46.381,95.4811,12.1555,0,0.000885,0,0
0:0:46.777,96.949,12.3416,0,0.000885,0,0
0:0:47.176,97.2426,12.383,0,0.000885,0,0
0:0:47.577,98.5326,12.5485,0,0.000885,0,0
0:0:47.973,99.7069,12.6932,0,0.000885,0,0
0:0:48.380,100.703,12.8242,0,0.000885,0,0
0:0:48.777,101.935,12.9759,0,0.000885,0,0
0:0:49.181,103.225,13.1414,0,0.000885,0,0
0:0:49.587,104.458,13.3,0,0.000885,0,0
0:0:49.991,105.103,13.3827,0,0.000885,0,0
0:0:50.394,106.508,13.562,0,0.000885,0,0
0:0:50.793,107.389,13.6723,0,0.000885,0,0
0:0:51.193,108.563,13.824,0,0.000885,0,0
0:0:51.594,109.675,13.9619,0,0.000885,0,0
0:0:51.989,110.85,14.1136,0,0.000885,0,0
0:0:52.386,111.846,14.2377,0,0.000885,0,0
0:0:52.787,113.078,14.3963,0,0.000885,0,0
0:0:53.186,114.017,14.5204,0,0.000885,0,0
0:0:53.582,114.662,14.5962,0,0.000885,0,0
0:0:53.978,116.188,14.7961,0,0.000885,0,0
0:0:54.382,117.945,15.0168,0,0.000885,0,0
0:0:54.789,118.825,15.1271,0,0.000885,0,0
0:0:55.192,120.173,15.2995,0,0.000885,0,0
0:0:55.596,120.996,15.4029,0,0.000885,0,0
0:0:55.993,121.525,15.4718,0,0.000885,0,0
0:0:56.391,122.815,15.6373,0,0.000885,0,0
0:0:56.791,123.692,15.7476,0,0.000885,0,0
0:0:57.188,124.63,15.8717,0,0.000885,0,0
0:0:57.584,126.392,16.0924,0,0.000885,0,0
0:0:57.984,127.095,16.182,0,0.000885,0,0
0:0:58.385,128.678,16.3819,0,0.000885,0,0
0:0:58.782,129.91,16.5405,0,0.000885,0,0
0:0:59.187,130.382,16.6026,0,0.000885,0,0
0:0:59.592,131.845,16.7887,0,0.000885,0,0
0:0:59.994,132.668,16.8922,0,0.000885,0,0
0:1:0.397,133.487,16.9956,0,0.000885,0,0
0:1:0.794,134.719,17.1542,0,0.000885,0,0
0:1:1.190,135.778,17.2852,0,0.000885,0,0
0:1:1.589,137.183,17.4644,0,0.000885,0,0
0:1:1.989,138.531,17.6368,0,0.000885,0,0
0:1:2.388,139.821,17.8023,0,0.000885,0,0
0:1:2.783,140.702,17.9126,0,0.000885,0,0
0:1:3.182,142.112,18.0918,0,0.000885,0,0
0:1:3.581,142.93,18.1953,0,0.000885,0,0
0:1:3.979,143.517,18.2711,0,0.000885,0,0
0:1:4.384,144.865,18.4435,0,0.000885,0,0
0:1:4.790,145.804,18.5676,0,0.000885,0,0
0:1:5.193,147.214,18.7468,0,0.000885,0,0
0:1:5.597,148.446,18.8985,0,0.000885,0,0
0:1:5.994,149.678,19.0571,0,0.000885,0,0
0:1:6.391,150.906,19.2157,0,0.000885,0,0
0:1:6.789,151.729,19.3191,0,0.000885,0,0
0:1:7.189,152.374,19.4018,0,0.000885,0,0
0:1:7.588,153.255,19.5122,0,0.000885,0,0
0:1:7.985,154.429,19.6638,0,0.000885,0,0
0:1:8.383,155.95,19.8569,0,0.000885,0,0
0:1:8.781,156.537,19.9327,0,0.000885,0,0
0:1:9.182,157.885,20.1051,0,0.000885,0,0
0:1:9.588,159.295,20.2844,0,0.000885,0,0
0:1:9.993,159.647,20.3257,0,0.000885,0,0
0:1:10.396,161.408,20.5533,0,0.000885,0,0
0:1:10.796,162.405,20.6774,0,0.000885,0,0
0:1:11.194,163.343,20.7946,0,0.000885,0,0
0:1:11.591,164.749,20.9739,0,0.000885,0,0
0:1:11.987,165.687,21.098,0,0.000885,0,0
0:1:12.387,167.035,21.2703,0,0.000885,0,0
0:1:12.788,167.742,21.36,0,0.000885,0,0
0:1:13.184,169.206,21.5461,0,0.000885,0,0
0:1:13.580,170.029,21.6495,0,0.000885,0,0
0:1:13.984,171.728,21.8633,0,0.000885,0,0
0:1:14.389,172.609,21.9805,0,0.000885,0,0
0:1:14.794,174.014,22.1597,0,0.000885,0,0
0:1:15.196,175.367,22.3252,0,0.000885,0,0
0:1:15.594,176.243,22.4424,0,0.000885,0,0
0:1:15.991,176.363,22.4562,0,0.000885,0,0
0:1:16.391,178.24,22.6906,0,0.000885,0,0
0:1:16.789,178.707,22.7527,0,0.000885,0,0
0:1:17.187,179.53,22.8561,0,0.000885,0,0
0:1:17.583,180.878,23.0285,0,0.000885,0,0
0:1:17.983,181.995,23.1733,0,0.000885,0,0
0:1:18.382,182.755,23.2698,0,0.000885,0,0
0:1:18.778,183.93,23.4215,0,0.000885,0,0
0:1:19.184,185.571,23.6283,0,0.000885,0,0
0:1:19.589,186.452,23.7386,0,0.000885,0,0
0:1:19.993,187.328,23.849,0,0.000885,0,0
0:1:20.396,188.738,24.0282,0,0.000885,0,0
0:1:20.793,190.202,24.2144,0,0.000885,0,0
0:1:21.192,191.082,24.3316,0,0.000885,0,0
0:1:21.589,191.905,24.435,0,0.000885,0,0
0:1:21.985,193.84,24.6832,0,0.000885,0,0
0:1:22.382,194.427,24.7522,0,0.000885,0,0
0:1:22.776,195.366,24.8763,0,0.000885,0,0
0:1:23.168,196.598,25.0349,0,0.000885,0,0
0:1:23.574,198.004,25.2072,0,0.000885,0,0
0:1:23.983,199.236,25.3658,0,0.000885,0,0
0:1:24.387,200.526,25.5313,0,0.000885,0,0
0:1:24.789,201.407,25.6416,0,0.000885,0,0
0:1:25.189,202.167,25.7381,0,0.000885,0,0
0:1:25.586,203.399,25.8967,0,0.000885,0,0
0:1:25.983,203.929,25.9657,0,0.000885,0,0
0:1:26.378,205.161,26.1242,0,0.000885,0,0
0:1:26.780,206.157,26.2483,0,0.000885,0,0
0:1:27.174,207.505,26.4207,0,0.000885,0,0
0:1:27.571,208.679,26.5724,0,0.000885,0,0
0:1:27.967,209.791,26.7103,0,0.000885,0,0
0:1:28.370,210.321,26.7792,0,0.000885,0,0
0:1:28.775,211.904,26.9792,0,0.000885,0,0
0:1:29.177,213.31,27.1584,0,0.000885,0,0
0:1:29.581,214.369,27.2963,0,0.000885,0,0
0:1:29.982,215.659,27.4618,0,0.000885,0,0
0:1:30.382,216.361,27.5515,0,0.000885,0,0
0:1:30.776,217.416,27.6825,0,0.000885,0,0
0:1:31.170,218.999,27.8824,0,0.000885,0,0
0:1:31.568,220.289,28.0479,0,0.000885,0,0
0:1:31.963,220.583,28.0823,0,0.000885,0,0
0:1:32.366,221.935,28.2547,0,0.000885,0,0
0:1:32.758,223.105,28.4064,0,0.000885,0,0
0:1:33.165,224.101,28.5305,0,0.000885,0,0
0:1:33.572,224.924,28.6408,0,0.000885,0,0
0:1:33.965,226.041,28.7787,0,0.000885,0,0
0:1:34.368,226.801,28.8752,0,0.000885,0,0
0:1:34.770,227.918,29.02,0,0.000885,0,0
0:1:35.170,229.208,29.1855,0,0.000885,0,0
0:1:35.570,230.204,29.3096,0,0.000885,0,0
0:1:35.965,231.143,29.4268,0,0.000885,0,0
0:1:36.369,232.727,29.6337,0,0.000885,0,0
0:1:36.784,233.839,29.7716,0,0.000885,0,0
0:1:37.182,234.835,29.9026,0,0.000885,0,0
0:1:37.578,235.951,30.0405,0,0.000885,0,0
0:1:37.968,237.299,30.2128,0,0.000885,0,0
0:1:38.364,238.238,30.33,0,0.000885,0,0
0:1:38.768,239.234,30.461,0,0.000885,0,0
0:1:39.168,240.702,30.6472,0,0.000885,0,0
0:1:39.571,242.05,30.8196,0,0.000885,0,0
0:1:39.970,243.104,30.9506,0,0.000885,0,0
0:1:40.371,243.749,31.0333,0,0.000885,0,0
0:1:40.770,244.924,31.185,0,0.000885,0,0
0:1:41.166,245.862,31.3022,0,0.000885,0,0
0:1:41.561,246.859,31.4332,0,0.000885,0,0
0:1:41.964,248.091,31.5849,0,0.000885,0,0
0:1:42.368,249.149,31.7228,0,0.000885,0,0
0:1:42.766,250.497,31.8951,0,0.000885,0,0
0:1:43.171,251.316,31.9986,0,0.000885,0,0
0:1:43.578,251.961,32.0813,0,0.000885,0,0
0:1:43.981,253.019,32.2123,0,0.000885,0,0
0:1:44.383,254.545,32.4123,0,0.000885,0,0
0:1:44.786,255.541,32.5364,0,0.000885,0,0
0:1:45.184,256.774,32.6949,0,0.000885,0,0
0:1:45.585,258.588,32.9225,0,0.000885,0,0
0:1:45.978,259.354,33.019,0,0.000885,0,0
0:1:46.373,260.35,33.15,0,0.000885,0,0
0:1:46.770,261.346,33.2741,0,0.000885,0,0
0:1:47.177,262.814,33.4603,0,0.000885,0,0
0:1:47.567,263.926,33.605,0,0.000885,0,0
0:1:47.962,264.865,33.7223,0,0.000885,0,0
0:1:48.359,265.861,33.8533,0,0.000885,0,0
0:1:48.754,266.858,33.9774,0,0.000885,0,0
0:1:49.158,267.681,34.0808,0,0.000885,0,0
0:1:49.560,269.028,34.2532,0,0.000885,0,0
0:1:49.961,270.439,34.4324,0,0.000885,0,0
0:1:50.361,271.084,34.5152,0,0.000885,0,0
0:1:50.778,272.374,34.6806,0,0.000885,0,0
0:1:51.171,273.018,34.7634,0,0.000885,0,0
0:1:51.563,274.776,34.984,0,0.000885,0,0
0:1:51.959,275.069,35.0254,0,0.000885,0,0
0:1:52.357,276.128,35.1564,0,0.000885,0,0
0:1:52.761,278.236,35.4253,0,0.000885,0,0
0:1:53.154,278.65,35.4804,0,0.000885,0,0
0:1:53.567,279.526,35.5907,0,0.000885,0,0
0:1:53.970,281.288,35.8114,0,0.000885,0,0
0:1:54.374,282.693,35.9906,0,0.000885,0,0
0:1:54.773,283.107,36.0458,0,0.000885,0,0
0:1:55.172,284.455,36.2182,0,0.000885,0,0
0:1:55.579,285.981,36.4112,0,0.000885,0,0
0:1:55.973,287.155,36.5629,0,0.000885,0,0
0:1:56.370,288.151,36.687,0,0.000885,0,0
0:1:56.765,288.912,36.7835,0,0.000885,0,0
0:1:57.168,289.908,36.9145,0,0.000885,0,0
0:1:57.573,291.083,37.0593,0,0.000885,0,0
0:1:57.970,291.786,37.149,0,0.000885,0,0
0:1:58.364,293.133,37.3213,0,0.000885,0,0
0:1:58.769,294.543,37.5006,0,0.000885,0,0
0:1:59.173,295.718,37.6523,0,0.000885,0,0
0:1:59.573,296.656,37.7695,0,0.000885,0,0
0:1:59.974,297.826,37.9212,0,0.000885,0,0
0:2:0.372,298.943,38.0591,0,0.000885,0,0
0:2:0.768,300.055,38.2039,0,0.000885,0,0
0:2:1.171,300.7,38.2866,0,0.000885,0,0
0:2:1.580,301.99,38.4521,0,0.000885,0,0
0:2:1.987,303.164,38.5969,0,0.000885,0,0
0:2:2.381,303.987,38.7072,0,0.000885,0,0
0:2:2.784,305.744,38.9278,0,0.000885,0,0
0:2:3.186,306.567,39.0312,0,0.000885,0,0
0:2:3.584,307.154,39.1071,0,0.000885,0,0
0:2:3.980,307.857,39.1967,0,0.000885,0,0
0:2:4.383,309.85,39.4518,0,0.000885,0,0
0:2:4.783,310.908,39.5828,0,0.000885,0,0
0:2:5.184,312.43,39.7827,0,0.000885,0,0
0:2:5.582,313.426,39.9069,0,0.000885,0,0
0:2:5.978,314.013,39.9827,0,0.000885,0,0
0:2:6.381,314.894,40.093,0,0.000885,0,0
0:2:6.785,315.948,40.2309,0,0.000885,0,0
0:2:7.180,317.474,40.424,0,0.000885,0,0
0:2:7.579,318.591,40.5619,0,0.000885,0,0
0:2:7.983,319.938,40.7342,0,0.000885,0,0
0:2:8.374,320.935,40.8652,0,0.000885,0,0
0:2:8.767,322.225,41.0238,0,0.000885,0,0
0:2:9.168,323.283,41.1617,0,0.000885,0,0
0:2:9.571,323.928,41.2444,0,0.000885,0,0
0:2:9.971,324.983,41.3754,0,0.000885,0,0
0:2:10.372,326.037,41.5133,0,0.000885,0,0
0:2:10.768,327.269,41.6719,0,0.000885,0,0
0:2:11.165,328.265,41.796,0,0.000885,0,0
0:2:11.572,329.088,41.8994,0,0.000885,0,0
0:2:11.966,330.556,42.0856,0,0.000885,0,0
0:2:12.369,331.259,42.1752,0,0.000885,0,0
0:2:12.774,332.723,42.3614,0,0.000885,0,0
0:2:13.172,333.897,42.5131,0,0.000885,0,0
0:2:13.567,335.013,42.6579,0,0.000885,0,0
0:2:13.970,336.419,42.8371,0,0.000885,0,0
0:2:14.373,337.18,42.9337,0,0.000885,0,0
0:2:14.773,337.825,43.0164,0,0.000885,0,0
0:2:15.172,339.235,43.1957,0,0.000885,0,0
0:2:15.574,341.054,43.4232,0,0.000885,0,0
0:2:15.988,342.286,43.5818,0,0.000885,0,0
0:2:16.382,342.811,43.6507,0,0.000885,0,0
0:2:16.780,343.692,43.761,0,0.000885,0,0
0:2:17.185,344.63,43.8782,0,0.000885,0,0
0:2:17.579,345.627,44.0092,0,0.000885,0,0
0:2:17.982,347.095,44.1954,0,0.000885,0,0
0:2:18.376,348.385,44.3609,0,0.000885,0,0
0:2:18.775,349.559,44.5057,0,0.000885,0,0
0:2:19.181,350.026,44.5677,0,0.000885,0,0
0:2:19.584,351.725,44.7814,0,0.000885,0,0
0:2:19.984,353.135,44.9607,0,0.000885,0,0
0:2:20.380,353.371,44.9952,0,0.000885,0,0
0:2:20.786,354.777,45.1744,0,0.000885,0,0
0:2:21.176,356.067,45.333,0,0.000885,0,0
0:2:21.581,357.299,45.4916,0,0.000885,0,0
0:2:21.987,358.122,45.595,0,0.000885,0,0
0:2:22.385,359.118,45.726,0,0.000885,0,0
0:2:22.776,359.937,45.8295,0,0.000885,0,0
0:2:23.181,361.347,46.0087,0,0.000885,0,0
0:2:23.575,362.343,46.1328,0,0.000885,0,0
0:2:23.973,363.518,46.2845,0,0.000885,0,0
0:2:24.377,365.039,46.4776,0,0.000885,0,0
0:2:24.777,365.746,46.5672,0,0.000885,0,0
0:2:25.180,366.8,46.7051,0,0.000885,0,0
0:2:25.576,367.33,46.7671,0,0.000885,0,0
0:2:25.973,369.087,46.9947,0,0.000885,0,0
0:2:26.366,370.377,47.1601,0,0.000885,0,0
0:2:26.780,371.2,47.2636,0,0.000885,0,0
0:2:27.186,372.725,47.4566,0,0.000885,0,0
0:2:27.583,374.247,47.6497,0,0.000885,0,0
0:2:27.988,375.127,47.76,0,0.000885,0,0
0:2:28.382,376.124,47.891,0,0.000885,0,0
0:2:28.772,376.831,47.9806,0,0.000885,0,0
0:2:29.171,377.356,48.0496,0,0.000885,0,0
0:2:29.574,378.295,48.1668,0,0.000885,0,0
0:2:29.974,379.585,48.3322,0,0.000885,0,0
0:2:30.374,380.937,48.5046,0,0.000885,0,0
0:2:30.772,382.636,48.7184,0,0.000885,0,0
0:2:31.168,383.632,48.8425,0,0.000885,0,0
0:2:31.564,384.513,48.9597,0,0.000885,0,0
0:2:31.967,385.745,49.1114,0,0.000885,0,0
0:2:32.370,386.448,49.201,0,0.000885,0,0
0:2:32.767,387.796,49.3734,0,0.000885,0,0
0:2:33.173,388.619,49.4837,0,0.000885,0,0
0:2:33.567,389.38,49.5802,0,0.000885,0,0
0:2:33.978,391.083,49.7939,0,0.000885,0,0
0:2:34.383,392.022,49.9111,0,0.000885,0,0
0:2:34.786,392.96,50.0353,0,0.000885,0,0
0:2:35.186,394.953,50.2835,0,0.000885,0,0
0:2:35.585,395.598,50.3662,0,0.000885,0,0
0:2:35.976,396.71,50.511,0,0.000885,0,0
0:2:36.385,398.236,50.704,0,0.000885,0,0
0:2:36.782,399.175,50.8213,0,0.000885,0,0
0:2:37.184,399.646,50.8833,0,0.000885,0,0
0:2:37.586,400.994,51.0557,0,0.000885,0,0
0:2:37.981,402.284,51.2212,0,0.000885,0,0
0:2:38.377,403.338,51.3522,0,0.000885,0,0
0:2:38.782,404.57,51.5107,0,0.000885,0,0
0:2:39.184,405.335,51.6073,0,0.000885,0,0
0:2:39.585,405.86,51.6762,0,0.000885,0,0
0:2:39.986,407.27,51.8555,0,0.000885,0,0
0:2:40.387,408.56,52.0209,0,0.000885,0,0
0:2:40.782,409.499,52.1382,0,0.000885,0,0
0:2:41.184,410.495,52.2692,0,0.000885,0,0
0:2:41.577,412.194,52.4829,0,0.000885,0,0
0:2:41.974,412.839,52.5656,0,0.000885,0,0
0:2:42.369,414.25,52.7449,0,0.000885,0,0
0:2:42.771,415.13,52.8552,0,0.000885,0,0
0:2:43.174,416.536,53.0345,0,0.000885,0,0
0:2:43.583,417.826,53.1999,0,0.000885,0,0
0:2:43.978,418.471,53.2827,0,0.000885,0,0
0:2:44.382,420.17,53.4964,0,0.000885,0,0
0:2:44.784,421.109,53.6205,0,0.000885,0,0
0:2:45.183,421.932,53.7239,0,0.000885,0,0
0:2:45.582,423.515,53.9239,0,0.000885,0,0
0:2:45.986,424.632,54.0687,0,0.000885,0,0
0:2:46.377,424.805,54.0894,0,0.000885,0,0
0:2:46.779,426.447,54.2962,0,0.000885,0,0
0:2:47.177,427.857,54.4755,0,0.000885,0,0
0:2:47.573,427.857,54.4755,0,0.000885,0,0
0:2:47.965,429.204,54.6478,0,0.000885,0,0
0:2:48.359,430.143,54.7651,0,0.000885,0,0
0:2:48.755,431.549,54.9443,0,0.000885,0,0
0:2:49.152,432.959,55.1236,0,0.000885,0,0
0:2:49.556,433.662,55.2132,0,0.000885,0,0
0:2:49.958,434.894,55.3718,0,0.000885,0,0
0:2:50.357,436.006,55.5166,0,0.000885,0,0
0:2:50.757,437.007,55.6407,0,0.000885,0,0
0:2:51.152,438.234,55.7993,0,0.000885,0,0
0:2:51.546,439.173,55.9165,0,0.000885,0,0
0:2:51.940,440.756,56.1164,0,0.000885,0,0
0:2:52.335,441.931,56.2681,0,0.000885,0,0
0:2:52.732,442.927,56.3922,0,0.000885,0,0
0:2:53.126,444.159,56.5508,0,0.000885,0,0
0:2:53.517,444.924,56.6473,0,0.000885,0,0
0:2:53.917,445.569,56.7301,0,0.000885,0,0
0:2:54.321,446.508,56.8542,0,0.000885,0,0
0:2:54.721,447.972,57.0403,0,0.000885,0,0
0:2:55.121,448.674,57.13,0,0.000885,0,0
0:2:55.515,450.027,57.3023,0,0.000885,0,0
0:2:55.911,451.259,57.454,0,0.000885,0,0
0:2:56.308,452.197,57.5781,0,0.000885,0,0
0:2:56.700,453.839,57.785,0,0.000885,0,0
0:2:57.094,454.835,57.9091,0,0.000885,0,0
0:2:57.489,455.889,58.047,0,0.000885,0,0
0:2:57.887,457.651,58.2676,0,0.000885,0,0
0:2:58.290,457.531,58.2538,0,0.000885,0,0
0:2:58.681,459.586,58.5158,0,0.000885,0,0
0:2:59.085,460.053,58.5779,0,0.000885,0,0
0:2:59.488,461.579,58.7709,0,0.000885,0,0
0:2:59.888,462.402,58.8743,0,0.000885,0,0
0:3:0.288,463.398,58.9984,0,0.000885,0,0
0:3:0.690,464.159,59.1019,0,0.000885,0,0
0:3:1.087,465.511,59.2673,0,0.000885,0,0
0:3:1.493,466.449,59.3914,0,0.000885,0,0
0:3:1.887,467.561,59.5293,0,0.000885,0,0
0:3:2.278,468.616,59.6672,0,0.000885,0,0
0:3:2.674,469.439,59.7707,0,0.000885,0,0
0:3:3.070,471.138,59.9844,0,0.000885,0,0
0:3:3.466,472.312,60.1361,0,0.000885,0,0
0:3:3.859,473.429,60.2809,0,0.000885,0,0
0:3:4.261,474.776,60.4532,0,0.000885,0,0
0:3:4.664,475.479,60.5429,0,0.000885,0,0
0:3:5.064,476.418,60.6601,0,0.000885,0,0
0:3:5.464,477.592,60.8118,0,0.000885,0,0
0:3:5.860,478.704,60.9497,0,0.000885,0,0
0:3:6.254,479.994,61.1151,0,0.000885,0,0
0:3:6.651,481.462,61.3013,0,0.000885,0,0
0:3:7.045,481.636,61.322,0,0.000885,0,0
0:3:7.439,482.988,61.4943,0,0.000885,0,0
0:3:7.834,483.806,61.5978,0,0.000885,0,0
0:3:8.230,484.629,61.7081,0,0.000885,0,0
0:3:8.625,486.329,61.9218,0,0.000885,0,0
0:3:9.030,487.503,62.0735,0,0.000885,0,0
0:3:9.432,488.499,62.1976,0,0.000885,0,0
0:3:9.832,489.558,62.3355,0,0.000885,0,0
0:3:10.233,490.67,62.4734,0,0.000885,0,0
0:3:10.627,491.609,62.5906,0,0.000885,0,0
0:3:11.020,492.547,62.7147,0,0.000885,0,0
0:3:11.416,494.015,62.9009,0,0.000885,0,0
0:3:11.814,495.421,63.0801,0,0.000885,0,0
0:3:12.210,496.595,63.2249,0,0.000885,0,0
0:3:12.602,497.413,63.3352,0,0.000885,0,0
0:3:12.997,497.943,63.3973,0,0.000885,0,0
0:3:13.395,499.117,63.549,0,0.000885,0,0
0:3:13.792,500.523,63.7282,0,0.000885,0,0
0:3:14.196,501.697,63.8799,0,0.000885,0,0
0:3:14.598,502.987,64.0454,0,0.000885,0,0
0:3:14.999,503.748,64.1419,0,0.000885,0,0
0:3:15.399,504.922,64.2867,0,0.000885,0,0
0:3:15.793,506.154,64.4453,0,0.000885,0,0
0:3:16.188,506.973,64.5487,0,0.000885,0,0
0:3:16.581,508.147,64.7004,0,0.000885,0,0
0:3:16.979,509.615,64.8866,0,0.000885,0,0
0:3:17.375,510.611,65.0107,0,0.000885,0,0
0:3:17.778,511.723,65.1555,0,0.000885,0,0
0:3:18.171,512.489,65.252,0,0.000885,0,0
0:3:18.569,513.249,65.3485,0,0.000885,0,0
0:3:18.975,514.423,65.5002,0,0.000885,0,0
0:3:19.380,516.301,65.7346,0,0.000885,0,0
0:3:19.781,517.003,65.8242,0,0.000885,0,0
0:3:20.181,518.765,66.0518,0,0.000885,0,0
0:3:20.580,519.41,66.1345,0,0.000885,0,0
0:3:20.988,520.642,66.2931,0,0.000885,0,0
0:3:21.380,521.051,66.3414,0,0.000885,0,0
0:3:21.773,522.457,66.5206,0,0.000885,0,0
0:3:22.178,523.338,66.6309,0,0.000885,0,0
0:3:22.577,524.628,66.7964,0,0.000885,0,0
0:3:22.991,525.918,66.9619,0,0.000885,0,0
0:3:23.383,526.914,67.086,0,0.000885,0,0
0:3:23.787,527.737,67.1963,0,0.000885,0,0
0:3:24.192,528.733,67.3204,0,0.000885,0,0
0:3:24.593,530.081,67.4928,0,0.000885,0,0
0:3:24.994,531.14,67.6238,0,0.000885,0,0
0:3:25.387,532.723,67.8306,0,0.000885,0,0
0:3:25.781,533.484,67.9271,0,0.000885,0,0
0:3:26.178,534.249,68.0237,0,0.000885,0,0
0:3:26.573,535.361,68.1616,0,0.000885,0,0
0:3:26.967,536.593,68.3201,0,0.000885,0,0
0:3:27.379,537.768,68.4718,0,0.000885,0,0
0:3:27.778,538.822,68.6028,0,0.000885,0,0
0:3:28.182,540.463,68.8166,0,0.000885,0,0
0:3:28.575,541.228,68.9131,0,0.000885,0,0
0:3:28.977,542.398,69.0579,0,0.000885,0,0
0:3:29.380,543.688,69.2234,0,0.000885,0,0
0:3:29.781,544.978,69.3888,0,0.000885,0,0
0:3:30.182,545.979,69.5129,0,0.000885,0,0
0:3:30.575,546.562,69.5888,0,0.000885,0,0
0:3:30.981,547.794,69.7474,0,0.000885,0,0
0:3:31.379,549.32,69.9404,0,0.000885,0,0
0:3:31.783,549.849,70.0094,0,0.000885,0,0
0:3:32.178,550.961,70.1542,0,0.000885,0,0
0:3:32.580,551.313,70.1955,0,0.000885,0,0
0:3:32.979,553.31,70.4506,0,0.000885,0,0
0:3:33.377,554.422,70.5885,0,0.000885,0,0
0:3:33.770,555.774,70.7609,0,0.000885,0,0
0:3:34.172,556.593,70.8643,0,0.000885,0,0
0:3:34.574,557.531,70.9884,0,0.000885,0,0
0:3:34.975,558.648,71.1263,0,0.000885,0,0
0:3:35.375,559.996,71.2987,0,0.000885,0,0
0:3:35.779,560.876,71.4159,0,0.000885,0,0
0:3:36.182,561.695,71.5193,0,0.000885,0,0
0:3:36.590,563.163,71.7055,0,0.000885,0,0
0:3:36.988,564.688,71.8985,0,0.000885,0,0
0:3:37.382,566.036,72.0709,0,0.000885,0,0
0:3:37.773,566.623,72.1467,0,0.000885,0,0
0:3:38.178,567.856,72.2984,0,0.000885,0,0
0:3:38.578,568.732,72.4156,0,0.000885,0,0
0:3:38.982,569.964,72.5673,0,0.000885,0,0
0:3:39.384,570.845,72.6845,0,0.000885,0,0
0:3:39.782,571.61,72.7811,0,0.000885,0,0
0:3:40.178,572.544,72.8983,0,0.000885,0,0
0:3:40.575,573.776,73.0568,0,0.000885,0,0
0:3:40.978,574.599,73.1603,0,0.000885,0,0
0:3:41.381,576.476,73.4016,0,0.000885,0,0
0:3:41.778,577.882,73.5808,0,0.000885,0,0
0:3:42.174,578.647,73.6774,0,0.000885,0,0
0:3:42.570,579.465,73.7808,0,0.000885,0,0
0:3:42.982,580.524,73.9118,0,0.000885,0,0
0:3:43.397,582.223,74.1324,0,0.000885,0,0
0:3:43.798,583.162,74.2496,0,0.000885,0,0
0:3:44.203,583.985,74.3531,0,0.000885,0,0
0:3:44.605,585.212,74.5116,0,0.000885,0,0
0:3:45.004,586.093,74.622,0,0.000885,0,0
0:3:45.399,587.445,74.7943,0,0.000885,0,0
0:3:45.798,588.09,74.8771,0,0.000885,0,0
0:3:46.194,589.554,75.0632,0,0.000885,0,0
0:3:46.590,590.67,75.208,0,0.000885,0,0
0:3:46.984,591.787,75.3459,0,0.000885,0,0
0:3:47.382,592.961,75.4976,0,0.000885,0,0
0:3:47.780,593.9,75.6148,0,0.000885,0,0
0:3:48.177,595.31,75.7941,0,0.000885,0,0
0:3:48.571,595.897,75.8699,0,0.000885,0,0
0:3:48.971,596.716,75.9733,0,0.000885,0,0
0:3:49.378,598.126,76.1526,0,0.000885,0,0
0:3:49.782,599.416,76.3181,0,0.000885,0,0
0:3:50.183,600.181,76.4146,0,0.000885,0,0
0:3:50.580,601.529,76.587,0,0.000885,0,0
0:3:50.979,602.529,76.718,0,0.000885,0,0
0:3:51.379,603.762,76.8765,0,0.000885,0,0
0:3:51.773,605.287,77.0696,0,0.000885,0,0
0:3:52.168,606.11,77.173,0,0.000885,0,0
0:3:52.567,607.4,77.3385,0,0.000885,0,0
0:3:52.965,608.397,77.4626,0,0.000885,0,0
0:3:53.362,609.104,77.5522,0,0.000885,0,0
0:3:53.758,609.691,77.6281,0,0.000885,0,0
0:3:54.161,611.217,77.8211,0,0.000885,0,0
0:3:54.567,612.449,77.9797,0,0.000885,0,0
0:3:54.970,613.797,78.1521,0,0.000885,0,0
0:3:55.373,615.091,78.3175,0,0.000885,0,0
0:3:55.769,616.439,78.4899,0,0.000885,0,0
0:3:56.176,617.32,78.6002,0,0.000885,0,0
0:3:56.575,618.143,78.7037,0,0.000885,0,0
0:3:56.982,619.317,78.8553,0,0.000885,0,0
0:3:57.378,620.198,78.9657,0,0.000885,0,0
0:3:57.783,621.608,79.1449,0,0.000885,0,0
0:3:58.181,622.604,79.269,0,0.000885,0,0
0:3:58.581,623.836,79.4276,0,0.000885,0,0
0:3:58.985,624.717,79.5448,0,0.000885,0,0
0:3:59.391,625.771,79.6758,0,0.000885,0,0
0:3:59.793,627.181,79.8551,0,0.000885,0,0
0:4:0.193,628.12,79.9723,0,0.000885,0,0
0:4:0.593,629.121,80.1033,0,0.000885,0,0
0:4:0.988,630.175,80.2343,0,0.000885,0,0
0:4:1.383,630.998,80.3377,0,0.000885,0,0
0:4:1.779,632.346,80.5101,0,0.000885,0,0
0:4:2.179,633.462,80.6549,0,0.000885,0,0
0:4:2.576,634.694,80.8135,0,0.000885,0,0
0:4:2.982,635.753,80.9445,0,0.000885,0,0
0:4:3.377,636.576,81.0479,0,0.000885,0,0
0:4:3.779,637.688,81.1927,0,0.000885,0,0
0:4:4.184,639.04,81.365,0,0.000885,0,0
0:4:4.588,640.33,81.5305,0,0.000885,0,0
0:4:4.992,641.389,81.6615,0,0.000885,0,0
0:4:5.388,642.443,81.7994,0,0.000885,0,0
0:4:5.786,643.675,81.958,0,0.000885,0,0
0:4:6.186,645.143,82.1441,0,0.000885,0,0
0:4:6.593,646.024,82.2545,0,0.000885,0,0
0:4:6.986,646.669,82.3372,0,0.000885,0,0
0:4:7.382,647.786,82.482,0,0.000885,0,0
0:4:7.781,648.782,82.6061,0,0.000885,0,0
0:4:8.188,650.076,82.7716,0,0.000885,0,0
0:4:8.585,651.015,82.8888,0,0.000885,0,0
0:4:8.993,652.011,83.0198,0,0.000885,0,0
0:4:9.396,652.777,83.1163,0,0.000885,0,0
0:4:9.797,653.595,83.2197,0,0.000885,0,0
0:4:10.201,655.592,83.4748,0,0.000885,0,0
0:4:10.598,656.767,83.6196,0,0.000885,0,0
0:4:10.991,657.883,83.7644,0,0.000885,0,0
0:4:11.389,659.115,83.923,0,0.000885,0,0
0:4:11.787,659.76,84.0057,0,0.000885,0,0
0:4:12.184,661.05,84.1643,0,0.000885,0,0
0:4:12.581,662.225,84.316,0,0.000885,0,0
0:4:12.977,663.577,84.4884,0,0.000885,0,0
0:4:13.376,664.809,84.6469,0,0.000885,0,0
0:4:13.785,665.805,84.771,0,0.000885,0,0
0:4:14.191,666.806,84.902,0,0.000885,0,0
0:4:14.595,667.745,85.0193,0,0.000885,0,0
0:4:14.997,668.626,85.1296,0,0.000885,0,0
0:4:15.396,669.738,85.2744,0,0.000885,0,0
0:4:15.797,671.326,85.4743,0,0.000885,0,0
0:4:16.192,672.206,85.5846,0,0.000885,0,0
0:4:16.586,673.732,85.7846,0,0.000885,0,0
0:4:16.994,674.257,85.8466,0,0.000885,0,0
0:4:17.393,675.667,86.0259,0,0.000885,0,0
0:4:17.800,676.548,86.1431,0,0.000885,0,0
0:4:18.195,677.486,86.2603,0,0.000885,0,0
0:4:18.588,678.425,86.3775,0,0.000885,0,0
0:4:18.994,679.306,86.4947,0,0.000885,0,0
0:4:19.400,680.538,86.6464,0,0.000885,0,0
0:4:19.804,682.064,86.8464,0,0.000885,0,0
0:4:20.204,682.944,86.9567,0,0.000885,0,0
0:4:20.602,683.652,87.0463,0,0.000885,0,0
0:4:21.002,685.235,87.2463,0,0.000885,0,0
0:4:21.401,686.645,87.4255,0,0.000885,0,0
0:4:21.796,687.526,87.5358,0,0.000885,0,0
0:4:22.190,688.229,87.6255,0,0.000885,0,0
0:4:22.586,689.581,87.7978,0,0.000885,0,0
0:4:22.987,690.755,87.9495,0,0.000885,0,0
0:4:23.385,692.045,88.115,0,0.000885,0,0
0:4:23.779,693.456,88.2943,0,0.000885,0,0
0:4:24.184,694.332,88.4046,0,0.000885,0,0
0:4:24.589,695.448,88.5494,0,0.000885,0,0
0:4:24.993,696.156,88.639,0,0.000885,0,0
0:4:25.396,697.325,88.7838,0,0.000885,0,0
0:4:25.790,698.384,88.9217,0,0.000885,0,0
0:4:26.187,699.207,89.0251,0,0.000885,0,0
0:4:26.598,700.555,89.1975,0,0.000885,0,0
0:4:26.995,701.32,89.294,0,0.000885,0,0
0:4:27.390,702.374,89.4319,0,0.000885,0,0
0:4:27.786,703.606,89.5836,0,0.000885,0,0
0:4:28.183,704.549,89.7077,0,0.000885,0,0
0:4:28.583,706.017,89.8938,0,0.000885,0,0
0:4:28.982,707.249,90.0524,0,0.000885,0,0
0:4:29.386,708.539,90.211,0,0.000885,0,0
0:4:29.790,709.536,90.342,0,0.000885,0,0
0:4:30.194,710.83,90.5075,0,0.000885,0,0
0:4:30.596,711.475,90.5902,0,0.000885,0,0
0:4:30.991,712.707,90.7419,0,0.000885,0,0
0:4:31.385,713.468,90.8384,0,0.000885,0,0
0:4:31.782,714.762,91.0039,0,0.000885,0,0
0:4:32.181,715.759,91.1349,0,0.000885,0,0
0:4:32.580,716.991,91.2935,0,0.000885,0,0
0:4:32.986,718.401,91.4727,0,0.000885,0,0
0:4:33.380,719.575,91.6175,0,0.000885,0,0
0:4:33.782,720.456,91.7279,0,0.000885,0,0
0:4:34.188,721.631,91.8795,0,0.000885,0,0
0:4:34.591,722.391,91.9761,0,0.000885,0,0
0:4:34.995,723.801,92.1553,0,0.000885,0,0
0:4:35.389,724.504,92.245,0,0.000885,0,0
0:4:35.788,725.505,92.376,0,0.000885,0,0
0:4:36.188,726.795,92.5414,0,0.000885,0,0
0:4:36.603,728.205,92.7207,0,0.000885,0,0
0:4:37.000,729.259,92.8517,0,0.000885,0,0
0:4:37.396,730.198,92.9689,0,0.000885,0,0
0:4:37.796,731.314,93.1137,0,0.000885,0,0
0:4:38.195,732.724,93.293,0,0.000885,0,0
0:4:38.588,733.605,93.4033,0,0.000885,0,0
0:4:38.991,734.953,93.5756,0,0.000885,0,0
0:4:39.397,735.598,93.6584,0,0.000885,0,0
0:4:39.799,736.421,93.7618,0,0.000885,0,0
0:4:40.202,738.125,93.9824,0,0.000885,0,0
0:4:40.599,739.179,94.1134,0,0.000885,0,0
0:4:40.991,739.824,94.1962,0,0.000885,0,0
0:4:41.391,740.94,94.341,0,0.000885,0,0
0:4:41.789,742.586,94.5478,0,0.000885,0,0
0:4:42.184,743.525,94.665,0,0.000885,0,0
0:4:42.580,744.699,94.8167,0,0.000885,0,0
0:4:42.977,746.105,94.996,0,0.000885,0,0
0:4:43.377,746.985,95.1063,0,0.000885,0,0
0:4:43.775,748.516,95.3062,0,0.000885,0,0
0:4:44.181,749.218,95.3959,0,0.000885,0,0
0:4:44.583,750.273,95.5269,0,0.000885,0,0
0:4:44.985,750.98,95.6165,0,0.000885,0,0
0:4:45.389,752.328,95.7889,0,0.000885,0,0
0:4:45.785,753.266,95.9061,0,0.000885,0,0
0:4:46.190,754.267,96.0371,0,0.000885,0,0
0:4:46.586,755.673,96.2163,0,0.000885,0,0
0:4:46.985,756.731,96.3473,0,0.000885,0,0
0:4:47.383,757.612,96.4645,0,0.000885,0,0
0:4:47.781,758.551,96.5818,0,0.000885,0,0
0:4:48.185,760.197,96.7886,0,0.000885,0,0
0:4:48.591,760.899,96.8782,0,0.000885,0,0
0:4:48.995,761.544,96.961,0,0.000885,0,0
0:4:49.402,763.248,97.1816,0,0.000885,0,0
0:4:49.804,764.654,97.3609,0,0.000885,0,0
0:4:50.206,765.419,97.4574,0,0.000885,0,0
0:4:50.603,766.945,97.6504,0,0.000885,0,0
0:4:51.004,767.767,97.7539,0,0.000885,0,0
0:4:51.404,769.293,97.9469,0,0.000885,0,0
0:4:51.798,770.347,98.0848,0,0.000885,0,0
0:4:52.204,770.877,98.1538,0,0.000885,0,0
0:4:52.601,771.935,98.2848,0,0.000885,0,0
0:4:53.000,773.168,98.4433,0,0.000885,0,0
0:4:53.397,774.284,98.5812,0,0.000885,0,0
0:4:53.800,775.632,98.7536,0,0.000885,0,0
0:4:54.203,776.748,98.8984,0,0.000885,0,0
0:4:54.608,777.687,99.0156,0,0.000885,0,0
0:4:55.011,778.919,99.1742,0,0.000885,0,0
0:4:55.414,780.209,99.3397,0,0.000885,0,0
0:4:55.809,780.739,99.4086,0,0.000885,0,0
0:4:56.208,782.264,99.6017,0,0.000885,0,0
0:4:56.609,782.794,99.6706,0,0.000885,0,0
0:4:57.004,784.435,99.8775,0,0.000885,0,0
0:4:57.401,785.378,99.9947,0,0.000885,0,0
0:4:57.798,786.432,100.133,0,0.000885,0,0
0:4:58.198,787.197,100.229,0,0.000885,0,0
0:4:58.604,788.723,100.422,0,0.000885,0,0
0:4:59.009,789.662,100.546,0,0.000885,0,0
0:4:59.413,790.778,100.684,0,0.000885,0,0
0:4:59.816,791.89,100.829,0,0.000885,0,0
0:5:0.218,792.949,100.96,0,0.000885,0,0
0:5:0.615,793.887,101.084,0,0.000885,0,0
0:5:1.010,795.298,101.263,0,0.000885,0,0
0:5:1.408,796.41,101.401,0,0.000885,0,0
0:5:1.806,797.468,101.539,0,0.000885,0,0
0:5:2.203,798.7,101.691,0,0.000885,0,0
0:5:2.599,799.172,101.753,0,0.000885,0,0
0:5:2.992,801.165,102.008,0,0.000885,0,0
0:5:3.403,801.93,102.104,0,0.000885,0,0
0:5:3.803,803.162,102.263,0,0.000885,0,0
0:5:4.208,804.158,102.387,0,0.000885,0,0
0:5:4.612,805.039,102.504,0,0.000885,0,0
0:5:5.014,806.507,102.691,0,0.000885,0,0
0:5:5.414,807.094,102.759,0,0.000885,0,0
0:5:5.813,808.033,102.884,0,0.000885,0,0
0:5:6.209,809.679,103.09,0,0.000885,0,0
0:5:6.605,810.381,103.18,0,0.000885,0,0
0:5:7.004,811.556,103.332,0,0.000885,0,0
0:5:7.402,813.139,103.532,0,0.000885,0,0
0:5:7.798,813.727,103.608,0,0.000885,0,0
0:5:8.191,815.315,103.807,0,0.000885,0,0
0:5:8.588,816.017,103.897,0,0.000885,0,0
0:5:8.989,817.076,104.035,0,0.000885,0,0
0:5:9.398,818.482,104.214,0,0.000885,0,0
0:5:9.801,819.42,104.331,0,0.000885,0,0
0:5:10.204,820.652,104.49,0,0.000885,0,0
0:5:10.604,821.653,104.614,0,0.000885,0,0
0:5:11.002,822.65,104.745,0,0.000885,0,0
0:5:11.399,823.708,104.876,0,0.000885,0,0
0:5:11.803,824.998,105.042,0,0.000885,0,0
0:5:12.201,826.23,105.2,0,0.000885,0,0
0:5:12.601,827.347,105.338,0,0.000885,0,0
0:5:13.006,828.401,105.476,0,0.000885,0,0
0:5:13.402,828.988,105.552,0,0.000885,0,0
0:5:13.805,830.398,105.731,0,0.000885,0,0
0:5:14.211,831.395,105.855,0,0.000885,0,0
0:5:14.612,832.396,105.986,0,0.000885,0,0
0:5:15.016,833.392,106.11,0,0.000885,0,0
0:5:15.412,834.744,106.283,0,0.000885,0,0
0:5:15.808,835.799,106.421,0,0.000885,0,0
0:5:16.207,836.737,106.538,0,0.000885,0,0
0:5:16.605,838.325,106.738,0,0.000885,0,0
0:5:16.999,838.908,106.814,0,0.000885,0,0
0:5:17.393,840.554,107.02,0,0.000885,0,0
0:5:17.793,841.492,107.145,0,0.000885,0,0
0:5:18.190,842.431,107.262,0,0.000885,0,0
0:5:18.585,843.547,107.407,0,0.000885,0,0
0:5:18.991,845.015,107.593,0,0.000885,0,0
0:5:19.395,845.838,107.696,0,0.000885,0,0
0:5:19.799,847.07,107.855,0,0.000885,0,0
0:5:20.202,847.831,107.951,0,0.000885,0,0
0:5:20.595,849.477,108.158,0,0.000885,0,0
0:5:20.991,850.3,108.261,0,0.000885,0,0
0:5:21.391,851.176,108.379,0,0.000885,0,0
0:5:21.787,852.293,108.517,0,0.000885,0,0
0:5:22.184,853.818,108.71,0,0.000885,0,0
0:5:22.578,854.29,108.772,0,0.000885,0,0
0:5:22.978,855.758,108.958,0,0.000885,0,0
0:5:23.386,856.403,109.041,0,0.000885,0,0
0:5:23.791,857.813,109.22,0,0.000885,0,0
0:5:24.194,858.631,109.323,0,0.000885,0,0
0:5:24.601,859.984,109.496,0,0.000885,0,0
0:5:25.003,861.394,109.675,0,0.000885,0,0
0:5:25.406,862.096,109.765,0,0.000885,0,0
0:5:25.801,863.329,109.923,0,0.000885,0,0
0:5:26.194,864.445,110.061,0,0.000885,0,0
0:5:26.592,865.384,110.185,0,0.000885,0,0
0:5:26.992,866.38,110.309,0,0.000885,0,0
0:5:27.389,867.612,110.468,0,0.000885,0,0
0:5:27.793,869.432,110.702,0,0.000885,0,0
0:5:28.190,869.787,110.744,0,0.000885,0,0
0:5:28.589,870.9,110.888,0,0.000885,0,0
0:5:28.985,872.488,111.088,0,0.000885,0,0
0:5:29.390,873.133,111.171,0,0.000885,0,0
0:5:29.794,874.249,111.316,0,0.000885,0,0
0:5:30.195,875.775,111.509,0,0.000885,0,0
0:5:30.600,876.829,111.64,0,0.000885,0,0
0:5:31.006,877.474,111.723,0,0.000885,0,0
0:5:31.402,878.181,111.812,0,0.000885,0,0
0:5:31.808,879.471,111.978,0,0.000885,0,0
0:5:32.205,880.939,112.164,0,0.000885,0,0
0:5:32.606,882.349,112.343,0,0.000885,0,0
0:5:33.001,882.816,112.405,0,0.000885,0,0
0:5:33.394,884.106,112.571,0,0.000885,0,0
0:5:33.796,885.223,112.709,0,0.000885,0,0
0:5:34.204,886.455,112.867,0,0.000885,0,0
0:5:34.608,887.749,113.033,0,0.000885,0,0
0:5:35.010,888.688,113.15,0,0.000885,0,0
0:5:35.406,890.036,113.322,0,0.000885,0,0
0:5:35.806,891.037,113.453,0,0.000885,0,0
0:5:36.204,892.033,113.577,0,0.000885,0,0
0:5:36.608,893.207,113.729,0,0.000885,0,0
0:5:37.004,894.382,113.874,0,0.000885,0,0
0:5:37.403,895.614,114.032,0,0.000885,0,0
0:5:37.802,896.437,114.136,0,0.000885,0,0
0:5:38.195,897.611,114.287,0,0.000885,0,0
0:5:38.589,898.492,114.398,0,0.000885,0,0
0:5:38.992,899.43,114.522,0,0.000885,0,0
0:5:39.400,901.014,114.722,0,0.000885,0,0
0:5:39.804,902.01,114.846,0,0.000885,0,0
0:5:40.205,902.949,114.97,0,0.000885,0,0
0:5:40.602,903.892,115.087,0,0.000885,0,0
0:5:40.998,904.888,115.211,0,0.000885,0,0
0:5:41.396,905.943,115.349,0,0.000885,0,0
0:5:41.804,907.762,115.577,0,0.000885,0,0
0:5:42.197,908.469,115.666,0,0.000885,0,0
0:5:42.595,909.586,115.811,0,0.000885,0,0
0:5:42.995,910.698,115.956,0,0.000885,0,0
0:5:43.392,911.814,116.094,0,0.000885,0,0
0:5:43.808,912.753,116.218,0,0.000885,0,0
0:5:44.211,913.576,116.321,0,0.000885,0,0
0:5:44.616,914.866,116.487,0,0.000885,0,0
0:5:45.019,916.218,116.659,0,0.000885,0,0
0:5:45.422,917.392,116.804,0,0.000885,0,0
0:5:45.818,918.389,116.935,0,0.000885,0,0
0:5:46.214,919.737,117.107,0,0.000885,0,0
0:5:46.614,920.737,117.232,0,0.000885,0,0
0:5:47.013,922.205,117.418,0,0.000885,0,0
0:5:47.409,922.966,117.514,0,0.000885,0,0
0:5:47.803,924.082,117.659,0,0.000885,0,0
0:5:48.199,924.848,117.756,0,0.000885,0,0
0:5:48.602,925.902,117.887,0,0.000885,0,0
0:5:49.006,927.134,118.045,0,0.000885,0,0
0:5:49.410,928.602,118.231,0,0.000885,0,0
0:5:49.813,929.661,118.369,0,0.000885,0,0
0:5:50.212,930.893,118.528,0,0.000885,0,0
0:5:50.612,931.128,118.555,0,0.000885,0,0
0:5:51.007,932.476,118.728,0,0.000885,0,0
0:5:51.402,934.002,118.921,0,0.000885,0,0
0:5:51.798,934.767,119.017,0,0.000885,0,0
0:5:52.198,935.648,119.128,0,0.000885,0,0
0:5:52.605,936.76,119.272,0,0.000885,0,0
0:5:53.009,938.464,119.486,0,0.000885,0,0
0:5:53.405,939.402,119.61,0,0.000885,0,0
0:5:53.808,940.754,119.783,0,0.000885,0,0
0:5:54.214,941.693,119.9,0,0.000885,0,0
0:5:54.618,943.161,120.086,0,0.000885,0,0
0:5:55.021,943.748,120.162,0,0.000885,0,0
0:5:55.419,944.802,120.293,0,0.000885,0,0
0:5:55.819,945.741,120.417,0,0.000885,0,0
0:5:56.215,947.093,120.589,0,0.000885,0,0
0:5:56.609,948.677,120.789,0,0.000885,0,0
0:5:57.006,949.148,120.851,0,0.000885,0,0
0:5:57.405,950.323,120.996,0,0.000885,0,0
0:5:57.802,951.319,121.127,0,0.000885,0,0
0:5:58.196,952.671,121.299,0,0.000885,0,0
0:5:58.603,953.668,121.424,0,0.000885,0,0
0:5:59.005,954.722,121.561,0,0.000885,0,0
0:5:59.411,956.132,121.741,0,0.000885,0,0
0:5:59.814,956.955,121.844,0,0.000885,0,0
0:6:0.216,957.422,121.906,0,0.000885,0,0
0:6:0.612,958.716,122.065,0,0.000885,0,0
0:6:1.013,959.891,122.216,0,0.000885,0,0
0:6:1.411,961.065,122.368,0,0.000885,0,0
0:6:1.805,962.119,122.499,0,0.000885,0,0
0:6:2.211,963.587,122.685,0,0.000885,0,0
0:6:2.610,964.819,122.844,0,0.000885,0,0
0:6:3.010,965.584,122.94,0,0.000885,0,0
0:6:3.406,966.817,123.099,0,0.000885,0,0
0:6:3.800,968.049,123.258,0,0.000885,0,0
0:6:4.204,968.929,123.368,0,0.000885,0,0
0:6:4.609,970.34,123.547,0,0.000885,0,0
0:6:5.012,971.278,123.664,0,0.000885,0,0
0:6:5.414,971.923,123.747,0,0.000885,0,0
0:6:5.809,973.449,123.94,0,0.000885,0,0
0:6:6.209,974.272,124.05,0,0.000885,0,0
0:6:6.609,975.562,124.209,0,0.000885,0,0
0:6:7.000,976.736,124.361,0,0.000885,0,0
0:6:7.398,978.084,124.533,0,0.000885,0,0
0:6:7.795,978.377,124.574,0,0.000885,0,0
0:6:8.192,979.672,124.733,0,0.000885,0,0
0:6:8.591,980.846,124.885,0,0.000885,0,0
0:6:8.996,982.078,125.043,0,0.000885,0,0
0:6:9.403,982.959,125.154,0,0.000885,0,0
0:6:9.805,984.071,125.298,0,0.000885,0,0
0:6:10.207,985.13,125.429,0,0.000885,0,0
0:6:10.600,986.304,125.581,0,0.000885,0,0
0:6:11.008,987.479,125.733,0,0.000885,0,0
0:6:11.404,988.768,125.891,0,0.000885,0,0
0:6:11.804,989.534,125.988,0,0.000885,0,0
0:6:12.198,991.295,126.215,0,0.000885,0,0
0:6:12.593,992.114,126.319,0,0.000885,0,0
0:6:12.990,993.288,126.471,0,0.000885,0,0
0:6:13.389,994.347,126.602,0,0.000885,0,0
0:6:13.796,995.459,126.746,0,0.000885,0,0
0:6:14.204,996.695,126.905,0,0.000885,0,0
0:6:14.607,997.87,127.05,0,0.000885,0,0
0:6:15.010,998.982,127.194,0,0.000885,0,0
0:6:15.413,1000.28,127.36,0,0.000885,0,0
0:6:15.810,1000.92,127.443,0,0.000885,0,0
0:6:16.205,1002.39,127.629,0,0.000885,0,0
0:6:16.599,1003.27,127.739,0,0.000885,0,0
0:6:16.998,1003.44,127.76,0,0.000885,0,0
0:6:17.397,1004.68,127.918,0,0.000885,0,0
0:6:17.792,1006.09,128.098,0,0.000885,0,0
0:6:18.188,1007.02,128.215,0,0.000885,0,0
0:6:18.594,1008.55,128.415,0,0.000885,0,0
0:6:18.993,1010.08,128.608,0,0.000885,0,0
0:6:19.398,1010.66,128.684,0,0.000885,0,0
0:6:19.802,1011.66,128.808,0,0.000885,0,0
0:6:20.204,1012.6,128.925,0,0.000885,0,0
0:6:20.606,1013.83,129.084,0,0.000885,0,0
0:6:21.001,1014.83,129.215,0,0.000885,0,0
0:6:21.398,1016.06,129.366,0,0.000885,0,0
0:6:21.792,1016.71,129.449,0,0.000885,0,0
0:6:22.191,1018.18,129.635,0,0.000885,0,0
0:6:22.590,1019.35,129.787,0,0.000885,0,0
0:6:22.986,1020.17,129.89,0,0.000885,0,0
0:6:23.391,1021.76,130.097,0,0.000885,0,0
0:6:23.794,1023.05,130.256,0,0.000885,0,0
0:6:24.200,1023.75,130.345,0,0.000885,0,0
0:6:24.603,1024.99,130.504,0,0.000885,0,0
0:6:25.007,1026.16,130.656,0,0.000885,0,0
0:6:25.401,1027.57,130.835,0,0.000885,0,0
0:6:25.799,1028.98,131.014,0,0.000885,0,0
0:6:26.198,1030.21,131.173,0,0.000885,0,0
0:6:26.594,1030.33,131.187,0,0.000885,0,0
0:6:26.988,1031.5,131.338,0,0.000885,0,0
0:6:27.386,1032.33,131.442,0,0.000885,0,0
0:6:27.786,1033.5,131.586,0,0.000885,0,0
0:6:28.185,1034.14,131.669,0,0.000885,0,0
0:6:28.579,1035.91,131.897,0,0.000885,0,0
0:6:28.983,1037.25,132.069,0,0.000885,0,0
0:6:29.388,1038.61,132.241,0,0.000885,0,0
0:6:29.792,1039.07,132.297,0,0.000885,0,0
0:6:30.195,1040.6,132.497,0,0.000885,0,0
0:6:30.592,1041.6,132.621,0,0.000885,0,0
0:6:30.987,1042.6,132.745,0,0.000885,0,0
0:6:31.385,1043.83,132.903,0,0.000885,0,0
0:6:31.785,1044.71,133.014,0,0.000885,0,0
0:6:32.180,1046.41,133.234,0,0.000885,0,0
0:6:32.577,1047.23,133.338,0,0.000885,0,0
0:6:32.973,1048.29,133.476,0,0.000885,0,0
0:6:33.372,1049.29,133.6,0,0.000885,0,0
0:6:33.771,1050.35,133.731,0,0.000885,0,0
0:6:34.177,1051.58,133.889,0,0.000885,0,0
0:6:34.580,1052.69,134.034,0,0.000885,0,0
0:6:34.982,1053.28,134.11,0,0.000885,0,0
0:6:35.384,1054.57,134.275,0,0.000885,0,0
0:6:35.782,1055.33,134.372,0,0.000885,0,0
0:6:36.179,1056.51,134.517,0,0.000885,0,0
0:6:36.574,1057.92,134.696,0,0.000885,0,0
0:6:36.972,1058.74,134.799,0,0.000885,0,0
0:6:37.372,1060.09,134.972,0,0.000885,0,0
0:6:37.769,1061.55,135.165,0,0.000885,0,0
0:6:38.164,1062.26,135.254,0,0.000885,0,0
0:6:38.561,1063.79,135.448,0,0.000885,0,0
0:6:38.963,1064.49,135.537,0,0.000885,0,0
0:6:39.370,1065.19,135.627,0,0.000885,0,0
0:6:39.773,1066.43,135.778,0,0.000885,0,0
0:6:40.175,1067.72,135.944,0,0.000885,0,0
0:6:40.574,1069.25,136.144,0,0.000885,0,0
0:6:40.971,1070.48,136.296,0,0.000885,0,0
0:6:41.369,1071.01,136.365,0,0.000885,0,0
0:6:41.765,1072.83,136.599,0,0.000885,0,0
0:6:42.159,1073.36,136.661,0,0.000885,0,0
0:6:42.559,1075.12,136.889,0,0.000885,0,0
0:6:42.956,1075.29,136.909,0,0.000885,0,0
0:6:43.353,1076.23,137.033,0,0.000885,0,0
0:6:43.749,1077.64,137.213,0,0.000885,0,0
0:6:44.153,1078.58,137.33,0,0.000885,0,0
0:6:44.559,1079.64,137.461,0,0.000885,0,0
0:6:44.962,1080.63,137.592,0,0.000885,0,0
0:6:45.365,1082.45,137.819,0,0.000885,0,0
0:6:45.762,1083.33,137.937,0,0.000885,0,0
0:6:46.157,1084.1,138.033,0,0.000885,0,0
0:6:46.557,1085.27,138.178,0,0.000885,0,0
0:6:46.955,1086.56,138.343,0,0.000885,0,0
0:6:47.351,1088.03,138.529,0,0.000885,0,0
0:6:47.747,1088.85,138.64,0,0.000885,0,0
0:6:48.145,1089.73,138.75,0,0.000885,0,0
0:6:48.543,1090.79,138.881,0,0.000885,0,0
0:6:48.942,1091.9,139.026,0,0.000885,0,0
0:6:49.348,1093.19,139.191,0,0.000885,0,0
0:6:49.752,1094.54,139.364,0,0.000885,0,0
0:6:50.154,1095.6,139.495,0,0.000885,0,0
0:6:50.556,1096.42,139.598,0,0.000885,0,0
0:6:50.955,1097.36,139.722,0,0.000885,0,0
0:6:51.352,1098.42,139.853,0,0.000885,0,0
0:6:51.747,1099.18,139.95,0,0.000885,0,0
0:6:52.148,1100.01,140.06,0,0.000885,0,0
0:6:52.545,1101.53,140.253,0,0.000885,0,0
0:6:52.941,1102.65,140.391,0,0.000885,0,0
0:6:53.337,1103.94,140.557,0,0.000885,0,0
0:6:53.741,1105.05,140.701,0,0.000885,0,0
0:6:54.146,1106.4,140.874,0,0.000885,0,0
0:6:54.549,1107.1,140.963,0,0.000885,0,0
0:6:54.952,1108.4,141.129,0,0.000885,0,0
0:6:55.348,1109.69,141.287,0,0.000885,0,0
0:6:55.745,1110.33,141.37,0,0.000885,0,0
0:6:56.145,1111.27,141.494,0,0.000885,0,0
0:6:56.542,1113.39,141.763,0,0.000885,0,0
0:6:56.935,1114.21,141.867,0,0.000885,0,0
0:6:57.334,1115.09,141.977,0,0.000885,0,0
0:6:57.732,1116.56,142.163,0,0.000885,0,0
0:6:58.132,1117.67,142.308,0,0.000885,0,0
0:6:58.527,1118.38,142.397,0,0.000885,0,0
0:6:58.932,1119.61,142.556,0,0.000885,0,0
0:6:59.337,1120.61,142.68,0,0.000885,0,0
0:6:59.739,1121.72,142.825,0,0.000885,0,0
0:7:0.143,1123.02,142.983,0,0.000885,0,0
0:7:0.539,1123.31,143.025,0,0.000885,0,0
0:7:0.934,1124.6,143.19,0,0.000885,0,0
0:7:1.331,1126.42,143.418,0,0.000885,0,0
0:7:1.732,1127.36,143.542,0,0.000885,0,0
0:7:2.129,1128,143.625,0,0.000885,0,0
0:7:2.524,1128.94,143.742,0,0.000885,0,0
0:7:2.921,1130.47,143.935,0,0.000885,0,0
0:7:3.320,1131.76,144.1,0,0.000885,0,0
0:7:3.717,1132.17,144.156,0,0.000885,0,0
0:7:4.123,1133.46,144.314,0,0.000885,0,0
0:7:4.527,1135.22,144.542,0,0.000885,0,0
0:7:4.930,1136.22,144.666,0,0.000885,0,0
0:7:5.332,1136.87,144.749,0,0.000885,0,0
0:7:5.728,1138.04,144.9,0,0.000885,0,0
0:7:6.125,1139.45,145.079,0,0.000885,0,0
0:7:6.521,1140.33,145.19,0,0.000885,0,0
0:7:6.920,1141.33,145.321,0,0.000885,0,0
0:7:7.319,1142.8,145.507,0,0.000885,0,0
0:7:7.714,1143.5,145.597,0,0.000885,0,0
0:7:8.111,1144.2,145.686,0,0.000885,0,0
0:7:8.504,1145.43,145.845,0,0.000885,0,0
0:7:8.907,1146.97,146.038,0,0.000885,0,0
0:7:9.315,1147.73,146.134,0,0.000885,0,0
0:7:9.717,1148.66,146.252,0,0.000885,0,0
0:7:10.118,1150.19,146.445,0,0.000885,0,0
0:7:10.518,1151.36,146.596,0,0.000885,0,0
0:7:10.917,1152.13,146.693,0,0.000885,0,0
0:7:11.316,1153.89,146.92,0,0.000885,0,0
0:7:11.711,1154.71,147.024,0,0.000885,0,0
0:7:12.105,1155.53,147.127,0,0.000885,0,0
0:7:12.502,1156.88,147.3,0,0.000885,0,0
0:7:12.901,1157.7,147.403,0,0.000885,0,0
0:7:13.298,1158.58,147.513,0,0.000885,0,0
0:7:13.703,1160.4,147.748,0,0.000885,0,0
0:7:14.108,1161.17,147.844,0,0.000885,0,0
0:7:14.513,1162.4,148.003,0,0.000885,0,0
0:7:14.914,1163.52,148.141,0,0.000885,0,0
0:7:15.317,1164.98,148.327,0,0.000885,0,0
0:7:15.714,1165.69,148.423,0,0.000885,0,0
0:7:16.110,1166.68,148.548,0,0.000885,0,0
0:7:16.510,1167.92,148.706,0,0.000885,0,0
0:7:16.917,1168.09,148.727,0,0.000885,0,0
0:7:17.312,1169.74,148.934,0,0.000885,0,0
0:7:17.706,1171.15,149.113,0,0.000885,0,0
0:7:18.102,1171.91,149.209,0,0.000885,0,0
0:7:18.503,1173.09,149.361,0,0.000885,0,0
0:7:18.900,1174.55,149.547,0,0.000885,0,0
0:7:19.304,1174.73,149.568,0,0.000885,0,0
0:7:19.707,1176.08,149.74,0,0.000885,0,0
0:7:20.112,1177.13,149.878,0,0.000885,0,0
0:7:20.513,1179.01,150.12,0,0.000885,0,0
0:7:20.912,1179.19,150.14,0,0.000885,0,0
0:7:21.305,1180.89,150.354,0,0.000885,0,0
0:7:21.702,1181.77,150.471,0,0.000885,0,0
0:7:22.101,1182.71,150.588,0,0.000885,0,0
0:7:22.499,1184.71,150.843,0,0.000885,0,0
0:7:22.906,1186.06,151.016,0,0.000885,0,0
0:7:23.300,1186.7,151.099,0,0.000885,0,0
0:7:23.704,1188.23,151.292,0,0.000885,0,0
0:7:24.108,1188.7,151.347,0,0.000885,0,0
0:7:24.514,1190.28,151.554,0,0.000885,0,0
0:7:24.915,1190.99,151.643,0,0.000885,0,0
0:7:25.313,1191.63,151.726,0,0.000885,0,0
0:7:25.719,1193.1,151.912,0,0.000885,0,0
0:7:26.120,1193.69,151.988,0,0.000885,0,0
0:7:26.515,1195.21,152.181,0,0.000885,0,0
0:7:26.908,1195.86,152.264,0,0.000885,0,0
0:7:27.305,1197.74,152.498,0,0.000885,0,0
0:7:27.704,1198.74,152.629,0,0.000885,0,0
0:7:28.101,1199.85,152.767,0,0.000885,0,0
0:7:28.497,1200.79,152.891,0,0.000885,0,0
0:7:28.901,1201.67,153.002,0,0.000885,0,0
0:7:29.305,1202.79,153.146,0,0.000885,0,0
0:7:29.709,1203.72,153.264,0,0.000885,0,0
0:7:30.113,1205.49,153.484,0,0.000885,0,0
0:7:30.506,1205.84,153.532,0,0.000885,0,0
0:7:30.901,1207.48,153.739,0,0.000885,0,0
0:7:31.301,1208.66,153.891,0,0.000885,0,0
0:7:31.701,1209.65,154.015,0,0.000885,0,0
0:7:32.105,1210.36,154.105,0,0.000885,0,0
0:7:32.502,1212.12,154.332,0,0.000885,0,0
0:7:32.899,1213.12,154.456,0,0.000885,0,0
0:7:33.299,1214.47,154.629,0,0.000885,0,0
0:7:33.695,1214.7,154.663,0,0.000885,0,0
0:7:34.097,1216.23,154.856,0,0.000885,0,0
0:7:34.503,1216.87,154.939,0,0.000885,0,0
0:7:34.905,1218.23,155.111,0,0.000885,0,0
0:7:35.307,1218.87,155.194,0,0.000885,0,0
0:7:35.716,1220.63,155.415,0,0.000885,0,0
0:7:36.110,1221.45,155.518,0,0.000885,0,0
0:7:36.508,1222.62,155.67,0,0.000885,0,0
0:7:36.908,1223.63,155.794,0,0.000885,0,0
0:7:37.304,1224.86,155.953,0,0.000885,0,0
0:7:37.709,1226.09,156.111,0,0.000885,0,0
0:7:38.105,1226.97,156.221,0,0.000885,0,0
0:7:38.503,1228.38,156.401,0,0.000885,0,0
0:7:38.902,1229.2,156.504,0,0.000885,0,0
0:7:39.308,1230.49,156.67,0,0.000885,0,0
0:7:39.715,1231.31,156.773,0,0.000885,0,0
0:7:40.118,1232.66,156.945,0,0.000885,0,0
0:7:40.520,1233.19,157.014,0,0.000885,0,0
0:7:40.916,1234.84,157.221,0,0.000885,0,0
0:7:41.310,1236.42,157.428,0,0.000885,0,0
0:7:41.705,1237.36,157.545,0,0.000885,0,0
0:7:42.106,1238.83,157.731,0,0.000885,0,0
0:7:42.503,1239.65,157.835,0,0.000885,0,0
0:7:42.898,1240.71,157.973,0,0.000885,0,0
0:7:43.303,1241.35,158.055,0,0.000885,0,0
0:7:43.706,1242.29,158.173,0,0.000885,0,0
0:7:44.110,1243.06,158.269,0,0.000885,0,0
0:7:44.516,1244.52,158.455,0,0.000885,0,0
0:7:44.917,1245.99,158.641,0,0.000885,0,0
0:7:45.322,1246.99,158.772,0,0.000885,0,0
0:7:45.721,1247.28,158.807,0,0.000885,0,0
0:7:46.120,1248.98,159.028,0,0.000885,0,0
0:7:46.517,1249.75,159.124,0,0.000885,0,0
0:7:46.908,1251.21,159.31,0,0.000885,0,0
0:7:47.319,1252.5,159.476,0,0.000885,0,0
0:7:47.718,1253.5,159.6,0,0.000885,0,0
0:7:48.114,1254.56,159.738,0,0.000885,0,0
0:7:48.510,1255.79,159.889,0,0.000885,0,0
0:7:48.916,1256.79,160.02,0,0.000885,0,0
0:7:49.322,1258.49,160.234,0,0.000885,0,0
0:7:49.724,1258.43,160.227,0,0.000885,0,0
0:7:50.125,1259.37,160.351,0,0.000885,0,0
0:7:50.521,1259.84,160.407,0,0.000885,0,0
0:7:50.918,1260.72,160.517,0,0.000885,0,0
0:7:51.317,1262.72,160.772,0,0.000885,0,0
0:7:51.714,1263.95,160.931,0,0.000885,0,0
0:7:52.106,1264.6,161.013,0,0.000885,0,0
0:7:52.502,1265.83,161.172,0,0.000885,0,0
0:7:52.901,1265.19,161.089,0,0.000885,0,0
0:7:53.296,1265.77,161.165,0,0.000885,0,0
0:7:53.691,1267.59,161.392,0,0.000885,0,0
0:7:54.096,1268.7,161.537,0,0.000885,0,0
0:7:54.500,1270.99,161.827,0,0.000885,0,0
0:7:54.902,1273.11,162.096,0,0.000885,0,0
0:7:55.305,1275.1,162.351,0,0.000885,0,0
0:7:55.701,1276.51,162.53,0,0.000885,0,0
0:7:56.098,1277.51,162.654,0,0.000885,0,0
0:7:56.496,1279.1,162.861,0,0.000885,0,0
0:7:56.892,1280.45,163.033,0,0.000885,0,0
0:7:57.289,1280.56,163.047,0,0.000885,0,0
0:7:57.683,1281.8,163.206,0,0.000885,0,0
0:7:58.084,1282.44,163.289,0,0.000885,0,0
0:7:58.482,1283.21,163.385,0,0.000885,0,0
0:7:58.887,1283.67,163.44,0,0.000885,0,0
0:7:59.292,1284.32,163.523,0,0.000885,0,0
0:7:59.695,1285.55,163.682,0,0.000885,0,0
0:8:0.096,1286.43,163.792,0,0.000885,0,0
0:8:0.502,1274.28,162.247,0,0.000885,0,0
0:8:0.748,1140.39,145.197,0,0.000885,0,0