File: DataFile2021-06-08_050008.csv
Test ID:,Date Tested:,Time:,Test Type:,Diameter Avg. (mm):,Cyl. Corr. Factor:,Height (mm):,Age (days):,Weight (kN):,Break Type:,Ramp Rate (MPa/s):,Load at Break (kN):,Stress at Break (MPa):
12,6/8/2021,05:00,Cylinder,154,1,301,0,3.6,5,0.24,764.12,41.02
Sample Time,Load (kN),Stress (MPa),Long. Strain,Trans. Strain,Chan1 Deflection (mm),Chan2 Deflection (mm)
0:0:17.930,10.0307,0.537791,0,0.000885,0,0
0:0:18.130,20.2928,1.08937,0,0.000885,0,0
0:0:18.326,21.0534,1.13074,0,0.000885,0,0
0:0:18.526,20.9378,1.12385,0,0.000885,0,0
0:0:18.722,20.2928,1.08937,0,0.000885,0,0
0:0:18.922,19.9414,1.06869,0,0.000885,0,0
0:0:19.121,19.8257,1.06179,0,0.000885,0,0
0:0:19.316,19.7056,1.0549,0,0.000885,0,0
0:0:19.518,19.1807,1.02732,0,0.000885,0,0
0:0:19.715,19.1185,1.02732,0,0.000885,0,0
0:0:19.912,19.2964,1.03421,0,0.000885,0,0
0:0:20.113,18.8871,1.01353,0,0.000885,0,0
0:0:20.309,18.5936,0.99974,0,0.000885,0,0
0:0:20.509,18.5936,0.99974,0,0.000885,0,0
0:0:20.707,18.3578,0.98595,0,0.000885,0,0
0:0:20.903,19.0028,1.02042,0,0.000885,0,0
0:0:21.103,19.59,1.0549,0,0.000885,0,0
0:0:21.300,20.2928,1.08937,0,0.000885,0,0
0:0:21.500,20.8221,1.11695,0,0.000885,0,0
0:0:21.700,22.1121,1.1859,0,0.000885,0,0
0:0:21.895,23.1085,1.24106,0,0.000885,0,0
0:0:22.098,24.9278,1.33758,0,0.000885,0,0
0:0:22.296,25.3371,1.35827,0,0.000885,0,0
0:0:22.494,26.6271,1.42721,0,0.000885,0,0
0:0:22.696,27.2142,1.46169,0,0.000885,0,0
0:0:22.892,29.0335,1.55822,0,0.000885,0,0
0:0:23.093,29.7364,1.59958,0,0.000885,0,0
0:0:23.295,30.9685,1.66164,0,0.000885,0,0
0:0:23.499,31.787,1.7099,0,0.000885,0,0
0:0:23.702,33.0191,1.77195,0,0.000885,0,0
0:0:23.903,33.4907,1.79953,0,0.000885,0,0
0:0:24.106,34.6605,1.86158,0,0.000885,0,0
0:0:24.308,35.3678,1.89606,0,0.000885,0,0
0:0:24.510,36.6,1.96501,0,0.000885,0,0
0:0:24.712,37.1827,1.99948,0,0.000885,0,0
0:0:24.910,38.5928,2.07532,0,0.000885,0,0
0:0:25.110,39.4112,2.11669,0,0.000885,0,0
0:0:25.311,39.9406,2.14427,0,0.000885,0,0
0:0:25.507,40.7012,2.18564,0,0.000885,0,0
0:0:25.710,42.0535,2.25459,0,0.000885,0,0
0:0:25.907,43.0499,2.30974,0,0.000885,0,0
0:0:26.106,44.4555,2.38559,0,0.000885,0,0
0:0:26.307,45.1628,2.42695,0,0.000885,0,0
0:0:26.502,45.5142,2.44074,0,0.000885,0,0
0:0:26.703,46.8042,2.50969,0,0.000885,0,0
0:0:26.903,47.2134,2.53727,0,0.000885,0,0
0:0:27.100,48.4456,2.59932,0,0.000885,0,0
0:0:27.301,48.5034,2.60622,0,0.000885,0,0
0:0:27.498,49.7934,2.67517,0,0.000885,0,0
0:0:27.698,50.8521,2.73032,0,0.000885,0,0
0:0:27.900,52.022,2.79238,0,0.000885,0,0
0:0:28.095,52.4356,2.81306,0,0.000885,0,0
0:0:28.297,54.077,2.90269,0,0.000885,0,0
0:0:28.499,54.6019,2.93027,0,0.000885,0,0
0:0:28.703,56.657,3.04059,0,0.000885,0,0
0:0:28.906,57.3598,3.08196,0,0.000885,0,0
0:0:29.108,57.8892,3.10954,0,0.000885,0,0
0:0:29.309,58.6498,3.1509,0,0.000885,0,0
0:0:29.511,60.1177,3.22675,0,0.000885,0,0
0:0:29.712,60.3535,3.24054,0,0.000885,0,0
0:0:29.913,61.3499,3.29569,0,0.000885,0,0
0:0:30.110,61.937,3.32327,0,0.000885,0,0
0:0:30.311,63.227,3.39222,0,0.000885,0,0
0:0:30.508,64.1656,3.44738,0,0.000885,0,0
0:0:30.706,64.4547,3.46117,0,0.000885,0,0
0:0:30.908,66.2162,3.55769,0,0.000885,0,0
0:0:31.105,66.8034,3.58527,0,0.000885,0,0
0:0:31.306,67.6841,3.63354,0,0.000885,0,0
0:0:31.505,68.6227,3.6818,0,0.000885,0,0
0:0:31.701,69.5613,3.73696,0,0.000885,0,0
0:0:31.904,70.2063,3.77143,0,0.000885,0,0
0:0:32.101,71.9055,3.86106,0,0.000885,0,0
0:0:32.301,72.9597,3.91622,0,0.000885,0,0
0:0:32.501,73.9561,3.97138,0,0.000885,0,0
0:0:32.695,74.1341,3.97827,0,0.000885,0,0
0:0:32.898,75.0726,4.03343,0,0.000885,0,0
0:0:33.096,75.7176,4.06791,0,0.000885,0,0
0:0:33.295,77.537,4.16443,0,0.000885,0,0
0:0:33.496,77.5948,4.16443,0,0.000885,0,0
0:0:33.700,79.1205,4.24717,0,0.000885,0,0
0:0:33.903,79.7077,4.28164,0,0.000885,0,0
0:0:34.106,81.4069,4.37128,0,0.000885,0,0
0:0:34.306,81.9941,4.39886,0,0.000885,0,0
0:0:34.509,83.3419,4.4747,0,0.000885,0,0
0:0:34.710,83.929,4.50917,0,0.000885,0,0
0:0:34.913,84.9254,4.55743,0,0.000885,0,0
0:0:35.111,85.3347,4.57812,0,0.000885,0,0
0:0:35.310,86.9805,4.66775,0,0.000885,0,0
0:0:35.511,87.5054,4.69533,0,0.000885,0,0
0:0:35.708,88.7376,4.76428,0,0.000885,0,0
0:0:35.908,89.3826,4.79875,0,0.000885,0,0
0:0:36.107,90.2633,4.84701,0,0.000885,0,0
0:0:36.306,91.2597,4.90217,0,0.000885,0,0
0:0:36.508,91.7312,4.92286,0,0.000885,0,0
0:0:36.704,92.6075,4.97112,0,0.000885,0,0
0:0:36.903,93.1369,4.9987,0,0.000885,0,0
0:0:37.105,95.014,5.10212,0,0.000885,0,0
0:0:37.301,95.7168,5.13659,0,0.000885,0,0
0:0:37.503,97.1847,5.21933,0,0.000885,0,0
0:0:37.702,97.7719,5.24691,0,0.000885,0,0
0:0:37.900,98.7683,5.30207,0,0.000885,0,0
0:0:38.102,99.2932,5.32965,0,0.000885,0,0
0:0:38.304,100.525,5.39859,0,0.000885,0,0
0:0:38.508,101.642,5.45375,0,0.000885,0,0
0:0:38.710,103.048,5.5296,0,0.000885,0,0
0:0:38.912,103.461,5.55717,0,0.000885,0,0
0:0:39.114,104.867,5.63302,0,0.000885,0,0
0:0:39.316,105.218,5.64681,0,0.000885,0,0
0:0:39.518,105.983,5.68817,0,0.000885,0,0
0:0:39.718,106.686,5.72954,0,0.000885,0,0
0:0:39.916,107.918,5.7916,0,0.000885,0,0
0:0:40.118,107.976,5.79849,0,0.000885,0,0
0:0:40.313,109.675,5.88812,0,0.000885,0,0
0:0:40.513,110.378,5.9226,0,0.000885,0,0
0:0:40.715,111.495,5.98465,0,0.000885,0,0
0:0:40.910,112.082,6.01912,0,0.000885,0,0
0:0:41.113,113.959,6.11565,0,0.000885,0,0
0:0:41.310,114.368,6.14323,0,0.000885,0,0
0:0:41.508,115.365,6.19149,0,0.000885,0,0
0:0:41.710,117.068,6.28802,0,0.000885,0,0
0:0:41.906,117.478,6.3087,0,0.000885,0,0
0:0:42.108,118.416,6.35697,0,0.000885,0,0
0:0:42.305,119.355,6.40523,0,0.000885,0,0
0:0:42.503,120.173,6.45349,0,0.000885,0,0
0:0:42.704,120.587,6.47418,0,0.000885,0,0
0:0:42.902,121.583,6.52934,0,0.000885,0,0
0:0:43.102,122.464,6.5776,0,0.000885,0,0
0:0:43.304,123.87,6.65344,0,0.000885,0,0
0:0:43.508,124.221,6.66723,0,0.000885,0,0
0:0:43.712,125.689,6.74997,0,0.000885,0,0
0:0:43.914,126.685,6.79823,0,0.000885,0,0
0:0:44.115,128.033,6.87407,0,0.000885,0,0
0:0:44.315,128.505,6.90165,0,0.000885,0,0
0:0:44.517,129.617,6.95681,0,0.000885,0,0
0:0:44.719,130.146,6.98439,0,0.000885,0,0
0:0:44.918,131.32,7.05334,0,0.000885,0,0
0:0:45.116,132.197,7.09471,0,0.000885,0,0
0:0:45.317,133.487,7.16365,0,0.000885,0,0
0:0:45.513,134.545,7.22571,0,0.000885,0,0
0:0:45.716,135.657,7.28086,0,0.000885,0,0
0:0:45.914,135.893,7.29465,0,0.000885,0,0
0:0:46.113,137.241,7.3705,0,0.000885,0,0
0:0:46.314,137.361,7.37739,0,0.000885,0,0
0:0:46.509,137.592,7.38429,0,0.000885,0,0
0:0:46.711,139.354,7.48081,0,0.000885,0,0
0:0:46.911,139.941,7.51529,0,0.000885,0,0
0:0:47.109,141.053,7.57044,0,0.000885,0,0
0:0:47.310,141.818,7.61181,0,0.000885,0,0
0:0:47.506,143.575,7.70834,0,0.000885,0,0
0:0:47.706,144.22,7.74281,0,0.000885,0,0
0:0:47.907,145.573,7.81865,0,0.000885,0,0
0:0:48.103,146.275,7.85313,0,0.000885,0,0
0:0:48.306,147.445,7.91518,0,0.000885,0,0
0:0:48.508,148.21,7.95655,0,0.000885,0,0
0:0:48.713,148.855,7.99102,0,0.000885,0,0
0:0:48.914,149.736,8.03929,0,0.000885,0,0
0:0:49.116,150.555,8.08066,0,0.000885,0,0
0:0:49.318,151.262,8.12202,0,0.000885,0,0
0:0:49.519,153.134,8.21855,0,0.000885,0,0
0:0:49.722,153.37,8.23234,0,0.000885,0,0
0:0:49.923,154.78,8.30818,0,0.000885,0,0
0:0:50.119,155.247,8.33576,0,0.000885,0,0
0:0:50.322,156.302,8.39092,0,0.000885,0,0
0:0:50.521,157.009,8.43229,0,0.000885,0,0
0:0:50.717,158.121,8.48745,0,0.000885,0,0
0:0:50.920,158.944,8.53571,0,0.000885,0,0
0:0:51.116,160.407,8.61155,0,0.000885,0,0
0:0:51.317,161.172,8.65292,0,0.000885,0,0
0:0:51.516,162.053,8.70118,0,0.000885,0,0
0:0:51.713,163.107,8.75634,0,0.000885,0,0
0:0:51.914,163.81,8.79771,0,0.000885,0,0
0:0:52.113,164.985,8.85976,0,0.000885,0,0
0:0:52.312,165.042,8.85976,0,0.000885,0,0
0:0:52.514,166.39,8.93561,0,0.000885,0,0
0:0:52.709,166.862,8.95629,0,0.000885,0,0
0:0:52.912,168.503,9.04592,0,0.000885,0,0
0:0:53.109,169.206,9.08729,0,0.000885,0,0
0:0:53.310,170.616,9.16313,0,0.000885,0,0
0:0:53.511,170.789,9.17003,0,0.000885,0,0
0:0:53.714,172.2,9.24587,0,0.000885,0,0
0:0:53.917,172.902,9.28034,0,0.000885,0,0
0:0:54.120,174.25,9.35619,0,0.000885,0,0
0:0:54.321,175.073,9.39755,0,0.000885,0,0
0:0:54.523,176.07,9.45271,0,0.000885,0,0
0:0:54.724,176.772,9.48719,0,0.000885,0,0
0:0:54.928,178.062,9.56303,0,0.000885,0,0
0:0:55.125,178.649,9.59061,0,0.000885,0,0
0:0:55.324,179.939,9.65955,0,0.000885,0,0
0:0:55.525,181.056,9.72161,0,0.000885,0,0
0:0:55.721,181.759,9.75608,0,0.000885,0,0
0:0:55.923,182.519,9.79745,0,0.000885,0,0
0:0:56.122,184.045,9.88019,0,0.000885,0,0
0:0:56.318,184.512,9.90777,0,0.000885,0,0
0:0:56.520,185.335,9.94913,0,0.000885,0,0
0:0:56.718,186.803,10.0319,0,0.000885,0,0
0:0:56.917,186.803,10.0319,0,0.000885,0,0
0:0:57.117,188.267,10.1077,0,0.000885,0,0
0:0:57.314,188.68,10.1284,0,0.000885,0,0
0:0:57.515,190.086,10.2042,0,0.000885,0,0
0:0:57.714,190.322,10.218,0,0.000885,0,0
0:0:57.914,191.727,10.2939,0,0.000885,0,0
0:0:58.114,192.372,10.3283,0,0.000885,0,0
0:0:58.317,193.017,10.3628,0,0.000885,0,0
0:0:58.519,194.134,10.4249,0,0.000885,0,0
0:0:58.720,195.539,10.5007,0,0.000885,0,0
0:0:58.921,196.184,10.5352,0,0.000885,0,0
0:0:59.121,197.417,10.5972,0,0.000885,0,0
0:0:59.321,197.946,10.6248,0,0.000885,0,0
0:0:59.523,199.236,10.6938,0,0.000885,0,0
0:0:59.720,200.117,10.742,0,0.000885,0,0
0:0:59.918,201.407,10.811,0,0.000885,0,0
0:1:0.117,201.816,10.8317,0,0.000885,0,0
0:1:0.311,202.519,10.873,0,0.000885,0,0
0:1:0.511,204.102,10.9558,0,0.000885,0,0
0:1:0.709,204.689,10.9902,0,0.000885,0,0
0:1:0.905,206.037,11.0592,0,0.000885,0,0
0:1:1.106,206.393,11.0799,0,0.000885,0,0
0:1:1.300,207.683,11.1488,0,0.000885,0,0
0:1:1.500,208.559,11.1971,0,0.000885,0,0
0:1:1.699,209.56,11.2522,0,0.000885,0,0
0:1:1.894,210.379,11.2936,0,0.000885,0,0
0:1:2.095,211.553,11.3557,0,0.000885,0,0
0:1:2.290,212.02,11.3832,0,0.000885,0,0
0:1:2.487,213.782,11.4798,0,0.000885,0,0
0:1:2.685,213.955,11.4867,0,0.000885,0,0
0:1:2.880,215.014,11.5418,0,0.000885,0,0
0:1:3.081,215.659,11.5763,0,0.000885,0,0
0:1:3.281,216.246,11.6108,0,0.000885,0,0
0:1:3.484,217.242,11.6659,0,0.000885,0,0
0:1:3.686,217.829,11.6935,0,0.000885,0,0
0:1:3.887,219.235,11.7694,0,0.000885,0,0
0:1:4.088,219.707,11.7969,0,0.000885,0,0
0:1:4.287,221.054,11.8659,0,0.000885,0,0
0:1:4.488,221.815,11.9072,0,0.000885,0,0
0:1:4.688,222.754,11.9624,0,0.000885,0,0
0:1:4.881,223.986,12.0245,0,0.000885,0,0
0:1:5.083,225.334,12.1003,0,0.000885,0,0
0:1:5.279,226.334,12.1486,0,0.000885,0,0
0:1:5.487,227.504,12.2175,0,0.000885,0,0
0:1:5.688,228.327,12.2589,0,0.000885,0,0
0:1:5.880,229.617,12.3278,0,0.000885,0,0
0:1:6.080,229.969,12.3485,0,0.000885,0,0
0:1:6.278,231.143,12.4106,0,0.000885,0,0
0:1:6.484,231.73,12.4381,0,0.000885,0,0
0:1:6.686,232.9,12.5071,0,0.000885,0,0
0:1:6.878,233.194,12.5209,0,0.000885,0,0
0:1:7.078,233.959,12.5622,0,0.000885,0,0
0:1:7.275,235.071,12.6174,0,0.000885,0,0
0:1:7.480,235.716,12.6519,0,0.000885,0,0
0:1:7.682,237.299,12.7415,0,0.000885,0,0
0:1:7.887,237.709,12.7622,0,0.000885,0,0
0:1:8.086,239.119,12.838,0,0.000885,0,0
0:1:8.284,239.764,12.8725,0,0.000885,0,0
0:1:8.487,240.938,12.9346,0,0.000885,0,0
0:1:8.687,241.876,12.9828,0,0.000885,0,0
0:1:8.889,242.989,13.0449,0,0.000885,0,0
0:1:9.090,243.34,13.0656,0,0.000885,0,0
0:1:9.290,245.044,13.1552,0,0.000885,0,0
0:1:9.489,245.804,13.1966,0,0.000885,0,0
0:1:9.691,246.565,13.2379,0,0.000885,0,0
0:1:9.888,247.739,13.3,0,0.000885,0,0
0:1:10.084,248.269,13.3276,0,0.000885,0,0
0:1:10.286,249.501,13.3965,0,0.000885,0,0
0:1:10.479,250.377,13.4448,0,0.000885,0,0
0:1:10.679,250.791,13.4655,0,0.000885,0,0
0:1:10.876,252.784,13.5689,0,0.000885,0,0
0:1:11.081,253.193,13.5965,0,0.000885,0,0
0:1:11.282,254.483,13.6654,0,0.000885,0,0
0:1:11.479,255.128,13.6999,0,0.000885,0,0
0:1:11.688,256.129,13.7481,0,0.000885,0,0
0:1:11.886,256.889,13.7895,0,0.000885,0,0
0:1:12.081,257.356,13.8171,0,0.000885,0,0
0:1:12.282,259.06,13.9067,0,0.000885,0,0
0:1:12.478,259.411,13.9274,0,0.000885,0,0
0:1:12.687,260.466,13.9826,0,0.000885,0,0
0:1:12.885,261.231,14.0239,0,0.000885,0,0
0:1:13.089,261.934,14.0653,0,0.000885,0,0
0:1:13.288,262.752,14.1067,0,0.000885,0,0
0:1:13.489,263.691,14.1549,0,0.000885,0,0
0:1:13.692,264.336,14.1894,0,0.000885,0,0
0:1:13.893,265.63,14.2584,0,0.000885,0,0
0:1:14.093,266.155,14.2859,0,0.000885,0,0
0:1:14.294,268.152,14.3963,0,0.000885,0,0
0:1:14.494,268.971,14.4376,0,0.000885,0,0
0:1:14.694,269.967,14.4928,0,0.000885,0,0
0:1:14.895,270.439,14.5204,0,0.000885,0,0
0:1:15.092,271.671,14.5824,0,0.000885,0,0
0:1:15.289,272.316,14.6169,0,0.000885,0,0
0:1:15.488,273.837,14.6996,0,0.000885,0,0
0:1:15.683,274.66,14.7479,0,0.000885,0,0
0:1:15.884,275.541,14.7961,0,0.000885,0,0
0:1:16.080,276.715,14.8582,0,0.000885,0,0
0:1:16.287,278.236,14.9409,0,0.000885,0,0
0:1:16.487,278.414,14.9478,0,0.000885,0,0
0:1:16.680,279.589,15.0099,0,0.000885,0,0
0:1:16.880,280.585,15.065,0,0.000885,0,0
0:1:17.088,281.172,15.0926,0,0.000885,0,0
0:1:17.283,281.639,15.1202,0,0.000885,0,0
0:1:17.483,282.636,15.1754,0,0.000885,0,0
0:1:17.676,283.632,15.2305,0,0.000885,0,0
0:1:17.875,284.046,15.2512,0,0.000885,0,0
0:1:18.086,285.509,15.327,0,0.000885,0,0
0:1:18.279,286.332,15.3753,0,0.000885,0,0
0:1:18.480,287.858,15.4512,0,0.000885,0,0
0:1:18.681,288.031,15.4649,0,0.000885,0,0
0:1:18.883,289.499,15.5408,0,0.000885,0,0
0:1:19.084,290.144,15.5753,0,0.000885,0,0
0:1:19.284,291.67,15.658,0,0.000885,0,0
0:1:19.485,292.488,15.7063,0,0.000885,0,0
0:1:19.685,293.369,15.7476,0,0.000885,0,0
0:1:19.887,294.308,15.8028,0,0.000885,0,0
0:1:20.087,295.188,15.851,0,0.000885,0,0
0:1:20.280,296.185,15.8993,0,0.000885,0,0
0:1:20.481,296.594,15.92,0,0.000885,0,0
0:1:20.687,297.066,15.9476,0,0.000885,0,0
0:1:20.884,298.471,16.0234,0,0.000885,0,0
0:1:21.086,299.058,16.0579,0,0.000885,0,0
0:1:21.289,300.584,16.1406,0,0.000885,0,0
0:1:21.488,301.113,16.1682,0,0.000885,0,0
0:1:21.687,301.758,16.2027,0,0.000885,0,0
0:1:21.882,303.164,16.2785,0,0.000885,0,0
0:1:22.083,304.16,16.3268,0,0.000885,0,0
0:1:22.288,305.277,16.3888,0,0.000885,0,0
0:1:22.485,306.158,16.4371,0,0.000885,0,0
0:1:22.684,307.563,16.5129,0,0.000885,0,0
0:1:22.877,308.151,16.5405,0,0.000885,0,0
0:1:23.076,309.556,16.6164,0,0.000885,0,0
0:1:23.277,309.908,16.637,0,0.000885,0,0
0:1:23.483,311.082,16.6991,0,0.000885,0,0
0:1:23.684,311.024,16.6991,0,0.000885,0,0
0:1:23.886,312.723,16.7887,0,0.000885,0,0
0:1:24.087,313.137,16.8094,0,0.000885,0,0
0:1:24.286,314.721,16.8991,0,0.000885,0,0
0:1:24.487,315.13,16.9197,0,0.000885,0,0
0:1:24.688,316.478,16.9887,0,0.000885,0,0
0:1:24.880,317.594,17.0507,0,0.000885,0,0
0:1:25.080,318.648,17.1059,0,0.000885,0,0
0:1:25.280,319.178,17.1335,0,0.000885,0,0
0:1:25.483,320.526,17.2093,0,0.000885,0,0
0:1:25.684,320.641,17.2162,0,0.000885,0,0
0:1:25.880,321.815,17.2783,0,0.000885,0,0
0:1:26.075,322.754,17.3265,0,0.000885,0,0
0:1:26.275,323.399,17.361,0,0.000885,0,0
0:1:26.481,325.161,17.4575,0,0.000885,0,0
0:1:26.682,325.276,17.4644,0,0.000885,0,0
0:1:26.887,326.682,17.5403,0,0.000885,0,0
0:1:27.084,326.975,17.5541,0,0.000885,0,0
0:1:27.285,328.443,17.6299,0,0.000885,0,0
0:1:27.488,329.146,17.6713,0,0.000885,0,0
0:1:27.689,330.2,17.7264,0,0.000885,0,0
0:1:27.886,330.788,17.7609,0,0.000885,0,0
0:1:28.081,332.198,17.8367,0,0.000885,0,0
0:1:28.282,332.958,17.8781,0,0.000885,0,0
0:1:28.482,334.368,17.9539,0,0.000885,0,0
0:1:28.684,334.835,17.9746,0,0.000885,0,0
0:1:28.887,336.597,18.0712,0,0.000885,0,0
0:1:29.086,336.828,18.0849,0,0.000885,0,0
0:1:29.287,338.474,18.1746,0,0.000885,0,0
0:1:29.487,338.412,18.1677,0,0.000885,0,0
0:1:29.685,339.938,18.2504,0,0.000885,0,0
0:1:29.887,340.409,18.278,0,0.000885,0,0
0:1:30.081,341.757,18.3469,0,0.000885,0,0
0:1:30.281,342.811,18.4021,0,0.000885,0,0
0:1:30.476,342.753,18.4021,0,0.000885,0,0
0:1:30.672,344.279,18.4848,0,0.000885,0,0
0:1:30.872,344.982,18.5193,0,0.000885,0,0
0:1:31.088,346.392,18.5952,0,0.000885,0,0
0:1:31.288,346.975,18.6296,0,0.000885,0,0
0:1:31.485,347.975,18.6848,0,0.000885,0,0
0:1:31.682,348.852,18.7262,0,0.000885,0,0
0:1:31.883,350.026,18.7951,0,0.000885,0,0
0:1:32.087,350.32,18.8089,0,0.000885,0,0
0:1:32.287,351.725,18.8847,0,0.000885,0,0
0:1:32.484,352.077,18.9054,0,0.000885,0,0
0:1:32.690,353.896,19.002,0,0.000885,0,0
0:1:32.891,354.31,19.0226,0,0.000885,0,0
0:1:33.087,355.951,19.1123,0,0.000885,0,0
0:1:33.283,356.538,19.1398,0,0.000885,0,0
0:1:33.483,357.241,19.1812,0,0.000885,0,0
0:1:33.685,357.886,19.2157,0,0.000885,0,0
0:1:33.887,359.292,19.2915,0,0.000885,0,0
0:1:34.088,360.35,19.3467,0,0.000885,0,0
0:1:34.289,361.111,19.3881,0,0.000885,0,0
0:1:34.488,361.814,19.4225,0,0.000885,0,0
0:1:34.689,362.988,19.4846,0,0.000885,0,0
0:1:34.890,363.34,19.5053,0,0.000885,0,0
0:1:35.088,365.101,19.6018,0,0.000885,0,0
0:1:35.283,365.568,19.6294,0,0.000885,0,0
0:1:35.484,366.329,19.6638,0,0.000885,0,0
0:1:35.688,367.267,19.719,0,0.000885,0,0
0:1:35.888,367.855,19.7466,0,0.000885,0,0
0:1:36.088,369.38,19.8293,0,0.000885,0,0
0:1:36.281,370.261,19.8776,0,0.000885,0,0
0:1:36.482,371.435,19.9396,0,0.000885,0,0
0:1:36.688,372.254,19.9879,0,0.000885,0,0
0:1:36.887,373.25,20.0362,0,0.000885,0,0
0:1:37.086,373.837,20.0706,0,0.000885,0,0
0:1:37.290,375.012,20.1327,0,0.000885,0,0
0:1:37.489,375.83,20.1741,0,0.000885,0,0
0:1:37.687,377.24,20.2499,0,0.000885,0,0
0:1:37.883,377.592,20.2706,0,0.000885,0,0
0:1:38.084,379.233,20.3602,0,0.000885,0,0
0:1:38.286,379.469,20.374,0,0.000885,0,0
0:1:38.488,380.759,20.443,0,0.000885,0,0
0:1:38.690,381.697,20.4912,0,0.000885,0,0
0:1:38.891,382.4,20.5326,0,0.000885,0,0
0:1:39.090,382.987,20.5602,0,0.000885,0,0
0:1:39.290,384.162,20.6222,0,0.000885,0,0
0:1:39.490,384.807,20.6567,0,0.000885,0,0
0:1:39.690,386.39,20.7463,0,0.000885,0,0
0:1:39.885,386.626,20.7532,0,0.000885,0,0
0:1:40.084,387.445,20.8015,0,0.000885,0,0
0:1:40.278,388.97,20.8842,0,0.000885,0,0
0:1:40.475,389.967,20.9394,0,0.000885,0,0
0:1:40.676,391.141,21.0014,0,0.000885,0,0
0:1:40.870,392.022,21.0497,0,0.000885,0,0
0:1:41.071,393.076,21.1049,0,0.000885,0,0
0:1:41.268,393.543,21.1255,0,0.000885,0,0
0:1:41.464,395.011,21.2083,0,0.000885,0,0
0:1:41.665,395.772,21.2496,0,0.000885,0,0
0:1:41.878,396.772,21.3048,0,0.000885,0,0
0:1:42.078,397.355,21.3324,0,0.000885,0,0
0:1:42.287,398.765,21.4082,0,0.000885,0,0
0:1:42.483,399.059,21.422,0,0.000885,0,0
0:1:42.683,400.349,21.491,0,0.000885,0,0
0:1:42.887,401.403,21.553,0,0.000885,0,0
0:1:43.088,402.284,21.5944,0,0.000885,0,0
0:1:43.287,403.165,21.6426,0,0.000885,0,0
0:1:43.490,404.103,21.6978,0,0.000885,0,0
0:1:43.692,404.455,21.7116,0,0.000885,0,0
0:1:43.893,406.096,21.8012,0,0.000885,0,0
0:1:44.094,406.212,21.8081,0,0.000885,0,0
0:1:44.294,407.973,21.9046,0,0.000885,0,0
0:1:44.494,408.502,21.9322,0,0.000885,0,0
0:1:44.696,409.966,22.0081,0,0.000885,0,0
0:1:44.889,410.202,22.0219,0,0.000885,0,0
0:1:45.089,410.789,22.0563,0,0.000885,0,0
0:1:45.285,412.372,22.1391,0,0.000885,0,0
0:1:45.482,412.724,22.1597,0,0.000885,0,0
0:1:45.683,414.014,22.2287,0,0.000885,0,0
0:1:45.887,414.601,22.2563,0,0.000885,0,0
0:1:46.087,415.891,22.3252,0,0.000885,0,0
0:1:46.284,416.772,22.3735,0,0.000885,0,0
0:1:46.478,418.355,22.4631,0,0.000885,0,0
0:1:46.682,418.707,22.4769,0,0.000885,0,0
0:1:46.886,420.348,22.5665,0,0.000885,0,0
0:1:47.083,420.406,22.5734,0,0.000885,0,0
0:1:47.282,421.874,22.6493,0,0.000885,0,0
0:1:47.476,422.399,22.6769,0,0.000885,0,0
0:1:47.677,423.4,22.732,0,0.000885,0,0
0:1:47.884,424.396,22.7872,0,0.000885,0,0
0:1:48.083,425.277,22.8285,0,0.000885,0,0
0:1:48.283,426.153,22.8768,0,0.000885,0,0
0:1:48.485,427.621,22.9595,0,0.000885,0,0
0:1:48.688,427.972,22.9733,0,0.000885,0,0
0:1:48.887,429.498,23.0561,0,0.000885,0,0
0:1:49.088,430.379,23.1043,0,0.000885,0,0
0:1:49.288,430.672,23.1181,0,0.000885,0,0
0:1:49.488,431.962,23.194,0,0.000885,0,0
0:1:49.689,433.074,23.2491,0,0.000885,0,0
0:1:49.885,433.777,23.2905,0,0.000885,0,0
0:1:50.082,434.6,23.3319,0,0.000885,0,0
0:1:50.283,435.832,23.4008,0,0.000885,0,0
0:1:50.485,436.362,23.4284,0,0.000885,0,0
0:1:50.687,437.767,23.5042,0,0.000885,0,0
0:1:50.884,437.825,23.5042,0,0.000885,0,0
0:1:51.091,439.467,23.5939,0,0.000885,0,0
0:1:51.291,440.232,23.6352,0,0.000885,0,0
0:1:51.484,441.112,23.6835,0,0.000885,0,0
0:1:51.684,442.167,23.7386,0,0.000885,0,0
0:1:51.883,443.279,23.8007,0,0.000885,0,0
0:1:52.089,443.572,23.8145,0,0.000885,0,0
0:1:52.289,445.04,23.8903,0,0.000885,0,0
0:1:52.482,445.449,23.9179,0,0.000885,0,0
0:1:52.680,447.033,24.0007,0,0.000885,0,0
0:1:52.879,447.678,24.0351,0,0.000885,0,0
0:1:53.074,448.794,24.0972,0,0.000885,0,0
0:1:53.275,449.497,24.1317,0,0.000885,0,0
0:1:53.476,450.027,24.1592,0,0.000885,0,0
0:1:53.677,451.259,24.2282,0,0.000885,0,0
0:1:53.879,452.077,24.2695,0,0.000885,0,0
0:1:54.082,453.252,24.3316,0,0.000885,0,0
0:1:54.280,454.012,24.373,0,0.000885,0,0
0:1:54.482,455.538,24.4557,0,0.000885,0,0
0:1:54.680,456.009,24.4833,0,0.000885,0,0
0:1:54.880,457.237,24.5453,0,0.000885,0,0
0:1:55.075,457.766,24.5729,0,0.000885,0,0
0:1:55.276,459.292,24.6557,0,0.000885,0,0
0:1:55.492,460.053,24.697,0,0.000885,0,0
0:1:55.692,460.876,24.7453,0,0.000885,0,0
0:1:55.890,461.463,24.7729,0,0.000885,0,0
0:1:56.085,462.575,24.8349,0,0.000885,0,0
0:1:56.285,462.989,24.8556,0,0.000885,0,0
0:1:56.490,464.572,24.9383,0,0.000885,0,0
0:1:56.688,464.982,24.9659,0,0.000885,0,0
0:1:56.889,466.329,25.0349,0,0.000885,0,0
0:1:57.093,466.801,25.0624,0,0.000885,0,0
0:1:57.294,467.855,25.1176,0,0.000885,0,0
0:1:57.491,469.029,25.1797,0,0.000885,0,0
0:1:57.688,470.199,25.2417,0,0.000885,0,0
0:1:57.887,470.786,25.2762,0,0.000885,0,0
0:1:58.080,472.37,25.3589,0,0.000885,0,0
0:1:58.280,472.957,25.3934,0,0.000885,0,0
0:1:58.483,473.896,25.4417,0,0.000885,0,0
0:1:58.687,474.95,25.4968,0,0.000885,0,0
0:1:58.887,476.24,25.5658,0,0.000885,0,0
0:1:59.088,476.534,25.5864,0,0.000885,0,0
0:1:59.287,477.592,25.6416,0,0.000885,0,0
0:1:59.487,478.411,25.683,0,0.000885,0,0
0:1:59.687,479.349,25.7381,0,0.000885,0,0
0:1:59.887,479.936,25.7657,0,0.000885,0,0
0:2:0.091,480.581,25.8002,0,0.000885,0,0
0:2:0.292,481.929,25.876,0,0.000885,0,0
0:2:0.490,482.223,25.8898,0,0.000885,0,0
0:2:0.685,484.336,26.0001,0,0.000885,0,0
0:2:0.887,485.159,26.0484,0,0.000885,0,0
0:2:1.091,485.684,26.076,0,0.000885,0,0
0:2:1.289,486.506,26.1173,0,0.000885,0,0
0:2:1.489,487.619,26.1794,0,0.000885,0,0
0:2:1.693,488.032,26.2001,0,0.000885,0,0
0:2:1.893,489.909,26.3035,0,0.000885,0,0
0:2:2.088,490.67,26.3449,0,0.000885,0,0
0:2:2.288,491.551,26.3931,0,0.000885,0,0
0:2:2.485,492.605,26.4483,0,0.000885,0,0
0:2:2.691,493.486,26.4966,0,0.000885,0,0
0:2:2.892,494.189,26.531,0,0.000885,0,0
0:2:3.088,495.83,26.6207,0,0.000885,0,0
0:2:3.285,496.475,26.6551,0,0.000885,0,0
0:2:3.485,496.417,26.6482,0,0.000885,0,0
0:2:3.689,498.179,26.7448,0,0.000885,0,0
0:2:3.889,498.352,26.7517,0,0.000885,0,0
0:2:4.091,499.642,26.8275,0,0.000885,0,0
0:2:4.290,500.581,26.8758,0,0.000885,0,0
0:2:4.492,502.049,26.9516,0,0.000885,0,0
0:2:4.691,502.458,26.9723,0,0.000885,0,0
0:2:4.892,504.161,27.0688,0,0.000885,0,0
0:2:5.090,504.864,27.1033,0,0.000885,0,0
0:2:5.287,505.861,27.1584,0,0.000885,0,0
0:2:5.487,506.154,27.1722,0,0.000885,0,0
0:2:5.691,507.093,27.2274,0,0.000885,0,0
0:2:5.892,508.089,27.2757,0,0.000885,0,0
0:2:6.089,509.028,27.3308,0,0.000885,0,0
0:2:6.284,509.909,27.3722,0,0.000885,0,0
0:2:6.485,511.314,27.448,0,0.000885,0,0
0:2:6.690,512.079,27.4894,0,0.000885,0,0
0:2:6.889,513.191,27.5515,0,0.000885,0,0
0:2:7.085,513.956,27.5928,0,0.000885,0,0
0:2:7.279,514.601,27.6273,0,0.000885,0,0
0:2:7.480,515.829,27.6962,0,0.000885,0,0
0:2:7.688,516.888,27.7514,0,0.000885,0,0
0:2:7.889,517.413,27.779,0,0.000885,0,0
0:2:8.084,518.12,27.8135,0,0.000885,0,0
0:2:8.291,519.526,27.8893,0,0.000885,0,0
0:2:8.491,519.29,27.8824,0,0.000885,0,0
0:2:8.693,521.518,27.9996,0,0.000885,0,0
0:2:8.893,522.048,28.0272,0,0.000885,0,0
0:2:9.096,523.102,28.0823,0,0.000885,0,0
0:2:9.296,523.925,28.1306,0,0.000885,0,0
0:2:9.498,525.099,28.1927,0,0.000885,0,0
0:2:9.697,525.215,28.1996,0,0.000885,0,0
0:2:9.898,527.092,28.2961,0,0.000885,0,0
0:2:10.098,527.853,28.3375,0,0.000885,0,0
0:2:10.291,528.854,28.3926,0,0.000885,0,0
0:2:10.493,529.614,28.434,0,0.000885,0,0
0:2:10.688,530.726,28.496,0,0.000885,0,0
0:2:10.885,531.607,28.5374,0,0.000885,0,0
0:2:11.087,532.897,28.6063,0,0.000885,0,0
0:2:11.289,533.604,28.6477,0,0.000885,0,0
0:2:11.490,534.894,28.7167,0,0.000885,0,0
0:2:11.687,535.361,28.7442,0,0.000885,0,0
0:2:11.891,535.948,28.7718,0,0.000885,0,0
0:2:12.093,536.709,28.8132,0,0.000885,0,0
0:2:12.288,538.061,28.889,0,0.000885,0,0
0:2:12.487,538.293,28.8959,0,0.000885,0,0
0:2:12.685,539.351,28.958,0,0.000885,0,0
0:2:12.890,540.583,29.02,0,0.000885,0,0
0:2:13.090,541.108,29.0476,0,0.000885,0,0
0:2:13.291,541.989,29.0959,0,0.000885,0,0
0:2:13.492,542.928,29.151,0,0.000885,0,0
0:2:13.694,544.569,29.2338,0,0.000885,0,0
0:2:13.895,545.334,29.2751,0,0.000885,0,0
0:2:14.095,546.918,29.3648,0,0.000885,0,0
0:2:14.295,547.972,29.4199,0,0.000885,0,0
0:2:14.495,548.559,29.4475,0,0.000885,0,0
0:2:14.696,549.378,29.4958,0,0.000885,0,0
0:2:14.891,550.73,29.5647,0,0.000885,0,0
0:2:15.089,551.375,29.5992,0,0.000885,0,0
0:2:15.288,552.429,29.6612,0,0.000885,0,0
0:2:15.493,553.19,29.6957,0,0.000885,0,0
0:2:15.693,553.777,29.7302,0,0.000885,0,0
0:2:15.888,554.951,29.7922,0,0.000885,0,0
0:2:16.088,555.712,29.8336,0,0.000885,0,0
0:2:16.285,556.299,29.8681,0,0.000885,0,0
0:2:16.491,557.589,29.937,0,0.000885,0,0
0:2:16.691,558.176,29.9646,0,0.000885,0,0
0:2:16.885,559.351,30.0267,0,0.000885,0,0
0:2:17.093,560.405,30.0887,0,0.000885,0,0
0:2:17.294,561.285,30.137,0,0.000885,0,0
0:2:17.488,561.988,30.1715,0,0.000885,0,0
0:2:17.688,563.572,30.2542,0,0.000885,0,0
0:2:17.894,564.275,30.2956,0,0.000885,0,0
0:2:18.091,565.04,30.3369,0,0.000885,0,0
0:2:18.292,566.036,30.3921,0,0.000885,0,0
0:2:18.492,567.148,30.4472,0,0.000885,0,0
0:2:18.695,567.971,30.4955,0,0.000885,0,0
0:2:18.896,568.616,30.53,0,0.000885,0,0
0:2:19.096,570.026,30.6058,0,0.000885,0,0
0:2:19.295,570.258,30.6127,0,0.000885,0,0
0:2:19.496,571.548,30.6817,0,0.000885,0,0
0:2:19.697,572.428,30.7299,0,0.000885,0,0
0:2:19.895,573.367,30.7851,0,0.000885,0,0
0:2:20.089,573.718,30.7989,0,0.000885,0,0
0:2:20.291,575.538,30.8954,0,0.000885,0,0
0:2:20.485,575.538,30.8954,0,0.000885,0,0
0:2:20.694,577.006,30.9781,0,0.000885,0,0
0:2:20.894,577.944,31.0264,0,0.000885,0,0
0:2:21.085,579.585,31.116,0,0.000885,0,0
0:2:21.285,580.11,31.1436,0,0.000885,0,0
0:2:21.481,580.755,31.1781,0,0.000885,0,0
0:2:21.691,581.988,31.247,0,0.000885,0,0
0:2:21.892,583.104,31.3022,0,0.000885,0,0
0:2:22.094,583.455,31.3229,0,0.000885,0,0
0:2:22.294,584.745,31.3918,0,0.000885,0,0
0:2:22.493,585.568,31.4401,0,0.000885,0,0
0:2:22.688,586.151,31.4677,0,0.000885,0,0
0:2:22.889,587.797,31.5573,0,0.000885,0,0
0:2:23.094,588.264,31.5849,0,0.000885,0,0
0:2:23.293,589.674,31.6607,0,0.000885,0,0
0:2:23.492,590.141,31.6814,0,0.000885,0,0
0:2:23.695,591.195,31.7366,0,0.000885,0,0
0:2:23.897,592.076,31.7848,0,0.000885,0,0
0:2:24.100,593.193,31.8469,0,0.000885,0,0
0:2:24.300,593.25,31.8469,0,0.000885,0,0
0:2:24.502,594.954,31.9434,0,0.000885,0,0
0:2:24.702,595.483,31.971,0,0.000885,0,0
0:2:24.904,596.422,32.0193,0,0.000885,0,0
0:2:25.102,597.183,32.0606,0,0.000885,0,0
0:2:25.301,598.299,32.1227,0,0.000885,0,0
0:2:25.502,599.238,32.1709,0,0.000885,0,0
0:2:25.698,600.354,32.233,0,0.000885,0,0
0:2:25.899,601.235,32.2813,0,0.000885,0,0
0:2:26.098,603.054,32.3778,0,0.000885,0,0
0:2:26.294,603.406,32.3985,0,0.000885,0,0
0:2:26.495,604.758,32.4674,0,0.000885,0,0
0:2:26.690,605.345,32.5019,0,0.000885,0,0
0:2:26.890,606.751,32.5777,0,0.000885,0,0
0:2:27.091,606.987,32.5846,0,0.000885,0,0
0:2:27.294,608.277,32.6536,0,0.000885,0,0
0:2:27.497,608.57,32.6743,0,0.000885,0,0
0:2:27.693,608.926,32.688,0,0.000885,0,0
0:2:27.892,610.452,32.7708,0,0.000885,0,0
0:2:28.094,611.39,32.8259,0,0.000885,0,0
0:2:28.297,612.209,32.8673,0,0.000885,0,0
0:2:28.499,613.383,32.9294,0,0.000885,0,0
0:2:28.702,614.678,32.9983,0,0.000885,0,0
0:2:28.903,615.438,33.0397,0,0.000885,0,0
0:2:29.104,616.261,33.0879,0,0.000885,0,0
0:2:29.305,616.906,33.1224,0,0.000885,0,0
0:2:29.507,618.374,33.1983,0,0.000885,0,0
0:2:29.704,619.313,33.2465,0,0.000885,0,0
0:2:29.901,620.371,33.3086,0,0.000885,0,0
0:2:30.102,620.429,33.3086,0,0.000885,0,0
0:2:30.299,621.777,33.3844,0,0.000885,0,0
0:2:30.499,622.133,33.3982,0,0.000885,0,0
0:2:30.699,623.658,33.4809,0,0.000885,0,0
0:2:30.893,624.477,33.5292,0,0.000885,0,0
0:2:31.095,626.065,33.6119,0,0.000885,0,0
0:2:31.293,626.652,33.6464,0,0.000885,0,0
0:2:31.491,627.649,33.6947,0,0.000885,0,0
0:2:31.692,628.294,33.7292,0,0.000885,0,0
0:2:31.897,629.352,33.7912,0,0.000885,0,0
0:2:32.097,630.055,33.8257,0,0.000885,0,0
0:2:32.295,630.82,33.867,0,0.000885,0,0
0:2:32.491,632.226,33.9429,0,0.000885,0,0
0:2:32.693,633.049,33.9843,0,0.000885,0,0
0:2:32.889,634.281,34.0532,0,0.000885,0,0
0:2:33.089,634.81,34.0808,0,0.000885,0,0
0:2:33.289,635.927,34.1428,0,0.000885,0,0
0:2:33.493,636.923,34.1911,0,0.000885,0,0
0:2:33.695,638.155,34.26,0,0.000885,0,0
0:2:33.898,638.507,34.2807,0,0.000885,0,0
0:2:34.098,639.859,34.3497,0,0.000885,0,0
0:2:34.300,640.268,34.3773,0,0.000885,0,0
0:2:34.501,641.563,34.4462,0,0.000885,0,0
0:2:34.702,641.794,34.4531,0,0.000885,0,0
0:2:34.901,643.382,34.5427,0,0.000885,0,0
0:2:35.099,644.085,34.5772,0,0.000885,0,0
0:2:35.301,645.259,34.6393,0,0.000885,0,0
0:2:35.495,645.668,34.6668,0,0.000885,0,0
0:2:35.697,646.9,34.7289,0,0.000885,0,0
0:2:35.894,648.137,34.7978,0,0.000885,0,0
0:2:36.091,649.485,34.8668,0,0.000885,0,0
0:2:36.293,649.778,34.8875,0,0.000885,0,0
0:2:36.489,650.423,34.9219,0,0.000885,0,0
0:2:36.690,651.598,34.984,0,0.000885,0,0
0:2:36.888,652.301,35.0185,0,0.000885,0,0
0:2:37.093,653.417,35.0805,0,0.000885,0,0
0:2:37.295,653.946,35.1081,0,0.000885,0,0
0:2:37.492,655.294,35.1839,0,0.000885,0,0
0:2:37.692,656.175,35.2253,0,0.000885,0,0
0:2:37.893,657.407,35.2943,0,0.000885,0,0
0:2:38.098,657.763,35.3149,0,0.000885,0,0
0:2:38.298,658.995,35.377,0,0.000885,0,0
0:2:38.500,659.698,35.4184,0,0.000885,0,0
0:2:38.703,661.224,35.5011,0,0.000885,0,0
0:2:38.905,662.162,35.5494,0,0.000885,0,0
0:2:39.107,663.101,35.5976,0,0.000885,0,0
0:2:39.307,663.924,35.6459,0,0.000885,0,0
0:2:39.508,664.805,35.6942,0,0.000885,0,0
0:2:39.710,665.57,35.7355,0,0.000885,0,0
0:2:39.912,666.86,35.8045,0,0.000885,0,0
0:2:40.106,667.331,35.8252,0,0.000885,0,0
0:2:40.307,668.505,35.8872,0,0.000885,0,0
0:2:40.506,669.208,35.9286,0,0.000885,0,0
0:2:40.704,670.734,36.0113,0,0.000885,0,0
0:2:40.905,670.97,36.0251,0,0.000885,0,0
0:2:41.102,672.611,36.1078,0,0.000885,0,0
0:2:41.300,673.14,36.1354,0,0.000885,0,0
0:2:41.500,674.137,36.1906,0,0.000885,0,0
0:2:41.695,674.844,36.2319,0,0.000885,0,0
0:2:41.898,676.312,36.3078,0,0.000885,0,0
0:2:42.095,677.193,36.3561,0,0.000885,0,0
0:2:42.292,677.366,36.3629,0,0.000885,0,0
0:2:42.494,678.305,36.4181,0,0.000885,0,0
0:2:42.699,678.95,36.4526,0,0.000885,0,0
0:2:42.901,680.711,36.5422,0,0.000885,0,0
0:2:43.098,681.65,36.5974,0,0.000885,0,0
0:2:43.295,682.709,36.6525,0,0.000885,0,0
0:2:43.498,683.411,36.687,0,0.000885,0,0
0:2:43.699,683.941,36.7215,0,0.000885,0,0
0:2:43.902,684.586,36.756,0,0.000885,0,0
0:2:44.105,686.054,36.8318,0,0.000885,0,0
0:2:44.305,686.699,36.8663,0,0.000885,0,0
0:2:44.507,688.051,36.9421,0,0.000885,0,0
0:2:44.708,688.812,36.9835,0,0.000885,0,0
0:2:44.909,690.164,37.0524,0,0.000885,0,0
0:2:45.110,690.693,37.08,0,0.000885,0,0
0:2:45.304,692.099,37.1558,0,0.000885,0,0
0:2:45.507,692.748,37.1903,0,0.000885,0,0
0:2:45.703,693.802,37.2455,0,0.000885,0,0
0:2:45.901,694.274,37.2731,0,0.000885,0,0
0:2:46.103,695.448,37.3351,0,0.000885,0,0
0:2:46.298,696.267,37.3834,0,0.000885,0,0
0:2:46.499,697.441,37.4454,0,0.000885,0,0
0:2:46.697,697.855,37.4661,0,0.000885,0,0
0:2:46.893,698.967,37.5282,0,0.000885,0,0
0:2:47.095,700.026,37.5833,0,0.000885,0,0
0:2:47.291,700.613,37.6109,0,0.000885,0,0
0:2:47.491,701.845,37.6798,0,0.000885,0,0
0:2:47.691,702.783,37.7281,0,0.000885,0,0
0:2:47.895,704.367,37.8177,0,0.000885,0,0
0:2:48.096,704.781,37.8384,0,0.000885,0,0
0:2:48.298,706.013,37.9005,0,0.000885,0,0
0:2:48.500,706.422,37.9281,0,0.000885,0,0
0:2:48.703,707.361,37.9763,0,0.000885,0,0
0:2:48.904,708.006,38.0108,0,0.000885,0,0
0:2:49.107,709.416,38.0866,0,0.000885,0,0
0:2:49.307,710.003,38.1211,0,0.000885,0,0
0:2:49.509,710.826,38.1625,0,0.000885,0,0
0:2:49.710,711.529,38.197,0,0.000885,0,0
0:2:49.904,713.348,38.3004,0,0.000885,0,0
0:2:50.106,713.819,38.3211,0,0.000885,0,0
0:2:50.304,715.167,38.3969,0,0.000885,0,0
0:2:50.501,715.817,38.4314,0,0.000885,0,0
0:2:50.702,717.4,38.5141,0,0.000885,0,0
0:2:50.898,717.516,38.521,0,0.000885,0,0
0:2:51.097,718.748,38.59,0,0.000885,0,0
0:2:51.297,719.513,38.6313,0,0.000885,0,0
0:2:51.493,720.274,38.6727,0,0.000885,0,0
0:2:51.695,721.217,38.721,0,0.000885,0,0
0:2:51.891,722.098,38.7692,0,0.000885,0,0
0:2:52.099,723.094,38.8175,0,0.000885,0,0
0:2:52.300,723.739,38.852,0,0.000885,0,0
0:2:52.495,724.798,38.914,0,0.000885,0,0
0:2:52.697,725.443,38.9485,0,0.000885,0,0
0:2:52.895,726.79,39.0174,0,0.000885,0,0
0:2:53.091,727.556,39.0588,0,0.000885,0,0
0:2:53.293,728.903,39.1346,0,0.000885,0,0
0:2:53.494,729.784,39.1829,0,0.000885,0,0
0:2:53.698,731.136,39.2519,0,0.000885,0,0
0:2:53.899,732.017,39.3001,0,0.000885,0,0
0:2:54.101,732.72,39.3346,0,0.000885,0,0
0:2:54.302,733.601,39.3829,0,0.000885,0,0
0:2:54.503,734.539,39.438,0,0.000885,0,0
0:2:54.705,734.891,39.4518,0,0.000885,0,0
0:2:54.905,736.123,39.5207,0,0.000885,0,0
0:2:55.101,736.652,39.5483,0,0.000885,0,0
0:2:55.303,737.827,39.6104,0,0.000885,0,0
0:2:55.501,738.414,39.6449,0,0.000885,0,0
0:2:55.700,739.588,39.7069,0,0.000885,0,0
0:2:55.901,740.584,39.7621,0,0.000885,0,0
0:2:56.095,741.407,39.8034,0,0.000885,0,0
0:2:56.297,742.76,39.8793,0,0.000885,0,0
0:2:56.494,743.111,39.8931,0,0.000885,0,0
0:2:56.692,744.637,39.9758,0,0.000885,0,0
0:2:56.894,745.224,40.0103,0,0.000885,0,0
0:2:57.098,746.572,40.0792,0,0.000885,0,0
0:2:57.298,747.101,40.1068,0,0.000885,0,0
0:2:57.498,747.688,40.1413,0,0.000885,0,0
0:2:57.695,748.275,40.1758,0,0.000885,0,0
0:2:57.897,749.334,40.2309,0,0.000885,0,0
0:2:58.093,749.743,40.2516,0,0.000885,0,0
0:2:58.292,751.033,40.3205,0,0.000885,0,0
0:2:58.493,751.505,40.3481,0,0.000885,0,0
0:2:58.697,753.031,40.4309,0,0.000885,0,0
0:2:58.899,753.56,40.4584,0,0.000885,0,0
0:2:59.100,754.908,40.5274,0,0.000885,0,0
0:2:59.302,755.379,40.555,0,0.000885,0,0
0:2:59.504,757.141,40.6515,0,0.000885,0,0
0:2:59.704,757.608,40.6722,0,0.000885,0,0
0:2:59.905,758.724,40.7342,0,0.000885,0,0
0:3:0.104,759.485,40.7756,0,0.000885,0,0
0:3:0.302,760.428,40.8239,0,0.000885,0,0
0:3:0.503,761.131,40.8652,0,0.000885,0,0
0:3:0.697,761.834,40.8997,0,0.000885,0,0
0:3:0.899,762.363,40.9273,0,0.000885,0,0
0:3:1.098,762.599,40.9411,0,0.000885,0,0
0:3:1.293,763.359,40.9824,0,0.000885,0,0
0:3:1.495,764.067,41.0169,0,0.000885,0,0
0:3:1.690,764.476,41.0445,0,0.000885,0,0
0:3:1.890,764.302,41.0307,0,0.000885,0,0
0:3:2.090,764.067,41.0169,0,0.000885,0,0
0:3:2.293,763.359,40.9824,0,0.000885,0,0
0:3:2.494,762.541,40.9411,0,0.000885,0,0
0:3:2.691,761.834,40.8997,0,0.000885,0,0
0:3:2.897,757.078,40.6446,0,0.000885,0,0
0:3:3.098,752.443,40.3964,0,0.000885,0,0
0:3:3.300,730.958,39.245,0,0.000885,0,0
0:3:3.502,701.373,37.6523,0,0.000885,0,0
0:3:3.703,543.751,29.1924,0,0.000885,0,0
0:3:3.804,543.751,29.1924,0,0.000885,0,0