File: DataFile2021-07-15_071659.csv
Test ID:,Date Tested:,Time:,Test Type:,Diameter Avg. (mm):,Cyl. Corr. Factor:,Height (mm):,Age (days):,Weight (kN):,Break Type:,Ramp Rate (MPa/s):,Load at Break (kN):,Stress at Break (MPa):
12,7/15/2021,07:16,Cylinder,100,1,200,0,3.6,3,0.25,1346.95,171.5
Sample Time,Load (kN),Stress (MPa),Long. Strain,Trans. Strain,Chan1 Deflection (mm),Chan2 Deflection (mm)
0:0:7.507,5.04428,0.641212,0,0.000885,0,0
0:0:8.102,5.8672,0.744634,0,0.000885,0,0
0:0:8.696,6.86361,0.875634,0,0.000885,0,0
0:0:9.306,8.79858,1.11695,0,0.000885,0,0
0:0:9.903,10.44,1.33069,0,0.000885,0,0
0:0:10.509,11.085,1.41343,0,0.000885,0,0
0:0:11.102,12.2015,1.55132,0,0.000885,0,0
0:0:11.706,12.9621,1.64785,0,0.000885,0,0
0:0:12.301,14.0742,1.79264,0,0.000885,0,0
0:0:12.908,15.1907,1.93743,0,0.000885,0,0
0:0:13.514,16.5963,2.11669,0,0.000885,0,0
0:0:14.122,17.8863,2.27527,0,0.000885,0,0
0:0:14.724,19.412,2.47522,0,0.000885,0,0
0:0:15.317,20.3506,2.59243,0,0.000885,0,0
0:0:15.914,20.88,2.66138,0,0.000885,0,0
0:0:16.511,22.7571,2.8958,0,0.000885,0,0
0:0:17.109,23.7535,3.0268,0,0.000885,0,0
0:0:17.707,24.3407,3.09575,0,0.000885,0,0
0:0:18.314,26.3913,3.35775,0,0.000885,0,0
0:0:18.917,26.9785,3.43359,0,0.000885,0,0
0:0:19.514,28.2106,3.59217,0,0.000885,0,0
0:0:20.113,28.9134,3.6818,0,0.000885,0,0
0:0:20.711,30.0299,3.82659,0,0.000885,0,0
0:0:21.309,31.0842,3.95759,0,0.000885,0,0
0:0:21.906,33.1971,4.22649,0,0.000885,0,0
0:0:22.497,34.7228,4.41954,0,0.000885,0,0
0:0:23.105,35.5413,4.52296,0,0.000885,0,0
0:0:23.713,37.7698,4.81254,0,0.000885,0,0
0:0:24.317,38.1213,4.85391,0,0.000885,0,0
0:0:24.914,39.4735,5.02628,0,0.000885,0,0
0:0:25.511,41.4085,5.27449,0,0.000885,0,0
0:0:26.104,42.6407,5.42617,0,0.000885,0,0
0:0:26.698,43.6949,5.56407,0,0.000885,0,0
0:0:27.298,45.0427,5.73644,0,0.000885,0,0
0:0:27.896,45.9813,5.85365,0,0.000885,0,0
0:0:28.507,47.2134,6.01223,0,0.000885,0,0
0:0:29.112,48.797,6.21218,0,0.000885,0,0
0:0:29.712,48.7392,6.20528,0,0.000885,0,0
0:0:30.308,50.2026,6.39144,0,0.000885,0,0
0:0:30.906,51.0834,6.50176,0,0.000885,0,0
0:0:31.503,52.0798,6.63276,0,0.000885,0,0
0:0:32.102,53.6055,6.82581,0,0.000885,0,0
0:0:32.707,55.0156,7.00507,0,0.000885,0,0
0:0:33.308,55.8919,7.11539,0,0.000885,0,0
0:0:33.917,56.7148,7.21881,0,0.000885,0,0
0:0:34.522,57.8313,7.3636,0,0.000885,0,0
0:0:35.121,59.0012,7.51529,0,0.000885,0,0
0:0:35.718,60.9985,7.7635,0,0.000885,0,0
0:0:36.313,62.4041,7.94276,0,0.000885,0,0
0:0:36.909,63.4005,8.07376,0,0.000885,0,0
0:0:37.506,64.7483,8.24613,0,0.000885,0,0
0:0:38.113,66.3942,8.45297,0,0.000885,0,0
0:0:38.718,67.2126,8.55639,0,0.000885,0,0
0:0:39.322,67.8576,8.63913,0,0.000885,0,0
0:0:39.918,68.9741,8.78392,0,0.000885,0,0
0:0:40.511,69.8549,8.89424,0,0.000885,0,0
0:0:41.109,70.7312,9.00455,0,0.000885,0,0
0:0:41.708,71.9055,9.15624,0,0.000885,0,0
0:0:42.306,73.667,9.37687,0,0.000885,0,0
0:0:42.915,75.0148,9.54924,0,0.000885,0,0
0:0:43.524,76.0112,9.68024,0,0.000885,0,0
0:0:44.129,77.4168,9.8595,0,0.000885,0,0
0:0:44.727,78.1819,9.95603,0,0.000885,0,0
0:0:45.326,79.7655,10.156,0,0.000885,0,0
0:0:45.923,80.7619,10.2801,0,0.000885,0,0
0:0:46.522,81.7583,10.4111,0,0.000885,0,0
0:0:47.117,82.8748,10.549,0,0.000885,0,0
0:0:47.712,84.2226,10.7213,0,0.000885,0,0
0:0:48.316,86.2733,10.9833,0,0.000885,0,0
0:0:48.923,86.6869,11.0385,0,0.000885,0,0
0:0:49.527,88.5641,11.2729,0,0.000885,0,0
0:0:50.125,89.3247,11.3763,0,0.000885,0,0
0:0:50.720,89.9119,11.4453,0,0.000885,0,0
0:0:51.313,90.8505,11.5694,0,0.000885,0,0
0:0:51.911,92.1983,11.7418,0,0.000885,0,0
0:0:52.509,93.3726,11.8866,0,0.000885,0,0
0:0:53.116,95.1297,12.1141,0,0.000885,0,0
0:0:53.722,96.2462,12.252,0,0.000885,0,0
0:0:54.323,97.6518,12.4312,0,0.000885,0,0
0:0:54.917,98.4747,12.5416,0,0.000885,0,0
0:0:55.512,99.8225,12.707,0,0.000885,0,0
0:0:56.112,101.348,12.907,0,0.000885,0,0
0:0:56.709,101.993,12.9828,0,0.000885,0,0
0:0:57.317,103.168,13.1345,0,0.000885,0,0
0:0:57.915,104.28,13.2793,0,0.000885,0,0
0:0:58.523,105.454,13.4241,0,0.000885,0,0
0:0:59.126,106.566,13.5689,0,0.000885,0,0
0:0:59.726,107.331,13.6654,0,0.000885,0,0
0:1:0.324,108.621,13.8309,0,0.000885,0,0
0:1:0.921,110.205,14.0308,0,0.000885,0,0
0:1:1.517,111.201,14.1618,0,0.000885,0,0
0:1:2.113,112.669,14.348,0,0.000885,0,0
0:1:2.709,114.19,14.541,0,0.000885,0,0
0:1:3.316,115.191,14.6651,0,0.000885,0,0
0:1:3.921,116.245,14.803,0,0.000885,0,0
0:1:4.525,117.651,14.9823,0,0.000885,0,0
0:1:5.120,118.18,15.0444,0,0.000885,0,0
0:1:5.716,119.822,15.2581,0,0.000885,0,0
0:1:6.310,120.88,15.3891,0,0.000885,0,0
0:1:6.909,121.935,15.527,0,0.000885,0,0
0:1:7.508,123.167,15.6787,0,0.000885,0,0
0:1:8.106,124.572,15.8579,0,0.000885,0,0
0:1:8.714,125.217,15.9407,0,0.000885,0,0
0:1:9.319,126.801,16.1475,0,0.000885,0,0
0:1:9.917,128.033,16.2992,0,0.000885,0,0
0:1:10.514,128.798,16.3957,0,0.000885,0,0
0:1:11.113,129.737,16.5198,0,0.000885,0,0
0:1:11.711,131.436,16.7336,0,0.000885,0,0
0:1:12.317,132.49,16.8715,0,0.000885,0,0
0:1:12.916,133.958,17.0576,0,0.000885,0,0
0:1:13.525,134.897,17.1748,0,0.000885,0,0
0:1:14.129,136.302,17.3541,0,0.000885,0,0
0:1:14.729,137.241,17.4713,0,0.000885,0,0
0:1:15.325,138.3,17.6092,0,0.000885,0,0
0:1:15.920,139.527,17.7678,0,0.000885,0,0
0:1:16.516,140.408,17.8781,0,0.000885,0,0
0:1:17.114,142.112,18.0918,0,0.000885,0,0
0:1:17.712,143.05,18.2159,0,0.000885,0,0
0:1:18.321,144.634,18.4159,0,0.000885,0,0
0:1:18.926,145.452,18.5193,0,0.000885,0,0
0:1:19.526,146.097,18.6021,0,0.000885,0,0
0:1:20.123,147.801,18.8158,0,0.000885,0,0
0:1:20.722,148.74,18.9399,0,0.000885,0,0
0:1:21.321,149.91,19.0847,0,0.000885,0,0
0:1:21.918,151.671,19.3122,0,0.000885,0,0
0:1:22.514,152.845,19.4639,0,0.000885,0,0
0:1:23.120,154.251,19.6432,0,0.000885,0,0
0:1:23.726,154.838,19.7121,0,0.000885,0,0
0:1:24.329,156.128,19.8776,0,0.000885,0,0
0:1:24.927,156.595,19.9396,0,0.000885,0,0
0:1:25.523,158.472,20.1741,0,0.000885,0,0
0:1:26.119,159.411,20.2982,0,0.000885,0,0
0:1:26.717,161.115,20.5119,0,0.000885,0,0
0:1:27.315,162.227,20.6567,0,0.000885,0,0
0:1:27.912,163.05,20.7601,0,0.000885,0,0
0:1:28.519,164.633,20.9601,0,0.000885,0,0
0:1:29.125,165.452,21.0635,0,0.000885,0,0
0:1:29.724,167.035,21.2703,0,0.000885,0,0
0:1:30.323,167.507,21.3255,0,0.000885,0,0
0:1:30.921,169.384,21.5668,0,0.000885,0,0
0:1:31.518,170.438,21.6978,0,0.000885,0,0
0:1:32.113,170.732,21.7392,0,0.000885,0,0
0:1:32.718,172.315,21.9391,0,0.000885,0,0
0:1:33.324,173.783,22.1253,0,0.000885,0,0
0:1:33.931,175.189,22.3045,0,0.000885,0,0
0:1:34.536,176.363,22.4562,0,0.000885,0,0
0:1:35.132,177.889,22.6493,0,0.000885,0,0
0:1:35.727,178.414,22.7182,0,0.000885,0,0
0:1:36.323,179.882,22.9044,0,0.000885,0,0
0:1:36.921,180.584,22.994,0,0.000885,0,0
0:1:37.517,182.226,23.2009,0,0.000885,0,0
0:1:38.116,183.222,23.3319,0,0.000885,0,0
0:1:38.724,184.103,23.4422,0,0.000885,0,0
0:1:39.330,185.629,23.6352,0,0.000885,0,0
0:1:39.930,186.452,23.7386,0,0.000885,0,0
0:1:40.528,187.915,23.9248,0,0.000885,0,0
0:1:41.127,188.974,24.0627,0,0.000885,0,0
0:1:41.722,190.557,24.2627,0,0.000885,0,0
0:1:42.319,191.14,24.3385,0,0.000885,0,0
0:1:42.923,192.43,24.504,0,0.000885,0,0
0:1:43.526,193.84,24.6832,0,0.000885,0,0
0:1:44.127,194.837,24.8073,0,0.000885,0,0
0:1:44.721,196.656,25.0418,0,0.000885,0,0
0:1:45.312,197.185,25.1038,0,0.000885,0,0
0:1:45.913,198.942,25.3313,0,0.000885,0,0
0:1:46.513,199.703,25.4279,0,0.000885,0,0
0:1:47.106,200.819,25.5658,0,0.000885,0,0
0:1:47.712,202.052,25.7243,0,0.000885,0,0
0:1:48.315,202.932,25.8347,0,0.000885,0,0
0:1:48.916,204.689,26.0622,0,0.000885,0,0
0:1:49.512,205.392,26.1518,0,0.000885,0,0
0:1:50.112,206.918,26.3449,0,0.000885,0,0
0:1:50.704,208.208,26.5103,0,0.000885,0,0
0:1:51.318,209.498,26.6758,0,0.000885,0,0
0:1:51.913,210.499,26.7999,0,0.000885,0,0
0:1:52.515,211.317,26.9033,0,0.000885,0,0
0:1:53.106,212.785,27.0895,0,0.000885,0,0
0:1:53.713,213.724,27.2136,0,0.000885,0,0
0:1:54.312,215.072,27.386,0,0.000885,0,0
0:1:54.906,216.184,27.5239,0,0.000885,0,0
0:1:55.511,217.184,27.6549,0,0.000885,0,0
0:1:56.102,218.474,27.8135,0,0.000885,0,0
0:1:56.713,219.529,27.9513,0,0.000885,0,0
0:1:57.314,221.17,28.1582,0,0.000885,0,0
0:1:57.917,221.993,28.2616,0,0.000885,0,0
0:1:58.521,223.634,28.4753,0,0.000885,0,0
0:1:59.123,224.573,28.5926,0,0.000885,0,0
0:1:59.722,225.747,28.7442,0,0.000885,0,0
0:2:0.313,227.095,28.9166,0,0.000885,0,0
0:2:0.914,227.446,28.958,0,0.000885,0,0
0:2:1.504,228.972,29.151,0,0.000885,0,0
0:2:2.108,230.671,29.3717,0,0.000885,0,0
0:2:2.701,231.552,29.482,0,0.000885,0,0
0:2:3.304,232.139,29.5578,0,0.000885,0,0
0:2:3.905,233.896,29.7785,0,0.000885,0,0
0:2:4.511,235.186,29.9439,0,0.000885,0,0
0:2:5.115,236.303,30.0887,0,0.000885,0,0
0:2:5.706,237.299,30.2128,0,0.000885,0,0
0:2:6.301,239.061,30.4404,0,0.000885,0,0
0:2:6.903,240.173,30.5782,0,0.000885,0,0
0:2:7.517,240.876,30.6679,0,0.000885,0,0
0:2:8.114,242.17,30.8334,0,0.000885,0,0
0:2:8.717,243.166,30.9575,0,0.000885,0,0
0:2:9.317,243.754,31.0333,0,0.000885,0,0
0:2:9.920,245.804,31.2953,0,0.000885,0,0
0:2:10.515,246.921,31.4401,0,0.000885,0,0
0:2:11.116,248.211,31.6056,0,0.000885,0,0
0:2:11.715,248.793,31.6745,0,0.000885,0,0
0:2:12.304,250.671,31.9158,0,0.000885,0,0
0:2:12.899,251.436,32.0124,0,0.000885,0,0
0:2:13.503,252.961,32.2054,0,0.000885,0,0
0:2:14.103,254.131,32.3571,0,0.000885,0,0
0:2:14.702,255.364,32.5157,0,0.000885,0,0
0:2:15.302,256.538,32.6605,0,0.000885,0,0
0:2:15.904,256.831,32.7018,0,0.000885,0,0
0:2:16.508,258.064,32.8604,0,0.000885,0,0
0:2:17.102,259.411,33.0259,0,0.000885,0,0
0:2:17.704,260.879,33.2189,0,0.000885,0,0
0:2:18.307,262.463,33.4189,0,0.000885,0,0
0:2:18.908,263.108,33.5016,0,0.000885,0,0
0:2:19.513,264.162,33.6326,0,0.000885,0,0
0:2:20.117,264.629,33.6947,0,0.000885,0,0
0:2:20.709,266.742,33.9636,0,0.000885,0,0
0:2:21.313,267.974,34.1222,0,0.000885,0,0
0:2:21.911,269.206,34.2738,0,0.000885,0,0
0:2:22.502,270.554,34.4462,0,0.000885,0,0
0:2:23.103,271.199,34.5289,0,0.000885,0,0
0:2:23.705,272.725,34.722,0,0.000885,0,0
0:2:24.305,273.606,34.8392,0,0.000885,0,0
0:2:24.900,275.189,35.0392,0,0.000885,0,0
0:2:25.522,276.831,35.246,0,0.000885,0,0
0:2:26.110,277.769,35.3632,0,0.000885,0,0
0:2:26.714,278.121,35.4115,0,0.000885,0,0
0:2:27.317,279.589,35.5976,0,0.000885,0,0
0:2:27.920,280.527,35.7148,0,0.000885,0,0
0:2:28.525,282.342,35.9493,0,0.000885,0,0
0:2:29.124,283.165,36.0527,0,0.000885,0,0
0:2:29.718,284.748,36.2526,0,0.000885,0,0
0:2:30.307,285.981,36.4112,0,0.000885,0,0
0:2:30.912,286.448,36.4733,0,0.000885,0,0
0:2:31.515,288.267,36.7008,0,0.000885,0,0
0:2:32.119,289.499,36.8594,0,0.000885,0,0
0:2:32.708,290.028,36.9283,0,0.000885,0,0
0:2:33.305,291.612,37.1283,0,0.000885,0,0
0:2:33.909,292.373,37.2248,0,0.000885,0,0
0:2:34.508,294.134,37.4523,0,0.000885,0,0
0:2:35.123,295.073,37.5695,0,0.000885,0,0
0:2:35.716,296.714,37.7764,0,0.000885,0,0
0:2:36.317,297.59,37.8936,0,0.000885,0,0
0:2:36.908,299.001,38.0728,0,0.000885,0,0
0:2:37.519,299.881,38.1832,0,0.000885,0,0
0:2:38.123,300.584,38.2728,0,0.000885,0,0
0:2:38.725,301.581,38.3969,0,0.000885,0,0
0:2:39.325,302.577,38.5279,0,0.000885,0,0
0:2:39.916,304.926,38.8244,0,0.000885,0,0
0:2:40.517,305.571,38.9071,0,0.000885,0,0
0:2:41.107,306.803,39.0657,0,0.000885,0,0
0:2:41.709,308.444,39.2725,0,0.000885,0,0
0:2:42.313,309.147,39.3622,0,0.000885,0,0
0:2:42.916,310.437,39.5276,0,0.000885,0,0
0:2:43.520,311.963,39.7207,0,0.000885,0,0
0:2:44.120,313.31,39.8931,0,0.000885,0,0
0:2:44.712,313.604,39.9275,0,0.000885,0,0
0:2:45.306,314.658,40.0654,0,0.000885,0,0
0:2:45.900,316.593,40.3068,0,0.000885,0,0
0:2:46.511,317.768,40.4584,0,0.000885,0,0
0:2:47.103,318.355,40.5343,0,0.000885,0,0
0:2:47.705,319.645,40.6998,0,0.000885,0,0
0:2:48.306,321.113,40.8859,0,0.000885,0,0
0:2:48.908,321.993,40.9962,0,0.000885,0,0
0:2:49.508,322.99,41.1272,0,0.000885,0,0
0:2:50.112,324.453,41.3134,0,0.000885,0,0
0:2:50.713,326.33,41.5478,0,0.000885,0,0
0:2:51.311,327.211,41.665,0,0.000885,0,0
0:2:51.914,328.092,41.7753,0,0.000885,0,0
0:2:52.518,328.91,41.8788,0,0.000885,0,0
0:2:53.121,330.2,42.0442,0,0.000885,0,0
0:2:53.725,331.49,42.2097,0,0.000885,0,0
0:2:54.323,332.255,42.3062,0,0.000885,0,0
0:2:54.912,334.426,42.582,0,0.000885,0,0
0:2:55.525,335.187,42.6785,0,0.000885,0,0
0:2:56.120,336.125,42.7958,0,0.000885,0,0
0:2:56.724,337.415,42.9612,0,0.000885,0,0
0:2:57.317,338.999,43.1612,0,0.000885,0,0
0:2:57.920,340.173,43.3129,0,0.000885,0,0
0:2:58.524,341.054,43.4232,0,0.000885,0,0
0:2:59.125,342.695,43.63,0,0.000885,0,0
0:2:59.719,343.576,43.7472,0,0.000885,0,0
0:3:0.322,344.452,43.8576,0,0.000885,0,0
0:3:0.912,345.333,43.9679,0,0.000885,0,0
0:3:1.513,346.917,44.1678,0,0.000885,0,0
0:3:2.113,348.327,44.3471,0,0.000885,0,0
0:3:2.707,349.323,44.4781,0,0.000885,0,0
0:3:3.309,350.729,44.6573,0,0.000885,0,0
0:3:3.912,351.903,44.809,0,0.000885,0,0
0:3:4.511,352.842,44.9262,0,0.000885,0,0
0:3:5.112,353.429,45.0021,0,0.000885,0,0
0:3:5.712,354.892,45.1882,0,0.000885,0,0
0:3:6.312,356.36,45.3744,0,0.000885,0,0
0:3:6.926,357.766,45.5537,0,0.000885,0,0
0:3:7.520,358.94,45.6985,0,0.000885,0,0
0:3:8.112,359.643,45.7881,0,0.000885,0,0
0:3:8.715,361.405,46.0156,0,0.000885,0,0
0:3:9.315,362.459,46.1466,0,0.000885,0,0
0:3:9.921,363.869,46.3259,0,0.000885,0,0
0:3:10.523,364.456,46.4017,0,0.000885,0,0
0:3:11.126,365.453,46.5327,0,0.000885,0,0
0:3:11.719,366.858,46.712,0,0.000885,0,0
0:3:12.321,367.388,46.774,0,0.000885,0,0
0:3:12.927,369.38,47.0291,0,0.000885,0,0
0:3:13.529,370.319,47.1532,0,0.000885,0,0
0:3:14.131,371.667,47.3256,0,0.000885,0,0
0:3:14.724,373.428,47.5462,0,0.000885,0,0
0:3:15.319,374.131,47.6359,0,0.000885,0,0
0:3:15.919,375.127,47.76,0,0.000885,0,0
0:3:16.520,376.538,47.9392,0,0.000885,0,0
0:3:17.120,378.001,48.1254,0,0.000885,0,0
0:3:17.723,378.588,48.2012,0,0.000885,0,0
0:3:18.326,379.936,48.3736,0,0.000885,0,0
0:3:18.926,381.11,48.5253,0,0.000885,0,0
0:3:19.525,382.458,48.6977,0,0.000885,0,0
0:3:20.124,383.281,48.8011,0,0.000885,0,0
0:3:20.728,384.513,48.9597,0,0.000885,0,0
0:3:21.321,385.688,49.1045,0,0.000885,0,0
0:3:21.924,387.151,49.2906,0,0.000885,0,0
0:3:22.526,388.441,49.4561,0,0.000885,0,0
0:3:23.120,388.97,49.525,0,0.000885,0,0
0:3:23.725,390.438,49.7112,0,0.000885,0,0
0:3:24.325,392.022,49.9111,0,0.000885,0,0
0:3:24.928,392.96,50.0353,0,0.000885,0,0
0:3:25.522,394.13,50.18,0,0.000885,0,0
0:3:26.126,394.953,50.2835,0,0.000885,0,0
0:3:26.717,396.065,50.4283,0,0.000885,0,0
0:3:27.317,397.827,50.6558,0,0.000885,0,0
0:3:27.929,398.823,50.7799,0,0.000885,0,0
0:3:28.529,400.113,50.9454,0,0.000885,0,0
0:3:29.130,400.994,51.0557,0,0.000885,0,0
0:3:29.723,402.284,51.2212,0,0.000885,0,0
0:3:30.312,402.693,51.2694,0,0.000885,0,0
0:3:30.913,404.69,51.5245,0,0.000885,0,0
0:3:31.526,406.39,51.7452,0,0.000885,0,0
0:3:32.117,407.737,51.9175,0,0.000885,0,0
0:3:32.711,408.209,51.9727,0,0.000885,0,0
0:3:33.315,409.147,52.0968,0,0.000885,0,0
0:3:33.915,410.731,52.2967,0,0.000885,0,0
0:3:34.521,411.376,52.3795,0,0.000885,0,0
0:3:35.121,413.191,52.607,0,0.000885,0,0
0:3:35.712,413.898,52.6966,0,0.000885,0,0
0:3:36.316,415.597,52.9173,0,0.000885,0,0
0:3:36.911,416.772,53.0621,0,0.000885,0,0
0:3:37.512,417.59,53.1724,0,0.000885,0,0
0:3:38.115,418.649,53.3034,0,0.000885,0,0
0:3:38.722,419.819,53.4551,0,0.000885,0,0
0:3:39.322,421.051,53.6067,0,0.000885,0,0
0:3:39.915,422.283,53.7653,0,0.000885,0,0
0:3:40.528,423.867,53.9653,0,0.000885,0,0
0:3:41.121,424.396,54.0342,0,0.000885,0,0
0:3:41.722,425.566,54.1859,0,0.000885,0,0
0:3:42.322,427.034,54.3721,0,0.000885,0,0
0:3:42.914,427.972,54.4893,0,0.000885,0,0
0:3:43.517,429.614,54.703,0,0.000885,0,0
0:3:44.119,430.494,54.8133,0,0.000885,0,0
0:3:44.718,431.784,54.9788,0,0.000885,0,0
0:3:45.330,433.368,55.1787,0,0.000885,0,0
0:3:45.929,434.249,55.2891,0,0.000885,0,0
0:3:46.522,435.129,55.3994,0,0.000885,0,0
0:3:47.127,436.184,55.5373,0,0.000885,0,0
0:3:47.717,437.825,55.7441,0,0.000885,0,0
0:3:48.324,438.764,55.8682,0,0.000885,0,0
0:3:48.925,440.232,56.0544,0,0.000885,0,0
0:3:49.529,440.583,56.0957,0,0.000885,0,0
0:3:50.123,442.46,56.3371,0,0.000885,0,0
0:3:50.714,443.514,56.4681,0,0.000885,0,0
0:3:51.309,444.924,56.6473,0,0.000885,0,0
0:3:51.910,445.979,56.7852,0,0.000885,0,0
0:3:52.510,447.269,56.9507,0,0.000885,0,0
0:3:53.111,448.323,57.0817,0,0.000885,0,0
0:3:53.712,449.261,57.1989,0,0.000885,0,0
0:3:54.313,450.32,57.3368,0,0.000885,0,0
0:3:54.907,451.139,57.4402,0,0.000885,0,0
0:3:55.509,452.842,57.6609,0,0.000885,0,0
0:3:56.117,454.012,57.8056,0,0.000885,0,0
0:3:56.709,455.716,58.0263,0,0.000885,0,0
0:3:57.311,456.067,58.0676,0,0.000885,0,0
0:3:57.907,457.824,58.2952,0,0.000885,0,0
0:3:58.512,458.532,58.3848,0,0.000885,0,0
0:3:59.112,459.879,58.5503,0,0.000885,0,0
0:3:59.708,461.343,58.7433,0,0.000885,0,0
0:4:0.310,462.05,58.833,0,0.000885,0,0
0:4:0.906,463.692,59.0398,0,0.000885,0,0
0:4:1.516,464.572,59.1501,0,0.000885,0,0
0:4:2.119,465.978,59.3294,0,0.000885,0,0
0:4:2.720,467.446,59.5155,0,0.000885,0,0
0:4:3.324,468.384,59.6397,0,0.000885,0,0
0:4:3.926,470.026,59.8465,0,0.000885,0,0
0:4:4.525,470.493,59.9085,0,0.000885,0,0
0:4:5.115,471.961,60.0947,0,0.000885,0,0
0:4:5.716,472.37,60.143,0,0.000885,0,0
0:4:6.316,474.719,60.4394,0,0.000885,0,0
0:4:6.908,475.07,60.4877,0,0.000885,0,0
0:4:7.515,476.769,60.7014,0,0.000885,0,0
0:4:8.116,477.886,60.8462,0,0.000885,0,0
0:4:8.720,478.646,60.9428,0,0.000885,0,0
0:4:9.318,479.821,61.0944,0,0.000885,0,0
0:4:9.925,480.524,61.1841,0,0.000885,0,0
0:4:10.519,482.459,61.4254,0,0.000885,0,0
0:4:11.121,483.806,61.5978,0,0.000885,0,0
0:4:11.716,484.923,61.7426,0,0.000885,0,0
0:4:12.317,486.271,61.9149,0,0.000885,0,0
0:4:12.917,487.267,62.039,0,0.000885,0,0
0:4:13.520,488.384,62.1838,0,0.000885,0,0
0:4:14.120,489.909,62.3769,0,0.000885,0,0
0:4:14.727,490.786,62.4872,0,0.000885,0,0
0:4:15.314,491.786,62.6182,0,0.000885,0,0
0:4:15.926,493.076,62.7837,0,0.000885,0,0
0:4:16.515,494.015,62.9009,0,0.000885,0,0
0:4:17.109,494.954,63.0181,0,0.000885,0,0
0:4:17.712,496.475,63.2111,0,0.000885,0,0
0:4:18.317,498.001,63.4042,0,0.000885,0,0
0:4:18.918,498.766,63.5076,0,0.000885,0,0
0:4:19.513,500.171,63.6869,0,0.000885,0,0
0:4:20.116,501.813,63.8937,0,0.000885,0,0
0:4:20.730,502.222,63.942,0,0.000885,0,0
0:4:21.322,503.339,64.0868,0,0.000885,0,0
0:4:21.927,504.686,64.2591,0,0.000885,0,0
0:4:22.515,505.567,64.3695,0,0.000885,0,0
0:4:23.122,507.622,64.6315,0,0.000885,0,0
0:4:23.727,508.267,64.7142,0,0.000885,0,0
0:4:24.326,509.557,64.8797,0,0.000885,0,0
0:4:24.918,510.669,65.0176,0,0.000885,0,0
0:4:25.511,511.844,65.1692,0,0.000885,0,0
0:4:26.131,512.898,65.3071,0,0.000885,0,0
0:4:26.732,514.072,65.4519,0,0.000885,0,0
0:4:27.327,515.126,65.5898,0,0.000885,0,0
0:4:27.929,516.243,65.7277,0,0.000885,0,0
0:4:28.534,517.942,65.9484,0,0.000885,0,0
0:4:29.134,519.352,66.1276,0,0.000885,0,0
0:4:29.733,520.228,66.2379,0,0.000885,0,0
0:4:30.333,521.638,66.4172,0,0.000885,0,0
0:4:30.923,521.932,66.4517,0,0.000885,0,0
0:4:31.527,523.631,66.6723,0,0.000885,0,0
0:4:32.120,525.037,66.8516,0,0.000885,0,0
0:4:32.723,525.744,66.9412,0,0.000885,0,0
0:4:33.324,526.976,67.0998,0,0.000885,0,0
0:4:33.925,528.56,67.2997,0,0.000885,0,0
0:4:34.518,529.614,67.4307,0,0.000885,0,0
0:4:35.112,530.611,67.5617,0,0.000885,0,0
0:4:35.727,531.843,67.7134,0,0.000885,0,0
0:4:36.329,532.897,67.8513,0,0.000885,0,0
0:4:36.930,534.658,68.0719,0,0.000885,0,0
0:4:37.529,535.597,68.196,0,0.000885,0,0
0:4:38.128,537.003,68.3753,0,0.000885,0,0
0:4:38.731,537.826,68.4787,0,0.000885,0,0
0:4:39.331,538.764,68.5959,0,0.000885,0,0
0:4:39.933,540.054,68.7614,0,0.000885,0,0
0:4:40.533,541.166,68.9062,0,0.000885,0,0
0:4:41.134,542.986,69.1337,0,0.000885,0,0
0:4:41.722,544.102,69.2785,0,0.000885,0,0
0:4:42.329,544.511,69.3268,0,0.000885,0,0
0:4:42.933,545.917,69.506,0,0.000885,0,0
0:4:43.536,547.149,69.6646,0,0.000885,0,0
0:4:44.138,548.733,69.8646,0,0.000885,0,0
0:4:44.731,549.204,69.9266,0,0.000885,0,0
0:4:45.320,550.258,70.0645,0,0.000885,0,0
0:4:45.923,551.784,70.2576,0,0.000885,0,0
0:4:46.539,553.132,70.4299,0,0.000885,0,0
0:4:47.132,554.248,70.5678,0,0.000885,0,0
0:4:47.721,556.063,70.8023,0,0.000885,0,0
0:4:48.330,557.18,70.9402,0,0.000885,0,0
0:4:48.934,557.647,71.0022,0,0.000885,0,0
0:4:49.534,558.879,71.1608,0,0.000885,0,0
0:4:50.136,560.347,71.3469,0,0.000885,0,0
0:4:50.730,560.992,71.4297,0,0.000885,0,0
0:4:51.329,562.34,71.6021,0,0.000885,0,0
0:4:51.931,563.163,71.7055,0,0.000885,0,0
0:4:52.519,564.862,71.9192,0,0.000885,0,0
0:4:53.123,565.921,72.0571,0,0.000885,0,0
0:4:53.724,567.033,72.195,0,0.000885,0,0
0:4:54.323,568.794,72.4225,0,0.000885,0,0
0:4:54.924,569.439,72.5053,0,0.000885,0,0
0:4:55.533,570.2,72.6018,0,0.000885,0,0
0:4:56.124,571.668,72.788,0,0.000885,0,0
0:4:56.726,572.9,72.9465,0,0.000885,0,0
0:4:57.322,574.363,73.1327,0,0.000885,0,0
0:4:57.924,576.005,73.3395,0,0.000885,0,0
0:4:58.532,577.295,73.505,0,0.000885,0,0
0:4:59.132,577.651,73.5464,0,0.000885,0,0
0:4:59.723,578.469,73.6498,0,0.000885,0,0
0:5:0.326,579.879,73.8291,0,0.000885,0,0
0:5:0.920,580.818,73.9532,0,0.000885,0,0
0:5:1.524,582.517,74.1669,0,0.000885,0,0
0:5:2.123,583.865,74.3393,0,0.000885,0,0
0:5:2.725,585.275,74.5185,0,0.000885,0,0
0:5:3.325,586.271,74.6495,0,0.000885,0,0
0:5:3.928,587.268,74.7736,0,0.000885,0,0
0:5:4.533,588.206,74.8909,0,0.000885,0,0
0:5:5.130,589.145,75.015,0,0.000885,0,0
0:5:5.734,591.084,75.2563,0,0.000885,0,0
0:5:6.325,592.138,75.3942,0,0.000885,0,0
0:5:6.920,593.491,75.5665,0,0.000885,0,0
0:5:7.516,594.487,75.6906,0,0.000885,0,0
0:5:8.124,595.897,75.8699,0,0.000885,0,0
0:5:8.726,596.542,75.9526,0,0.000885,0,0
0:5:9.337,597.952,76.1319,0,0.000885,0,0
0:5:9.932,599.064,76.2767,0,0.000885,0,0
0:5:10.524,600.417,76.4491,0,0.000885,0,0
0:5:11.121,601.764,76.6214,0,0.000885,0,0
0:5:11.717,602.703,76.7386,0,0.000885,0,0
0:5:12.334,604.113,76.9179,0,0.000885,0,0
0:5:12.927,604.7,76.9938,0,0.000885,0,0
0:5:13.535,605.99,77.1592,0,0.000885,0,0
0:5:14.138,607.636,77.3661,0,0.000885,0,0
0:5:14.735,608.575,77.4833,0,0.000885,0,0
0:5:15.333,609.807,77.6419,0,0.000885,0,0
0:5:15.925,610.452,77.7246,0,0.000885,0,0
0:5:16.521,612.213,77.9521,0,0.000885,0,0
0:5:17.116,612.858,78.0349,0,0.000885,0,0
0:5:17.709,613.801,78.1521,0,0.000885,0,0
0:5:18.313,615.5,78.3658,0,0.000885,0,0
0:5:18.919,617.204,78.5864,0,0.000885,0,0
0:5:19.523,618.027,78.6899,0,0.000885,0,0
0:5:20.127,619.789,78.9105,0,0.000885,0,0
0:5:20.722,619.495,78.876,0,0.000885,0,0
0:5:21.325,621.194,79.0898,0,0.000885,0,0
0:5:21.922,622.604,79.269,0,0.000885,0,0
0:5:22.527,624.014,79.4552,0,0.000885,0,0
0:5:23.124,624.953,79.5724,0,0.000885,0,0
0:5:23.733,626.363,79.7517,0,0.000885,0,0
0:5:24.336,627.066,79.8413,0,0.000885,0,0
0:5:24.941,628.534,80.0274,0,0.000885,0,0
0:5:25.537,629.882,80.1998,0,0.000885,0,0
0:5:26.135,631.234,80.3722,0,0.000885,0,0
0:5:26.729,632.23,80.4963,0,0.000885,0,0
0:5:27.323,633.227,80.6273,0,0.000885,0,0
0:5:27.921,634.285,80.7583,0,0.000885,0,0
0:5:28.528,634.93,80.841,0,0.000885,0,0
0:5:29.134,636.456,81.0341,0,0.000885,0,0
0:5:29.728,637.75,81.1996,0,0.000885,0,0
0:5:30.326,639.098,81.3719,0,0.000885,0,0
0:5:30.930,640.33,81.5305,0,0.000885,0,0
0:5:31.523,641.211,81.6408,0,0.000885,0,0
0:5:32.118,642.501,81.8063,0,0.000885,0,0
0:5:32.713,644.263,82.0269,0,0.000885,0,0
0:5:33.317,645.143,82.1441,0,0.000885,0,0
0:5:33.922,645.788,82.2269,0,0.000885,0,0
0:5:34.525,647.256,82.413,0,0.000885,0,0
0:5:35.117,648.724,82.5992,0,0.000885,0,0
0:5:35.711,649.547,82.7026,0,0.000885,0,0
0:5:36.307,650.664,82.8474,0,0.000885,0,0
0:5:36.903,651.776,82.9853,0,0.000885,0,0
0:5:37.499,652.95,83.137,0,0.000885,0,0
0:5:38.094,654.067,83.2818,0,0.000885,0,0
0:5:38.702,655.241,83.4266,0,0.000885,0,0
0:5:39.305,657.002,83.6541,0,0.000885,0,0
0:5:39.903,657.647,83.7368,0,0.000885,0,0
0:5:40.497,659.351,83.9506,0,0.000885,0,0
0:5:41.095,660.583,84.1091,0,0.000885,0,0
0:5:41.690,661.05,84.1712,0,0.000885,0,0
0:5:42.283,662.518,84.3574,0,0.000885,0,0
0:5:42.883,663.75,84.509,0,0.000885,0,0
0:5:43.489,664.751,84.64,0,0.000885,0,0
0:5:44.093,666.335,84.84,0,0.000885,0,0
0:5:44.689,667.625,85.0055,0,0.000885,0,0
0:5:45.284,668.096,85.0675,0,0.000885,0,0
0:5:45.879,669.444,85.2399,0,0.000885,0,0
0:5:46.472,671.09,85.4467,0,0.000885,0,0
0:5:47.066,671.148,85.4536,0,0.000885,0,0
0:5:47.661,673.145,85.7087,0,0.000885,0,0
0:5:48.267,674.084,85.8259,0,0.000885,0,0
0:5:48.872,675.258,85.9776,0,0.000885,0,0
0:5:49.474,676.962,86.1914,0,0.000885,0,0
0:5:50.068,678.367,86.3706,0,0.000885,0,0
0:5:50.661,678.545,86.3982,0,0.000885,0,0
0:5:51.257,680.071,86.5913,0,0.000885,0,0
0:5:51.854,680.831,86.6878,0,0.000885,0,0
0:5:52.451,682.655,86.9153,0,0.000885,0,0
0:5:53.046,683.887,87.0739,0,0.000885,0,0
0:5:53.654,685.235,87.2463,0,0.000885,0,0
0:5:54.256,685.765,87.3152,0,0.000885,0,0
0:5:54.853,687.112,87.4876,0,0.000885,0,0
0:5:55.448,688.349,87.6462,0,0.000885,0,0
0:5:56.046,689.812,87.8323,0,0.000885,0,0
0:5:56.639,690.635,87.9357,0,0.000885,0,0
0:5:57.230,692.103,88.1219,0,0.000885,0,0
0:5:57.829,693.22,88.2667,0,0.000885,0,0
0:5:58.434,693.687,88.3218,0,0.000885,0,0
0:5:59.038,695.742,88.5838,0,0.000885,0,0
0:5:59.632,696.449,88.6735,0,0.000885,0,0
0:6:0.229,697.975,88.8665,0,0.000885,0,0
0:6:0.832,699.029,89.0044,0,0.000885,0,0
0:6:1.425,700.146,89.1423,0,0.000885,0,0
0:6:2.020,701.556,89.3216,0,0.000885,0,0
0:6:2.615,702.668,89.4664,0,0.000885,0,0
0:6:3.220,703.549,89.5767,0,0.000885,0,0
0:6:3.826,704.314,89.6732,0,0.000885,0,0
0:6:4.426,706.017,89.8938,0,0.000885,0,0
0:6:5.041,706.956,90.0111,0,0.000885,0,0
0:6:5.636,708.833,90.2524,0,0.000885,0,0
0:6:6.231,709.772,90.3696,0,0.000885,0,0
0:6:6.827,710.888,90.5144,0,0.000885,0,0
0:6:7.433,711.769,90.6247,0,0.000885,0,0
0:6:8.030,712.823,90.7626,0,0.000885,0,0
0:6:8.640,714.055,90.9143,0,0.000885,0,0
0:6:9.243,715.523,91.1004,0,0.000885,0,0
0:6:9.842,716.818,91.2659,0,0.000885,0,0
0:6:10.439,718.108,91.4314,0,0.000885,0,0
0:6:11.043,719.633,91.6244,0,0.000885,0,0
0:6:11.638,720.043,91.6796,0,0.000885,0,0
0:6:12.228,720.75,91.7692,0,0.000885,0,0
0:6:12.832,722.627,92.0105,0,0.000885,0,0
0:6:13.442,723.041,92.0588,0,0.000885,0,0
0:6:14.047,725.154,92.3277,0,0.000885,0,0
0:6:14.650,726.15,92.4587,0,0.000885,0,0
0:6:15.243,726.559,92.507,0,0.000885,0,0
0:6:15.838,728.378,92.7414,0,0.000885,0,0
0:6:16.430,729.731,92.9137,0,0.000885,0,0
0:6:17.040,731.021,93.0792,0,0.000885,0,0
0:6:17.634,731.608,93.1482,0,0.000885,0,0
0:6:18.244,733.254,93.3619,0,0.000885,0,0
0:6:18.847,734.486,93.5205,0,0.000885,0,0
0:6:19.445,735.304,93.6239,0,0.000885,0,0
0:6:20.042,736.541,93.7825,0,0.000885,0,0
0:6:20.635,737.947,93.9618,0,0.000885,0,0
0:6:21.232,739.357,94.141,0,0.000885,0,0
0:6:21.830,740.647,94.2996,0,0.000885,0,0
0:6:22.425,741.176,94.3685,0,0.000885,0,0
0:6:23.024,742.586,94.5478,0,0.000885,0,0
0:6:23.632,743.64,94.6857,0,0.000885,0,0
0:6:24.235,744.579,94.8029,0,0.000885,0,0
0:6:24.845,745.989,94.9822,0,0.000885,0,0
0:6:25.442,746.928,95.0994,0,0.000885,0,0
0:6:26.032,748.747,95.3338,0,0.000885,0,0
0:6:26.640,749.69,95.451,0,0.000885,0,0
0:6:27.245,751.216,95.651,0,0.000885,0,0
0:6:27.843,752.27,95.782,0,0.000885,0,0
0:6:28.450,753.56,95.9474,0,0.000885,0,0
0:6:29.054,754.089,96.0164,0,0.000885,0,0
0:6:29.653,755.148,96.1474,0,0.000885,0,0
0:6:30.248,756.847,96.368,0,0.000885,0,0
0:6:30.845,758.199,96.5335,0,0.000885,0,0
0:6:31.442,759.489,96.699,0,0.000885,0,0
0:6:32.035,760.37,96.8162,0,0.000885,0,0
0:6:32.630,761.135,96.9127,0,0.000885,0,0
0:6:33.242,762.189,97.0437,0,0.000885,0,0
0:6:33.848,763.306,97.1885,0,0.000885,0,0
0:6:34.453,765.125,97.416,0,0.000885,0,0
0:6:35.051,766.242,97.5608,0,0.000885,0,0
0:6:35.644,767.474,97.7194,0,0.000885,0,0
0:6:36.237,769.115,97.9262,0,0.000885,0,0
0:6:36.832,769.471,97.9745,0,0.000885,0,0
0:6:37.430,770.583,98.1124,0,0.000885,0,0
0:6:38.026,771.935,98.2848,0,0.000885,0,0
0:6:38.632,773.403,98.4709,0,0.000885,0,0
0:6:39.235,774.515,98.6157,0,0.000885,0,0
0:6:39.831,774.871,98.6571,0,0.000885,0,0
0:6:40.429,776.513,98.8708,0,0.000885,0,0
0:6:41.035,778.159,99.0777,0,0.000885,0,0
0:6:41.633,779.564,99.2569,0,0.000885,0,0
0:6:42.227,780.094,99.3259,0,0.000885,0,0
0:6:42.829,781.561,99.512,0,0.000885,0,0
0:6:43.436,782.914,99.6844,0,0.000885,0,0
0:6:44.041,783.968,99.8154,0,0.000885,0,0
0:6:44.638,784.906,99.9395,0,0.000885,0,0
0:6:45.232,786.023,100.077,0,0.000885,0,0
0:6:45.827,787.197,100.229,0,0.000885,0,0
0:6:46.422,788.665,100.415,0,0.000885,0,0
0:6:47.028,789.484,100.519,0,0.000885,0,0
0:6:47.635,790.836,100.691,0,0.000885,0,0
0:6:48.243,792.362,100.884,0,0.000885,0,0
0:6:48.846,792.833,100.946,0,0.000885,0,0
0:6:49.443,794.653,101.181,0,0.000885,0,0
0:6:50.038,795.765,101.318,0,0.000885,0,0
0:6:50.635,796.414,101.401,0,0.000885,0,0
0:6:51.232,798.233,101.636,0,0.000885,0,0
0:6:51.826,799.172,101.753,0,0.000885,0,0
0:6:52.420,800.168,101.884,0,0.000885,0,0
0:6:53.024,801.285,102.022,0,0.000885,0,0
0:6:53.629,802.633,102.194,0,0.000885,0,0
0:6:54.232,803.985,102.366,0,0.000885,0,0
0:6:54.850,805.453,102.553,0,0.000885,0,0
0:6:55.445,806.391,102.67,0,0.000885,0,0
0:6:56.039,807.739,102.842,0,0.000885,0,0
0:6:56.646,808.446,102.932,0,0.000885,0,0
0:6:57.243,809.327,103.049,0,0.000885,0,0
0:6:57.849,810.911,103.249,0,0.000885,0,0
0:6:58.456,811.792,103.359,0,0.000885,0,0
0:6:59.060,813.433,103.573,0,0.000885,0,0
0:6:59.660,814.785,103.739,0,0.000885,0,0
0:7:0.256,815.782,103.87,0,0.000885,0,0
0:7:0.853,817.014,104.028,0,0.000885,0,0
0:7:1.448,817.721,104.118,0,0.000885,0,0
0:7:2.045,819.362,104.325,0,0.000885,0,0
0:7:2.636,820.243,104.435,0,0.000885,0,0
0:7:3.234,821.124,104.552,0,0.000885,0,0
0:7:3.843,822.476,104.718,0,0.000885,0,0
0:7:4.448,823.588,104.862,0,0.000885,0,0
0:7:5.045,824.883,105.028,0,0.000885,0,0
0:7:5.640,825.995,105.166,0,0.000885,0,0
0:7:6.233,827.525,105.366,0,0.000885,0,0
0:7:6.837,828.521,105.49,0,0.000885,0,0
0:7:7.430,829.989,105.676,0,0.000885,0,0
0:7:8.037,831.337,105.848,0,0.000885,0,0
0:7:8.644,832.044,105.938,0,0.000885,0,0
0:7:9.248,833.334,106.103,0,0.000885,0,0
0:7:9.843,834.682,106.276,0,0.000885,0,0
0:7:10.435,835.741,106.407,0,0.000885,0,0
0:7:11.030,836.444,106.496,0,0.000885,0,0
0:7:11.625,837.676,106.655,0,0.000885,0,0
0:7:12.223,838.97,106.82,0,0.000885,0,0
0:7:12.819,840.318,106.993,0,0.000885,0,0
0:7:13.427,841.728,107.172,0,0.000885,0,0
0:7:14.030,842.845,107.317,0,0.000885,0,0
0:7:14.628,844.37,107.51,0,0.000885,0,0
0:7:15.245,845.425,107.641,0,0.000885,0,0
0:7:15.841,846.363,107.765,0,0.000885,0,0
0:7:16.437,847.364,107.889,0,0.000885,0,0
0:7:17.031,848.48,108.034,0,0.000885,0,0
0:7:17.626,850.006,108.227,0,0.000885,0,0
0:7:18.229,850.415,108.275,0,0.000885,0,0
0:7:18.836,851.941,108.475,0,0.000885,0,0
0:7:19.436,853.351,108.654,0,0.000885,0,0
0:7:20.036,854.877,108.848,0,0.000885,0,0
0:7:20.629,856.167,109.013,0,0.000885,0,0
0:7:21.232,857.341,109.158,0,0.000885,0,0
0:7:21.829,858.342,109.289,0,0.000885,0,0
0:7:22.435,859.045,109.378,0,0.000885,0,0
0:7:23.041,860.335,109.544,0,0.000885,0,0
0:7:23.648,861.042,109.634,0,0.000885,0,0
0:7:24.248,862.684,109.84,0,0.000885,0,0
0:7:24.841,863.622,109.958,0,0.000885,0,0
0:7:25.436,865.384,110.185,0,0.000885,0,0
0:7:26.033,866.674,110.351,0,0.000885,0,0
0:7:26.638,867.732,110.482,0,0.000885,0,0
0:7:27.235,868.965,110.64,0,0.000885,0,0
0:7:27.830,869.374,110.695,0,0.000885,0,0
0:7:28.436,870.842,110.881,0,0.000885,0,0
0:7:29.040,871.78,110.999,0,0.000885,0,0
0:7:29.649,873.426,111.206,0,0.000885,0,0
0:7:30.246,874.365,111.33,0,0.000885,0,0
0:7:30.840,875.481,111.468,0,0.000885,0,0
0:7:31.434,877.007,111.661,0,0.000885,0,0
0:7:32.028,878.003,111.792,0,0.000885,0,0
0:7:32.623,879.178,111.943,0,0.000885,0,0
0:7:33.229,879.943,112.04,0,0.000885,0,0
0:7:33.835,881.175,112.191,0,0.000885,0,0
0:7:34.436,882.643,112.385,0,0.000885,0,0
0:7:35.042,884.048,112.564,0,0.000885,0,0
0:7:35.649,885.107,112.695,0,0.000885,0,0
0:7:36.240,886.517,112.874,0,0.000885,0,0
0:7:36.840,887.807,113.04,0,0.000885,0,0
0:7:37.446,888.924,113.184,0,0.000885,0,0
0:7:38.052,889.862,113.302,0,0.000885,0,0
0:7:38.659,890.859,113.426,0,0.000885,0,0
0:7:39.264,892.269,113.605,0,0.000885,0,0
0:7:39.861,893.501,113.763,0,0.000885,0,0
0:7:40.457,894.791,113.929,0,0.000885,0,0
0:7:41.054,895.498,114.019,0,0.000885,0,0
0:7:41.650,896.673,114.17,0,0.000885,0,0
0:7:42.243,898.02,114.343,0,0.000885,0,0
0:7:42.841,899.195,114.487,0,0.000885,0,0
0:7:43.450,900.836,114.701,0,0.000885,0,0
0:7:44.054,901.308,114.756,0,0.000885,0,0
0:7:44.652,903.541,115.039,0,0.000885,0,0
0:7:45.248,903.541,115.039,0,0.000885,0,0
0:7:45.852,905.004,115.232,0,0.000885,0,0
0:7:46.448,906.766,115.453,0,0.000885,0,0
0:7:47.040,907.353,115.529,0,0.000885,0,0
0:7:47.645,908.763,115.708,0,0.000885,0,0
0:7:48.253,909.466,115.797,0,0.000885,0,0
0:7:48.859,911.347,116.039,0,0.000885,0,0
0:7:49.461,912.286,116.156,0,0.000885,0,0
0:7:50.053,913.282,116.28,0,0.000885,0,0
0:7:50.649,914.457,116.432,0,0.000885,0,0
0:7:51.255,915.746,116.597,0,0.000885,0,0
0:7:51.851,916.863,116.742,0,0.000885,0,0
0:7:52.455,917.979,116.88,0,0.000885,0,0
0:7:53.054,918.74,116.976,0,0.000885,0,0
0:7:53.662,920.622,117.218,0,0.000885,0,0
0:7:54.265,921.089,117.28,0,0.000885,0,0
0:7:54.863,922.85,117.5,0,0.000885,0,0
0:7:55.459,924.025,117.652,0,0.000885,0,0
0:7:56.055,925.608,117.852,0,0.000885,0,0
0:7:56.651,926.253,117.935,0,0.000885,0,0
0:7:57.242,928.25,118.19,0,0.000885,0,0
0:7:57.843,928.78,118.259,0,0.000885,0,0
0:7:58.451,929.896,118.397,0,0.000885,0,0
0:7:59.056,930.835,118.514,0,0.000885,0,0
0:7:59.653,932.183,118.686,0,0.000885,0,0
0:8:0.246,933.886,118.907,0,0.000885,0,0
0:8:0.840,934.647,119.004,0,0.000885,0,0
0:8:1.454,935.528,119.114,0,0.000885,0,0
0:8:2.051,937.289,119.341,0,0.000885,0,0
0:8:2.646,937.934,119.424,0,0.000885,0,0
0:8:3.255,939.109,119.569,0,0.000885,0,0
0:8:3.858,941.106,119.824,0,0.000885,0,0
0:8:4.458,941.284,119.845,0,0.000885,0,0
0:8:5.052,942.747,120.038,0,0.000885,0,0
0:8:5.657,944.451,120.251,0,0.000885,0,0
0:8:6.253,945.216,120.348,0,0.000885,0,0
0:8:6.853,946.39,120.5,0,0.000885,0,0
0:8:7.446,947.502,120.638,0,0.000885,0,0
0:8:8.045,949.028,120.838,0,0.000885,0,0
0:8:8.653,949.735,120.927,0,0.000885,0,0
0:8:9.257,951.145,121.106,0,0.000885,0,0
0:8:9.855,952.378,121.258,0,0.000885,0,0
0:8:10.451,953.432,121.396,0,0.000885,0,0
0:8:11.056,954.784,121.568,0,0.000885,0,0
0:8:11.650,956.016,121.727,0,0.000885,0,0
0:8:12.253,957.191,121.872,0,0.000885,0,0
0:8:12.850,957.893,121.961,0,0.000885,0,0
0:8:13.456,959.891,122.216,0,0.000885,0,0
0:8:14.061,960.358,122.279,0,0.000885,0,0
0:8:14.664,961.652,122.444,0,0.000885,0,0
0:8:15.260,963.058,122.623,0,0.000885,0,0
0:8:15.853,964.174,122.761,0,0.000885,0,0
0:8:16.447,965.233,122.899,0,0.000885,0,0
0:8:17.057,966.523,123.065,0,0.000885,0,0
0:8:17.654,967.639,123.202,0,0.000885,0,0
0:8:18.260,968.578,123.32,0,0.000885,0,0
0:8:18.865,970.397,123.554,0,0.000885,0,0
0:8:19.462,971.1,123.644,0,0.000885,0,0
0:8:20.058,972.274,123.795,0,0.000885,0,0
0:8:20.655,973.449,123.94,0,0.000885,0,0
0:8:21.248,974.507,124.078,0,0.000885,0,0
0:8:21.844,975.971,124.264,0,0.000885,0,0
0:8:22.439,976.736,124.361,0,0.000885,0,0
0:8:23.039,977.853,124.506,0,0.000885,0,0
0:8:23.646,979.552,124.719,0,0.000885,0,0
0:8:24.251,980.61,124.857,0,0.000885,0,0
0:8:24.851,982.194,125.057,0,0.000885,0,0
0:8:25.442,982.959,125.154,0,0.000885,0,0
0:8:26.044,983.604,125.236,0,0.000885,0,0
0:8:26.641,984.894,125.402,0,0.000885,0,0
0:8:27.236,986.068,125.554,0,0.000885,0,0
0:8:27.834,988.066,125.802,0,0.000885,0,0
0:8:28.439,988.768,125.891,0,0.000885,0,0
0:8:29.044,990.179,126.071,0,0.000885,0,0
0:8:29.642,991.589,126.25,0,0.000885,0,0
0:8:30.247,992.234,126.333,0,0.000885,0,0
0:8:30.842,993.639,126.512,0,0.000885,0,0
0:8:31.440,994.698,126.65,0,0.000885,0,0
0:8:32.047,995.872,126.801,0,0.000885,0,0
0:8:32.643,996.927,126.932,0,0.000885,0,0
0:8:33.249,998.163,127.091,0,0.000885,0,0
0:8:33.854,999.275,127.229,0,0.000885,0,0
0:8:34.461,1001.21,127.477,0,0.000885,0,0
0:8:35.057,1001.68,127.539,0,0.000885,0,0
0:8:35.654,1002.98,127.705,0,0.000885,0,0
0:8:36.257,1003.91,127.822,0,0.000885,0,0
0:8:36.849,1004.56,127.905,0,0.000885,0,0
0:8:37.442,1006.09,128.098,0,0.000885,0,0
0:8:38.047,1007.08,128.229,0,0.000885,0,0
0:8:38.655,1009.84,128.58,0,0.000885,0,0
0:8:39.257,1010.25,128.629,0,0.000885,0,0
0:8:39.850,1011.78,128.822,0,0.000885,0,0
0:8:40.454,1012.31,128.891,0,0.000885,0,0
0:8:41.047,1013.89,129.091,0,0.000885,0,0
0:8:41.643,1014.42,129.159,0,0.000885,0,0
0:8:42.261,1015.54,129.304,0,0.000885,0,0
0:8:42.858,1016.71,129.449,0,0.000885,0,0
0:8:43.467,1018.41,129.67,0,0.000885,0,0
0:8:44.069,1018.88,129.725,0,0.000885,0,0
0:8:44.665,1020.29,129.904,0,0.000885,0,0
0:8:45.261,1022.05,130.132,0,0.000885,0,0
0:8:45.859,1023.64,130.332,0,0.000885,0,0
0:8:46.455,1024.34,130.421,0,0.000885,0,0
0:8:47.048,1025.4,130.559,0,0.000885,0,0
0:8:47.640,1026.04,130.642,0,0.000885,0,0
0:8:48.242,1027.98,130.883,0,0.000885,0,0
0:8:48.847,1028.57,130.959,0,0.000885,0,0
0:8:49.454,1030.68,131.228,0,0.000885,0,0
0:8:50.047,1031.15,131.29,0,0.000885,0,0
0:8:50.643,1032.33,131.442,0,0.000885,0,0
0:8:51.246,1033.67,131.614,0,0.000885,0,0
0:8:51.840,1034.67,131.738,0,0.000885,0,0
0:8:52.436,1035.61,131.855,0,0.000885,0,0
0:8:53.041,1036.43,131.966,0,0.000885,0,0
0:8:53.647,1038.43,132.214,0,0.000885,0,0
0:8:54.249,1039.49,132.352,0,0.000885,0,0
0:8:54.852,1041.48,132.607,0,0.000885,0,0
0:8:55.458,1041.95,132.662,0,0.000885,0,0
0:8:56.051,1042.6,132.745,0,0.000885,0,0
0:8:56.647,1044.71,133.014,0,0.000885,0,0
0:8:57.242,1044.83,133.034,0,0.000885,0,0
0:8:57.839,1046.18,133.207,0,0.000885,0,0
0:8:58.447,1047.53,133.372,0,0.000885,0,0
0:8:59.051,1048.76,133.531,0,0.000885,0,0
0:8:59.648,1050.64,133.772,0,0.000885,0,0
0:9:0.256,1051.64,133.896,0,0.000885,0,0
0:9:0.851,1052.87,134.055,0,0.000885,0,0
0:9:1.446,1053.81,134.172,0,0.000885,0,0
0:9:2.040,1054.81,134.303,0,0.000885,0,0
0:9:2.650,1055.92,134.441,0,0.000885,0,0
0:9:3.258,1056.68,134.544,0,0.000885,0,0
0:9:3.864,1058.45,134.765,0,0.000885,0,0
0:9:4.467,1059.86,134.944,0,0.000885,0,0
0:9:5.064,1061.32,135.13,0,0.000885,0,0
0:9:5.656,1062.03,135.22,0,0.000885,0,0
0:9:6.249,1062.85,135.323,0,0.000885,0,0
0:9:6.846,1064.2,135.496,0,0.000885,0,0
0:9:7.445,1065.55,135.668,0,0.000885,0,0
0:9:8.042,1066.37,135.772,0,0.000885,0,0
0:9:8.648,1068.01,135.985,0,0.000885,0,0
0:9:9.251,1069.19,136.13,0,0.000885,0,0
0:9:9.849,1070.48,136.296,0,0.000885,0,0
0:9:10.456,1071.59,136.44,0,0.000885,0,0
0:9:11.050,1072.18,136.516,0,0.000885,0,0
0:9:11.645,1073.71,136.709,0,0.000885,0,0
0:9:12.247,1074.94,136.868,0,0.000885,0,0
0:9:12.851,1075.88,136.985,0,0.000885,0,0
0:9:13.460,1077.52,137.192,0,0.000885,0,0
0:9:14.063,1078.28,137.288,0,0.000885,0,0
0:9:14.658,1079.29,137.419,0,0.000885,0,0
0:9:15.250,1080.52,137.578,0,0.000885,0,0
0:9:15.844,1081.81,137.743,0,0.000885,0,0
0:9:16.448,1082.63,137.847,0,0.000885,0,0
0:9:17.046,1084.45,138.074,0,0.000885,0,0
0:9:17.642,1085.33,138.192,0,0.000885,0,0
0:9:18.248,1087.15,138.419,0,0.000885,0,0
0:9:18.852,1088.03,138.529,0,0.000885,0,0
0:9:19.452,1089.44,138.709,0,0.000885,0,0
0:9:20.047,1090.49,138.847,0,0.000885,0,0
0:9:20.643,1091.43,138.964,0,0.000885,0,0
0:9:21.242,1092.43,139.095,0,0.000885,0,0
0:9:21.834,1094.13,139.309,0,0.000885,0,0
0:9:22.429,1094.61,139.371,0,0.000885,0,0
0:9:23.029,1095.78,139.515,0,0.000885,0,0
0:9:23.636,1096.83,139.653,0,0.000885,0,0
0:9:24.239,1097.66,139.757,0,0.000885,0,0
0:9:24.836,1099.12,139.943,0,0.000885,0,0
0:9:25.431,1100.47,140.115,0,0.000885,0,0
0:9:26.023,1101.82,140.288,0,0.000885,0,0
0:9:26.618,1102.65,140.391,0,0.000885,0,0
0:9:27.215,1103.76,140.536,0,0.000885,0,0
0:9:27.812,1105.23,140.722,0,0.000885,0,0
0:9:28.420,1106.7,140.908,0,0.000885,0,0
0:9:29.024,1107.58,141.018,0,0.000885,0,0
0:9:29.622,1108.87,141.184,0,0.000885,0,0
0:9:30.218,1110.4,141.377,0,0.000885,0,0
0:9:30.816,1111.45,141.515,0,0.000885,0,0
0:9:31.411,1112.39,141.632,0,0.000885,0,0
0:9:32.006,1113.39,141.763,0,0.000885,0,0
0:9:32.601,1114.56,141.908,0,0.000885,0,0
0:9:33.202,1115.68,142.053,0,0.000885,0,0
0:9:33.808,1116.97,142.218,0,0.000885,0,0
0:9:34.411,1118.02,142.349,0,0.000885,0,0
0:9:35.007,1119.49,142.535,0,0.000885,0,0
0:9:35.602,1120.49,142.666,0,0.000885,0,0
0:9:36.195,1121.72,142.825,0,0.000885,0,0
0:9:36.790,1122.9,142.97,0,0.000885,0,0
0:9:37.384,1123.9,143.101,0,0.000885,0,0
0:9:37.990,1125.54,143.308,0,0.000885,0,0
0:9:38.595,1126.83,143.473,0,0.000885,0,0
0:9:39.198,1127.18,143.514,0,0.000885,0,0
0:9:39.791,1129.06,143.756,0,0.000885,0,0
0:9:40.384,1130.06,143.887,0,0.000885,0,0
0:9:40.979,1131,144.004,0,0.000885,0,0
0:9:41.576,1132.46,144.19,0,0.000885,0,0
0:9:42.171,1133.93,144.376,0,0.000885,0,0
0:9:42.767,1134.64,144.466,0,0.000885,0,0
0:9:43.375,1136.1,144.652,0,0.000885,0,0
0:9:43.979,1137.51,144.831,0,0.000885,0,0
0:9:44.576,1138.69,144.983,0,0.000885,0,0
0:9:45.172,1139.75,145.114,0,0.000885,0,0
0:9:45.770,1140.45,145.204,0,0.000885,0,0
0:9:46.366,1141.39,145.328,0,0.000885,0,0
0:9:46.961,1143.15,145.548,0,0.000885,0,0
0:9:47.553,1143.91,145.645,0,0.000885,0,0
0:9:48.156,1145.15,145.803,0,0.000885,0,0
0:9:48.763,1146.61,145.99,0,0.000885,0,0
0:9:49.366,1147.26,146.072,0,0.000885,0,0
0:9:49.964,1149.31,146.334,0,0.000885,0,0
0:9:50.566,1150.6,146.5,0,0.000885,0,0
0:9:51.161,1151.01,146.555,0,0.000885,0,0
0:9:51.752,1152.19,146.7,0,0.000885,0,0
0:9:52.369,1153.77,146.9,0,0.000885,0,0
0:9:52.977,1154.24,146.962,0,0.000885,0,0
0:9:53.582,1156.24,147.217,0,0.000885,0,0
0:9:54.183,1156.65,147.272,0,0.000885,0,0
0:9:54.777,1158.59,147.513,0,0.000885,0,0
0:9:55.373,1159,147.568,0,0.000885,0,0
0:9:55.967,1160.23,147.727,0,0.000885,0,0
0:9:56.565,1161.4,147.872,0,0.000885,0,0
0:9:57.162,1163.28,148.113,0,0.000885,0,0
0:9:57.756,1164.28,148.244,0,0.000885,0,0
0:9:58.366,1165.81,148.437,0,0.000885,0,0
0:9:58.968,1166.92,148.575,0,0.000885,0,0
0:9:59.564,1167.86,148.699,0,0.000885,0,0
0:10:0.158,1168.45,148.768,0,0.000885,0,0
0:10:0.754,1169.91,148.961,0,0.000885,0,0
0:10:1.348,1170.74,149.065,0,0.000885,0,0
0:10:1.941,1172.79,149.327,0,0.000885,0,0
0:10:2.535,1173.67,149.437,0,0.000885,0,0
0:10:3.139,1174.85,149.589,0,0.000885,0,0
0:10:3.746,1176.31,149.775,0,0.000885,0,0
0:10:4.348,1177.66,149.947,0,0.000885,0,0
0:10:4.943,1178.19,150.009,0,0.000885,0,0
0:10:5.545,1179.84,150.223,0,0.000885,0,0
0:10:6.139,1181.07,150.382,0,0.000885,0,0
0:10:6.736,1181.77,150.471,0,0.000885,0,0
0:10:7.332,1182.36,150.54,0,0.000885,0,0
0:10:7.929,1184.06,150.761,0,0.000885,0,0
0:10:8.536,1185.41,150.933,0,0.000885,0,0
0:10:9.139,1186.47,151.064,0,0.000885,0,0
0:10:9.735,1186.94,151.126,0,0.000885,0,0
0:10:10.329,1188.46,151.319,0,0.000885,0,0
0:10:10.926,1189.93,151.505,0,0.000885,0,0
0:10:11.524,1191.4,151.692,0,0.000885,0,0
0:10:12.119,1192.04,151.774,0,0.000885,0,0
0:10:12.716,1193.4,151.947,0,0.000885,0,0
0:10:13.324,1194.74,152.119,0,0.000885,0,0
0:10:13.927,1196.45,152.34,0,0.000885,0,0
0:10:14.523,1197.15,152.429,0,0.000885,0,0
0:10:15.120,1198.8,152.636,0,0.000885,0,0
0:10:15.716,1199.44,152.719,0,0.000885,0,0
0:10:16.311,1200.91,152.905,0,0.000885,0,0
0:10:16.904,1201.2,152.94,0,0.000885,0,0
0:10:17.497,1202.91,153.16,0,0.000885,0,0
0:10:18.105,1203.55,153.243,0,0.000885,0,0
0:10:18.711,1205.31,153.464,0,0.000885,0,0
0:10:19.315,1206.02,153.553,0,0.000885,0,0
0:10:19.908,1207.54,153.746,0,0.000885,0,0
0:10:20.503,1209.24,153.967,0,0.000885,0,0
0:10:21.096,1210.18,154.084,0,0.000885,0,0
0:10:21.692,1211.53,154.256,0,0.000885,0,0
0:10:22.288,1212.18,154.339,0,0.000885,0,0
0:10:22.885,1213.53,154.512,0,0.000885,0,0
0:10:23.492,1214.59,154.643,0,0.000885,0,0
0:10:24.096,1216.82,154.932,0,0.000885,0,0
0:10:24.693,1216.87,154.939,0,0.000885,0,0
0:10:25.288,1218.46,155.139,0,0.000885,0,0
0:10:25.884,1219.75,155.304,0,0.000885,0,0
0:10:26.480,1220.57,155.408,0,0.000885,0,0
0:10:27.076,1221.33,155.504,0,0.000885,0,0
0:10:27.673,1222.8,155.691,0,0.000885,0,0
0:10:28.280,1224.39,155.89,0,0.000885,0,0
0:10:28.883,1225.21,156.001,0,0.000885,0,0
0:10:29.479,1226.09,156.111,0,0.000885,0,0
0:10:30.075,1227.44,156.283,0,0.000885,0,0
0:10:30.672,1229.38,156.532,0,0.000885,0,0
0:10:31.266,1230.32,156.649,0,0.000885,0,0
0:10:31.868,1231.78,156.835,0,0.000885,0,0
0:10:32.461,1232.14,156.883,0,0.000885,0,0
0:10:33.072,1233.95,157.111,0,0.000885,0,0
0:10:33.676,1234.6,157.194,0,0.000885,0,0
0:10:34.279,1236.3,157.414,0,0.000885,0,0
0:10:34.872,1236.19,157.394,0,0.000885,0,0
0:10:35.465,1237.95,157.621,0,0.000885,0,0
0:10:36.058,1239.77,157.855,0,0.000885,0,0
0:10:36.658,1240,157.883,0,0.000885,0,0
0:10:37.275,1242.12,158.152,0,0.000885,0,0
0:10:37.872,1243.29,158.304,0,0.000885,0,0
0:10:38.480,1244.46,158.448,0,0.000885,0,0
0:10:39.082,1245.28,158.552,0,0.000885,0,0
0:10:39.678,1246.34,158.69,0,0.000885,0,0
0:10:40.274,1248.22,158.931,0,0.000885,0,0
0:10:40.871,1248.4,158.952,0,0.000885,0,0
0:10:41.463,1249.75,159.124,0,0.000885,0,0
0:10:42.058,1251.51,159.345,0,0.000885,0,0
0:10:42.657,1252.62,159.49,0,0.000885,0,0
0:10:43.262,1253.74,159.627,0,0.000885,0,0
0:10:43.867,1254.91,159.779,0,0.000885,0,0
0:10:44.474,1255.5,159.855,0,0.000885,0,0
0:10:45.070,1257.14,160.062,0,0.000885,0,0
0:10:45.672,1258.26,160.207,0,0.000885,0,0
0:10:46.263,1259.43,160.358,0,0.000885,0,0
0:10:46.857,1261.08,160.565,0,0.000885,0,0
0:10:47.453,1262.13,160.703,0,0.000885,0,0
0:10:48.059,1262.42,160.737,0,0.000885,0,0
0:10:48.662,1263.89,160.924,0,0.000885,0,0
0:10:49.263,1265.83,161.172,0,0.000885,0,0
0:10:49.868,1267.18,161.344,0,0.000885,0,0
0:10:50.460,1267.12,161.337,0,0.000885,0,0
0:10:51.068,1268.41,161.496,0,0.000885,0,0
0:10:51.677,1270.35,161.744,0,0.000885,0,0
0:10:52.271,1271.35,161.875,0,0.000885,0,0
0:10:52.868,1272.76,162.054,0,0.000885,0,0
0:10:53.475,1273.52,162.151,0,0.000885,0,0
0:10:54.078,1274.87,162.323,0,0.000885,0,0
0:10:54.675,1275.69,162.427,0,0.000885,0,0
0:10:55.271,1277.28,162.627,0,0.000885,0,0
0:10:55.864,1277.81,162.696,0,0.000885,0,0
0:10:56.459,1279.04,162.854,0,0.000885,0,0
0:10:57.054,1280.56,163.047,0,0.000885,0,0
0:10:57.657,1281.68,163.185,0,0.000885,0,0
0:10:58.260,1283.44,163.413,0,0.000885,0,0
0:10:58.863,1284.26,163.516,0,0.000885,0,0
0:10:59.459,1285.73,163.702,0,0.000885,0,0
0:11:0.076,1286.55,163.806,0,0.000885,0,0
0:11:0.669,1287.84,163.971,0,0.000885,0,0
0:11:1.261,1289.01,164.123,0,0.000885,0,0
0:11:1.865,1290.42,164.302,0,0.000885,0,0
0:11:2.461,1291.42,164.426,0,0.000885,0,0
0:11:3.070,1292.54,164.571,0,0.000885,0,0
0:11:3.675,1293.3,164.667,0,0.000885,0,0
0:11:4.273,1294.83,164.861,0,0.000885,0,0
0:11:4.865,1296.35,165.054,0,0.000885,0,0
0:11:5.473,1297.64,165.219,0,0.000885,0,0
0:11:6.077,1298.93,165.385,0,0.000885,0,0
0:11:6.675,1299.58,165.467,0,0.000885,0,0
0:11:7.269,1300.64,165.605,0,0.000885,0,0
0:11:7.865,1301.81,165.75,0,0.000885,0,0
0:11:8.474,1303.04,165.909,0,0.000885,0,0
0:11:9.078,1304.69,166.115,0,0.000885,0,0
0:11:9.674,1305.39,166.205,0,0.000885,0,0
0:11:10.270,1306.57,166.357,0,0.000885,0,0
0:11:10.864,1308.15,166.557,0,0.000885,0,0
0:11:11.458,1308.8,166.639,0,0.000885,0,0
0:11:12.052,1309.85,166.777,0,0.000885,0,0
0:11:12.649,1311.38,166.97,0,0.000885,0,0
0:11:13.255,1312.5,167.115,0,0.000885,0,0
0:11:13.858,1313.61,167.253,0,0.000885,0,0
0:11:14.460,1315.14,167.446,0,0.000885,0,0
0:11:15.064,1315.37,167.481,0,0.000885,0,0
0:11:15.659,1317.37,167.736,0,0.000885,0,0
0:11:16.264,1318.13,167.832,0,0.000885,0,0
0:11:16.860,1319.66,168.025,0,0.000885,0,0
0:11:17.456,1320.65,168.149,0,0.000885,0,0
0:11:18.062,1322.24,168.356,0,0.000885,0,0
0:11:18.664,1322.95,168.446,0,0.000885,0,0
0:11:19.273,1324.35,168.625,0,0.000885,0,0
0:11:19.866,1325.47,168.763,0,0.000885,0,0
0:11:20.464,1326.11,168.846,0,0.000885,0,0
0:11:21.070,1327.93,169.08,0,0.000885,0,0
0:11:21.663,1328.7,169.177,0,0.000885,0,0
0:11:22.266,1330.11,169.356,0,0.000885,0,0
0:11:22.870,1331.16,169.487,0,0.000885,0,0
0:11:23.476,1332.75,169.694,0,0.000885,0,0
0:11:24.079,1333.45,169.783,0,0.000885,0,0
0:11:24.675,1324.18,168.597,0,0.000885,0,0
0:11:25.276,1324.29,168.611,0,0.000885,0,0
0:11:25.871,1329.93,169.335,0,0.000885,0,0
0:11:26.473,1336.33,170.149,0,0.000885,0,0
0:11:27.079,1341.73,170.831,0,0.000885,0,0
0:11:27.676,1344.66,171.211,0,0.000885,0,0
0:11:28.284,1347.01,171.507,0,0.000885,0,0
0:11:28.887,1346.95,171.5,0,0.000885,0,0
0:11:29.485,1347.83,171.611,0,0.000885,0,0
0:11:30.078,1347.48,171.569,0,0.000885,0,0
0:11:30.673,1344.9,171.238,0,0.000885,0,0
0:11:31.278,1345.78,171.349,0,0.000885,0,0
0:11:31.872,1345.25,171.28,0,0.000885,0,0
0:11:32.296,1292.36,164.55,0,0.000885,0,0