File: DataFile2021-06-08_043212.csv
Test ID:,Date Tested:,Time:,Test Type:,Diameter Avg. (mm):,Cyl. Corr. Factor:,Height (mm):,Age (days):,Weight (kN):,Break Type:,Ramp Rate (MPa/s):,Load at Break (kN):,Stress at Break (MPa):
12,6/8/2021,04:32,Cylinder,100,1,200,0,3.6,3,0.24,1008.37,128.39
Sample Time,Load (kN),Stress (MPa),Long. Strain,Trans. Strain,Chan1 Deflection (mm),Chan2 Deflection (mm)
0:0:11.313,5.7471,0.730844,0,0.000885,0,0
0:0:11.808,6.15634,0.786002,0,0.000885,0,0
0:0:12.305,9.14999,1.16521,0,0.000885,0,0
0:0:12.801,10.7336,1.36516,0,0.000885,0,0
0:0:13.296,11.2006,1.42721,0,0.000885,0,0
0:0:13.792,11.085,1.41343,0,0.000885,0,0
0:0:14.289,11.3207,1.441,0,0.000885,0,0
0:0:14.785,11.6721,1.48927,0,0.000885,0,0
0:0:15.280,11.4942,1.46169,0,0.000885,0,0
0:0:15.778,12.7842,1.62716,0,0.000885,0,0
0:0:16.274,13.8429,1.76506,0,0.000885,0,0
0:0:16.779,15.4264,1.96501,0,0.000885,0,0
0:0:17.286,16.1871,2.06153,0,0.000885,0,0
0:0:17.789,17.5349,2.2339,0,0.000885,0,0
0:0:18.290,18.8871,2.40627,0,0.000885,0,0
0:0:18.786,19.7634,2.51659,0,0.000885,0,0
0:0:19.286,21.7029,2.7648,0,0.000885,0,0
0:0:19.784,22.637,2.88201,0,0.000885,0,0
0:0:20.283,23.3443,2.97164,0,0.000885,0,0
0:0:20.780,24.6343,3.13711,0,0.000885,0,0
0:0:21.278,24.9278,3.17159,0,0.000885,0,0
0:0:21.777,25.2792,3.21985,0,0.000885,0,0
0:0:22.284,27.0986,3.44738,0,0.000885,0,0
0:0:22.789,27.6235,3.51633,0,0.000885,0,0
0:0:23.292,28.562,3.63354,0,0.000885,0,0
0:0:23.790,29.5006,3.75764,0,0.000885,0,0
0:0:24.286,30.7328,3.91622,0,0.000885,0,0
0:0:24.784,31.8493,4.05412,0,0.000885,0,0
0:0:25.281,32.6099,4.15064,0,0.000885,0,0
0:0:25.780,34.3714,4.37817,0,0.000885,0,0
0:0:26.277,35.3055,4.49538,0,0.000885,0,0
0:0:26.774,35.8349,4.56433,0,0.000885,0,0
0:0:27.283,36.7156,4.67465,0,0.000885,0,0
0:0:27.787,37.7698,4.81254,0,0.000885,0,0
0:0:28.291,38.5349,4.90907,0,0.000885,0,0
0:0:28.790,39.4735,5.02628,0,0.000885,0,0
0:0:29.286,40.5856,5.16417,0,0.000885,0,0
0:0:29.784,41.5241,5.28828,0,0.000885,0,0
0:0:30.280,42.1691,5.37102,0,0.000885,0,0
0:0:30.779,43.0499,5.48133,0,0.000885,0,0
0:0:31.276,44.6335,5.68128,0,0.000885,0,0
0:0:31.781,45.8078,5.83296,0,0.000885,0,0
0:0:32.287,46.5106,5.9226,0,0.000885,0,0
0:0:32.790,47.6849,6.07428,0,0.000885,0,0
0:0:33.289,48.6813,6.19839,0,0.000885,0,0
0:0:33.787,49.3842,6.28802,0,0.000885,0,0
0:0:34.283,50.1448,6.38455,0,0.000885,0,0
0:0:34.781,51.4971,6.55691,0,0.000885,0,0
0:0:35.281,52.6669,6.7086,0,0.000885,0,0
0:0:35.777,52.787,6.72239,0,0.000885,0,0
0:0:36.275,54.077,6.88786,0,0.000885,0,0
0:0:36.777,55.0734,7.01197,0,0.000885,0,0
0:0:37.284,56.3634,7.17744,0,0.000885,0,0
0:0:37.788,57.6534,7.34292,0,0.000885,0,0
0:0:38.290,58.1205,7.39807,0,0.000885,0,0
0:0:38.787,59.3526,7.55665,0,0.000885,0,0
0:0:39.284,60.2912,7.67386,0,0.000885,0,0
0:0:39.782,60.8784,7.74971,0,0.000885,0,0
0:0:40.280,61.9949,7.8945,0,0.000885,0,0
0:0:40.778,62.7555,7.99102,0,0.000885,0,0
0:0:41.275,64.3391,8.19097,0,0.000885,0,0
0:0:41.772,64.9841,8.27371,0,0.000885,0,0
0:0:42.281,66.1006,8.4185,0,0.000885,0,0
0:0:42.785,67.4484,8.59087,0,0.000885,0,0
0:0:43.288,67.564,8.60466,0,0.000885,0,0
0:0:43.788,69.1476,8.80461,0,0.000885,0,0
0:0:44.283,70.0284,8.91492,0,0.000885,0,0
0:0:44.781,70.6155,8.99076,0,0.000885,0,0
0:0:45.278,72.3147,9.2045,0,0.000885,0,0
0:0:45.778,73.0798,9.30792,0,0.000885,0,0
0:0:46.274,74.1341,9.43892,0,0.000885,0,0
0:0:46.772,75.1883,9.57682,0,0.000885,0,0
0:0:47.278,75.5397,9.61819,0,0.000885,0,0
0:0:47.783,77.0654,9.81124,0,0.000885,0,0
0:0:48.288,77.6526,9.88708,0,0.000885,0,0
0:0:48.785,78.7691,10.0319,0,0.000885,0,0
0:0:49.284,79.4719,10.1215,0,0.000885,0,0
0:0:49.781,80.4105,10.2387,0,0.000885,0,0
0:0:50.279,81.9941,10.4387,0,0.000885,0,0
0:0:50.776,82.8748,10.549,0,0.000885,0,0
0:0:51.275,83.6933,10.6593,0,0.000885,0,0
0:0:51.772,84.574,10.7696,0,0.000885,0,0
0:0:52.278,85.6283,10.9006,0,0.000885,0,0
0:0:52.784,86.8026,11.0523,0,0.000885,0,0
0:0:53.287,87.5054,11.1419,0,0.000885,0,0
0:0:53.786,88.7954,11.3074,0,0.000885,0,0
0:0:54.284,90.379,11.5073,0,0.000885,0,0
0:0:54.780,90.4991,11.5211,0,0.000885,0,0
0:0:55.278,91.7312,11.6797,0,0.000885,0,0
0:0:55.774,92.7276,11.8038,0,0.000885,0,0
0:0:56.272,93.2525,11.8728,0,0.000885,0,0
0:0:56.781,94.7204,12.0589,0,0.000885,0,0
0:0:57.285,95.7747,12.1968,0,0.000885,0,0
0:0:57.789,96.4197,12.2796,0,0.000885,0,0
0:0:58.287,97.4205,12.4037,0,0.000885,0,0
0:0:58.785,98.6482,12.5622,0,0.000885,0,0
0:0:59.281,99.2932,12.645,0,0.000885,0,0
0:0:59.779,100.294,12.7691,0,0.000885,0,0
0:1:0.275,101.233,12.8863,0,0.000885,0,0
0:1:0.774,102.46,13.0449,0,0.000885,0,0
0:1:1.271,103.399,13.1621,0,0.000885,0,0
0:1:1.776,103.813,13.2172,0,0.000885,0,0
0:1:2.282,105.512,13.431,0,0.000885,0,0
0:1:2.786,105.863,13.4793,0,0.000885,0,0
0:1:3.286,107.038,13.6309,0,0.000885,0,0
0:1:3.784,108.443,13.8102,0,0.000885,0,0
0:1:4.281,109.502,13.9412,0,0.000885,0,0
0:1:4.779,109.969,14.0033,0,0.000885,0,0
0:1:5.277,111.085,14.1411,0,0.000885,0,0
0:1:5.776,112.491,14.3204,0,0.000885,0,0
0:1:6.273,113.256,14.4169,0,0.000885,0,0
0:1:6.775,114.31,14.5548,0,0.000885,0,0
0:1:7.282,115.774,14.741,0,0.000885,0,0
0:1:7.785,115.422,14.6996,0,0.000885,0,0
0:1:8.287,117.184,14.9203,0,0.000885,0,0
0:1:8.785,118.007,15.0237,0,0.000885,0,0
0:1:9.284,119.413,15.2029,0,0.000885,0,0
0:1:9.781,120.467,15.3408,0,0.000885,0,0
0:1:10.279,121.29,15.4443,0,0.000885,0,0
0:1:10.775,122.228,15.5615,0,0.000885,0,0
0:1:11.273,122.522,15.6028,0,0.000885,0,0
0:1:11.773,123.927,15.7821,0,0.000885,0,0
0:1:12.281,125.16,15.9338,0,0.000885,0,0
0:1:12.785,125.925,16.0303,0,0.000885,0,0
0:1:13.288,127.33,16.2096,0,0.000885,0,0
0:1:13.785,128.091,16.3061,0,0.000885,0,0
0:1:14.282,128.736,16.3888,0,0.000885,0,0
0:1:14.780,129.795,16.5267,0,0.000885,0,0
0:1:15.275,130.382,16.6026,0,0.000885,0,0
0:1:15.774,130.965,16.6784,0,0.000885,0,0
0:1:16.271,132.49,16.8715,0,0.000885,0,0
0:1:16.769,133.843,17.0438,0,0.000885,0,0
0:1:17.277,135.07,17.1955,0,0.000885,0,0
0:1:17.781,136.071,17.3265,0,0.000885,0,0
0:1:18.287,136.947,17.4368,0,0.000885,0,0
0:1:18.783,138.18,17.5954,0,0.000885,0,0
0:1:19.280,138.3,17.6092,0,0.000885,0,0
0:1:19.777,139.47,17.7609,0,0.000885,0,0
0:1:20.274,140.528,17.8919,0,0.000885,0,0
0:1:20.771,141.467,18.0091,0,0.000885,0,0
0:1:21.269,142.463,18.1401,0,0.000885,0,0
0:1:21.775,143.575,18.278,0,0.000885,0,0
0:1:22.281,145.217,18.4917,0,0.000885,0,0
0:1:22.785,146.04,18.5952,0,0.000885,0,0
0:1:23.283,146.569,18.6641,0,0.000885,0,0
0:1:23.778,147.917,18.8365,0,0.000885,0,0
0:1:24.275,148.62,18.9261,0,0.000885,0,0
0:1:24.771,149.322,19.0157,0,0.000885,0,0
0:1:25.270,150.555,19.1674,0,0.000885,0,0
0:1:25.766,151.493,19.2915,0,0.000885,0,0
0:1:26.264,152.552,19.4225,0,0.000885,0,0
0:1:26.769,153.077,19.4915,0,0.000885,0,0
0:1:27.275,153.779,19.5811,0,0.000885,0,0
0:1:27.780,155.19,19.7604,0,0.000885,0,0
0:1:28.279,155.835,19.8431,0,0.000885,0,0
0:1:28.777,157.476,20.05,0,0.000885,0,0
0:1:29.274,158.063,20.1258,0,0.000885,0,0
0:1:29.772,159.589,20.3188,0,0.000885,0,0
0:1:30.269,160.701,20.4636,0,0.000885,0,0
0:1:30.769,161.115,20.5119,0,0.000885,0,0
0:1:31.266,162.347,20.6705,0,0.000885,0,0
0:1:31.765,163.459,20.8153,0,0.000885,0,0
0:1:32.271,163.752,20.8497,0,0.000885,0,0
0:1:32.775,165.336,21.0497,0,0.000885,0,0
0:1:33.280,166.448,21.1945,0,0.000885,0,0
0:1:33.777,167.68,21.3531,0,0.000885,0,0
0:1:34.274,167.858,21.3737,0,0.000885,0,0
0:1:34.772,168.681,21.4772,0,0.000885,0,0
0:1:35.269,169.971,21.6426,0,0.000885,0,0
0:1:35.765,171.083,21.7805,0,0.000885,0,0
0:1:36.264,171.612,21.8495,0,0.000885,0,0
0:1:36.760,173.138,22.0425,0,0.000885,0,0
0:1:37.266,173.957,22.146,0,0.000885,0,0
0:1:37.771,174.837,22.2632,0,0.000885,0,0
0:1:38.274,176.363,22.4562,0,0.000885,0,0
0:1:38.771,176.479,22.47,0,0.000885,0,0
0:1:39.269,178.356,22.7113,0,0.000885,0,0
0:1:39.764,179.352,22.8354,0,0.000885,0,0
0:1:40.261,179.824,22.8975,0,0.000885,0,0
0:1:40.758,180.936,23.0354,0,0.000885,0,0
0:1:41.254,182.226,23.2009,0,0.000885,0,0
0:1:41.761,183.285,23.3388,0,0.000885,0,0
0:1:42.267,183.752,23.3939,0,0.000885,0,0
0:1:42.771,184.397,23.4766,0,0.000885,0,0
0:1:43.268,185.162,23.5732,0,0.000885,0,0
0:1:43.764,186.096,23.6973,0,0.000885,0,0
0:1:44.263,187.684,23.8972,0,0.000885,0,0
0:1:44.760,188.444,23.9938,0,0.000885,0,0
0:1:45.255,190.379,24.242,0,0.000885,0,0
0:1:45.754,190.909,24.304,0,0.000885,0,0
0:1:46.261,191.554,24.3868,0,0.000885,0,0
0:1:46.763,192.492,24.5109,0,0.000885,0,0
0:1:47.267,193.724,24.6625,0,0.000885,0,0
0:1:47.767,194.485,24.766,0,0.000885,0,0
0:1:48.265,195.424,24.8832,0,0.000885,0,0
0:1:48.760,197.065,25.09,0,0.000885,0,0
0:1:49.254,198.182,25.2348,0,0.000885,0,0
0:1:49.756,199.178,25.3589,0,0.000885,0,0
0:1:50.259,199.294,25.3727,0,0.000885,0,0
0:1:50.752,200.117,25.4761,0,0.000885,0,0
0:1:51.244,201.229,25.6209,0,0.000885,0,0
0:1:51.760,202.581,25.7933,0,0.000885,0,0
0:1:52.262,203.399,25.8967,0,0.000885,0,0
0:1:52.763,204.102,25.9863,0,0.000885,0,0
0:1:53.264,205.334,26.1449,0,0.000885,0,0
0:1:53.757,206.744,26.3242,0,0.000885,0,0
0:1:54.259,207.389,26.4069,0,0.000885,0,0
0:1:54.752,208.034,26.4897,0,0.000885,0,0
0:1:55.256,209.618,26.6896,0,0.000885,0,0
0:1:55.759,210.085,26.7517,0,0.000885,0,0
0:1:56.250,211.611,26.9447,0,0.000885,0,0
0:1:56.755,211.962,26.9861,0,0.000885,0,0
0:1:57.256,213.016,27.124,0,0.000885,0,0
0:1:57.755,214.249,27.2826,0,0.000885,0,0
0:1:58.259,215.129,27.3929,0,0.000885,0,0
0:1:58.762,216.304,27.5377,0,0.000885,0,0
0:1:59.255,216.539,27.5721,0,0.000885,0,0
0:1:59.760,218.474,27.8135,0,0.000885,0,0
0:2:0.254,219.586,27.9582,0,0.000885,0,0
0:2:0.758,220.409,28.0617,0,0.000885,0,0
0:2:1.261,220.703,28.103,0,0.000885,0,0
0:2:1.761,222.344,28.3099,0,0.000885,0,0
0:2:2.265,223.519,28.4616,0,0.000885,0,0
0:2:2.766,224.279,28.5581,0,0.000885,0,0
0:2:3.261,224.809,28.6201,0,0.000885,0,0
0:2:3.755,225.511,28.7098,0,0.000885,0,0
0:2:4.258,227.269,28.9373,0,0.000885,0,0
0:2:4.763,228.269,29.0614,0,0.000885,0,0
0:2:5.256,229.324,29.1993,0,0.000885,0,0
0:2:5.760,230.204,29.3096,0,0.000885,0,0
0:2:6.263,230.729,29.3786,0,0.000885,0,0
0:2:6.756,231.668,29.4958,0,0.000885,0,0
0:2:7.260,232.842,29.6475,0,0.000885,0,0
0:2:7.762,233.959,29.7854,0,0.000885,0,0
0:2:8.261,234.955,29.9164,0,0.000885,0,0
0:2:8.754,236.419,30.1025,0,0.000885,0,0
0:2:9.259,237.593,30.2542,0,0.000885,0,0
0:2:9.762,238.647,30.3852,0,0.000885,0,0
0:2:10.255,238.883,30.4128,0,0.000885,0,0
0:2:10.758,239.937,30.5507,0,0.000885,0,0
0:2:11.262,240.938,30.6748,0,0.000885,0,0
0:2:11.751,241.111,30.7024,0,0.000885,0,0
0:2:12.256,242.108,30.8265,0,0.000885,0,0
0:2:12.758,243.166,30.9575,0,0.000885,0,0
0:2:13.256,244.808,31.1712,0,0.000885,0,0
0:2:13.748,245.982,31.316,0,0.000885,0,0
0:2:14.254,247.21,31.4746,0,0.000885,0,0
0:2:14.758,247.094,31.4608,0,0.000885,0,0
0:2:15.260,248.678,31.6607,0,0.000885,0,0
0:2:15.751,249.91,31.8193,0,0.000885,0,0
0:2:16.258,250.377,31.8814,0,0.000885,0,0
0:2:16.759,251.729,32.0537,0,0.000885,0,0
0:2:17.263,253.255,32.2468,0,0.000885,0,0
0:2:17.762,253.78,32.3157,0,0.000885,0,0
0:2:18.256,254.189,32.364,0,0.000885,0,0
0:2:18.762,255.773,32.5639,0,0.000885,0,0
0:2:19.265,256.889,32.7087,0,0.000885,0,0
0:2:19.760,257.828,32.8259,0,0.000885,0,0
0:2:20.261,258.824,32.9569,0,0.000885,0,0
0:2:20.756,259.469,33.0397,0,0.000885,0,0
0:2:21.260,260.056,33.1086,0,0.000885,0,0
0:2:21.752,261.168,33.2534,0,0.000885,0,0
0:2:22.258,262.636,33.4396,0,0.000885,0,0
0:2:22.758,263.459,33.543,0,0.000885,0,0
0:2:23.256,263.753,33.5844,0,0.000885,0,0
0:2:23.750,264.985,33.736,0,0.000885,0,0
0:2:24.252,266.097,33.8808,0,0.000885,0,0
0:2:24.759,267.387,34.0463,0,0.000885,0,0
0:2:25.263,268.152,34.1428,0,0.000885,0,0
0:2:25.756,268.797,34.2256,0,0.000885,0,0
0:2:26.261,270.318,34.4186,0,0.000885,0,0
0:2:26.764,271.493,34.5703,0,0.000885,0,0
0:2:27.268,272.667,34.7151,0,0.000885,0,0
0:2:27.770,273.899,34.8737,0,0.000885,0,0
0:2:28.268,274.073,34.8944,0,0.000885,0,0
0:2:28.763,275.131,35.0323,0,0.000885,0,0
0:2:29.266,275.834,35.1219,0,0.000885,0,0
0:2:29.759,276.421,35.1977,0,0.000885,0,0
0:2:30.250,278.005,35.3977,0,0.000885,0,0
0:2:30.752,279.353,35.5701,0,0.000885,0,0
0:2:31.258,279.646,35.6045,0,0.000885,0,0
0:2:31.762,280.994,35.7769,0,0.000885,0,0
0:2:32.264,281.933,35.8941,0,0.000885,0,0
0:2:32.766,282.871,36.0182,0,0.000885,0,0
0:2:33.265,283.752,36.1285,0,0.000885,0,0
0:2:33.759,284.571,36.2319,0,0.000885,0,0
0:2:34.264,286.448,36.4733,0,0.000885,0,0
0:2:34.766,287.035,36.5491,0,0.000885,0,0
0:2:35.258,288.267,36.7008,0,0.000885,0,0
0:2:35.763,289.384,36.8456,0,0.000885,0,0
0:2:36.252,289.263,36.8318,0,0.000885,0,0
0:2:36.758,290.144,36.9421,0,0.000885,0,0
0:2:37.262,291.198,37.08,0,0.000885,0,0
0:2:37.764,292.782,37.28,0,0.000885,0,0
0:2:38.263,294.366,37.4799,0,0.000885,0,0
0:2:38.758,295.131,37.5764,0,0.000885,0,0
0:2:39.260,296.3,37.7281,0,0.000885,0,0
0:2:39.764,296.007,37.6867,0,0.000885,0,0
0:2:40.266,297.475,37.8729,0,0.000885,0,0
0:2:40.761,298.413,37.997,0,0.000885,0,0
0:2:41.264,299.646,38.1487,0,0.000885,0,0
0:2:41.766,300.406,38.2521,0,0.000885,0,0
0:2:42.268,301.171,38.3486,0,0.000885,0,0
0:2:42.768,302.813,38.5555,0,0.000885,0,0
0:2:43.262,303.164,38.5969,0,0.000885,0,0
0:2:43.766,304.69,38.7968,0,0.000885,0,0
0:2:44.259,305.508,38.9002,0,0.000885,0,0
0:2:44.762,306.683,39.045,0,0.000885,0,0
0:2:45.266,307.092,39.1002,0,0.000885,0,0
0:2:45.759,308.56,39.2863,0,0.000885,0,0
0:2:46.250,309.97,39.4656,0,0.000885,0,0
0:2:46.752,310.908,39.5828,0,0.000885,0,0
0:2:47.254,311.669,39.6862,0,0.000885,0,0
0:2:47.753,311.905,39.7138,0,0.000885,0,0
0:2:48.249,313.137,39.8724,0,0.000885,0,0
0:2:48.764,314.543,40.0516,0,0.000885,0,0
0:2:49.259,315.948,40.2309,0,0.000885,0,0
0:2:49.762,316.713,40.3274,0,0.000885,0,0
0:2:50.265,317.416,40.4171,0,0.000885,0,0
0:2:50.760,318.239,40.5205,0,0.000885,0,0
0:2:51.262,319.178,40.6377,0,0.000885,0,0
0:2:51.755,319.938,40.7342,0,0.000885,0,0
0:2:52.261,321.7,40.9618,0,0.000885,0,0
0:2:52.762,322.109,41.01,0,0.000885,0,0
0:2:53.261,322.87,41.1065,0,0.000885,0,0
0:2:53.767,323.399,41.1755,0,0.000885,0,0
0:2:54.260,324.805,41.3548,0,0.000885,0,0
0:2:54.765,325.806,41.4858,0,0.000885,0,0
0:2:55.267,327.62,41.7133,0,0.000885,0,0
0:2:55.761,328.208,41.7891,0,0.000885,0,0
0:2:56.263,328.679,41.8512,0,0.000885,0,0
0:2:56.755,330.494,42.0787,0,0.000885,0,0
0:2:57.261,331.668,42.2304,0,0.000885,0,0
0:2:57.761,331.726,42.2373,0,0.000885,0,0
0:2:58.260,332.843,42.3821,0,0.000885,0,0
0:2:58.762,334.075,42.5338,0,0.000885,0,0
0:2:59.267,335.423,42.7061,0,0.000885,0,0
0:2:59.760,335.658,42.7337,0,0.000885,0,0
0:3:0.263,337.006,42.9061,0,0.000885,0,0
0:3:0.765,338.412,43.0853,0,0.000885,0,0
0:3:1.267,338.412,43.0853,0,0.000885,0,0
0:3:1.770,339.293,43.2025,0,0.000885,0,0
0:3:2.272,340.347,43.3335,0,0.000885,0,0
0:3:2.772,341.873,43.5266,0,0.000885,0,0
0:3:3.266,342.518,43.6093,0,0.000885,0,0
0:3:3.769,344.101,43.8093,0,0.000885,0,0
0:3:4.262,344.337,43.8438,0,0.000885,0,0
0:3:4.766,345.978,44.0506,0,0.000885,0,0
0:3:5.260,347.388,44.2299,0,0.000885,0,0
0:3:5.752,348.62,44.3884,0,0.000885,0,0
0:3:6.268,348.91,44.4229,0,0.000885,0,0
0:3:6.766,350.026,44.5677,0,0.000885,0,0
0:3:7.270,350.613,44.6436,0,0.000885,0,0
0:3:7.769,351.023,44.6918,0,0.000885,0,0
0:3:8.266,352.197,44.8435,0,0.000885,0,0
0:3:8.762,354.074,45.0848,0,0.000885,0,0
0:3:9.264,354.719,45.1676,0,0.000885,0,0
0:3:9.769,355.831,45.3055,0,0.000885,0,0
0:3:10.262,356.596,45.402,0,0.000885,0,0
0:3:10.766,357.477,45.5123,0,0.000885,0,0
0:3:11.268,358.767,45.6778,0,0.000885,0,0
0:3:11.762,359.35,45.7536,0,0.000885,0,0
0:3:12.268,360.875,45.9467,0,0.000885,0,0
0:3:12.767,361.169,45.988,0,0.000885,0,0
0:3:13.268,362.752,46.188,0,0.000885,0,0
0:3:13.762,363.869,46.3259,0,0.000885,0,0
0:3:14.263,364.456,46.4017,0,0.000885,0,0
0:3:14.766,365.101,46.4845,0,0.000885,0,0
0:3:15.257,366.155,46.6223,0,0.000885,0,0
0:3:15.763,366.858,46.712,0,0.000885,0,0
0:3:16.264,368.09,46.8637,0,0.000885,0,0
0:3:16.769,369.438,47.036,0,0.000885,0,0
0:3:17.270,370.728,47.2015,0,0.000885,0,0
0:3:17.772,371.142,47.2567,0,0.000885,0,0
0:3:18.271,372.432,47.4221,0,0.000885,0,0
0:3:18.765,373.602,47.5669,0,0.000885,0,0
0:3:19.256,373.544,47.56,0,0.000885,0,0
0:3:19.762,375.893,47.8565,0,0.000885,0,0
0:3:20.265,376.538,47.9392,0,0.000885,0,0
0:3:20.755,377.827,48.1047,0,0.000885,0,0
0:3:21.262,378.415,48.1806,0,0.000885,0,0
0:3:21.764,378.824,48.2357,0,0.000885,0,0
0:3:22.266,380.23,48.415,0,0.000885,0,0
0:3:22.765,381.23,48.5391,0,0.000885,0,0
0:3:23.268,381.933,48.6287,0,0.000885,0,0
0:3:23.761,382.872,48.7459,0,0.000885,0,0
0:3:24.264,383.926,48.8838,0,0.000885,0,0
0:3:24.769,385.394,49.07,0,0.000885,0,0
0:3:25.262,386.097,49.1596,0,0.000885,0,0
0:3:25.766,387.271,49.3113,0,0.000885,0,0
0:3:26.268,388.383,49.4492,0,0.000885,0,0
0:3:26.769,388.677,49.4906,0,0.000885,0,0
0:3:27.271,390.082,49.6698,0,0.000885,0,0
0:3:27.771,391.435,49.8422,0,0.000885,0,0
0:3:28.266,392.667,49.9939,0,0.000885,0,0
0:3:28.762,393.427,50.0904,0,0.000885,0,0
0:3:29.252,393.543,50.1111,0,0.000885,0,0
0:3:29.755,394.482,50.2283,0,0.000885,0,0
0:3:30.270,395.772,50.3938,0,0.000885,0,0
0:3:30.765,397.004,50.5455,0,0.000885,0,0
0:3:31.269,398.178,50.6972,0,0.000885,0,0
0:3:31.769,399.175,50.8213,0,0.000885,0,0
0:3:32.270,400.233,50.9592,0,0.000885,0,0
0:3:32.769,400.171,50.9523,0,0.000885,0,0
0:3:33.267,401.523,51.1246,0,0.000885,0,0
0:3:33.759,403.107,51.3246,0,0.000885,0,0
0:3:34.264,403.165,51.3315,0,0.000885,0,0
0:3:34.769,404.334,51.4832,0,0.000885,0,0
0:3:35.264,405.509,51.6279,0,0.000885,0,0
0:3:35.765,406.447,51.752,0,0.000885,0,0
0:3:36.269,407.386,51.8693,0,0.000885,0,0
0:3:36.763,408.502,52.014,0,0.000885,0,0
0:3:37.266,409.557,52.145,0,0.000885,0,0
0:3:37.767,410.437,52.2554,0,0.000885,0,0
0:3:38.267,411.434,52.3864,0,0.000885,0,0
0:3:38.758,412.315,52.4967,0,0.000885,0,0
0:3:39.265,413.956,52.7035,0,0.000885,0,0
0:3:39.769,415.188,52.8621,0,0.000885,0,0
0:3:40.259,415.949,52.9586,0,0.000885,0,0
0:3:40.765,416.064,52.9724,0,0.000885,0,0
0:3:41.268,416.772,53.0621,0,0.000885,0,0
0:3:41.772,418.177,53.2413,0,0.000885,0,0
0:3:42.276,419.409,53.3999,0,0.000885,0,0
0:3:42.776,420.348,53.5171,0,0.000885,0,0
0:3:43.276,421.287,53.6412,0,0.000885,0,0
0:3:43.770,422.047,53.7377,0,0.000885,0,0
0:3:44.264,423.222,53.8894,0,0.000885,0,0
0:3:44.767,424.102,53.9997,0,0.000885,0,0
0:3:45.271,425.45,54.1721,0,0.000885,0,0
0:3:45.761,426.624,54.3169,0,0.000885,0,0
0:3:46.266,426.798,54.3445,0,0.000885,0,0
0:3:46.757,428.444,54.5513,0,0.000885,0,0
0:3:47.260,429.262,54.6547,0,0.000885,0,0
0:3:47.764,429.792,54.7237,0,0.000885,0,0
0:3:48.265,431.549,54.9443,0,0.000885,0,0
0:3:48.768,432.429,55.0615,0,0.000885,0,0
0:3:49.260,432.839,55.1098,0,0.000885,0,0
0:3:49.764,433.546,55.1994,0,0.000885,0,0
0:3:50.266,435.303,55.427,0,0.000885,0,0
0:3:50.769,436.006,55.5166,0,0.000885,0,0
0:3:51.261,436.419,55.5648,0,0.000885,0,0
0:3:51.767,438.177,55.7924,0,0.000885,0,0
0:3:52.268,439.173,55.9165,0,0.000885,0,0
0:3:52.765,439.587,55.9716,0,0.000885,0,0
0:3:53.270,440.992,56.1509,0,0.000885,0,0
0:3:53.761,441.931,56.2681,0,0.000885,0,0
0:3:54.254,442.224,56.3026,0,0.000885,0,0
0:3:54.770,444.044,56.537,0,0.000885,0,0
0:3:55.274,445.276,56.6956,0,0.000885,0,0
0:3:55.767,446.33,56.8266,0,0.000885,0,0
0:3:56.260,447.62,56.9921,0,0.000885,0,0
0:3:56.757,448.443,57.0955,0,0.000885,0,0
0:3:57.262,448.559,57.1093,0,0.000885,0,0
0:3:57.761,449.03,57.1713,0,0.000885,0,0
0:3:58.271,450.729,57.392,0,0.000885,0,0
0:3:58.765,451.432,57.4816,0,0.000885,0,0
0:3:59.267,452.78,57.6471,0,0.000885,0,0
0:3:59.761,454.07,57.8125,0,0.000885,0,0
0:4:0.265,454.426,57.8608,0,0.000885,0,0
0:4:0.757,455.716,58.0263,0,0.000885,0,0
0:4:1.261,456.592,58.1366,0,0.000885,0,0
0:4:1.768,457.651,58.2676,0,0.000885,0,0
0:4:2.270,459.056,58.4469,0,0.000885,0,0
0:4:2.771,459.177,58.4606,0,0.000885,0,0
0:4:3.271,460.173,58.5916,0,0.000885,0,0
0:4:3.763,461.112,58.7089,0,0.000885,0,0
0:4:4.268,463.047,58.9571,0,0.000885,0,0
0:4:4.770,463.34,58.9915,0,0.000885,0,0
0:4:5.262,465.039,59.2122,0,0.000885,0,0
0:4:5.767,465.391,59.2535,0,0.000885,0,0
0:4:6.260,466.974,59.4604,0,0.000885,0,0
0:4:6.774,467.913,59.5776,0,0.000885,0,0
0:4:7.278,468.616,59.6672,0,0.000885,0,0
0:4:7.779,469.848,59.8258,0,0.000885,0,0
0:4:8.279,470.671,59.9292,0,0.000885,0,0
0:4:8.772,471.374,60.0189,0,0.000885,0,0
0:4:9.275,472.49,60.1568,0,0.000885,0,0
0:4:9.767,472.606,60.1774,0,0.000885,0,0
0:4:10.270,474.425,60.405,0,0.000885,0,0
0:4:10.760,474.776,60.4532,0,0.000885,0,0
0:4:11.269,476.947,60.729,0,0.000885,0,0
0:4:11.769,477.241,60.7635,0,0.000885,0,0
0:4:12.272,478.473,60.9221,0,0.000885,0,0
0:4:12.771,479.056,60.9979,0,0.000885,0,0
0:4:13.266,480.288,61.1496,0,0.000885,0,0
0:4:13.769,481.578,61.3151,0,0.000885,0,0
0:4:14.273,482.285,61.4047,0,0.000885,0,0
0:4:14.767,483.806,61.5978,0,0.000885,0,0
0:4:15.269,484.22,61.6529,0,0.000885,0,0
0:4:15.774,485.159,61.7701,0,0.000885,0,0
0:4:16.264,486.622,61.9563,0,0.000885,0,0
0:4:16.763,486.622,61.9563,0,0.000885,0,0
0:4:17.269,488.441,62.1907,0,0.000885,0,0
0:4:17.770,488.908,62.2528,0,0.000885,0,0
0:4:18.267,490.141,62.4044,0,0.000885,0,0
0:4:18.771,491.137,62.5354,0,0.000885,0,0
0:4:19.274,491.666,62.6044,0,0.000885,0,0
0:4:19.768,493.308,62.8112,0,0.000885,0,0
0:4:20.272,494.073,62.9078,0,0.000885,0,0
0:4:20.763,494.718,62.9905,0,0.000885,0,0
0:4:21.269,496.244,63.1836,0,0.000885,0,0
0:4:21.771,497.004,63.2801,0,0.000885,0,0
0:4:22.274,497.707,63.3697,0,0.000885,0,0
0:4:22.777,499.526,63.6041,0,0.000885,0,0
0:4:23.276,500.465,63.7213,0,0.000885,0,0
0:4:23.769,500.759,63.7558,0,0.000885,0,0
0:4:24.261,501.871,63.9006,0,0.000885,0,0
0:4:24.753,502.222,63.942,0,0.000885,0,0
0:4:25.259,504.219,64.1971,0,0.000885,0,0
0:4:25.773,504.455,64.2316,0,0.000885,0,0
0:4:26.276,506.212,64.4522,0,0.000885,0,0
0:4:26.779,506.563,64.5005,0,0.000885,0,0
0:4:27.280,507.911,64.6728,0,0.000885,0,0
0:4:27.780,508.498,64.7418,0,0.000885,0,0
0:4:28.273,509.143,64.8245,0,0.000885,0,0
0:4:28.776,510.26,64.9693,0,0.000885,0,0
0:4:29.271,511.844,65.1692,0,0.000885,0,0
0:4:29.774,513.191,65.3416,0,0.000885,0,0
0:4:30.270,514.014,65.445,0,0.000885,0,0
0:4:30.761,514.953,65.5622,0,0.000885,0,0
0:4:31.275,515.54,65.6381,0,0.000885,0,0
0:4:31.775,516.71,65.7898,0,0.000885,0,0
0:4:32.279,517.706,65.9139,0,0.000885,0,0
0:4:32.778,518.236,65.9828,0,0.000885,0,0
0:4:33.274,518.881,66.0656,0,0.000885,0,0
0:4:33.769,520.816,66.3138,0,0.000885,0,0
0:4:34.273,521.99,66.4586,0,0.000885,0,0
0:4:34.764,522.226,66.493,0,0.000885,0,0
0:4:35.269,523.458,66.6516,0,0.000885,0,0
0:4:35.762,524.392,66.7688,0,0.000885,0,0
0:4:36.265,526.038,66.9757,0,0.000885,0,0
0:4:36.757,526.683,67.0584,0,0.000885,0,0
0:4:37.262,527.443,67.1549,0,0.000885,0,0
0:4:37.763,528.324,67.2653,0,0.000885,0,0
0:4:38.264,529.85,67.4652,0,0.000885,0,0
0:4:38.766,530.023,67.4859,0,0.000885,0,0
0:4:39.272,531.198,67.6376,0,0.000885,0,0
0:4:39.762,531.901,67.7272,0,0.000885,0,0
0:4:40.266,533.191,67.8858,0,0.000885,0,0
0:4:40.759,534.013,67.9892,0,0.000885,0,0
0:4:41.254,534.601,68.065,0,0.000885,0,0
0:4:41.778,536.242,68.2788,0,0.000885,0,0
0:4:42.283,537.474,68.4305,0,0.000885,0,0
0:4:42.785,538.293,68.5408,0,0.000885,0,0
0:4:43.286,539.173,68.6511,0,0.000885,0,0
0:4:43.780,540.406,68.8097,0,0.000885,0,0
0:4:44.275,541.402,68.9338,0,0.000885,0,0
0:4:44.777,541.931,69.0027,0,0.000885,0,0
0:4:45.271,542.87,69.1199,0,0.000885,0,0
0:4:45.774,543.573,69.2096,0,0.000885,0,0
0:4:46.267,545.334,69.4371,0,0.000885,0,0
0:4:46.767,545.801,69.4923,0,0.000885,0,0
0:4:47.273,546.798,69.6233,0,0.000885,0,0
0:4:47.773,547.972,69.768,0,0.000885,0,0
0:4:48.276,549.084,69.9128,0,0.000885,0,0
0:4:48.772,549.849,70.0094,0,0.000885,0,0
0:4:49.276,551.255,70.1886,0,0.000885,0,0
0:4:49.771,551.842,70.2645,0,0.000885,0,0
0:4:50.274,553.19,70.4368,0,0.000885,0,0
0:4:50.767,553.897,70.5265,0,0.000885,0,0
0:4:51.272,554.836,70.6437,0,0.000885,0,0
0:4:51.778,555.712,70.754,0,0.000885,0,0
0:4:52.281,556.771,70.8919,0,0.000885,0,0
0:4:52.783,558.061,71.0574,0,0.000885,0,0
0:4:53.283,558.763,71.147,0,0.000885,0,0
0:4:53.779,559.818,71.278,0,0.000885,0,0
0:4:54.273,560.814,71.4021,0,0.000885,0,0
0:4:54.776,561.753,71.5262,0,0.000885,0,0
0:4:55.268,562.691,71.6434,0,0.000885,0,0
0:4:55.762,563.75,71.7813,0,0.000885,0,0
0:4:56.264,564.395,71.8641,0,0.000885,0,0
0:4:56.768,565.565,72.0088,0,0.000885,0,0
0:4:57.274,566.739,72.1605,0,0.000885,0,0
0:4:57.775,567.971,72.3191,0,0.000885,0,0
0:4:58.276,568.501,72.3812,0,0.000885,0,0
0:4:58.780,569.377,72.4984,0,0.000885,0,0
0:4:59.273,570.729,72.6707,0,0.000885,0,0
0:4:59.764,571.432,72.7604,0,0.000885,0,0
0:5:0.258,572.606,72.9052,0,0.000885,0,0
0:5:0.763,573.603,73.0362,0,0.000885,0,0
0:5:1.256,574.305,73.1258,0,0.000885,0,0
0:5:1.761,575.48,73.2706,0,0.000885,0,0
0:5:2.264,576.476,73.4016,0,0.000885,0,0
0:5:2.766,577.473,73.5257,0,0.000885,0,0
0:5:3.265,579.114,73.7325,0,0.000885,0,0
0:5:3.781,579.585,73.7946,0,0.000885,0,0
0:5:4.273,580.991,73.9739,0,0.000885,0,0
0:5:4.777,581.111,73.9876,0,0.000885,0,0
0:5:5.280,582.165,74.1255,0,0.000885,0,0
0:5:5.775,583.455,74.291,0,0.000885,0,0
0:5:6.266,584.452,74.4151,0,0.000885,0,0
0:5:6.768,585.742,74.5806,0,0.000885,0,0
0:5:7.269,586.445,74.6702,0,0.000885,0,0
0:5:7.767,586.68,74.6978,0,0.000885,0,0
0:5:8.274,587.797,74.8426,0,0.000885,0,0
0:5:8.779,589.438,75.0494,0,0.000885,0,0
0:5:9.273,590.67,75.208,0,0.000885,0,0
0:5:9.767,591.667,75.3321,0,0.000885,0,0
0:5:10.264,592.726,75.47,0,0.000885,0,0
0:5:10.761,593.077,75.5114,0,0.000885,0,0
0:5:11.266,594.425,75.6838,0,0.000885,0,0
0:5:11.770,595.248,75.7872,0,0.000885,0,0
0:5:12.278,595.95,75.8768,0,0.000885,0,0
0:5:12.780,596.773,75.9802,0,0.000885,0,0
0:5:13.277,597.89,76.125,0,0.000885,0,0
0:5:13.773,598.886,76.256,0,0.000885,0,0
0:5:14.279,600.354,76.4422,0,0.000885,0,0
0:5:14.774,600.941,76.5111,0,0.000885,0,0
0:5:15.270,602.058,76.6559,0,0.000885,0,0
0:5:15.766,603.406,76.8283,0,0.000885,0,0
0:5:16.275,603.993,76.9041,0,0.000885,0,0
0:5:16.777,604.874,77.0144,0,0.000885,0,0
0:5:17.282,606.284,77.1937,0,0.000885,0,0
0:5:17.786,606.693,77.2489,0,0.000885,0,0
0:5:18.285,607.867,77.3937,0,0.000885,0,0
0:5:18.781,608.69,77.504,0,0.000885,0,0
0:5:19.278,609.749,77.635,0,0.000885,0,0
0:5:19.773,611.332,77.8349,0,0.000885,0,0
0:5:20.267,612.213,77.9521,0,0.000885,0,0
0:5:20.776,612.449,77.9797,0,0.000885,0,0
0:5:21.274,613.681,78.1383,0,0.000885,0,0
0:5:21.774,615.265,78.3382,0,0.000885,0,0
0:5:22.280,615.91,78.421,0,0.000885,0,0
0:5:22.784,616.79,78.5313,0,0.000885,0,0
0:5:23.285,617.849,78.6692,0,0.000885,0,0
0:5:23.782,618.961,78.8071,0,0.000885,0,0
0:5:24.276,619.375,78.8622,0,0.000885,0,0
0:5:24.771,620.487,79.0001,0,0.000885,0,0
0:5:25.268,621.781,79.1656,0,0.000885,0,0
0:5:25.776,622.893,79.3104,0,0.000885,0,0
0:5:26.281,623.601,79.4,0,0.000885,0,0
0:5:26.777,623.952,79.4414,0,0.000885,0,0
0:5:27.283,625.42,79.6276,0,0.000885,0,0
0:5:27.786,626.536,79.7723,0,0.000885,0,0
0:5:28.290,627.711,79.924,0,0.000885,0,0
0:5:28.785,628.471,80.0206,0,0.000885,0,0
0:5:29.281,629.352,80.1309,0,0.000885,0,0
0:5:29.776,630.584,80.2894,0,0.000885,0,0
0:5:30.283,631.759,80.4411,0,0.000885,0,0
0:5:30.778,632.582,80.5446,0,0.000885,0,0
0:5:31.274,633.405,80.648,0,0.000885,0,0
0:5:31.780,634.223,80.7514,0,0.000885,0,0
0:5:32.285,635.397,80.9031,0,0.000885,0,0
0:5:32.786,635.984,80.9789,0,0.000885,0,0
0:5:33.282,637.279,81.1375,0,0.000885,0,0
0:5:33.777,638.92,81.3512,0,0.000885,0,0
0:5:34.272,639.098,81.3719,0,0.000885,0,0
0:5:34.781,640.562,81.5581,0,0.000885,0,0
0:5:35.276,641.211,81.6408,0,0.000885,0,0
0:5:35.769,642.559,81.8132,0,0.000885,0,0
0:5:36.278,643.03,81.8752,0,0.000885,0,0
0:5:36.780,644.378,82.0476,0,0.000885,0,0
0:5:37.286,645.673,82.2062,0,0.000885,0,0
0:5:37.787,645.966,82.2476,0,0.000885,0,0
0:5:38.285,646.785,82.351,0,0.000885,0,0
0:5:38.783,648.253,82.5371,0,0.000885,0,0
0:5:39.277,649.254,82.6681,0,0.000885,0,0
0:5:39.773,649.778,82.7302,0,0.000885,0,0
0:5:40.271,650.953,82.8819,0,0.000885,0,0
0:5:40.779,652.185,83.0405,0,0.000885,0,0
0:5:41.273,653.244,83.1715,0,0.000885,0,0
0:5:41.771,654.534,83.3369,0,0.000885,0,0
0:5:42.279,655.592,83.4748,0,0.000885,0,0
0:5:42.782,656.531,83.592,0,0.000885,0,0
0:5:43.285,657.412,83.7024,0,0.000885,0,0
0:5:43.780,657.879,83.7644,0,0.000885,0,0
0:5:44.276,659.173,83.9299,0,0.000885,0,0
0:5:44.770,659.76,84.0057,0,0.000885,0,0
0:5:45.278,660.641,84.116,0,0.000885,0,0
0:5:45.770,661.811,84.2677,0,0.000885,0,0
0:5:46.267,663.047,84.4194,0,0.000885,0,0
0:5:46.762,664.102,84.5573,0,0.000885,0,0
0:5:47.268,664.925,84.6607,0,0.000885,0,0
0:5:47.772,665.57,84.7435,0,0.000885,0,0
0:5:48.278,666.744,84.8951,0,0.000885,0,0
0:5:48.770,667.918,85.0399,0,0.000885,0,0
0:5:49.266,668.915,85.1709,0,0.000885,0,0
0:5:49.762,669.738,85.2744,0,0.000885,0,0
0:5:50.267,670.618,85.3847,0,0.000885,0,0
0:5:50.771,671.499,85.495,0,0.000885,0,0
0:5:51.270,673.203,85.7156,0,0.000885,0,0
0:5:51.778,673.963,85.8121,0,0.000885,0,0
0:5:52.281,674.551,85.888,0,0.000885,0,0
0:5:52.783,675.253,85.9776,0,0.000885,0,0
0:5:53.280,676.37,86.1155,0,0.000885,0,0
0:5:53.773,677.722,86.2879,0,0.000885,0,0
0:5:54.281,678.834,86.4327,0,0.000885,0,0
0:5:54.778,679.364,86.5016,0,0.000885,0,0
0:5:55.271,680.538,86.6464,0,0.000885,0,0
0:5:55.780,681.534,86.7774,0,0.000885,0,0
0:5:56.273,682.709,86.9222,0,0.000885,0,0
0:5:56.777,683.709,87.0532,0,0.000885,0,0
0:5:57.282,684.297,87.129,0,0.000885,0,0
0:5:57.783,685.293,87.2532,0,0.000885,0,0
0:5:58.283,686.583,87.4186,0,0.000885,0,0
0:5:58.780,687.464,87.5289,0,0.000885,0,0
0:5:59.274,688.051,87.6048,0,0.000885,0,0
0:5:59.771,689.225,87.7565,0,0.000885,0,0
0:6:0.275,690.284,87.8875,0,0.000885,0,0
0:6:0.783,691.102,87.9909,0,0.000885,0,0
0:6:1.278,692.512,88.1702,0,0.000885,0,0
0:6:1.774,693.393,88.2874,0,0.000885,0,0
0:6:2.282,694.39,88.4115,0,0.000885,0,0
0:6:2.785,695.39,88.5425,0,0.000885,0,0
0:6:3.287,696.445,88.6735,0,0.000885,0,0
0:6:3.782,697.09,88.7562,0,0.000885,0,0
0:6:4.280,697.855,88.8527,0,0.000885,0,0
0:6:4.774,699.265,89.032,0,0.000885,0,0
0:6:5.270,699.852,89.1078,0,0.000885,0,0
0:6:5.778,701.142,89.2733,0,0.000885,0,0
0:6:6.273,702.081,89.3905,0,0.000885,0,0
0:6:6.780,702.961,89.5008,0,0.000885,0,0
0:6:7.287,704.371,89.6801,0,0.000885,0,0
0:6:7.789,705.074,89.7697,0,0.000885,0,0
0:6:8.292,706.658,89.9766,0,0.000885,0,0
0:6:8.790,707.303,90.0593,0,0.000885,0,0
0:6:9.285,708.068,90.1558,0,0.000885,0,0
0:6:9.782,709.064,90.28,0,0.000885,0,0
0:6:10.287,710.474,90.4592,0,0.000885,0,0
0:6:10.784,711.177,90.5488,0,0.000885,0,0
0:6:11.279,711.942,90.6454,0,0.000885,0,0
0:6:11.784,712.765,90.7488,0,0.000885,0,0
0:6:12.289,713.468,90.8384,0,0.000885,0,0
0:6:12.794,714.585,90.9832,0,0.000885,0,0
0:6:13.296,715.99,91.1625,0,0.000885,0,0
0:6:13.794,716.577,91.2383,0,0.000885,0,0
0:6:14.289,717.814,91.3969,0,0.000885,0,0
0:6:14.786,719.104,91.5624,0,0.000885,0,0
0:6:15.281,719.513,91.6106,0,0.000885,0,0
0:6:15.777,720.63,91.7554,0,0.000885,0,0
0:6:16.271,721.746,91.8933,0,0.000885,0,0
0:6:16.768,722.04,91.9347,0,0.000885,0,0
0:6:17.272,723.623,92.1346,0,0.000885,0,0
0:6:17.776,724.504,92.245,0,0.000885,0,0
0:6:18.281,726.266,92.4725,0,0.000885,0,0
0:6:18.774,726.501,92.5001,0,0.000885,0,0
0:6:19.271,727.907,92.6793,0,0.000885,0,0
0:6:19.776,728.73,92.7827,0,0.000885,0,0
0:6:20.273,729.317,92.8586,0,0.000885,0,0
0:6:20.780,730.901,93.0585,0,0.000885,0,0
0:6:21.286,731.959,93.1964,0,0.000885,0,0
0:6:21.792,732.662,93.2861,0,0.000885,0,0
0:6:22.296,733.191,93.355,0,0.000885,0,0
0:6:22.800,734.659,93.5412,0,0.000885,0,0
0:6:23.297,736.007,93.7135,0,0.000885,0,0
0:6:23.793,736.363,93.7549,0,0.000885,0,0
0:6:24.290,737.533,93.9066,0,0.000885,0,0
0:6:24.784,738.062,93.9755,0,0.000885,0,0
0:6:25.281,739.357,94.1341,0,0.000885,0,0
0:6:25.775,740.589,94.2927,0,0.000885,0,0
0:6:26.270,741.643,94.4306,0,0.000885,0,0
0:6:26.774,742.582,94.5478,0,0.000885,0,0
0:6:27.282,743.462,94.6581,0,0.000885,0,0
0:6:27.784,743.992,94.7271,0,0.000885,0,0
0:6:28.282,744.988,94.8581,0,0.000885,0,0
0:6:28.788,746.576,95.058,0,0.000885,0,0
0:6:29.284,747.573,95.1821,0,0.000885,0,0
0:6:29.781,748.569,95.3131,0,0.000885,0,0
0:6:30.285,749.214,95.3959,0,0.000885,0,0
0:6:30.784,750.33,95.5338,0,0.000885,0,0
0:6:31.277,751.563,95.6923,0,0.000885,0,0
0:6:31.787,751.976,95.7475,0,0.000885,0,0
0:6:32.291,752.679,95.8371,0,0.000885,0,0
0:6:32.795,754.498,96.0647,0,0.000885,0,0
0:6:33.298,754.908,96.1198,0,0.000885,0,0
0:6:33.794,755.966,96.2508,0,0.000885,0,0
0:6:34.290,757.319,96.4232,0,0.000885,0,0
0:6:34.785,757.786,96.4852,0,0.000885,0,0
0:6:35.290,759.138,96.6576,0,0.000885,0,0
0:6:35.786,759.899,96.7541,0,0.000885,0,0
0:6:36.281,760.779,96.8644,0,0.000885,0,0
0:6:36.786,761.309,96.9334,0,0.000885,0,0
0:6:37.291,763.364,97.1954,0,0.000885,0,0
0:6:37.795,764.769,97.3747,0,0.000885,0,0
0:6:38.298,765.005,97.4022,0,0.000885,0,0
0:6:38.794,766.237,97.5608,0,0.000885,0,0
0:6:39.290,767.532,97.7263,0,0.000885,0,0
0:6:39.784,768.057,97.7952,0,0.000885,0,0
0:6:40.289,769.293,97.9469,0,0.000885,0,0
0:6:40.783,769.938,98.0297,0,0.000885,0,0
0:6:41.278,770.347,98.0848,0,0.000885,0,0
0:6:41.786,771.464,98.2227,0,0.000885,0,0
0:6:42.289,773.225,98.4502,0,0.000885,0,0
0:6:42.791,774.28,98.5812,0,0.000885,0,0
0:6:43.287,774.867,98.6571,0,0.000885,0,0
0:6:43.782,776.157,98.8226,0,0.000885,0,0
0:6:44.290,776.686,98.8915,0,0.000885,0,0
0:6:44.784,777.981,99.057,0,0.000885,0,0
0:6:45.278,778.154,99.0777,0,0.000885,0,0
0:6:45.774,779.916,99.3052,0,0.000885,0,0
0:6:46.269,780.325,99.3535,0,0.000885,0,0
0:6:46.769,782.206,99.5948,0,0.000885,0,0
0:6:47.275,782.909,99.6844,0,0.000885,0,0
0:6:47.777,783.381,99.7396,0,0.000885,0,0
0:6:48.277,784.377,99.8706,0,0.000885,0,0
0:6:48.774,785.316,99.9878,0,0.000885,0,0
0:6:49.270,786.726,100.167,0,0.000885,0,0
0:6:49.776,787.429,100.257,0,0.000885,0,0
0:6:50.283,788.781,100.429,0,0.000885,0,0
0:6:50.775,789.248,100.491,0,0.000885,0,0
0:6:51.272,790.187,100.608,0,0.000885,0,0
0:6:51.767,791.303,100.753,0,0.000885,0,0
0:6:52.273,792.771,100.939,0,0.000885,0,0
0:6:52.776,792.887,100.953,0,0.000885,0,0
0:6:53.278,794.297,101.132,0,0.000885,0,0
0:6:53.786,795.822,101.325,0,0.000885,0,0
0:6:54.292,797.175,101.498,0,0.000885,0,0
0:6:54.787,797.29,101.512,0,0.000885,0,0
0:6:55.281,798.58,101.677,0,0.000885,0,0
0:6:55.776,798.936,101.725,0,0.000885,0,0
0:6:56.271,800.048,101.863,0,0.000885,0,0
0:6:56.778,801.4,102.036,0,0.000885,0,0
0:6:57.279,802.926,102.229,0,0.000885,0,0
0:6:57.781,803.1,102.256,0,0.000885,0,0
0:6:58.288,804.274,102.401,0,0.000885,0,0
0:6:58.780,804.861,102.477,0,0.000885,0,0
0:6:59.277,806.507,102.691,0,0.000885,0,0
0:6:59.772,807.388,102.801,0,0.000885,0,0
0:7:0.268,807.152,102.766,0,0.000885,0,0
0:7:0.772,809.443,103.063,0,0.000885,0,0
0:7:1.269,810.733,103.228,0,0.000885,0,0
0:7:1.773,810.911,103.249,0,0.000885,0,0
0:7:2.280,812.494,103.449,0,0.000885,0,0
0:7:2.781,812.961,103.511,0,0.000885,0,0
0:7:3.278,814.198,103.67,0,0.000885,0,0
0:7:3.775,815.017,103.773,0,0.000885,0,0
0:7:4.272,816.427,103.952,0,0.000885,0,0
0:7:4.776,817.129,104.042,0,0.000885,0,0
0:7:5.271,817.423,104.076,0,0.000885,0,0
0:7:5.767,819.598,104.352,0,0.000885,0,0
0:7:6.273,819.772,104.38,0,0.000885,0,0
0:7:6.778,820.652,104.49,0,0.000885,0,0
0:7:7.286,822.65,104.745,0,0.000885,0,0
0:7:7.789,822.885,104.773,0,0.000885,0,0
0:7:8.289,823.704,104.876,0,0.000885,0,0
0:7:8.786,824.82,105.021,0,0.000885,0,0
0:7:9.290,825.995,105.166,0,0.000885,0,0
0:7:9.785,827.049,105.304,0,0.000885,0,0
0:7:10.278,827.463,105.359,0,0.000885,0,0
0:7:10.774,829.398,105.6,0,0.000885,0,0
0:7:11.279,830.163,105.697,0,0.000885,0,0
0:7:11.773,830.398,105.731,0,0.000885,0,0
0:7:12.278,831.101,105.821,0,0.000885,0,0
0:7:12.782,833.099,106.076,0,0.000885,0,0
0:7:13.286,833.744,106.159,0,0.000885,0,0
0:7:13.782,834.095,106.2,0,0.000885,0,0
0:7:14.277,835.741,106.407,0,0.000885,0,0
0:7:14.772,836.386,106.49,0,0.000885,0,0
0:7:15.269,838.027,106.703,0,0.000885,0,0
0:7:15.775,839.495,106.889,0,0.000885,0,0
0:7:16.271,840.26,106.986,0,0.000885,0,0
0:7:16.777,841.021,107.082,0,0.000885,0,0
0:7:17.281,841.608,107.158,0,0.000885,0,0
0:7:17.786,843.018,107.338,0,0.000885,0,0
0:7:18.289,843.779,107.434,0,0.000885,0,0
0:7:18.783,844.308,107.503,0,0.000885,0,0
0:7:19.290,845.073,107.6,0,0.000885,0,0
0:7:19.784,845.598,107.669,0,0.000885,0,0
0:7:20.280,847.36,107.889,0,0.000885,0,0
0:7:20.789,848.476,108.034,0,0.000885,0,0
0:7:21.282,849.179,108.124,0,0.000885,0,0
0:7:21.781,850.415,108.275,0,0.000885,0,0
0:7:22.289,851.648,108.434,0,0.000885,0,0
0:7:22.790,853.409,108.661,0,0.000885,0,0
0:7:23.291,853.876,108.717,0,0.000885,0,0
0:7:23.788,854.348,108.779,0,0.000885,0,0
0:7:24.282,855.108,108.875,0,0.000885,0,0
0:7:24.790,856.518,109.054,0,0.000885,0,0
0:7:25.283,856.812,109.096,0,0.000885,0,0
0:7:25.778,857.986,109.241,0,0.000885,0,0
0:7:26.275,859.69,109.461,0,0.000885,0,0
0:7:26.779,860.629,109.578,0,0.000885,0,0
0:7:27.283,861.096,109.64,0,0.000885,0,0
0:7:27.790,861.683,109.716,0,0.000885,0,0
0:7:28.290,862.506,109.82,0,0.000885,0,0
0:7:28.785,863.974,110.006,0,0.000885,0,0
0:7:29.283,864.912,110.123,0,0.000885,0,0
0:7:29.789,865.499,110.199,0,0.000885,0,0
0:7:30.288,866.674,110.351,0,0.000885,0,0
0:7:30.781,868.022,110.523,0,0.000885,0,0
0:7:31.277,869.254,110.675,0,0.000885,0,0
0:7:31.781,869.725,110.737,0,0.000885,0,0
0:7:32.289,870.722,110.861,0,0.000885,0,0
0:7:32.790,871.838,111.006,0,0.000885,0,0
0:7:33.294,873.07,111.164,0,0.000885,0,0
0:7:33.792,873.778,111.254,0,0.000885,0,0
0:7:34.287,874.423,111.337,0,0.000885,0,0
0:7:34.782,875.419,111.461,0,0.000885,0,0
0:7:35.288,876.535,111.605,0,0.000885,0,0
0:7:35.784,877.71,111.75,0,0.000885,0,0
0:7:36.278,878.59,111.867,0,0.000885,0,0
0:7:36.782,879.703,112.005,0,0.000885,0,0
0:7:37.289,880.819,112.15,0,0.000885,0,0
0:7:37.791,881.17,112.191,0,0.000885,0,0
0:7:38.285,882.109,112.316,0,0.000885,0,0
0:7:38.792,883.639,112.509,0,0.000885,0,0
0:7:39.288,884.636,112.633,0,0.000885,0,0
0:7:39.783,885.281,112.715,0,0.000885,0,0
0:7:40.279,886.571,112.881,0,0.000885,0,0
0:7:40.775,886.926,112.929,0,0.000885,0,0
0:7:41.272,888.452,113.122,0,0.000885,0,0
0:7:41.773,889.271,113.226,0,0.000885,0,0
0:7:42.278,890.503,113.384,0,0.000885,0,0
0:7:42.780,891.913,113.564,0,0.000885,0,0
0:7:43.281,892.264,113.605,0,0.000885,0,0
0:7:43.775,893.91,113.819,0,0.000885,0,0
0:7:44.273,894.377,113.874,0,0.000885,0,0
0:7:44.768,895.965,114.081,0,0.000885,0,0
0:7:45.265,897.077,114.219,0,0.000885,0,0
0:7:45.759,897.313,114.246,0,0.000885,0,0
0:7:46.255,897.785,114.308,0,0.000885,0,0
0:7:46.753,899.897,114.577,0,0.000885,0,0
0:7:47.261,900.365,114.639,0,0.000885,0,0
0:7:47.764,901.014,114.722,0,0.000885,0,0
0:7:48.266,902.126,114.86,0,0.000885,0,0
0:7:48.762,903.3,115.011,0,0.000885,0,0
0:7:49.258,904.533,115.17,0,0.000885,0,0
0:7:49.755,905.649,115.308,0,0.000885,0,0
0:7:50.250,906.588,115.432,0,0.000885,0,0
0:7:50.747,906.588,115.432,0,0.000885,0,0
0:7:51.243,908.291,115.646,0,0.000885,0,0
0:7:51.741,908.994,115.735,0,0.000885,0,0
0:7:52.247,910.111,115.88,0,0.000885,0,0
0:7:52.749,910.582,115.935,0,0.000885,0,0
0:7:53.253,912.695,116.211,0,0.000885,0,0
0:7:53.748,913.282,116.28,0,0.000885,0,0
0:7:54.245,913.869,116.356,0,0.000885,0,0
0:7:54.740,915.039,116.508,0,0.000885,0,0
0:7:55.236,916.569,116.701,0,0.000885,0,0
0:7:55.732,917.508,116.818,0,0.000885,0,0
0:7:56.227,918.389,116.935,0,0.000885,0,0
0:7:56.722,918.447,116.942,0,0.000885,0,0
0:7:57.228,919.621,117.087,0,0.000885,0,0
0:7:57.732,920.617,117.218,0,0.000885,0,0
0:7:58.234,921.849,117.376,0,0.000885,0,0
0:7:58.732,923.144,117.535,0,0.000885,0,0
0:7:59.229,923.905,117.638,0,0.000885,0,0
0:7:59.723,924.492,117.707,0,0.000885,0,0
0:8:0.219,926.195,117.928,0,0.000885,0,0
0:8:0.712,926.489,117.962,0,0.000885,0,0
0:8:1.209,928.25,118.19,0,0.000885,0,0
0:8:1.715,928.775,118.259,0,0.000885,0,0
0:8:2.218,929.362,118.328,0,0.000885,0,0
0:8:2.721,931.124,118.555,0,0.000885,0,0
0:8:3.216,931.947,118.659,0,0.000885,0,0
0:8:3.712,932.414,118.721,0,0.000885,0,0
0:8:4.208,933.237,118.824,0,0.000885,0,0
0:8:4.704,934.705,119.01,0,0.000885,0,0
0:8:5.202,936.231,119.203,0,0.000885,0,0
0:8:5.696,936.938,119.293,0,0.000885,0,0
0:8:6.200,937.525,119.369,0,0.000885,0,0
0:8:6.701,938.464,119.486,0,0.000885,0,0
0:8:7.208,940.105,119.7,0,0.000885,0,0
0:8:7.709,941.164,119.831,0,0.000885,0,0
0:8:8.211,940.812,119.79,0,0.000885,0,0
0:8:8.708,942.983,120.065,0,0.000885,0,0
0:8:9.203,943.277,120.1,0,0.000885,0,0
0:8:9.699,944.567,120.265,0,0.000885,0,0
0:8:10.196,945.799,120.424,0,0.000885,0,0
0:8:10.688,946.386,120.5,0,0.000885,0,0
0:8:11.185,947.796,120.679,0,0.000885,0,0
0:8:11.680,948.734,120.796,0,0.000885,0,0
0:8:12.186,949.379,120.879,0,0.000885,0,0
0:8:12.692,950.024,120.962,0,0.000885,0,0
0:8:13.195,951.67,121.168,0,0.000885,0,0
0:8:13.700,952.845,121.32,0,0.000885,0,0
0:8:14.196,953.312,121.382,0,0.000885,0,0
0:8:14.689,954.192,121.493,0,0.000885,0,0
0:8:15.185,955.838,121.699,0,0.000885,0,0
0:8:15.680,956.541,121.789,0,0.000885,0,0
0:8:16.177,957.07,121.858,0,0.000885,0,0
0:8:16.681,958.125,121.996,0,0.000885,0,0
0:8:17.186,959.361,122.148,0,0.000885,0,0
0:8:17.688,959.828,122.21,0,0.000885,0,0
0:8:18.183,961.532,122.423,0,0.000885,0,0
0:8:18.688,961.706,122.451,0,0.000885,0,0
0:8:19.185,963.351,122.658,0,0.000885,0,0
0:8:19.681,964.174,122.761,0,0.000885,0,0
0:8:20.187,964.761,122.837,0,0.000885,0,0
0:8:20.683,966.874,123.106,0,0.000885,0,0
0:8:21.178,966.754,123.092,0,0.000885,0,0
0:8:21.679,967.813,123.223,0,0.000885,0,0
0:8:22.187,969.103,123.389,0,0.000885,0,0
0:8:22.688,969.396,123.43,0,0.000885,0,0
0:8:23.186,971.274,123.664,0,0.000885,0,0
0:8:23.683,971.567,123.706,0,0.000885,0,0
0:8:24.188,973.507,123.954,0,0.000885,0,0
0:8:24.696,973.8,123.988,0,0.000885,0,0
0:8:25.189,975.148,124.161,0,0.000885,0,0
0:8:25.697,976.616,124.347,0,0.000885,0,0
0:8:26.190,975.793,124.244,0,0.000885,0,0
0:8:26.699,977.906,124.512,0,0.000885,0,0
0:8:27.205,979.436,124.705,0,0.000885,0,0
0:8:27.707,979.73,124.74,0,0.000885,0,0
0:8:28.211,981.549,124.974,0,0.000885,0,0
0:8:28.706,981.78,125.002,0,0.000885,0,0
0:8:29.200,982.194,125.057,0,0.000885,0,0
0:8:29.697,983.835,125.264,0,0.000885,0,0
0:8:30.193,984.071,125.298,0,0.000885,0,0
0:8:30.697,985.597,125.491,0,0.000885,0,0
0:8:31.195,987.065,125.678,0,0.000885,0,0
0:8:31.687,987.536,125.74,0,0.000885,0,0
0:8:32.195,988.768,125.891,0,0.000885,0,0
0:8:32.698,990.058,126.057,0,0.000885,0,0
0:8:33.202,990.703,126.14,0,0.000885,0,0
0:8:33.698,991.704,126.271,0,0.000885,0,0
0:8:34.196,993.461,126.491,0,0.000885,0,0
0:8:34.700,993.817,126.539,0,0.000885,0,0
0:8:35.198,994.284,126.595,0,0.000885,0,0
0:8:35.691,995.752,126.781,0,0.000885,0,0
0:8:36.197,995.81,126.788,0,0.000885,0,0
0:8:36.702,997.807,127.043,0,0.000885,0,0
0:8:37.206,997.865,127.05,0,0.000885,0,0
0:8:37.710,999.511,127.263,0,0.000885,0,0
0:8:38.206,1000.1,127.339,0,0.000885,0,0
0:8:38.702,1001.15,127.47,0,0.000885,0,0
0:8:39.198,1002.74,127.67,0,0.000885,0,0
0:8:39.695,1002.91,127.698,0,0.000885,0,0
0:8:40.199,1004.27,127.87,0,0.000885,0,0
0:8:40.695,1005.38,128.008,0,0.000885,0,0
0:8:41.189,1006.49,128.153,0,0.000885,0,0
0:8:41.696,1006.38,128.139,0,0.000885,0,0
0:8:42.201,1008.37,128.387,0,0.000885,0,0
0:8:42.590,751.447,95.6785,0,0.000885,0,0