File: DataFile2021-07-17_061707.csv
Test ID:,Date Tested:,Time:,Test Type:,Diameter Avg. (mm):,Cyl. Corr. Factor:,Height (mm):,Age (days):,Weight (kN):,Break Type:,Ramp Rate (MPa/s):,Load at Break (kN):,Stress at Break (MPa):
12,7/17/2021,06:17,Cylinder,100,1,200,0,3.6,Invalid/No Break,0.23,453.6,57.76
Sample Time,Load (kN),Stress (MPa),Long. Strain,Trans. Strain,Chan1 Deflection (mm),Chan2 Deflection (mm)
0:0:8.166,5.15994,0.655002,0,0.000885,0,0
0:0:8.465,6.92143,0.882529,0,0.000885,0,0
0:0:8.760,7.21502,0.917003,0,0.000885,0,0
0:0:9.063,7.21502,0.917003,0,0.000885,0,0
0:0:9.369,7.68208,0.979056,0,0.000885,0,0
0:0:9.667,7.97566,1.01353,0,0.000885,0,0
0:0:9.966,8.21142,1.048,0,0.000885,0,0
0:0:10.258,9.03434,1.15142,0,0.000885,0,0
0:0:10.563,9.03434,1.15142,0,0.000885,0,0
0:0:10.855,10.6179,1.35137,0,0.000885,0,0
0:0:11.155,10.6179,1.35137,0,0.000885,0,0
0:0:11.452,10.9693,1.39964,0,0.000885,0,0
0:0:11.751,11.6721,1.48927,0,0.000885,0,0
0:0:12.051,12.2593,1.55822,0,0.000885,0,0
0:0:12.346,13.1979,1.68232,0,0.000885,0,0
0:0:12.647,14.0742,1.79264,0,0.000885,0,0
0:0:12.953,13.785,1.75816,0,0.000885,0,0
0:0:13.251,14.8393,1.88916,0,0.000885,0,0
0:0:13.559,15.8935,2.02706,0,0.000885,0,0
0:0:13.865,16.1871,2.06153,0,0.000885,0,0
0:0:14.168,16.1871,2.06153,0,0.000885,0,0
0:0:14.472,17.4192,2.22011,0,0.000885,0,0
0:0:14.776,18.0064,2.29595,0,0.000885,0,0
0:0:15.078,18.3578,2.33732,0,0.000885,0,0
0:0:15.376,19.1185,2.43385,0,0.000885,0,0
0:0:15.678,19.59,2.4959,0,0.000885,0,0
0:0:15.973,20.5285,2.61311,0,0.000885,0,0
0:0:16.273,21.2314,2.70274,0,0.000885,0,0
0:0:16.570,21.5828,2.75101,0,0.000885,0,0
0:0:16.868,22.5213,2.86822,0,0.000885,0,0
0:0:17.171,23.6378,3.00611,0,0.000885,0,0
0:0:17.464,24.4563,3.11643,0,0.000885,0,0
0:0:17.766,24.9857,3.17848,0,0.000885,0,0
0:0:18.060,25.1591,3.20606,0,0.000885,0,0
0:0:18.372,25.3949,3.23364,0,0.000885,0,0
0:0:18.669,26.3913,3.35775,0,0.000885,0,0
0:0:18.973,26.805,3.4129,0,0.000885,0,0
0:0:19.278,27.0363,3.44048,0,0.000885,0,0
0:0:19.581,27.3877,3.48875,0,0.000885,0,0
0:0:19.884,28.2684,3.59906,0,0.000885,0,0
0:0:20.186,28.3886,3.61285,0,0.000885,0,0
0:0:20.485,28.9134,3.6818,0,0.000885,0,0
0:0:20.785,29.207,3.71627,0,0.000885,0,0
0:0:21.079,29.4428,3.75075,0,0.000885,0,0
0:0:21.383,31.0842,3.95759,0,0.000885,0,0
0:0:21.680,31.6135,4.02654,0,0.000885,0,0
0:0:21.979,32.2585,4.10928,0,0.000885,0,0
0:0:22.277,32.9035,4.19201,0,0.000885,0,0
0:0:22.574,33.7842,4.30233,0,0.000885,0,0
0:0:22.876,34.3091,4.37128,0,0.000885,0,0
0:0:23.169,34.7806,4.42643,0,0.000885,0,0
0:0:23.473,35.4835,4.51607,0,0.000885,0,0
0:0:23.777,35.5991,4.52986,0,0.000885,0,0
0:0:24.082,36.1863,4.6057,0,0.000885,0,0
0:0:24.385,36.3064,4.61949,0,0.000885,0,0
0:0:24.686,36.8313,4.68843,0,0.000885,0,0
0:0:24.989,37.7698,4.81254,0,0.000885,0,0
0:0:25.287,39.4735,5.02628,0,0.000885,0,0
0:0:25.586,40.1763,5.11591,0,0.000885,0,0
0:0:25.885,40.1763,5.11591,0,0.000885,0,0
0:0:26.181,40.9948,5.21933,0,0.000885,0,0
0:0:26.483,41.2884,5.25381,0,0.000885,0,0
0:0:26.781,42.1113,5.36412,0,0.000885,0,0
0:0:27.078,42.227,5.37791,0,0.000885,0,0
0:0:27.377,42.5206,5.41238,0,0.000885,0,0
0:0:27.675,43.2234,5.50202,0,0.000885,0,0
0:0:27.977,43.8105,5.57786,0,0.000885,0,0
0:0:28.272,44.1619,5.62612,0,0.000885,0,0
0:0:28.575,45.1628,5.75023,0,0.000885,0,0
0:0:28.879,45.1628,5.75023,0,0.000885,0,0
0:0:29.183,46.217,5.88123,0,0.000885,0,0
0:0:29.486,46.6263,5.93639,0,0.000885,0,0
0:0:29.787,47.5648,6.0536,0,0.000885,0,0
0:0:30.089,48.2677,6.14323,0,0.000885,0,0
0:0:30.384,49.0906,6.25354,0,0.000885,0,0
0:0:30.682,49.3263,6.28112,0,0.000885,0,0
0:0:30.985,49.8512,6.35007,0,0.000885,0,0
0:0:31.280,50.4962,6.43281,0,0.000885,0,0
0:0:31.582,51.377,6.54312,0,0.000885,0,0
0:0:31.880,52.0798,6.63276,0,0.000885,0,0
0:0:32.178,52.3734,6.66723,0,0.000885,0,0
0:0:32.478,53.1385,6.76376,0,0.000885,0,0
0:0:32.772,53.432,6.80513,0,0.000885,0,0
0:0:33.075,54.0192,6.88097,0,0.000885,0,0
0:0:33.371,54.722,6.9706,0,0.000885,0,0
0:0:33.673,55.1313,7.01886,0,0.000885,0,0
0:0:33.977,55.3092,7.03955,0,0.000885,0,0
0:0:34.282,56.012,7.12918,0,0.000885,0,0
0:0:34.585,56.5992,7.20502,0,0.000885,0,0
0:0:34.888,57.7691,7.35671,0,0.000885,0,0
0:0:35.190,58.4763,7.44634,0,0.000885,0,0
0:0:35.487,58.8277,7.48771,0,0.000885,0,0
0:0:35.782,59.6462,7.59113,0,0.000885,0,0
0:0:36.084,59.9976,7.63939,0,0.000885,0,0
0:0:36.378,60.2912,7.67386,0,0.000885,0,0
0:0:36.680,60.8205,7.74281,0,0.000885,0,0
0:0:36.975,61.8169,7.87381,0,0.000885,0,0
0:0:37.275,62.0527,7.90139,0,0.000885,0,0
0:0:37.577,63.1069,8.03239,0,0.000885,0,0
0:0:37.871,63.6363,8.10134,0,0.000885,0,0
0:0:38.174,64.2234,8.17718,0,0.000885,0,0
0:0:38.468,64.5748,8.21855,0,0.000885,0,0
0:0:38.772,65.3933,8.32887,0,0.000885,0,0
0:0:39.077,65.807,8.37713,0,0.000885,0,0
0:0:39.379,66.2162,8.43229,0,0.000885,0,0
0:0:39.682,66.2162,8.43229,0,0.000885,0,0
0:0:39.986,67.3327,8.57018,0,0.000885,0,0
0:0:40.286,67.8576,8.63913,0,0.000885,0,0
0:0:40.585,68.7384,8.74945,0,0.000885,0,0
0:0:40.882,69.0898,8.79771,0,0.000885,0,0
0:0:41.182,69.6769,8.87355,0,0.000885,0,0
0:0:41.479,70.2063,8.93561,0,0.000885,0,0
0:0:41.782,71.6119,9.11487,0,0.000885,0,0
0:0:42.076,72.2569,9.19761,0,0.000885,0,0
0:0:42.374,72.4927,9.23208,0,0.000885,0,0
0:0:42.674,73.4312,9.34929,0,0.000885,0,0
0:0:42.970,73.5469,9.36308,0,0.000885,0,0
0:0:43.272,74.2497,9.45271,0,0.000885,0,0
0:0:43.567,74.6056,9.50098,0,0.000885,0,0
0:0:43.871,75.3084,9.59061,0,0.000885,0,0
0:0:44.176,75.7755,9.64577,0,0.000885,0,0
0:0:44.480,76.6562,9.76298,0,0.000885,0,0
0:0:44.783,77.1233,9.81813,0,0.000885,0,0
0:0:45.085,77.4168,9.8595,0,0.000885,0,0
0:0:45.386,78.4177,9.98361,0,0.000885,0,0
0:0:45.684,78.649,10.0112,0,0.000885,0,0
0:0:45.982,79.1783,10.0801,0,0.000885,0,0
0:0:46.282,79.5298,10.1284,0,0.000885,0,0
0:0:46.578,80.2326,10.218,0,0.000885,0,0
0:0:46.880,81.1133,10.3283,0,0.000885,0,0
0:0:47.174,81.7583,10.4111,0,0.000885,0,0
0:0:47.476,82.5812,10.5145,0,0.000885,0,0
0:0:47.773,83.0483,10.5766,0,0.000885,0,0
0:0:48.072,83.9869,10.6938,0,0.000885,0,0
0:0:48.372,84.2226,10.7213,0,0.000885,0,0
0:0:48.675,84.4584,10.7558,0,0.000885,0,0
0:0:48.980,85.5704,10.8937,0,0.000885,0,0
0:0:49.283,85.6905,10.9075,0,0.000885,0,0
0:0:49.586,86.6247,11.0316,0,0.000885,0,0
0:0:49.888,87.154,11.0937,0,0.000885,0,0
0:0:50.185,87.799,11.1764,0,0.000885,0,0
0:0:50.487,88.6219,11.2867,0,0.000885,0,0
0:0:50.780,88.5641,11.2729,0,0.000885,0,0
0:0:51.083,89.3826,11.3832,0,0.000885,0,0
0:0:51.381,89.9119,11.4453,0,0.000885,0,0
0:0:51.679,90.6147,11.5349,0,0.000885,0,0
0:0:51.979,91.3754,11.6315,0,0.000885,0,0
0:0:52.274,91.7312,11.6797,0,0.000885,0,0
0:0:52.577,92.0826,11.7211,0,0.000885,0,0
0:0:52.871,93.079,11.8521,0,0.000885,0,0
0:0:53.172,93.6084,11.921,0,0.000885,0,0
0:0:53.470,93.6084,11.921,0,0.000885,0,0
0:0:53.774,94.3112,12.0107,0,0.000885,0,0
0:0:54.079,95.659,12.183,0,0.000885,0,0
0:0:54.381,96.3618,12.2727,0,0.000885,0,0
0:0:54.684,96.7755,12.3209,0,0.000885,0,0
0:0:54.987,96.6554,12.3071,0,0.000885,0,0
0:0:55.286,97.4783,12.4106,0,0.000885,0,0
0:0:55.586,98.5326,12.5485,0,0.000885,0,0
0:0:55.881,98.2968,12.514,0,0.000885,0,0
0:0:56.184,99.3555,12.6519,0,0.000885,0,0
0:0:56.480,99.529,12.6726,0,0.000885,0,0
0:0:56.780,100.41,12.7829,0,0.000885,0,0
0:0:57.077,101.113,12.8725,0,0.000885,0,0
0:0:57.375,101.7,12.9484,0,0.000885,0,0
0:0:57.677,101.993,12.9828,0,0.000885,0,0
0:0:57.970,102.874,13.1,0,0.000885,0,0
0:0:58.272,103.519,13.1828,0,0.000885,0,0
0:0:58.570,103.755,13.2104,0,0.000885,0,0
0:0:58.874,104.458,13.3,0,0.000885,0,0
0:0:59.179,105.103,13.3827,0,0.000885,0,0
0:0:59.482,105.983,13.493,0,0.000885,0,0
0:0:59.784,106.566,13.5689,0,0.000885,0,0
0:1:0.088,107.273,13.6585,0,0.000885,0,0
0:1:0.386,108.212,13.7757,0,0.000885,0,0
0:1:0.686,107.976,13.7481,0,0.000885,0,0
0:1:0.982,109.324,13.9205,0,0.000885,0,0
0:1:1.284,109.502,13.9412,0,0.000885,0,0
0:1:1.579,109.56,13.9481,0,0.000885,0,0
0:1:1.880,110.263,14.0377,0,0.000885,0,0
0:1:2.177,110.672,14.0929,0,0.000885,0,0
0:1:2.476,111.788,14.2308,0,0.000885,0,0
0:1:2.777,112.197,14.2859,0,0.000885,0,0
0:1:3.071,113.136,14.4031,0,0.000885,0,0
0:1:3.374,113.723,14.479,0,0.000885,0,0
0:1:3.679,114.368,14.5617,0,0.000885,0,0
0:1:3.984,114.955,14.6376,0,0.000885,0,0
0:1:4.286,115.543,14.7134,0,0.000885,0,0
0:1:4.589,115.836,14.7479,0,0.000885,0,0
0:1:4.891,116.833,14.8789,0,0.000885,0,0
0:1:5.189,117.068,14.9065,0,0.000885,0,0
0:1:5.489,117.126,14.9134,0,0.000885,0,0
0:1:5.787,118.358,15.0719,0,0.000885,0,0
0:1:6.085,118.416,15.0788,0,0.000885,0,0
0:1:6.385,119.003,15.1547,0,0.000885,0,0
0:1:6.680,120.351,15.3202,0,0.000885,0,0
0:1:6.982,120.115,15.2926,0,0.000885,0,0
0:1:7.277,121.232,15.4374,0,0.000885,0,0
0:1:7.578,121.757,15.4994,0,0.000885,0,0
0:1:7.876,121.935,15.527,0,0.000885,0,0
0:1:8.175,123.167,15.6787,0,0.000885,0,0
0:1:8.477,123.692,15.7476,0,0.000885,0,0
0:1:8.780,124.572,15.8579,0,0.000885,0,0
0:1:9.084,124.693,15.8786,0,0.000885,0,0
0:1:9.388,125.569,15.9889,0,0.000885,0,0
0:1:9.688,125.631,15.9958,0,0.000885,0,0
0:1:9.991,126.685,16.1268,0,0.000885,0,0
0:1:10.287,126.685,16.1268,0,0.000885,0,0
0:1:10.589,127.388,16.2165,0,0.000885,0,0
0:1:10.883,128.563,16.3682,0,0.000885,0,0
0:1:11.184,128.153,16.3199,0,0.000885,0,0
0:1:11.483,129.443,16.4785,0,0.000885,0,0
0:1:11.779,130.026,16.5543,0,0.000885,0,0
0:1:12.081,130.32,16.5957,0,0.000885,0,0
0:1:12.377,131.085,16.6922,0,0.000885,0,0
0:1:12.678,131.258,16.7129,0,0.000885,0,0
0:1:12.973,132.023,16.8094,0,0.000885,0,0
0:1:13.272,132.904,16.9197,0,0.000885,0,0
0:1:13.573,133.843,17.0438,0,0.000885,0,0
0:1:13.877,134.545,17.1335,0,0.000885,0,0
0:1:14.182,135.19,17.2162,0,0.000885,0,0
0:1:14.484,135.542,17.2576,0,0.000885,0,0
0:1:14.786,135.893,17.3058,0,0.000885,0,0
0:1:15.088,136.832,17.4231,0,0.000885,0,0
0:1:15.385,136.89,17.4299,0,0.000885,0,0
0:1:15.686,137.944,17.5609,0,0.000885,0,0
0:1:15.980,138.006,17.5747,0,0.000885,0,0
0:1:16.281,138.825,17.6782,0,0.000885,0,0
0:1:16.579,139.06,17.7057,0,0.000885,0,0
0:1:16.876,140.235,17.8574,0,0.000885,0,0
0:1:17.176,139.883,17.8092,0,0.000885,0,0
0:1:17.472,140.995,17.9539,0,0.000885,0,0
0:1:17.775,141.876,18.0643,0,0.000885,0,0
0:1:18.071,142.695,18.1677,0,0.000885,0,0
0:1:18.371,142.695,18.1677,0,0.000885,0,0
0:1:18.666,143.46,18.2642,0,0.000885,0,0
0:1:18.973,144.398,18.3883,0,0.000885,0,0
0:1:19.277,144.865,18.4435,0,0.000885,0,0
0:1:19.579,145.159,18.4848,0,0.000885,0,0
0:1:19.882,145.982,18.5883,0,0.000885,0,0
0:1:20.185,146.155,18.6089,0,0.000885,0,0
0:1:20.482,147.33,18.7606,0,0.000885,0,0
0:1:20.781,148.032,18.8503,0,0.000885,0,0
0:1:21.077,148.326,18.8847,0,0.000885,0,0
0:1:21.379,148.032,18.8503,0,0.000885,0,0
0:1:21.674,149.558,19.0433,0,0.000885,0,0
0:1:21.974,149.442,19.0295,0,0.000885,0,0
0:1:22.273,151.026,19.2295,0,0.000885,0,0
0:1:22.578,151.084,19.2364,0,0.000885,0,0
0:1:22.879,151.907,19.3398,0,0.000885,0,0
0:1:23.175,152.138,19.3743,0,0.000885,0,0
0:1:23.478,153.134,19.4984,0,0.000885,0,0
0:1:23.783,153.134,19.4984,0,0.000885,0,0
0:1:24.086,154.78,19.7052,0,0.000885,0,0
0:1:24.390,155.483,19.7948,0,0.000885,0,0
0:1:24.691,154.896,19.719,0,0.000885,0,0
0:1:24.994,155.835,19.8431,0,0.000885,0,0
0:1:25.289,156.302,19.8983,0,0.000885,0,0
0:1:25.590,157.476,20.05,0,0.000885,0,0
0:1:25.886,157.947,20.112,0,0.000885,0,0
0:1:26.185,158.063,20.1258,0,0.000885,0,0
0:1:26.485,158.886,20.2292,0,0.000885,0,0
0:1:26.780,159.411,20.2982,0,0.000885,0,0
0:1:27.082,159.469,20.3051,0,0.000885,0,0
0:1:27.380,160.643,20.4567,0,0.000885,0,0
0:1:27.678,161.23,20.5257,0,0.000885,0,0
0:1:27.977,161.875,20.6084,0,0.000885,0,0
0:1:28.273,162.698,20.7119,0,0.000885,0,0
0:1:28.575,162.52,20.6912,0,0.000885,0,0
0:1:28.881,163.988,20.8773,0,0.000885,0,0
0:1:29.185,164.513,20.9463,0,0.000885,0,0
0:1:29.488,164.219,20.9118,0,0.000885,0,0
0:1:29.789,165.22,21.0359,0,0.000885,0,0
0:1:30.092,165.803,21.1117,0,0.000885,0,0
0:1:30.387,166.332,21.1807,0,0.000885,0,0
0:1:30.689,166.92,21.2496,0,0.000885,0,0
0:1:30.985,167.742,21.36,0,0.000885,0,0
0:1:31.284,168.209,21.4151,0,0.000885,0,0
0:1:31.585,169.499,21.5806,0,0.000885,0,0
0:1:31.880,169.148,21.5392,0,0.000885,0,0
0:1:32.181,169.851,21.6289,0,0.000885,0,0
0:1:32.476,170.554,21.7185,0,0.000885,0,0
0:1:32.776,171.025,21.7736,0,0.000885,0,0
0:1:33.075,172.431,21.9529,0,0.000885,0,0
0:1:33.372,172.373,21.946,0,0.000885,0,0
0:1:33.674,173.432,22.0839,0,0.000885,0,0
0:1:33.976,173.721,22.1184,0,0.000885,0,0
0:1:34.281,174.25,22.1873,0,0.000885,0,0
0:1:34.583,174.602,22.2287,0,0.000885,0,0
0:1:34.885,175.66,22.3666,0,0.000885,0,0
0:1:35.187,175.66,22.3666,0,0.000885,0,0
0:1:35.483,176.127,22.4286,0,0.000885,0,0
0:1:35.786,177.359,22.5803,0,0.000885,0,0
0:1:36.080,177.124,22.5528,0,0.000885,0,0
0:1:36.381,178.472,22.7251,0,0.000885,0,0
0:1:36.677,178.414,22.7182,0,0.000885,0,0
0:1:36.976,180.117,22.932,0,0.000885,0,0
0:1:37.277,180.878,23.0285,0,0.000885,0,0
0:1:37.581,180.584,22.994,0,0.000885,0,0
0:1:37.883,181.229,23.0768,0,0.000885,0,0
0:1:38.179,182.168,23.194,0,0.000885,0,0
0:1:38.482,182.933,23.2905,0,0.000885,0,0
0:1:38.786,182.813,23.2767,0,0.000885,0,0
0:1:39.091,182.755,23.2698,0,0.000885,0,0
0:1:39.392,183.694,23.387,0,0.000885,0,0
0:1:39.695,184.748,23.5249,0,0.000885,0,0
0:1:39.996,184.868,23.5387,0,0.000885,0,0
0:1:40.293,185.864,23.6628,0,0.000885,0,0
0:1:40.590,186.389,23.7318,0,0.000885,0,0
0:1:40.891,187.154,23.8283,0,0.000885,0,0
0:1:41.187,187.915,23.9248,0,0.000885,0,0
0:1:41.488,188.502,24.0007,0,0.000885,0,0
0:1:41.783,189.032,24.0696,0,0.000885,0,0
0:1:42.083,189.557,24.1385,0,0.000885,0,0
0:1:42.382,190.731,24.2833,0,0.000885,0,0
0:1:42.677,190.557,24.2627,0,0.000885,0,0
0:1:42.979,190.967,24.3178,0,0.000885,0,0
0:1:43.275,192.199,24.4695,0,0.000885,0,0
0:1:43.577,192.079,24.4557,0,0.000885,0,0
0:1:43.880,192.666,24.5315,0,0.000885,0,0
0:1:44.182,193.253,24.6074,0,0.000885,0,0
0:1:44.484,194.134,24.7177,0,0.000885,0,0
0:1:44.783,194.369,24.7453,0,0.000885,0,0
0:1:45.083,195.597,24.9039,0,0.000885,0,0
0:1:45.378,195.833,24.9314,0,0.000885,0,0
0:1:45.675,197.181,25.1038,0,0.000885,0,0
0:1:45.981,197.537,25.1521,0,0.000885,0,0
0:1:46.275,197.71,25.1728,0,0.000885,0,0
0:1:46.576,198.591,25.2831,0,0.000885,0,0
0:1:46.866,199.414,25.3865,0,0.000885,0,0
0:1:47.175,199,25.3382,0,0.000885,0,0
0:1:47.481,200.174,25.4899,0,0.000885,0,0
0:1:47.776,200.526,25.5313,0,0.000885,0,0
0:1:48.074,201.171,25.614,0,0.000885,0,0
0:1:48.366,201.7,25.683,0,0.000885,0,0
0:1:48.666,202.812,25.8209,0,0.000885,0,0
0:1:48.969,202.697,25.8071,0,0.000885,0,0
0:1:49.269,203.457,25.9036,0,0.000885,0,0
0:1:49.570,204.396,26.0277,0,0.000885,0,0
0:1:49.868,205.277,26.138,0,0.000885,0,0
0:1:50.170,205.334,26.1449,0,0.000885,0,0
0:1:50.463,205.512,26.1656,0,0.000885,0,0
0:1:50.763,206.567,26.3035,0,0.000885,0,0
0:1:51.058,207.621,26.4345,0,0.000885,0,0
0:1:51.363,208.034,26.4897,0,0.000885,0,0
0:1:51.660,208.386,26.531,0,0.000885,0,0
0:1:51.975,208.386,26.531,0,0.000885,0,0
0:1:52.275,209.382,26.662,0,0.000885,0,0
0:1:52.577,210.614,26.8137,0,0.000885,0,0
0:1:52.875,209.912,26.7241,0,0.000885,0,0
0:1:53.170,211.144,26.8827,0,0.000885,0,0
0:1:53.465,211.847,26.9723,0,0.000885,0,0
0:1:53.762,212.727,27.0826,0,0.000885,0,0
0:1:54.065,212.434,27.0481,0,0.000885,0,0
0:1:54.367,213.43,27.1722,0,0.000885,0,0
0:1:54.668,214.427,27.3032,0,0.000885,0,0
0:1:54.969,215.187,27.3998,0,0.000885,0,0
0:1:55.271,215.014,27.3791,0,0.000885,0,0
0:1:55.576,216.304,27.5377,0,0.000885,0,0
0:1:55.876,216.713,27.5928,0,0.000885,0,0
0:1:56.167,217.478,27.6893,0,0.000885,0,0
0:1:56.475,217.358,27.6756,0,0.000885,0,0
0:1:56.770,217.945,27.7514,0,0.000885,0,0
0:1:57.076,218.999,27.8824,0,0.000885,0,0
0:1:57.376,219.293,27.9238,0,0.000885,0,0
0:1:57.666,219.88,27.9927,0,0.000885,0,0
0:1:57.966,220,28.0134,0,0.000885,0,0
0:1:58.260,221.521,28.2065,0,0.000885,0,0
0:1:58.561,221.29,28.172,0,0.000885,0,0
0:1:58.864,222.402,28.3168,0,0.000885,0,0
0:1:59.164,223.456,28.4547,0,0.000885,0,0
0:1:59.464,223.167,28.4133,0,0.000885,0,0
0:1:59.764,224.631,28.5995,0,0.000885,0,0
0:2:0.069,224.809,28.6201,0,0.000885,0,0
0:2:0.368,225.454,28.7029,0,0.000885,0,0
0:2:0.682,226.334,28.8201,0,0.000885,0,0
0:2:0.982,227.153,28.9235,0,0.000885,0,0
0:2:1.273,226.979,28.9028,0,0.000885,0,0
0:2:1.571,227.682,28.9925,0,0.000885,0,0
0:2:1.865,228.621,29.1097,0,0.000885,0,0
0:2:2.162,229.439,29.2131,0,0.000885,0,0
0:2:2.460,229.208,29.1855,0,0.000885,0,0
0:2:2.762,230.147,29.3027,0,0.000885,0,0
0:2:3.062,230.729,29.3786,0,0.000885,0,0
0:2:3.367,231.494,29.4751,0,0.000885,0,0
0:2:3.667,231.552,29.482,0,0.000885,0,0
0:2:3.970,232.197,29.5647,0,0.000885,0,0
0:2:4.274,233.194,29.6888,0,0.000885,0,0
0:2:4.571,234.252,29.8267,0,0.000885,0,0
0:2:4.874,234.132,29.8129,0,0.000885,0,0
0:2:5.180,234.604,29.8681,0,0.000885,0,0
0:2:5.477,235.542,29.9922,0,0.000885,0,0
0:2:5.770,235.951,30.0405,0,0.000885,0,0
0:2:6.068,236.832,30.1508,0,0.000885,0,0
0:2:6.382,236.596,30.1232,0,0.000885,0,0
0:2:6.681,237.944,30.2956,0,0.000885,0,0
0:2:6.978,238.825,30.4059,0,0.000885,0,0
0:2:7.270,239.176,30.4541,0,0.000885,0,0
0:2:7.568,239.706,30.5231,0,0.000885,0,0
0:2:7.871,239.586,30.5024,0,0.000885,0,0
0:2:8.181,240.702,30.6472,0,0.000885,0,0
0:2:8.477,241.405,30.7368,0,0.000885,0,0
0:2:8.775,242.344,30.854,0,0.000885,0,0
0:2:9.078,242.286,30.8471,0,0.000885,0,0
0:2:9.379,242.459,30.8678,0,0.000885,0,0
0:2:9.681,243.634,31.0195,0,0.000885,0,0
0:2:9.980,244.456,31.1229,0,0.000885,0,0
0:2:10.278,244.924,31.185,0,0.000885,0,0
0:2:10.577,245.395,31.247,0,0.000885,0,0
0:2:10.868,245.92,31.3091,0,0.000885,0,0
0:2:11.167,246.449,31.378,0,0.000885,0,0
0:2:11.482,247.152,31.4677,0,0.000885,0,0
0:2:11.780,247.272,31.4815,0,0.000885,0,0
0:2:12.077,248.5,31.64,0,0.000885,0,0
0:2:12.379,248.5,31.64,0,0.000885,0,0
0:2:12.679,249.381,31.7504,0,0.000885,0,0
0:2:12.971,250.261,31.8676,0,0.000885,0,0
0:2:13.269,250.439,31.8883,0,0.000885,0,0
0:2:13.576,251.378,32.0055,0,0.000885,0,0
0:2:13.877,252.316,32.1227,0,0.000885,0,0
0:2:14.181,253.135,32.233,0,0.000885,0,0
0:2:14.481,252.668,32.1709,0,0.000885,0,0
0:2:14.783,253.486,32.2744,0,0.000885,0,0
0:2:15.082,254.309,32.3778,0,0.000885,0,0
0:2:15.380,255.306,32.5088,0,0.000885,0,0
0:2:15.677,254.776,32.4398,0,0.000885,0,0
0:2:15.981,255.541,32.5364,0,0.000885,0,0
0:2:16.279,256.831,32.7018,0,0.000885,0,0
0:2:16.572,256.538,32.6605,0,0.000885,0,0
0:2:16.868,257.65,32.8053,0,0.000885,0,0
0:2:17.166,258.824,32.9569,0,0.000885,0,0
0:2:17.481,258.588,32.9225,0,0.000885,0,0
0:2:17.781,260.114,33.1155,0,0.000885,0,0
0:2:18.071,259.878,33.0879,0,0.000885,0,0
0:2:18.371,260.408,33.1569,0,0.000885,0,0
0:2:18.678,261.756,33.3293,0,0.000885,0,0
0:2:18.981,262.049,33.3637,0,0.000885,0,0
0:2:19.282,262.343,33.4051,0,0.000885,0,0
0:2:19.583,263.459,33.543,0,0.000885,0,0
0:2:19.884,264.22,33.6395,0,0.000885,0,0
0:2:20.185,263.984,33.6119,0,0.000885,0,0
0:2:20.480,264.691,33.7016,0,0.000885,0,0
0:2:20.779,265.452,33.7981,0,0.000885,0,0
0:2:21.070,266.506,33.936,0,0.000885,0,0
0:2:21.380,266.275,33.9015,0,0.000885,0,0
0:2:21.676,267.036,33.998,0,0.000885,0,0
0:2:21.968,268.032,34.129,0,0.000885,0,0
0:2:22.266,267.916,34.1153,0,0.000885,0,0
0:2:22.560,268.797,34.2256,0,0.000885,0,0
0:2:22.860,269.206,34.2738,0,0.000885,0,0
0:2:23.153,270.145,34.3979,0,0.000885,0,0
0:2:23.454,270.612,34.4531,0,0.000885,0,0
0:2:23.757,270.439,34.4324,0,0.000885,0,0
0:2:24.059,271.902,34.6186,0,0.000885,0,0
0:2:24.359,272.783,34.7289,0,0.000885,0,0
0:2:24.659,272.316,34.6737,0,0.000885,0,0
0:2:24.957,273.428,34.8116,0,0.000885,0,0
0:2:25.254,274.424,34.9426,0,0.000885,0,0
0:2:25.550,274.602,34.9633,0,0.000885,0,0
0:2:25.849,275.541,35.0805,0,0.000885,0,0
0:2:26.142,275.95,35.1357,0,0.000885,0,0
0:2:26.440,276.595,35.2184,0,0.000885,0,0
0:2:26.735,277.769,35.3632,0,0.000885,0,0
0:2:27.032,277.418,35.3218,0,0.000885,0,0
0:2:27.329,278.823,35.5011,0,0.000885,0,0
0:2:27.623,278.823,35.5011,0,0.000885,0,0
0:2:27.923,279.526,35.5907,0,0.000885,0,0
0:2:28.214,280.234,35.6804,0,0.000885,0,0
0:2:28.516,280.643,35.7355,0,0.000885,0,0
0:2:28.820,280.879,35.7631,0,0.000885,0,0
0:2:29.122,281.991,35.901,0,0.000885,0,0
0:2:29.422,282.048,35.9148,0,0.000885,0,0
0:2:29.722,282.929,36.0251,0,0.000885,0,0
0:2:30.022,284.046,36.163,0,0.000885,0,0
0:2:30.316,283.868,36.1423,0,0.000885,0,0
0:2:30.612,285.278,36.3216,0,0.000885,0,0
0:2:30.909,285.158,36.3078,0,0.000885,0,0
0:2:31.203,285.687,36.3767,0,0.000885,0,0
0:2:31.503,286.154,36.4319,0,0.000885,0,0
0:2:31.795,286.506,36.4802,0,0.000885,0,0
0:2:32.094,287.328,36.5836,0,0.000885,0,0
0:2:32.389,288.089,36.6801,0,0.000885,0,0
0:2:32.684,288.912,36.7835,0,0.000885,0,0
0:2:32.983,290.086,36.9352,0,0.000885,0,0
0:2:33.274,289.793,36.9007,0,0.000885,0,0
0:2:33.573,290.611,37.0042,0,0.000885,0,0
0:2:33.878,291.256,37.0869,0,0.000885,0,0
0:2:34.179,291.786,37.149,0,0.000885,0,0
0:2:34.481,292.257,37.211,0,0.000885,0,0
0:2:34.780,293.133,37.3213,0,0.000885,0,0
0:2:35.080,292.84,37.2868,0,0.000885,0,0
0:2:35.372,293.898,37.4178,0,0.000885,0,0
0:2:35.673,294.659,37.5144,0,0.000885,0,0
0:2:35.975,295.362,37.604,0,0.000885,0,0
0:2:36.273,295.718,37.6523,0,0.000885,0,0
0:2:36.570,296.594,37.7626,0,0.000885,0,0
0:2:36.873,297.359,37.8591,0,0.000885,0,0
0:2:37.173,297.711,37.9074,0,0.000885,0,0
0:2:37.475,298.178,37.9625,0,0.000885,0,0
0:2:37.773,299.174,38.0935,0,0.000885,0,0
0:2:38.078,298.707,38.0315,0,0.000885,0,0
0:2:38.375,300.113,38.2107,0,0.000885,0,0
0:2:38.672,300.878,38.3073,0,0.000885,0,0
0:2:38.975,300.878,38.3073,0,0.000885,0,0
0:2:39.280,302.226,38.4796,0,0.000885,0,0
0:2:39.579,301.932,38.4452,0,0.000885,0,0
0:2:39.880,302.283,38.4865,0,0.000885,0,0
0:2:40.181,303.4,38.6313,0,0.000885,0,0
0:2:40.484,303.809,38.6796,0,0.000885,0,0
0:2:40.784,304.632,38.7899,0,0.000885,0,0
0:2:41.086,305.219,38.8589,0,0.000885,0,0
0:2:41.383,305.393,38.8864,0,0.000885,0,0
0:2:41.681,306.861,39.0726,0,0.000885,0,0
0:2:41.985,306.918,39.0795,0,0.000885,0,0
0:2:42.284,308.151,39.2381,0,0.000885,0,0
0:2:42.575,308.853,39.3277,0,0.000885,0,0
0:2:42.874,309.147,39.3622,0,0.000885,0,0
0:2:43.180,310.028,39.4725,0,0.000885,0,0
0:2:43.480,309.441,39.3966,0,0.000885,0,0
0:2:43.783,310.731,39.5621,0,0.000885,0,0
0:2:44.084,311.553,39.6655,0,0.000885,0,0
0:2:44.384,311.26,39.6311,0,0.000885,0,0
0:2:44.685,312.723,39.8172,0,0.000885,0,0
0:2:44.983,312.078,39.7345,0,0.000885,0,0
0:2:45.276,313.604,39.9275,0,0.000885,0,0
0:2:45.571,313.72,39.9413,0,0.000885,0,0
0:2:45.869,314.721,40.0723,0,0.000885,0,0
0:2:46.173,314.658,40.0654,0,0.000885,0,0
0:2:46.472,316.126,40.2516,0,0.000885,0,0
0:2:46.766,316.126,40.2516,0,0.000885,0,0
0:2:47.063,317.243,40.3895,0,0.000885,0,0
0:2:47.360,317.532,40.4309,0,0.000885,0,0
0:2:47.663,318.533,40.555,0,0.000885,0,0
0:2:47.962,318.942,40.6101,0,0.000885,0,0
0:2:48.257,320.174,40.7687,0,0.000885,0,0
0:2:48.556,319.236,40.6446,0,0.000885,0,0
0:2:48.858,320.819,40.8445,0,0.000885,0,0
0:2:49.159,320.819,40.8445,0,0.000885,0,0
0:2:49.460,322.109,41.01,0,0.000885,0,0
0:2:49.760,322.051,41.0031,0,0.000885,0,0
0:2:50.061,323.048,41.1341,0,0.000885,0,0
0:2:50.355,323.399,41.1755,0,0.000885,0,0
0:2:50.652,323.341,41.1686,0,0.000885,0,0
0:2:50.948,324.631,41.3341,0,0.000885,0,0
0:2:51.244,325.218,41.4099,0,0.000885,0,0
0:2:51.543,326.451,41.5616,0,0.000885,0,0
0:2:51.835,326.157,41.5271,0,0.000885,0,0
0:2:52.134,327.389,41.6857,0,0.000885,0,0
0:2:52.428,327.211,41.665,0,0.000885,0,0
0:2:52.726,328.15,41.7822,0,0.000885,0,0
0:2:53.023,328.323,41.8029,0,0.000885,0,0
0:2:53.319,328.973,41.8857,0,0.000885,0,0
0:2:53.618,329.969,42.0098,0,0.000885,0,0
0:2:53.921,330.845,42.127,0,0.000885,0,0
0:2:54.223,331.49,42.2097,0,0.000885,0,0
0:2:54.523,331.317,42.1821,0,0.000885,0,0
0:2:54.824,332.491,42.3338,0,0.000885,0,0
0:2:55.125,332.958,42.3959,0,0.000885,0,0
0:2:55.418,333.781,42.4993,0,0.000885,0,0
0:2:55.718,334.19,42.5475,0,0.000885,0,0
0:2:56.010,334.658,42.6096,0,0.000885,0,0
0:2:56.307,335.307,42.6923,0,0.000885,0,0
0:2:56.604,335.365,42.6992,0,0.000885,0,0
0:2:56.898,336.77,42.8785,0,0.000885,0,0
0:2:57.196,336.597,42.8578,0,0.000885,0,0
0:2:57.490,337.473,42.9681,0,0.000885,0,0
0:2:57.790,337.887,43.0233,0,0.000885,0,0
0:2:58.082,338.18,43.0578,0,0.000885,0,0
0:2:58.384,339.35,43.2094,0,0.000885,0,0
0:2:58.685,339.938,43.2853,0,0.000885,0,0
0:2:58.988,340.583,43.3611,0,0.000885,0,0
0:2:59.288,340.934,43.4094,0,0.000885,0,0
0:2:59.589,341.641,43.499,0,0.000885,0,0
0:2:59.889,342.344,43.5887,0,0.000885,0,0
0:3:0.183,342.344,43.5887,0,0.000885,0,0
0:3:0.476,343.105,43.6852,0,0.000885,0,0
0:3:0.775,344.101,43.8093,0,0.000885,0,0
0:3:1.088,344.573,43.8713,0,0.000885,0,0
0:3:1.389,345.218,43.9541,0,0.000885,0,0
0:3:1.682,346.214,44.0782,0,0.000885,0,0
0:3:1.982,346.508,44.1196,0,0.000885,0,0
0:3:2.276,346.45,44.1127,0,0.000885,0,0
0:3:2.569,347.095,44.1954,0,0.000885,0,0
0:3:2.868,348.327,44.3471,0,0.000885,0,0
0:3:3.171,348.558,44.3816,0,0.000885,0,0
0:3:3.473,349.03,44.4367,0,0.000885,0,0
0:3:3.777,349.203,44.4643,0,0.000885,0,0
0:3:4.081,350.729,44.6573,0,0.000885,0,0
0:3:4.382,351.845,44.7952,0,0.000885,0,0
0:3:4.681,351.903,44.809,0,0.000885,0,0
0:3:4.982,351.961,44.8159,0,0.000885,0,0
0:3:5.286,352.49,44.878,0,0.000885,0,0
0:3:5.583,353.371,44.9952,0,0.000885,0,0
0:3:5.890,354.19,45.0986,0,0.000885,0,0
0:3:6.184,354.661,45.1538,0,0.000885,0,0
0:3:6.485,355.013,45.202,0,0.000885,0,0
0:3:6.786,355.658,45.2848,0,0.000885,0,0
0:3:7.085,356.182,45.3537,0,0.000885,0,0
0:3:7.382,356.596,45.402,0,0.000885,0,0
0:3:7.685,357.183,45.4778,0,0.000885,0,0
0:3:7.985,357.886,45.5675,0,0.000885,0,0
0:3:8.278,358.94,45.6985,0,0.000885,0,0
0:3:8.578,359.47,45.7674,0,0.000885,0,0
0:3:8.884,360.23,45.8639,0,0.000885,0,0
0:3:9.186,360.35,45.8777,0,0.000885,0,0
0:3:9.488,361.227,45.9949,0,0.000885,0,0
0:3:9.788,362.05,46.0983,0,0.000885,0,0
0:3:10.084,361.872,46.0777,0,0.000885,0,0
0:3:10.378,362.517,46.1604,0,0.000885,0,0
0:3:10.686,363.34,46.2638,0,0.000885,0,0
0:3:10.984,363.869,46.3259,0,0.000885,0,0
0:3:11.277,364.514,46.4086,0,0.000885,0,0
0:3:11.577,365.101,46.4845,0,0.000885,0,0
0:3:11.869,365.51,46.5396,0,0.000885,0,0
0:3:12.176,365.804,46.5741,0,0.000885,0,0
0:3:12.474,366.8,46.7051,0,0.000885,0,0
0:3:12.778,367.503,46.7947,0,0.000885,0,0
0:3:13.077,368.5,46.9188,0,0.000885,0,0
0:3:13.370,368.793,46.9533,0,0.000885,0,0
0:3:13.673,369.438,47.036,0,0.000885,0,0
0:3:13.975,369.967,47.105,0,0.000885,0,0
0:3:14.276,370.145,47.1257,0,0.000885,0,0
0:3:14.576,370.848,47.2153,0,0.000885,0,0
0:3:14.875,371.257,47.2705,0,0.000885,0,0
0:3:15.175,371.902,47.3532,0,0.000885,0,0
0:3:15.471,372.663,47.4497,0,0.000885,0,0
0:3:15.767,373.486,47.5531,0,0.000885,0,0
0:3:16.064,374.309,47.6566,0,0.000885,0,0
0:3:16.358,374.66,47.7048,0,0.000885,0,0
0:3:16.657,375.599,47.822,0,0.000885,0,0
0:3:16.950,375.715,47.8358,0,0.000885,0,0
0:3:17.249,376.186,47.8979,0,0.000885,0,0
0:3:17.544,376.889,47.9875,0,0.000885,0,0
0:3:17.841,377.298,48.0358,0,0.000885,0,0
0:3:18.140,378.237,48.1599,0,0.000885,0,0
0:3:18.443,378.472,48.1875,0,0.000885,0,0
0:3:18.746,379.291,48.2909,0,0.000885,0,0
0:3:19.046,379.998,48.3805,0,0.000885,0,0
0:3:19.347,380.643,48.4632,0,0.000885,0,0
0:3:19.647,380.643,48.4632,0,0.000885,0,0
0:3:19.942,381.875,48.6218,0,0.000885,0,0
0:3:20.241,381.813,48.6149,0,0.000885,0,0
0:3:20.534,382.636,48.7184,0,0.000885,0,0
0:3:20.833,383.165,48.7873,0,0.000885,0,0
0:3:21.129,383.575,48.8356,0,0.000885,0,0
0:3:21.424,384.335,48.9321,0,0.000885,0,0
0:3:21.723,384.807,48.9941,0,0.000885,0,0
0:3:22.018,385.394,49.07,0,0.000885,0,0
0:3:22.315,385.803,49.1251,0,0.000885,0,0
0:3:22.611,386.684,49.2355,0,0.000885,0,0
0:3:22.906,387.271,49.3113,0,0.000885,0,0
0:3:23.205,388.441,49.4561,0,0.000885,0,0
0:3:23.508,388.441,49.4561,0,0.000885,0,0
0:3:23.811,389.206,49.5526,0,0.000885,0,0
0:3:24.112,390.145,49.6767,0,0.000885,0,0
0:3:24.412,390.376,49.7043,0,0.000885,0,0
0:3:24.713,391.257,49.8146,0,0.000885,0,0
0:3:25.006,391.257,49.8146,0,0.000885,0,0
0:3:25.307,391.959,49.9043,0,0.000885,0,0
0:3:25.600,392.782,50.0077,0,0.000885,0,0
0:3:25.896,393.134,50.0559,0,0.000885,0,0
0:3:26.194,394.015,50.1663,0,0.000885,0,0
0:3:26.488,394.188,50.1869,0,0.000885,0,0
0:3:26.787,394.13,50.18,0,0.000885,0,0
0:3:27.078,395.656,50.3731,0,0.000885,0,0
0:3:27.378,396.185,50.442,0,0.000885,0,0
0:3:27.684,396.537,50.4903,0,0.000885,0,0
0:3:27.977,396.946,50.5386,0,0.000885,0,0
0:3:28.277,398.12,50.6903,0,0.000885,0,0
0:3:28.577,398.53,50.7454,0,0.000885,0,0
0:3:28.879,399.175,50.8213,0,0.000885,0,0
0:3:29.179,399.762,50.8971,0,0.000885,0,0
0:3:29.480,400.113,50.9454,0,0.000885,0,0
0:3:29.780,400.936,51.0488,0,0.000885,0,0
0:3:30.075,401.167,51.0764,0,0.000885,0,0
0:3:30.374,401.932,51.1729,0,0.000885,0,0
0:3:30.669,402.462,51.2418,0,0.000885,0,0
0:3:30.975,403.044,51.3177,0,0.000885,0,0
0:3:31.273,403.516,51.3797,0,0.000885,0,0
0:3:31.568,404.455,51.4969,0,0.000885,0,0
0:3:31.866,404.455,51.4969,0,0.000885,0,0
0:3:32.159,404.922,51.559,0,0.000885,0,0
0:3:32.458,405.86,51.6762,0,0.000885,0,0
0:3:32.755,406.625,51.7727,0,0.000885,0,0
0:3:33.051,407.15,51.8417,0,0.000885,0,0
0:3:33.348,407.973,51.9451,0,0.000885,0,0
0:3:33.647,408.676,52.0347,0,0.000885,0,0
0:3:33.951,408.734,52.0416,0,0.000885,0,0
0:3:34.253,409.966,52.2002,0,0.000885,0,0
0:3:34.552,410.202,52.2278,0,0.000885,0,0
0:3:34.853,410.611,52.2829,0,0.000885,0,0
0:3:35.148,411.314,52.3726,0,0.000885,0,0
0:3:35.447,411.727,52.4208,0,0.000885,0,0
0:3:35.741,412.315,52.4967,0,0.000885,0,0
0:3:36.042,412.96,52.5794,0,0.000885,0,0
0:3:36.334,414.014,52.7173,0,0.000885,0,0
0:3:36.631,414.659,52.7932,0,0.000885,0,0
0:3:36.927,414.659,52.7932,0,0.000885,0,0
0:3:37.222,415.419,52.8897,0,0.000885,0,0
0:3:37.520,415.713,52.9311,0,0.000885,0,0
0:3:37.813,416.127,52.9793,0,0.000885,0,0
0:3:38.114,417.003,53.0965,0,0.000885,0,0
0:3:38.418,417.474,53.1517,0,0.000885,0,0
0:3:38.720,418.235,53.2482,0,0.000885,0,0
0:3:39.022,418.587,53.2965,0,0.000885,0,0
0:3:39.323,419.174,53.3723,0,0.000885,0,0
0:3:39.623,419.939,53.4688,0,0.000885,0,0
0:3:39.916,420.406,53.5309,0,0.000885,0,0
0:3:40.216,421.287,53.6412,0,0.000885,0,0
0:3:40.513,421.989,53.7308,0,0.000885,0,0
0:3:40.806,422.047,53.7377,0,0.000885,0,0
0:3:41.103,422.577,53.8067,0,0.000885,0,0
0:3:41.396,423.222,53.8894,0,0.000885,0,0
0:3:41.697,424.218,54.0135,0,0.000885,0,0
0:3:41.990,424.805,54.0894,0,0.000885,0,0
0:3:42.289,424.863,54.0963,0,0.000885,0,0
0:3:42.582,425.744,54.2066,0,0.000885,0,0
0:3:42.876,425.744,54.2066,0,0.000885,0,0
0:3:43.175,426.86,54.3514,0,0.000885,0,0
0:3:43.478,426.74,54.3376,0,0.000885,0,0
0:3:43.778,427.563,54.441,0,0.000885,0,0
0:3:44.080,428.502,54.5582,0,0.000885,0,0
0:3:44.379,428.617,54.572,0,0.000885,0,0
0:3:44.682,429.089,54.6341,0,0.000885,0,0
0:3:44.987,429.907,54.7375,0,0.000885,0,0
0:3:45.287,430.259,54.7857,0,0.000885,0,0
0:3:45.579,431.139,54.8961,0,0.000885,0,0
0:3:45.888,432.314,55.0408,0,0.000885,0,0
0:3:46.182,432.55,55.0753,0,0.000885,0,0
0:3:46.477,432.55,55.0753,0,0.000885,0,0
0:3:46.775,433.484,55.1925,0,0.000885,0,0
0:3:47.078,434.013,55.2615,0,0.000885,0,0
0:3:47.377,435.303,55.427,0,0.000885,0,0
0:3:47.681,435.129,55.3994,0,0.000885,0,0
0:3:47.988,435.948,55.5097,0,0.000885,0,0
0:3:48.285,436.068,55.5235,0,0.000885,0,0
0:3:48.586,437.18,55.6614,0,0.000885,0,0
0:3:48.887,437.122,55.6545,0,0.000885,0,0
0:3:49.188,437.945,55.7579,0,0.000885,0,0
0:3:49.489,438.528,55.8337,0,0.000885,0,0
0:3:49.789,438.999,55.8958,0,0.000885,0,0
0:3:50.085,439.293,55.9303,0,0.000885,0,0
0:3:50.381,439.587,55.9716,0,0.000885,0,0
0:3:50.676,440.405,56.0751,0,0.000885,0,0
0:3:50.974,440.641,56.1026,0,0.000885,0,0
0:3:51.290,441.17,56.1716,0,0.000885,0,0
0:3:51.586,441.286,56.1854,0,0.000885,0,0
0:3:51.883,441.989,56.275,0,0.000885,0,0
0:3:52.189,442.576,56.3509,0,0.000885,0,0
0:3:52.488,442.927,56.3922,0,0.000885,0,0
0:3:52.779,443.341,56.4474,0,0.000885,0,0
0:3:53.080,443.924,56.5232,0,0.000885,0,0
0:3:53.387,444.453,56.5922,0,0.000885,0,0
0:3:53.688,444.862,56.6404,0,0.000885,0,0
0:3:53.987,445.214,56.6887,0,0.000885,0,0
0:3:54.288,445.569,56.7301,0,0.000885,0,0
0:3:54.586,445.979,56.7852,0,0.000885,0,0
0:3:54.879,446.739,56.8817,0,0.000885,0,0
0:3:55.177,447.269,56.9507,0,0.000885,0,0
0:3:55.473,448.149,57.061,0,0.000885,0,0
0:3:55.768,448.737,57.1369,0,0.000885,0,0
0:3:56.067,449.319,57.2127,0,0.000885,0,0
0:3:56.361,449.969,57.2885,0,0.000885,0,0
0:3:56.659,450.142,57.3161,0,0.000885,0,0
0:3:56.955,450.32,57.3368,0,0.000885,0,0
0:3:57.252,450.903,57.4126,0,0.000885,0,0
0:3:57.549,451.196,57.4471,0,0.000885,0,0
0:3:57.842,451.139,57.4402,0,0.000885,0,0
0:3:58.141,451.374,57.4678,0,0.000885,0,0
0:3:58.444,451.784,57.523,0,0.000885,0,0
0:3:58.745,452.019,57.5505,0,0.000885,0,0
0:3:59.045,451.904,57.5367,0,0.000885,0,0
0:3:59.345,452.019,57.5505,0,0.000885,0,0
0:3:59.647,452.313,57.5919,0,0.000885,0,0
0:3:59.941,452.958,57.6746,0,0.000885,0,0
0:4:0.242,453.425,57.7298,0,0.000885,0,0
0:4:0.536,453.603,57.7574,0,0.000885,0,0
0:4:0.831,453.487,57.7367,0,0.000885,0,0
0:4:1.127,453.425,57.7298,0,0.000885,0,0
0:4:1.422,453.252,57.7091,0,0.000885,0,0
0:4:1.719,453.074,57.6884,0,0.000885,0,0
0:4:2.011,453.252,57.7091,0,0.000885,0,0
0:4:2.312,453.309,57.716,0,0.000885,0,0
0:4:2.604,453.252,57.7091,0,0.000885,0,0
0:4:2.899,452.842,57.6609,0,0.000885,0,0
0:4:3.196,453.016,57.6815,0,0.000885,0,0
0:4:3.495,452.549,57.6195,0,0.000885,0,0
0:4:3.798,451.784,57.523,0,0.000885,0,0
0:4:4.097,452.077,57.5574,0,0.000885,0,0
0:4:4.397,451.49,57.4885,0,0.000885,0,0
0:4:4.697,450.903,57.4126,0,0.000885,0,0
0:4:4.992,450.845,57.4057,0,0.000885,0,0
0:4:5.291,450.614,57.3713,0,0.000885,0,0
0:4:5.582,449.791,57.2679,0,0.000885,0,0
0:4:5.880,449.613,57.2472,0,0.000885,0,0
0:4:6.194,449.03,57.1713,0,0.000885,0,0
0:4:6.491,448.794,57.1437,0,0.000885,0,0
0:4:6.788,448.501,57.1024,0,0.000885,0,0
0:4:7.079,447.447,56.9714,0,0.000885,0,0
0:4:7.377,428.853,54.6065,0,0.000885,0,0
0:4:7.671,416.714,53.0552,0,0.000885,0,0
0:4:7.970,411.785,52.4277,0,0.000885,0,0
0:4:8.272,386.39,49.1941,0,0.000885,0,0
0:4:8.436,339.88,43.2715,0,0.000885,0,0