File: DataFile2021-07-15_062729.csv
Test ID:,Date Tested:,Time:,Test Type:,Diameter Avg. (mm):,Cyl. Corr. Factor:,Height (mm):,Age (days):,Weight (kN):,Break Type:,Ramp Rate (MPa/s):,Load at Break (kN):,Stress at Break (MPa):
12,7/15/2021,06:27,Cylinder,150,1,300,0,3.6,3,0.25,1581.42,89.49
Sample Time,Load (kN),Stress (MPa),Long. Strain,Trans. Strain,Chan1 Deflection (mm),Chan2 Deflection (mm)
0:0:8.592,5.15994,0.28958,0,0.000885,0,0
0:0:8.992,7.21502,0.406791,0,0.000885,0,0
0:0:9.389,8.26924,0.468843,0,0.000885,0,0
0:0:9.786,10.6179,0.599844,0,0.000885,0,0
0:0:10.181,11.3786,0.641212,0,0.000885,0,0
0:0:10.579,13.785,0.779108,0,0.000885,0,0
0:0:10.980,15.3686,0.868739,0,0.000885,0,0
0:0:11.375,17.3614,0.979056,0,0.000885,0,0
0:0:11.772,19.0606,1.07558,0,0.000885,0,0
0:0:12.171,19.9414,1.13074,0,0.000885,0,0
0:0:12.570,20.9956,1.1859,0,0.000885,0,0
0:0:12.968,22.7571,1.28932,0,0.000885,0,0
0:0:13.364,24.9857,1.41343,0,0.000885,0,0
0:0:13.762,26.9206,1.52374,0,0.000885,0,0
0:0:14.165,28.8556,1.63406,0,0.000885,0,0
0:0:14.572,31.142,1.76506,0,0.000885,0,0
0:0:14.977,33.1393,1.87537,0,0.000885,0,0
0:0:15.381,35.1899,1.99258,0,0.000885,0,0
0:0:15.780,37.6542,2.13048,0,0.000885,0,0
0:0:16.182,40.3498,2.28216,0,0.000885,0,0
0:0:16.579,41.9334,2.3718,0,0.000885,0,0
0:0:16.974,44.1041,2.4959,0,0.000885,0,0
0:0:17.374,45.6299,2.58553,0,0.000885,0,0
0:0:17.773,46.5106,2.6338,0,0.000885,0,0
0:0:18.173,48.4456,2.74411,0,0.000885,0,0
0:0:18.571,50.0291,2.83375,0,0.000885,0,0
0:0:18.967,50.732,2.86822,0,0.000885,0,0
0:0:19.370,52.4356,2.96475,0,0.000885,0,0
0:0:19.777,54.1349,3.06127,0,0.000885,0,0
0:0:20.181,56.012,3.17159,0,0.000885,0,0
0:0:20.584,57.4755,3.25433,0,0.000885,0,0
0:0:20.982,59.6462,3.37843,0,0.000885,0,0
0:0:21.384,62.0527,3.50943,0,0.000885,0,0
0:0:21.783,63.2848,3.57838,0,0.000885,0,0
0:0:22.180,66.2162,3.74385,0,0.000885,0,0
0:0:22.577,68.0934,3.85417,0,0.000885,0,0
0:0:22.976,69.5613,3.93691,0,0.000885,0,0
0:0:23.376,70.789,4.00585,0,0.000885,0,0
0:0:23.775,72.6083,4.10928,0,0.000885,0,0
0:0:24.182,73.8405,4.17822,0,0.000885,0,0
0:0:24.586,75.6598,4.28164,0,0.000885,0,0
0:0:24.990,77.537,4.38507,0,0.000885,0,0
0:0:25.395,79.0004,4.4678,0,0.000885,0,0
0:0:25.791,80.7619,4.57122,0,0.000885,0,0
0:0:26.188,82.8748,4.68843,0,0.000885,0,0
0:0:26.587,84.5162,4.78496,0,0.000885,0,0
0:0:26.989,86.8026,4.90907,0,0.000885,0,0
0:0:27.386,88.6219,5.01249,0,0.000885,0,0
0:0:27.781,90.7927,5.13659,0,0.000885,0,0
0:0:28.180,92.0248,5.20554,0,0.000885,0,0
0:0:28.579,93.724,5.30207,0,0.000885,0,0
0:0:28.980,95.3076,5.3917,0,0.000885,0,0
0:0:29.387,96.8912,5.48133,0,0.000885,0,0
0:0:29.793,98.7105,5.58475,0,0.000885,0,0
0:0:30.195,100.232,5.67439,0,0.000885,0,0
0:0:30.599,102.287,5.7916,0,0.000885,0,0
0:0:30.996,104.044,5.88812,0,0.000885,0,0
0:0:31.393,105.805,5.98465,0,0.000885,0,0
0:0:31.789,107.567,6.08807,0,0.000885,0,0
0:0:32.191,109.853,6.21907,0,0.000885,0,0
0:0:32.590,111.317,6.30181,0,0.000885,0,0
0:0:32.988,112.963,6.39144,0,0.000885,0,0
0:0:33.383,114.604,6.48797,0,0.000885,0,0
0:0:33.782,116.188,6.5776,0,0.000885,0,0
0:0:34.182,118.007,6.68102,0,0.000885,0,0
0:0:34.589,119.942,6.78444,0,0.000885,0,0
0:0:34.993,122.286,6.92234,0,0.000885,0,0
0:0:35.397,123.87,7.01197,0,0.000885,0,0
0:0:35.800,125.275,7.08781,0,0.000885,0,0
0:0:36.200,127.273,7.20502,0,0.000885,0,0
0:0:36.598,129.15,7.30844,0,0.000885,0,0
0:0:36.992,130.965,7.41186,0,0.000885,0,0
0:0:37.393,132.081,7.47392,0,0.000885,0,0
0:0:37.793,134.367,7.60492,0,0.000885,0,0
0:0:38.191,136.245,7.70834,0,0.000885,0,0
0:0:38.589,137.828,7.79797,0,0.000885,0,0
0:0:38.994,139.527,7.8945,0,0.000885,0,0
0:0:39.401,141.289,7.99792,0,0.000885,0,0
0:0:39.804,143.282,8.10823,0,0.000885,0,0
0:0:40.207,145.159,8.21166,0,0.000885,0,0
0:0:40.606,146.862,8.30818,0,0.000885,0,0
0:0:41.005,148.326,8.39092,0,0.000885,0,0
0:0:41.404,150.323,8.50813,0,0.000885,0,0
0:0:41.802,151.965,8.59776,0,0.000885,0,0
0:0:42.199,153.428,8.6805,0,0.000885,0,0
0:0:42.597,155.19,8.78392,0,0.000885,0,0
0:0:42.999,156.657,8.86666,0,0.000885,0,0
0:0:43.397,158.886,8.99076,0,0.000885,0,0
0:0:43.793,160.527,9.08729,0,0.000885,0,0
0:0:44.199,162.636,9.2045,0,0.000885,0,0
0:0:44.604,164.34,9.30103,0,0.000885,0,0
0:0:45.010,166.332,9.41134,0,0.000885,0,0
0:0:45.413,167.742,9.49408,0,0.000885,0,0
0:0:45.812,169.909,9.61819,0,0.000885,0,0
0:0:46.208,171.612,9.70782,0,0.000885,0,0
0:0:46.608,173.076,9.79745,0,0.000885,0,0
0:0:47.008,174.953,9.90087,0,0.000885,0,0
0:0:47.405,176.479,9.98361,0,0.000885,0,0
0:0:47.801,178.356,10.0939,0,0.000885,0,0
0:0:48.200,180.291,10.2042,0,0.000885,0,0
0:0:48.601,181.874,10.2939,0,0.000885,0,0
0:0:48.998,183.752,10.3973,0,0.000885,0,0
0:0:49.403,185.393,10.4938,0,0.000885,0,0
0:0:49.809,187.328,10.6041,0,0.000885,0,0
0:0:50.212,189.383,10.7145,0,0.000885,0,0
0:0:50.616,191.202,10.8179,0,0.000885,0,0
0:0:51.013,192.492,10.8937,0,0.000885,0,0
0:0:51.409,194.192,10.9902,0,0.000885,0,0
0:0:51.805,196.011,11.0937,0,0.000885,0,0
0:0:52.201,197.768,11.1902,0,0.000885,0,0
0:0:52.597,199.178,11.2729,0,0.000885,0,0
0:0:52.990,200.819,11.3626,0,0.000885,0,0
0:0:53.386,202.519,11.4591,0,0.000885,0,0
0:0:53.784,204.689,11.5832,0,0.000885,0,0
0:0:54.181,206.682,11.6935,0,0.000885,0,0
0:0:54.583,208.266,11.7831,0,0.000885,0,0
0:0:54.986,210.085,11.8866,0,0.000885,0,0
0:0:55.388,211.847,11.99,0,0.000885,0,0
0:0:55.790,213.782,12.1003,0,0.000885,0,0
0:0:56.183,215.365,12.1899,0,0.000885,0,0
0:0:56.578,217.242,12.2934,0,0.000885,0,0
0:0:56.973,219.707,12.4312,0,0.000885,0,0
0:0:57.370,221.348,12.5278,0,0.000885,0,0
0:0:57.767,222.638,12.5967,0,0.000885,0,0
0:0:58.160,224.101,12.6795,0,0.000885,0,0
0:0:58.556,226.156,12.7967,0,0.000885,0,0
0:0:58.956,227.682,12.8863,0,0.000885,0,0
0:0:59.361,229.146,12.969,0,0.000885,0,0
0:0:59.762,231.494,13.1,0,0.000885,0,0
0:1:0.163,232.669,13.169,0,0.000885,0,0
0:1:0.557,234.368,13.2655,0,0.000885,0,0
0:1:0.956,236.009,13.3551,0,0.000885,0,0
0:1:1.351,238.064,13.4724,0,0.000885,0,0
0:1:1.741,239.706,13.562,0,0.000885,0,0
0:1:2.137,241.699,13.6792,0,0.000885,0,0
0:1:2.533,243.634,13.7895,0,0.000885,0,0
0:1:2.940,245.395,13.886,0,0.000885,0,0
0:1:3.346,247.681,14.017,0,0.000885,0,0
0:1:3.748,248.856,14.0791,0,0.000885,0,0
0:1:4.150,251.084,14.2101,0,0.000885,0,0
0:1:4.554,252.668,14.2997,0,0.000885,0,0
0:1:4.954,254.603,14.41,0,0.000885,0,0
0:1:5.356,256.066,14.4928,0,0.000885,0,0
0:1:5.749,257.241,14.5548,0,0.000885,0,0
0:1:6.148,258.94,14.6514,0,0.000885,0,0
0:1:6.545,260.879,14.7617,0,0.000885,0,0
0:1:6.936,262.343,14.8444,0,0.000885,0,0
0:1:7.339,264.571,14.9685,0,0.000885,0,0
0:1:7.735,266.391,15.0719,0,0.000885,0,0
0:1:8.141,268.268,15.1823,0,0.000885,0,0
0:1:8.538,269.851,15.2719,0,0.000885,0,0
0:1:8.931,271.902,15.3891,0,0.000885,0,0
0:1:9.331,273.37,15.4718,0,0.000885,0,0
0:1:9.736,275.131,15.5684,0,0.000885,0,0
0:1:10.136,276.946,15.6718,0,0.000885,0,0
0:1:10.538,278.766,15.7752,0,0.000885,0,0
0:1:10.940,280.407,15.8648,0,0.000885,0,0
0:1:11.338,282.462,15.982,0,0.000885,0,0
0:1:11.736,284.513,16.0993,0,0.000885,0,0
0:1:12.140,286.038,16.1889,0,0.000885,0,0
0:1:12.534,288.209,16.3061,0,0.000885,0,0
0:1:12.929,290.202,16.4233,0,0.000885,0,0
0:1:13.326,291.141,16.4785,0,0.000885,0,0
0:1:13.724,292.724,16.5681,0,0.000885,0,0
0:1:14.129,294.134,16.6439,0,0.000885,0,0
0:1:14.532,296.007,16.7474,0,0.000885,0,0
0:1:14.931,298.12,16.8715,0,0.000885,0,0
0:1:15.329,299.823,16.968,0,0.000885,0,0
0:1:15.736,301.932,17.0852,0,0.000885,0,0
0:1:16.139,303.4,17.1679,0,0.000885,0,0
0:1:16.541,305.277,17.2783,0,0.000885,0,0
0:1:16.939,307.092,17.3748,0,0.000885,0,0
0:1:17.336,308.738,17.4713,0,0.000885,0,0
0:1:17.731,310.495,17.5678,0,0.000885,0,0
0:1:18.135,312.256,17.6713,0,0.000885,0,0
0:1:18.538,313.898,17.7609,0,0.000885,0,0
0:1:18.939,315.948,17.8781,0,0.000885,0,0
0:1:19.346,317.652,17.9746,0,0.000885,0,0
0:1:19.747,319.293,18.0712,0,0.000885,0,0
0:1:20.147,321.344,18.1815,0,0.000885,0,0
0:1:20.540,322.754,18.2642,0,0.000885,0,0
0:1:20.937,324.689,18.3745,0,0.000885,0,0
0:1:21.336,326.33,18.4642,0,0.000885,0,0
0:1:21.750,328.617,18.5952,0,0.000885,0,0
0:1:22.142,330.614,18.7055,0,0.000885,0,0
0:1:22.549,332.371,18.8089,0,0.000885,0,0
0:1:22.947,334.426,18.9261,0,0.000885,0,0
0:1:23.346,335.952,19.0088,0,0.000885,0,0
0:1:23.748,337.767,19.1123,0,0.000885,0,0
0:1:24.152,339.057,19.1881,0,0.000885,0,0
0:1:24.554,341.112,19.3053,0,0.000885,0,0
0:1:24.956,342.989,19.4087,0,0.000885,0,0
0:1:25.357,343.807,19.457,0,0.000885,0,0
0:1:25.750,345.391,19.5466,0,0.000885,0,0
0:1:26.154,346.859,19.6294,0,0.000885,0,0
0:1:26.553,349.323,19.7673,0,0.000885,0,0
0:1:26.950,351.374,19.8845,0,0.000885,0,0
0:1:27.341,352.664,19.9534,0,0.000885,0,0
0:1:27.748,354.599,20.0637,0,0.000885,0,0
0:1:28.153,356.596,20.181,0,0.000885,0,0
0:1:28.552,358.353,20.2775,0,0.000885,0,0
0:1:28.947,359.995,20.374,0,0.000885,0,0
0:1:29.351,361.64,20.4636,0,0.000885,0,0
0:1:29.753,363.397,20.5671,0,0.000885,0,0
0:1:30.153,364.865,20.6498,0,0.000885,0,0
0:1:30.554,366.743,20.7532,0,0.000885,0,0
0:1:30.950,369.145,20.8911,0,0.000885,0,0
0:1:31.352,370.555,20.967,0,0.000885,0,0
0:1:31.747,373.192,21.1186,0,0.000885,0,0
0:1:32.154,374.54,21.1945,0,0.000885,0,0
0:1:32.551,376.653,21.3117,0,0.000885,0,0
0:1:32.943,378.001,21.3875,0,0.000885,0,0
0:1:33.336,379.585,21.4772,0,0.000885,0,0
0:1:33.734,381.346,21.5806,0,0.000885,0,0
0:1:34.141,382.694,21.6564,0,0.000885,0,0
0:1:34.544,384.455,21.753,0,0.000885,0,0
0:1:34.949,386.448,21.8702,0,0.000885,0,0
0:1:35.350,388.147,21.9667,0,0.000885,0,0
0:1:35.748,390.025,22.0701,0,0.000885,0,0
0:1:36.144,391.377,22.146,0,0.000885,0,0
0:1:36.539,393.605,22.2701,0,0.000885,0,0
0:1:36.942,395.189,22.3597,0,0.000885,0,0
0:1:37.337,397.182,22.4769,0,0.000885,0,0
0:1:37.734,398.881,22.5734,0,0.000885,0,0
0:1:38.131,401.23,22.7044,0,0.000885,0,0
0:1:38.526,402.399,22.7734,0,0.000885,0,0
0:1:38.918,404.103,22.8699,0,0.000885,0,0
0:1:39.320,406.096,22.9802,0,0.000885,0,0
0:1:39.722,407.737,23.0699,0,0.000885,0,0
0:1:40.125,409.321,23.1595,0,0.000885,0,0
0:1:40.525,411.843,23.3043,0,0.000885,0,0
0:1:40.929,413.836,23.4215,0,0.000885,0,0
0:1:41.328,415.713,23.5249,0,0.000885,0,0
0:1:41.735,417.065,23.6008,0,0.000885,0,0
0:1:42.129,418.88,23.7042,0,0.000885,0,0
0:1:42.523,419.587,23.7455,0,0.000885,0,0
0:1:42.918,421.402,23.849,0,0.000885,0,0
0:1:43.316,423.573,23.9662,0,0.000885,0,0
0:1:43.712,425.335,24.0696,0,0.000885,0,0
0:1:44.115,427.212,24.173,0,0.000885,0,0
0:1:44.517,428.502,24.2489,0,0.000885,0,0
0:1:44.918,429.965,24.3316,0,0.000885,0,0
0:1:45.319,431.549,24.4212,0,0.000885,0,0
0:1:45.715,434.249,24.5729,0,0.000885,0,0
0:1:46.108,435.948,24.6694,0,0.000885,0,0
0:1:46.505,437.709,24.766,0,0.000885,0,0
0:1:46.903,439.467,24.8694,0,0.000885,0,0
0:1:47.296,441.344,24.9728,0,0.000885,0,0
0:1:47.692,443.399,25.09,0,0.000885,0,0
0:1:48.087,445.276,25.2003,0,0.000885,0,0
0:1:48.481,446.508,25.2693,0,0.000885,0,0
0:1:48.877,448.323,25.3727,0,0.000885,0,0
0:1:49.282,450.027,25.4692,0,0.000885,0,0
0:1:49.683,451.552,25.552,0,0.000885,0,0
0:1:50.083,453.603,25.6692,0,0.000885,0,0
0:1:50.483,455.071,25.7519,0,0.000885,0,0
0:1:50.877,456.77,25.8484,0,0.000885,0,0
0:1:51.270,458.469,25.945,0,0.000885,0,0
0:1:51.666,460.289,26.0484,0,0.000885,0,0
0:1:52.066,462.695,26.1863,0,0.000885,0,0
0:1:52.459,464.101,26.2621,0,0.000885,0,0
0:1:52.852,465.626,26.3518,0,0.000885,0,0
0:1:53.256,467.268,26.4414,0,0.000885,0,0
0:1:53.654,469.323,26.5586,0,0.000885,0,0
0:1:54.050,471.2,26.662,0,0.000885,0,0
0:1:54.453,472.664,26.7448,0,0.000885,0,0
0:1:54.855,474.834,26.8689,0,0.000885,0,0
0:1:55.254,476.182,26.9447,0,0.000885,0,0
0:1:55.655,477.886,27.0412,0,0.000885,0,0
0:1:56.050,479.701,27.1447,0,0.000885,0,0
0:1:56.452,481.52,27.2481,0,0.000885,0,0
0:1:56.846,483.575,27.3653,0,0.000885,0,0
0:1:57.244,485.39,27.4687,0,0.000885,0,0
0:1:57.640,486.8,27.5446,0,0.000885,0,0
0:1:58.041,488.677,27.6549,0,0.000885,0,0
0:1:58.436,490.728,27.7721,0,0.000885,0,0
0:1:58.837,492.547,27.8755,0,0.000885,0,0
0:1:59.241,493.601,27.9307,0,0.000885,0,0
0:1:59.642,495.363,28.0341,0,0.000885,0,0
0:2:0.044,497.182,28.1375,0,0.000885,0,0
0:2:0.440,499.055,28.2409,0,0.000885,0,0
0:2:0.839,501.288,28.365,0,0.000885,0,0
0:2:1.234,503.281,28.4822,0,0.000885,0,0
0:2:1.647,504.455,28.5443,0,0.000885,0,0
0:2:2.052,506.684,28.6753,0,0.000885,0,0
0:2:2.447,508.556,28.7787,0,0.000885,0,0
0:2:2.847,510.024,28.8615,0,0.000885,0,0
0:2:3.251,511.55,28.9511,0,0.000885,0,0
0:2:3.656,513.249,29.0407,0,0.000885,0,0
0:2:4.057,515.42,29.1648,0,0.000885,0,0
0:2:4.461,517.124,29.2613,0,0.000885,0,0
0:2:4.862,518.351,29.3303,0,0.000885,0,0
0:2:5.263,520.113,29.4337,0,0.000885,0,0
0:2:5.656,522.048,29.544,0,0.000885,0,0
0:2:6.054,523.809,29.6406,0,0.000885,0,0
0:2:6.450,525.624,29.744,0,0.000885,0,0
0:2:6.852,527.034,29.8267,0,0.000885,0,0
0:2:7.244,529.027,29.937,0,0.000885,0,0
0:2:7.641,530.904,30.0405,0,0.000885,0,0
0:2:8.040,533.191,30.1715,0,0.000885,0,0
0:2:8.434,534.716,30.2611,0,0.000885,0,0
0:2:8.846,536.3,30.3507,0,0.000885,0,0
0:2:9.251,538.293,30.461,0,0.000885,0,0
0:2:9.653,540.112,30.5645,0,0.000885,0,0
0:2:10.055,541.58,30.6472,0,0.000885,0,0
0:2:10.454,543.515,30.7575,0,0.000885,0,0
0:2:10.845,545.45,30.8678,0,0.000885,0,0
0:2:11.253,547.327,30.9712,0,0.000885,0,0
0:2:11.651,549.146,31.0747,0,0.000885,0,0
0:2:12.057,550.788,31.1712,0,0.000885,0,0
0:2:12.451,552.429,31.2608,0,0.000885,0,0
0:2:12.853,554.306,31.3643,0,0.000885,0,0
0:2:13.249,555.303,31.4263,0,0.000885,0,0
0:2:13.658,557.416,31.5435,0,0.000885,0,0
0:2:14.062,559.115,31.64,0,0.000885,0,0
0:2:14.462,560.641,31.7228,0,0.000885,0,0
0:2:14.862,562.633,31.84,0,0.000885,0,0
0:2:15.262,564.862,31.9641,0,0.000885,0,0
0:2:15.659,566.272,32.0468,0,0.000885,0,0
0:2:16.053,568.029,32.1434,0,0.000885,0,0
0:2:16.456,570.2,32.2675,0,0.000885,0,0
0:2:16.852,572.135,32.3778,0,0.000885,0,0
0:2:17.259,573.838,32.4743,0,0.000885,0,0
0:2:17.653,575.008,32.5364,0,0.000885,0,0
0:2:18.056,576.418,32.6191,0,0.000885,0,0
0:2:18.460,578.295,32.7225,0,0.000885,0,0
0:2:18.861,579.995,32.819,0,0.000885,0,0
0:2:19.264,582.108,32.9432,0,0.000885,0,0
0:2:19.665,584.1,33.0535,0,0.000885,0,0
0:2:20.066,585.8,33.15,0,0.000885,0,0
0:2:20.463,587.152,33.2258,0,0.000885,0,0
0:2:20.861,589.674,33.3706,0,0.000885,0,0
0:2:21.259,591.787,33.4878,0,0.000885,0,0
0:2:21.653,593.78,33.5982,0,0.000885,0,0
0:2:22.052,595.483,33.6947,0,0.000885,0,0
0:2:22.449,597.187,33.7912,0,0.000885,0,0
0:2:22.845,598.241,33.8533,0,0.000885,0,0
0:2:23.241,599.767,33.9429,0,0.000885,0,0
0:2:23.657,601.471,34.0394,0,0.000885,0,0
0:2:24.060,603.174,34.1359,0,0.000885,0,0
0:2:24.466,605.287,34.2532,0,0.000885,0,0
0:2:24.870,606.929,34.3428,0,0.000885,0,0
0:2:25.272,608.397,34.4255,0,0.000885,0,0
0:2:25.670,610.158,34.5289,0,0.000885,0,0
0:2:26.071,612.213,34.6462,0,0.000885,0,0
0:2:26.468,614.384,34.7703,0,0.000885,0,0
0:2:26.862,615.91,34.853,0,0.000885,0,0
0:2:27.259,618.085,34.9771,0,0.000885,0,0
0:2:27.657,619.433,35.0529,0,0.000885,0,0
0:2:28.056,621.43,35.1633,0,0.000885,0,0
0:2:28.450,623.191,35.2667,0,0.000885,0,0
0:2:28.844,625.069,35.3701,0,0.000885,0,0
0:2:29.247,626.652,35.4597,0,0.000885,0,0
0:2:29.655,628.298,35.5563,0,0.000885,0,0
0:2:30.059,630.411,35.6735,0,0.000885,0,0
0:2:30.461,631.994,35.7631,0,0.000885,0,0
0:2:30.857,633.462,35.8458,0,0.000885,0,0
0:2:31.257,635.633,35.9699,0,0.000885,0,0
0:2:31.656,637.452,36.0734,0,0.000885,0,0
0:2:32.049,639.156,36.1699,0,0.000885,0,0
0:2:32.444,640.215,36.2319,0,0.000885,0,0
0:2:32.855,642.385,36.3492,0,0.000885,0,0
0:2:33.251,643.853,36.4319,0,0.000885,0,0
0:2:33.648,646.318,36.5767,0,0.000885,0,0
0:2:34.055,647.959,36.6663,0,0.000885,0,0
0:2:34.460,648.902,36.7215,0,0.000885,0,0
0:2:34.861,650.895,36.8318,0,0.000885,0,0
0:2:35.265,652.95,36.949,0,0.000885,0,0
0:2:35.659,654.711,37.0524,0,0.000885,0,0
0:2:36.056,657.118,37.1834,0,0.000885,0,0
0:2:36.462,658.35,37.2524,0,0.000885,0,0
0:2:36.862,660.227,37.3627,0,0.000885,0,0
0:2:37.259,661.873,37.4523,0,0.000885,0,0
0:2:37.663,663.457,37.542,0,0.000885,0,0
0:2:38.060,665.396,37.6523,0,0.000885,0,0
0:2:38.459,667.273,37.7626,0,0.000885,0,0
0:2:38.857,669.271,37.8729,0,0.000885,0,0
0:2:39.263,670.912,37.9625,0,0.000885,0,0
0:2:39.665,673.025,38.0866,0,0.000885,0,0
0:2:40.069,674.551,38.1694,0,0.000885,0,0
0:2:40.472,676.139,38.259,0,0.000885,0,0
0:2:40.868,677.838,38.3555,0,0.000885,0,0
0:2:41.264,679.541,38.4521,0,0.000885,0,0
0:2:41.659,681.539,38.5693,0,0.000885,0,0
0:2:42.060,682.593,38.6244,0,0.000885,0,0
0:2:42.458,684.47,38.7347,0,0.000885,0,0
0:2:42.850,686.997,38.8726,0,0.000885,0,0
0:2:43.258,688.7,38.9692,0,0.000885,0,0
0:2:43.657,689.933,39.045,0,0.000885,0,0
0:2:44.058,691.574,39.1346,0,0.000885,0,0
0:2:44.462,693.451,39.2381,0,0.000885,0,0
0:2:44.867,695.506,39.3553,0,0.000885,0,0
0:2:45.268,697.21,39.4518,0,0.000885,0,0
0:2:45.670,698.971,39.5552,0,0.000885,0,0
0:2:46.070,700.439,39.638,0,0.000885,0,0
0:2:46.465,702.552,39.7552,0,0.000885,0,0
0:2:46.860,704.665,39.8793,0,0.000885,0,0
0:2:47.260,706.484,39.9758,0,0.000885,0,0
0:2:47.659,708.068,40.0654,0,0.000885,0,0
0:2:48.052,710.007,40.1758,0,0.000885,0,0
0:2:48.447,711.413,40.2585,0,0.000885,0,0
0:2:48.851,713.059,40.3481,0,0.000885,0,0
0:2:49.258,715.056,40.4653,0,0.000885,0,0
0:2:49.662,716.697,40.555,0,0.000885,0,0
0:2:50.064,718.988,40.686,0,0.000885,0,0
0:2:50.459,720.63,40.7825,0,0.000885,0,0
0:2:50.858,722.569,40.8859,0,0.000885,0,0
0:2:51.257,724.562,41.0031,0,0.000885,0,0
0:2:51.663,725.856,41.0721,0,0.000885,0,0
0:2:52.057,727.146,41.1479,0,0.000885,0,0
0:2:52.463,729.023,41.2513,0,0.000885,0,0
0:2:52.864,730.434,41.3341,0,0.000885,0,0
0:2:53.263,732.431,41.4444,0,0.000885,0,0
0:2:53.658,734.25,41.5478,0,0.000885,0,0
0:2:54.063,736.243,41.665,0,0.000885,0,0
0:2:54.467,737.773,41.7478,0,0.000885,0,0
0:2:54.870,739.766,41.865,0,0.000885,0,0
0:2:55.273,740.998,41.9339,0,0.000885,0,0
0:2:55.668,743.173,42.058,0,0.000885,0,0
0:2:56.066,744.463,42.127,0,0.000885,0,0
0:2:56.466,746.754,42.258,0,0.000885,0,0
0:2:56.862,748.28,42.3407,0,0.000885,0,0
0:2:57.259,750.157,42.451,0,0.000885,0,0
0:2:57.653,752.448,42.582,0,0.000885,0,0
0:2:58.052,754.383,42.6923,0,0.000885,0,0
0:2:58.450,756.029,42.782,0,0.000885,0,0
0:2:58.857,757.376,42.8578,0,0.000885,0,0
0:2:59.263,758.902,42.9474,0,0.000885,0,0
0:2:59.667,761.073,43.0647,0,0.000885,0,0
0:3:0.069,762.777,43.1612,0,0.000885,0,0
0:3:0.473,764.889,43.2853,0,0.000885,0,0
0:3:0.869,766.829,43.3956,0,0.000885,0,0
0:3:1.264,768.297,43.4783,0,0.000885,0,0
0:3:1.663,769.645,43.5542,0,0.000885,0,0
0:3:2.062,771.348,43.6507,0,0.000885,0,0
0:3:2.460,772.99,43.7403,0,0.000885,0,0
0:3:2.863,774.929,43.8507,0,0.000885,0,0
0:3:3.262,776.397,43.9334,0,0.000885,0,0
0:3:3.661,778.332,44.0437,0,0.000885,0,0
0:3:4.058,779.978,44.1402,0,0.000885,0,0
0:3:4.463,781.619,44.2299,0,0.000885,0,0
0:3:4.868,783.79,44.354,0,0.000885,0,0
0:3:5.270,785.316,44.4367,0,0.000885,0,0
0:3:5.673,787.313,44.5539,0,0.000885,0,0
0:3:6.069,789.31,44.6642,0,0.000885,0,0
0:3:6.465,791.009,44.7608,0,0.000885,0,0
0:3:6.861,792.477,44.8435,0,0.000885,0,0
0:3:7.259,794.065,44.9331,0,0.000885,0,0
0:3:7.660,796.352,45.0641,0,0.000885,0,0
0:3:8.064,797.94,45.1538,0,0.000885,0,0
0:3:8.460,799.875,45.2641,0,0.000885,0,0
0:3:8.864,802.459,45.4089,0,0.000885,0,0
0:3:9.269,803.513,45.4709,0,0.000885,0,0
0:3:9.672,805.453,45.5812,0,0.000885,0,0
0:3:10.074,806.801,45.6571,0,0.000885,0,0
0:3:10.470,808.562,45.7536,0,0.000885,0,0
0:3:10.871,810.439,45.8639,0,0.000885,0,0
0:3:11.267,811.734,45.9329,0,0.000885,0,0
0:3:11.662,813.669,46.0432,0,0.000885,0,0
0:3:12.059,815.546,46.1535,0,0.000885,0,0
0:3:12.455,817.014,46.2362,0,0.000885,0,0
0:3:12.855,818.424,46.3121,0,0.000885,0,0
0:3:13.252,821.24,46.4707,0,0.000885,0,0
0:3:13.667,822.765,46.5603,0,0.000885,0,0
0:3:14.071,824.295,46.643,0,0.000885,0,0
0:3:14.475,825.821,46.7327,0,0.000885,0,0
0:3:14.879,827.934,46.8499,0,0.000885,0,0
0:3:15.282,829.46,46.9395,0,0.000885,0,0
0:3:15.677,831.453,47.0498,0,0.000885,0,0
0:3:16.077,833.392,47.1601,0,0.000885,0,0
0:3:16.476,835.389,47.2705,0,0.000885,0,0
0:3:16.874,836.915,47.3601,0,0.000885,0,0
0:3:17.269,838.792,47.4635,0,0.000885,0,0
0:3:17.665,840.496,47.56,0,0.000885,0,0
0:3:18.066,842.315,47.6635,0,0.000885,0,0
0:3:18.464,844.192,47.7738,0,0.000885,0,0
0:3:18.859,845.896,47.8703,0,0.000885,0,0
0:3:19.264,848.303,48.0013,0,0.000885,0,0
0:3:19.668,849.828,48.0909,0,0.000885,0,0
0:3:20.072,851.238,48.1668,0,0.000885,0,0
0:3:20.474,853.058,48.2702,0,0.000885,0,0
0:3:20.869,853.938,48.3254,0,0.000885,0,0
0:3:21.266,855.286,48.4012,0,0.000885,0,0
0:3:21.666,857.457,48.5253,0,0.000885,0,0
0:3:22.065,859.103,48.6149,0,0.000885,0,0
0:3:22.461,861.274,48.739,0,0.000885,0,0
0:3:22.865,863.8,48.8838,0,0.000885,0,0
0:3:23.262,865.032,48.9528,0,0.000885,0,0
0:3:23.663,867.025,49.0631,0,0.000885,0,0
0:3:24.069,868.377,49.1389,0,0.000885,0,0
0:3:24.472,869.667,49.2148,0,0.000885,0,0
0:3:24.874,872.31,49.3596,0,0.000885,0,0
0:3:25.274,874.129,49.463,0,0.000885,0,0
0:3:25.672,876.478,49.6009,0,0.000885,0,0
0:3:26.068,877.594,49.6629,0,0.000885,0,0
0:3:26.462,879.649,49.7801,0,0.000885,0,0
0:3:26.862,880.646,49.8353,0,0.000885,0,0
0:3:27.269,882.701,49.9525,0,0.000885,0,0
0:3:27.665,885.165,50.0904,0,0.000885,0,0
0:3:28.063,886.633,50.1731,0,0.000885,0,0
0:3:28.467,888.51,50.2766,0,0.000885,0,0
0:3:28.869,890.917,50.4145,0,0.000885,0,0
0:3:29.276,892.206,50.4903,0,0.000885,0,0
0:3:29.679,893.795,50.5799,0,0.000885,0,0
0:3:30.081,895.787,50.6903,0,0.000885,0,0
0:3:30.480,896.552,50.7316,0,0.000885,0,0
0:3:30.879,898.607,50.8488,0,0.000885,0,0
0:3:31.274,900.018,50.9316,0,0.000885,0,0
0:3:31.669,902.01,51.0419,0,0.000885,0,0
0:3:32.066,903.598,51.1315,0,0.000885,0,0
0:3:32.466,905.24,51.228,0,0.000885,0,0
0:3:32.862,907.531,51.359,0,0.000885,0,0
0:3:33.260,908.585,51.4142,0,0.000885,0,0
0:3:33.663,910.582,51.5314,0,0.000885,0,0
0:3:34.066,912.459,51.6348,0,0.000885,0,0
0:3:34.472,914.986,51.7796,0,0.000885,0,0
0:3:34.875,916.04,51.8348,0,0.000885,0,0
0:3:35.277,918.504,51.9796,0,0.000885,0,0
0:3:35.674,919.972,52.0623,0,0.000885,0,0
0:3:36.073,921.849,52.1657,0,0.000885,0,0
0:3:36.472,923.38,52.2554,0,0.000885,0,0
0:3:36.867,925.844,52.3933,0,0.000885,0,0
0:3:37.263,927.841,52.5036,0,0.000885,0,0
0:3:37.661,929.011,52.5725,0,0.000885,0,0
0:3:38.060,930.657,52.6622,0,0.000885,0,0
0:3:38.454,932.125,52.7449,0,0.000885,0,0
0:3:38.849,933.535,52.8276,0,0.000885,0,0
0:3:39.254,935.706,52.9517,0,0.000885,0,0
0:3:39.658,937.467,53.0483,0,0.000885,0,0
0:3:40.063,939.229,53.1517,0,0.000885,0,0
0:3:40.465,940.519,53.2206,0,0.000885,0,0
0:3:40.861,942.574,53.3378,0,0.000885,0,0
0:3:41.257,944.922,53.4688,0,0.000885,0,0
0:3:41.657,946.328,53.5516,0,0.000885,0,0
0:3:42.053,948.032,53.6481,0,0.000885,0,0
0:3:42.448,950.202,53.7722,0,0.000885,0,0
0:3:42.854,951.848,53.8618,0,0.000885,0,0
0:3:43.263,953.254,53.9446,0,0.000885,0,0
0:3:43.658,954.9,54.0342,0,0.000885,0,0
0:3:44.065,956.955,54.1514,0,0.000885,0,0
0:3:44.470,958.423,54.2342,0,0.000885,0,0
0:3:44.873,960.945,54.379,0,0.000885,0,0
0:3:45.277,962.591,54.4686,0,0.000885,0,0
0:3:45.673,964.641,54.5858,0,0.000885,0,0
0:3:46.068,966.051,54.6685,0,0.000885,0,0
0:3:46.465,967.813,54.7651,0,0.000885,0,0
0:3:46.864,969.69,54.8754,0,0.000885,0,0
0:3:47.271,971.042,54.9512,0,0.000885,0,0
0:3:47.665,972.626,55.0408,0,0.000885,0,0
0:3:48.061,973.916,55.1098,0,0.000885,0,0
0:3:48.458,976.091,55.2339,0,0.000885,0,0
0:3:48.858,978.377,55.3649,0,0.000885,0,0
0:3:49.263,979.73,55.4407,0,0.000885,0,0
0:3:49.667,981.843,55.558,0,0.000885,0,0
0:3:50.068,983.311,55.6407,0,0.000885,0,0
0:3:50.469,985.481,55.7648,0,0.000885,0,0
0:3:50.868,986.656,55.8337,0,0.000885,0,0
0:3:51.264,988.826,55.9579,0,0.000885,0,0
0:3:51.656,990.058,56.0268,0,0.000885,0,0
0:3:52.054,992.879,56.1854,0,0.000885,0,0
0:3:52.464,994.226,56.2612,0,0.000885,0,0
0:3:52.859,996.046,56.3646,0,0.000885,0,0
0:3:53.255,997.162,56.4267,0,0.000885,0,0
0:3:53.651,999.862,56.5784,0,0.000885,0,0
0:3:54.053,1000.98,56.6404,0,0.000885,0,0
0:3:54.458,1003.27,56.7714,0,0.000885,0,0
0:3:54.863,1005.32,56.8886,0,0.000885,0,0
0:3:55.265,1006.85,56.9783,0,0.000885,0,0
0:3:55.663,1008.08,57.0472,0,0.000885,0,0
0:3:56.059,1009.43,57.1231,0,0.000885,0,0
0:3:56.456,1011.84,57.261,0,0.000885,0,0
0:3:56.853,1013.25,57.3368,0,0.000885,0,0
0:3:57.247,1014.48,57.4057,0,0.000885,0,0
0:3:57.647,1017.12,57.5574,0,0.000885,0,0
0:3:58.045,1019.06,57.6677,0,0.000885,0,0
0:3:58.451,1020,57.7229,0,0.000885,0,0
0:3:58.856,1022.05,57.8332,0,0.000885,0,0
0:3:59.260,1024.34,57.9642,0,0.000885,0,0
0:3:59.667,1026.34,58.0814,0,0.000885,0,0
0:4:0.069,1027.86,58.1642,0,0.000885,0,0
0:4:0.473,1029.63,58.2676,0,0.000885,0,0
0:4:0.869,1031.38,58.3641,0,0.000885,0,0
0:4:1.264,1033.44,58.4813,0,0.000885,0,0
0:4:1.664,1035.03,58.571,0,0.000885,0,0
0:4:2.063,1036.37,58.6468,0,0.000885,0,0
0:4:2.455,1038.54,58.7709,0,0.000885,0,0
0:4:2.851,1040.54,58.8812,0,0.000885,0,0
0:4:3.249,1042.01,58.964,0,0.000885,0,0
0:4:3.648,1043.13,59.026,0,0.000885,0,0
0:4:4.054,1045.59,59.1708,0,0.000885,0,0
0:4:4.458,1047.29,59.2673,0,0.000885,0,0
0:4:4.859,1049.64,59.3983,0,0.000885,0,0
0:4:5.260,1051.17,59.4811,0,0.000885,0,0
0:4:5.670,1052.46,59.5569,0,0.000885,0,0
0:4:6.068,1053.98,59.6465,0,0.000885,0,0
0:4:6.459,1055.92,59.75,0,0.000885,0,0
0:4:6.867,1057.33,59.8327,0,0.000885,0,0
0:4:7.267,1059.68,59.9637,0,0.000885,0,0
0:4:7.664,1060.44,60.012,0,0.000885,0,0
0:4:8.057,1062.26,60.1085,0,0.000885,0,0
0:4:8.454,1064.14,60.2188,0,0.000885,0,0
0:4:8.856,1066.49,60.3498,0,0.000885,0,0
0:4:9.265,1068.77,60.4808,0,0.000885,0,0
0:4:9.668,1070.42,60.5704,0,0.000885,0,0
0:4:10.069,1072.12,60.667,0,0.000885,0,0
0:4:10.466,1073.82,60.7635,0,0.000885,0,0
0:4:10.864,1075.23,60.8462,0,0.000885,0,0
0:4:11.260,1076.76,60.929,0,0.000885,0,0
0:4:11.656,1078.64,61.0393,0,0.000885,0,0
0:4:12.061,1081.39,61.1979,0,0.000885,0,0
0:4:12.458,1082.86,61.2806,0,0.000885,0,0
0:4:12.857,1084.21,61.3564,0,0.000885,0,0
0:4:13.254,1085.86,61.4461,0,0.000885,0,0
0:4:13.651,1088.2,61.5771,0,0.000885,0,0
0:4:14.056,1090.02,61.6805,0,0.000885,0,0
0:4:14.460,1091.38,61.7563,0,0.000885,0,0
0:4:14.860,1093.66,61.8873,0,0.000885,0,0
0:4:15.265,1093.9,61.9011,0,0.000885,0,0
0:4:15.669,1096.01,62.0183,0,0.000885,0,0
0:4:16.064,1098.77,62.1769,0,0.000885,0,0
0:4:16.460,1100.01,62.2459,0,0.000885,0,0
0:4:16.859,1100.94,62.301,0,0.000885,0,0
0:4:17.256,1103.94,62.4734,0,0.000885,0,0
0:4:17.672,1104.23,62.4872,0,0.000885,0,0
0:4:18.069,1106.81,62.632,0,0.000885,0,0
0:4:18.468,1109.04,62.7561,0,0.000885,0,0
0:4:18.866,1110.04,62.8181,0,0.000885,0,0
0:4:19.271,1112.74,62.9698,0,0.000885,0,0
0:4:19.676,1114.8,63.087,0,0.000885,0,0
0:4:20.078,1116.09,63.156,0,0.000885,0,0
0:4:20.481,1119.08,63.3283,0,0.000885,0,0
0:4:20.877,1119.79,63.3697,0,0.000885,0,0
0:4:21.273,1122.07,63.4938,0,0.000885,0,0
0:4:21.668,1123.72,63.5903,0,0.000885,0,0
0:4:22.069,1125.13,63.6662,0,0.000885,0,0
0:4:22.466,1127.24,63.7903,0,0.000885,0,0
0:4:22.858,1129.47,63.9144,0,0.000885,0,0
0:4:23.255,1130.59,63.9765,0,0.000885,0,0
0:4:23.662,1131.47,64.0247,0,0.000885,0,0
0:4:24.074,1134.05,64.1764,0,0.000885,0,0
0:4:24.479,1135.93,64.2798,0,0.000885,0,0
0:4:24.883,1137.81,64.3832,0,0.000885,0,0
0:4:25.285,1139.1,64.4591,0,0.000885,0,0
0:4:25.686,1140.98,64.5694,0,0.000885,0,0
0:4:26.082,1142.21,64.6383,0,0.000885,0,0
0:4:26.479,1144.03,64.7418,0,0.000885,0,0
0:4:26.874,1146.32,64.8659,0,0.000885,0,0
0:4:27.272,1147.14,64.9141,0,0.000885,0,0
0:4:27.672,1149.55,65.052,0,0.000885,0,0
0:4:28.068,1151.66,65.1692,0,0.000885,0,0
0:4:28.462,1152.19,65.2037,0,0.000885,0,0
0:4:28.867,1155.3,65.3761,0,0.000885,0,0
0:4:29.273,1156.3,65.4312,0,0.000885,0,0
0:4:29.675,1159.11,65.5898,0,0.000885,0,0
0:4:30.076,1159.99,65.645,0,0.000885,0,0
0:4:30.472,1161.76,65.7415,0,0.000885,0,0
0:4:30.871,1164.1,65.8725,0,0.000885,0,0
0:4:31.270,1165.45,65.9484,0,0.000885,0,0
0:4:31.666,1167.92,66.0931,0,0.000885,0,0
0:4:32.058,1169.09,66.1552,0,0.000885,0,0
0:4:32.455,1171.85,66.3138,0,0.000885,0,0
0:4:32.856,1172.2,66.3345,0,0.000885,0,0
0:4:33.252,1174.5,66.4655,0,0.000885,0,0
0:4:33.648,1175.37,66.5137,0,0.000885,0,0
0:4:34.052,1178.13,66.6654,0,0.000885,0,0
0:4:34.458,1179.25,66.7344,0,0.000885,0,0
0:4:34.860,1181.42,66.8516,0,0.000885,0,0
0:4:35.261,1183.12,66.9481,0,0.000885,0,0
0:4:35.667,1184.24,67.017,0,0.000885,0,0
0:4:36.067,1186.82,67.1618,0,0.000885,0,0
0:4:36.462,1188.11,67.2308,0,0.000885,0,0
0:4:36.858,1190.7,67.3825,0,0.000885,0,0
0:4:37.256,1191.81,67.4445,0,0.000885,0,0
0:4:37.660,1194.1,67.5755,0,0.000885,0,0
0:4:38.060,1195.39,67.6445,0,0.000885,0,0
0:4:38.458,1197.91,67.7893,0,0.000885,0,0
0:4:38.863,1198.5,67.8237,0,0.000885,0,0
0:4:39.269,1201.38,67.9823,0,0.000885,0,0
0:4:39.673,1202.96,68.0719,0,0.000885,0,0
0:4:40.077,1204.72,68.1754,0,0.000885,0,0
0:4:40.479,1207.25,68.3133,0,0.000885,0,0
0:4:40.874,1208.42,68.3822,0,0.000885,0,0
0:4:41.270,1209.83,68.4649,0,0.000885,0,0
0:4:41.668,1212.12,68.589,0,0.000885,0,0
0:4:42.076,1213.29,68.658,0,0.000885,0,0
0:4:42.473,1215.76,68.7959,0,0.000885,0,0
0:4:42.876,1216.34,68.8304,0,0.000885,0,0
0:4:43.275,1218.16,68.9338,0,0.000885,0,0
0:4:43.674,1220.1,69.0441,0,0.000885,0,0
0:4:44.080,1221.28,69.113,0,0.000885,0,0
0:4:44.483,1224.03,69.2647,0,0.000885,0,0
0:4:44.885,1225.85,69.3682,0,0.000885,0,0
0:4:45.285,1227.26,69.4509,0,0.000885,0,0
0:4:45.684,1229.96,69.6026,0,0.000885,0,0
0:4:46.079,1230.73,69.6439,0,0.000885,0,0
0:4:46.474,1232.61,69.7543,0,0.000885,0,0
0:4:46.872,1233.95,69.8301,0,0.000885,0,0
0:4:47.271,1236.71,69.9818,0,0.000885,0,0
0:4:47.678,1237.54,70.03,0,0.000885,0,0
0:4:48.073,1240.29,70.1886,0,0.000885,0,0
0:4:48.470,1241.53,70.2576,0,0.000885,0,0
0:4:48.873,1243.64,70.3748,0,0.000885,0,0
0:4:49.279,1245.58,70.4851,0,0.000885,0,0
0:4:49.681,1246.46,70.5334,0,0.000885,0,0
0:4:50.084,1248.75,70.6644,0,0.000885,0,0
0:4:50.480,1251.33,70.8092,0,0.000885,0,0
0:4:50.881,1251.97,70.8505,0,0.000885,0,0
0:4:51.277,1253.79,70.9471,0,0.000885,0,0
0:4:51.672,1256.32,71.0918,0,0.000885,0,0
0:4:52.069,1257.55,71.1608,0,0.000885,0,0
0:4:52.476,1258.49,71.2159,0,0.000885,0,0
0:4:52.875,1260.84,71.3469,0,0.000885,0,0
0:4:53.271,1263.01,71.4711,0,0.000885,0,0
0:4:53.674,1263.6,71.5055,0,0.000885,0,0
0:4:54.077,1265.95,71.6365,0,0.000885,0,0
0:4:54.483,1268.41,71.7744,0,0.000885,0,0
0:4:54.889,1269.76,71.8572,0,0.000885,0,0
0:4:55.290,1270.94,71.9192,0,0.000885,0,0
0:4:55.685,1273.05,72.0364,0,0.000885,0,0
0:4:56.086,1274.81,72.1398,0,0.000885,0,0
0:4:56.484,1276.75,72.2502,0,0.000885,0,0
0:4:56.879,1278.69,72.3605,0,0.000885,0,0
0:4:57.275,1280.62,72.4708,0,0.000885,0,0
0:4:57.673,1282.79,72.588,0,0.000885,0,0
0:4:58.074,1283.79,72.6501,0,0.000885,0,0
0:4:58.480,1285.26,72.7328,0,0.000885,0,0
0:4:58.873,1287.78,72.8707,0,0.000885,0,0
0:4:59.276,1289.78,72.9879,0,0.000885,0,0
0:4:59.683,1290.78,73.0431,0,0.000885,0,0
0:5:0.086,1292.89,73.1603,0,0.000885,0,0
0:5:0.490,1294.89,73.2775,0,0.000885,0,0
0:5:0.885,1296.59,73.374,0,0.000885,0,0
0:5:1.283,1297.7,73.4361,0,0.000885,0,0
0:5:1.684,1300.05,73.5671,0,0.000885,0,0
0:5:2.080,1301.17,73.6291,0,0.000885,0,0
0:5:2.475,1303.45,73.7601,0,0.000885,0,0
0:5:2.871,1305.16,73.8566,0,0.000885,0,0
0:5:3.270,1306.63,73.9394,0,0.000885,0,0
0:5:3.670,1308.5,74.0428,0,0.000885,0,0
0:5:4.076,1310.09,74.1324,0,0.000885,0,0
0:5:4.479,1312.67,74.2841,0,0.000885,0,0
0:5:4.882,1314.02,74.36,0,0.000885,0,0
0:5:5.284,1316.08,74.4772,0,0.000885,0,0
0:5:5.680,1317.43,74.553,0,0.000885,0,0
0:5:6.075,1319.19,74.6495,0,0.000885,0,0
0:5:6.471,1321.3,74.7736,0,0.000885,0,0
0:5:6.871,1322.94,74.8633,0,0.000885,0,0
0:5:7.279,1324.59,74.9529,0,0.000885,0,0
0:5:7.673,1326.82,75.0839,0,0.000885,0,0
0:5:8.067,1328.58,75.1804,0,0.000885,0,0
0:5:8.477,1330.87,75.3114,0,0.000885,0,0
0:5:8.876,1331.63,75.3528,0,0.000885,0,0
0:5:9.282,1332.87,75.4217,0,0.000885,0,0
0:5:9.685,1335.21,75.5596,0,0.000885,0,0
0:5:10.089,1337.15,75.67,0,0.000885,0,0
0:5:10.490,1339.32,75.7872,0,0.000885,0,0
0:5:10.889,1341.08,75.8906,0,0.000885,0,0
0:5:11.284,1342.37,75.9595,0,0.000885,0,0
0:5:11.678,1343.96,76.0492,0,0.000885,0,0
0:5:12.077,1345.89,76.1595,0,0.000885,0,0
0:5:12.476,1347.07,76.2284,0,0.000885,0,0
0:5:12.871,1349.36,76.3594,0,0.000885,0,0
0:5:13.276,1350.88,76.4422,0,0.000885,0,0
0:5:13.672,1352.82,76.5525,0,0.000885,0,0
0:5:14.074,1354.52,76.649,0,0.000885,0,0
0:5:14.479,1356.58,76.7662,0,0.000885,0,0
0:5:14.882,1357.81,76.8352,0,0.000885,0,0
0:5:15.285,1360.04,76.9593,0,0.000885,0,0
0:5:15.684,1361.98,77.0696,0,0.000885,0,0
0:5:16.084,1363.74,77.173,0,0.000885,0,0
0:5:16.481,1365.27,77.2558,0,0.000885,0,0
0:5:16.876,1367.26,77.373,0,0.000885,0,0
0:5:17.273,1369.26,77.4833,0,0.000885,0,0
0:5:17.673,1370.37,77.5453,0,0.000885,0,0
0:5:18.080,1372.43,77.6625,0,0.000885,0,0
0:5:18.475,1374.3,77.7729,0,0.000885,0,0
0:5:18.880,1376.07,77.8694,0,0.000885,0,0
0:5:19.285,1377.24,77.9383,0,0.000885,0,0
0:5:19.686,1379.3,78.0487,0,0.000885,0,0
0:5:20.090,1382.05,78.2072,0,0.000885,0,0
0:5:20.484,1382.81,78.2486,0,0.000885,0,0
0:5:20.881,1384.22,78.3313,0,0.000885,0,0
0:5:21.279,1387.1,78.4968,0,0.000885,0,0
0:5:21.678,1388.57,78.5795,0,0.000885,0,0
0:5:22.074,1390.04,78.6623,0,0.000885,0,0
0:5:22.478,1391.33,78.7312,0,0.000885,0,0
0:5:22.879,1393.21,78.8415,0,0.000885,0,0
0:5:23.277,1395.73,78.9794,0,0.000885,0,0
0:5:23.673,1397.14,79.0622,0,0.000885,0,0
0:5:24.078,1398.73,79.1518,0,0.000885,0,0
0:5:24.482,1400.37,79.2414,0,0.000885,0,0
0:5:24.885,1401.72,79.3242,0,0.000885,0,0
0:5:25.290,1404.53,79.4828,0,0.000885,0,0
0:5:25.685,1405.77,79.5517,0,0.000885,0,0
0:5:26.080,1407.53,79.6482,0,0.000885,0,0
0:5:26.479,1410.34,79.8068,0,0.000885,0,0
0:5:26.878,1410.99,79.8482,0,0.000885,0,0
0:5:27.275,1413.04,79.9654,0,0.000885,0,0
0:5:27.680,1415.04,80.0757,0,0.000885,0,0
0:5:28.077,1416.04,80.1309,0,0.000885,0,0
0:5:28.477,1418.74,80.2826,0,0.000885,0,0
0:5:28.872,1419.33,80.317,0,0.000885,0,0
0:5:29.277,1422.09,80.4756,0,0.000885,0,0
0:5:29.682,1423.26,80.5377,0,0.000885,0,0
0:5:30.085,1425.9,80.6893,0,0.000885,0,0
0:5:30.489,1426.61,80.7307,0,0.000885,0,0
0:5:30.883,1429.48,80.8893,0,0.000885,0,0
0:5:31.279,1430.65,80.9582,0,0.000885,0,0
0:5:31.677,1431.71,81.0203,0,0.000885,0,0
0:5:32.075,1434.65,81.1858,0,0.000885,0,0
0:5:32.472,1435.12,81.2133,0,0.000885,0,0
0:5:32.877,1438.52,81.4064,0,0.000885,0,0
0:5:33.274,1439.64,81.4685,0,0.000885,0,0
0:5:33.672,1441.63,81.5788,0,0.000885,0,0
0:5:34.081,1443.8,81.7029,0,0.000885,0,0
0:5:34.485,1444.98,81.7718,0,0.000885,0,0
0:5:34.890,1446.27,81.8408,0,0.000885,0,0
0:5:35.293,1448.44,81.9649,0,0.000885,0,0
0:5:35.696,1450.79,82.0959,0,0.000885,0,0
0:5:36.093,1451.79,82.151,0,0.000885,0,0
0:5:36.486,1453.55,82.2545,0,0.000885,0,0
0:5:36.882,1456.25,82.4061,0,0.000885,0,0
0:5:37.282,1457.19,82.4613,0,0.000885,0,0
0:5:37.681,1457.89,82.5027,0,0.000885,0,0
0:5:38.077,1460.59,82.6544,0,0.000885,0,0
0:5:38.470,1461.77,82.7164,0,0.000885,0,0
0:5:38.874,1464.82,82.8888,0,0.000885,0,0
0:5:39.280,1465.52,82.9301,0,0.000885,0,0
0:5:39.684,1467.99,83.068,0,0.000885,0,0
0:5:40.086,1469.87,83.1784,0,0.000885,0,0
0:5:40.483,1470.63,83.2197,0,0.000885,0,0
0:5:40.882,1473.57,83.3852,0,0.000885,0,0
0:5:41.282,1474.86,83.461,0,0.000885,0,0
0:5:41.677,1475.97,83.5231,0,0.000885,0,0
0:5:42.082,1478.44,83.661,0,0.000885,0,0
0:5:42.478,1479.26,83.7092,0,0.000885,0,0
0:5:42.879,1482.44,83.8885,0,0.000885,0,0
0:5:43.276,1483.33,83.9368,0,0.000885,0,0
0:5:43.680,1485.92,84.0885,0,0.000885,0,0
0:5:44.083,1487.33,84.1643,0,0.000885,0,0
0:5:44.489,1489.69,84.3022,0,0.000885,0,0
0:5:44.892,1490.27,84.3298,0,0.000885,0,0
0:5:45.295,1492.86,84.4815,0,0.000885,0,0
0:5:45.690,1494.63,84.578,0,0.000885,0,0
0:5:46.089,1495.1,84.6056,0,0.000885,0,0
0:5:46.487,1497.64,84.7504,0,0.000885,0,0
0:5:46.884,1500.23,84.8951,0,0.000885,0,0
0:5:47.280,1501.7,84.9779,0,0.000885,0,0
0:5:47.675,1503.58,85.0882,0,0.000885,0,0
0:5:48.082,1504.76,85.1503,0,0.000885,0,0
0:5:48.483,1506.29,85.2399,0,0.000885,0,0
0:5:48.879,1508.53,85.364,0,0.000885,0,0
0:5:49.283,1510.71,85.4881,0,0.000885,0,0
0:5:49.686,1511.35,85.5226,0,0.000885,0,0
0:5:50.090,1513.36,85.6398,0,0.000885,0,0
0:5:50.492,1516.01,85.7915,0,0.000885,0,0
0:5:50.886,1516.59,85.819,0,0.000885,0,0
0:5:51.282,1518.6,85.9363,0,0.000885,0,0
0:5:51.681,1521.01,86.0741,0,0.000885,0,0
0:5:52.081,1522.54,86.1569,0,0.000885,0,0
0:5:52.476,1524.54,86.2741,0,0.000885,0,0
0:5:52.880,1526.07,86.3568,0,0.000885,0,0
0:5:53.277,1527.72,86.4534,0,0.000885,0,0
0:5:53.679,1529.78,86.5706,0,0.000885,0,0
0:5:54.084,1532.2,86.7016,0,0.000885,0,0
0:5:54.486,1533.26,86.7636,0,0.000885,0,0
0:5:54.890,1535.26,86.8808,0,0.000885,0,0
0:5:55.289,1536.85,86.9705,0,0.000885,0,0
0:5:55.686,1538.32,87.0532,0,0.000885,0,0
0:5:56.082,1540.97,87.198,0,0.000885,0,0
0:5:56.475,1541.27,87.2187,0,0.000885,0,0
0:5:56.883,1542.97,87.3152,0,0.000885,0,0
0:5:57.282,1545.68,87.4669,0,0.000885,0,0
0:5:57.679,1547.86,87.591,0,0.000885,0,0
0:5:58.083,1549.45,87.6806,0,0.000885,0,0
0:5:58.478,1550.33,87.7289,0,0.000885,0,0
0:5:58.880,1552.22,87.8392,0,0.000885,0,0
0:5:59.287,1554.16,87.9495,0,0.000885,0,0
0:5:59.691,1555.52,88.0254,0,0.000885,0,0
0:6:0.093,1557.34,88.1288,0,0.000885,0,0
0:6:0.490,1558.34,88.1839,0,0.000885,0,0
0:6:0.891,1560.88,88.3287,0,0.000885,0,0
0:6:1.286,1562.29,88.4046,0,0.000885,0,0
0:6:1.681,1563.94,88.5011,0,0.000885,0,0
0:6:2.077,1566.29,88.6321,0,0.000885,0,0
0:6:2.485,1568.35,88.7493,0,0.000885,0,0
0:6:2.883,1570.71,88.8872,0,0.000885,0,0
0:6:3.279,1572.71,88.9975,0,0.000885,0,0
0:6:3.671,1573.71,89.0527,0,0.000885,0,0
0:6:4.077,1575.77,89.1699,0,0.000885,0,0
0:6:4.483,1577.89,89.2871,0,0.000885,0,0
0:6:4.886,1579.42,89.3767,0,0.000885,0,0
0:6:5.287,1580.72,89.4526,0,0.000885,0,0
0:6:5.683,1581.42,89.4871,0,0.000885,0,0
0:6:6.081,1580.96,89.4664,0,0.000885,0,0
0:6:6.481,1580.84,89.4595,0,0.000885,0,0
0:6:6.883,1579.42,89.3767,0,0.000885,0,0
0:6:7.277,1575.54,89.1561,0,0.000885,0,0
0:6:7.682,1540.15,87.1566,0,0.000885,0,0
0:6:8.081,1480.15,83.7575,0,0.000885,0,0
0:6:8.478,1461.94,82.7302,0,0.000885,0,0
0:6:8.881,1458.83,82.5509,0,0.000885,0,0
0:6:9.285,1461.77,82.7164,0,0.000885,0,0
0:6:9.688,1465.35,82.9232,0,0.000885,0,0
0:6:10.090,1460.48,82.6475,0,0.000885,0,0
0:6:10.402,1138.98,64.4522,0,0.000885,0,0