File: DataFile2021-06-29_070411.csv
Test ID:,Date Tested:,Time:,Test Type:,Diameter Avg. (mm):,Cyl. Corr. Factor:,Height (mm):,Age (days):,Weight (kN):,Break Type:,Ramp Rate (MPa/s):,Load at Break (kN):,Stress at Break (MPa):
12,6/29/2021,07:04,Cylinder,100,1,200,0,3.6,3,0.25,694.98,88.49
Sample Time,Load (kN),Stress (MPa),Long. Strain,Trans. Strain,Chan1 Deflection (mm),Chan2 Deflection (mm)
0:0:16.967,5.04428,0.641212,0,0.000885,0,0
0:0:17.269,9.03434,1.15142,0,0.000885,0,0
0:0:17.566,12.0814,1.53753,0,0.000885,0,0
0:0:17.863,10.6757,1.35827,0,0.000885,0,0
0:0:18.163,10.2042,1.29621,0,0.000885,0,0
0:0:18.457,10.0307,1.27553,0,0.000885,0,0
0:0:18.758,9.79498,1.24795,0,0.000885,0,0
0:0:19.053,9.32347,1.1859,0,0.000885,0,0
0:0:19.352,9.5014,1.20658,0,0.000885,0,0
0:0:19.650,9.67933,1.23416,0,0.000885,0,0
0:0:19.946,10.6179,1.35137,0,0.000885,0,0
0:0:20.247,11.2006,1.42721,0,0.000885,0,0
0:0:20.541,11.2006,1.42721,0,0.000885,0,0
0:0:20.840,11.552,1.46858,0,0.000885,0,0
0:0:21.136,11.6721,1.48927,0,0.000885,0,0
0:0:21.435,12.4906,1.59269,0,0.000885,0,0
0:0:21.734,13.6649,1.73748,0,0.000885,0,0
0:0:22.029,14.0163,1.78574,0,0.000885,0,0
0:0:22.332,14.8393,1.88916,0,0.000885,0,0
0:0:22.636,15.8357,2.01327,0,0.000885,0,0
0:0:22.939,16.7164,2.13048,0,0.000885,0,0
0:0:23.241,17.4771,2.22701,0,0.000885,0,0
0:0:23.545,18.6514,2.3718,0,0.000885,0,0
0:0:23.847,19.59,2.4959,0,0.000885,0,0
0:0:24.145,19.9992,2.54417,0,0.000885,0,0
0:0:24.447,20.235,2.57864,0,0.000885,0,0
0:0:24.744,21.1157,2.68896,0,0.000885,0,0
0:0:25.042,21.8185,2.77859,0,0.000885,0,0
0:0:25.342,22.0543,2.80617,0,0.000885,0,0
0:0:25.637,22.2856,2.84064,0,0.000885,0,0
0:0:25.940,22.8728,2.90959,0,0.000885,0,0
0:0:26.236,23.6957,3.0199,0,0.000885,0,0
0:0:26.536,24.2206,3.08196,0,0.000885,0,0
0:0:26.833,24.0471,3.06127,0,0.000885,0,0
0:0:27.130,24.7499,3.1509,0,0.000885,0,0
0:0:27.430,25.7463,3.27501,0,0.000885,0,0
0:0:27.733,26.2178,3.33706,0,0.000885,0,0
0:0:28.038,26.805,3.4129,0,0.000885,0,0
0:0:28.339,27.0363,3.44048,0,0.000885,0,0
0:0:28.643,27.7436,3.53012,0,0.000885,0,0
0:0:28.945,28.4464,3.61975,0,0.000885,0,0
0:0:29.242,29.207,3.71627,0,0.000885,0,0
0:0:29.543,29.7364,3.78522,0,0.000885,0,0
0:0:29.839,30.2657,3.85417,0,0.000885,0,0
0:0:30.140,30.9107,3.93691,0,0.000885,0,0
0:0:30.439,31.9649,4.06791,0,0.000885,0,0
0:0:30.738,32.432,4.12996,0,0.000885,0,0
0:0:31.038,32.7878,4.17133,0,0.000885,0,0
0:0:31.333,33.6641,4.28854,0,0.000885,0,0
0:0:31.634,34.2513,4.36438,0,0.000885,0,0
0:0:31.930,34.8963,4.44022,0,0.000885,0,0
0:0:32.234,35.3678,4.50228,0,0.000885,0,0
0:0:32.539,35.8349,4.56433,0,0.000885,0,0
0:0:32.842,36.4799,4.64707,0,0.000885,0,0
0:0:33.145,36.9514,4.70222,0,0.000885,0,0
0:0:33.447,36.7156,4.67465,0,0.000885,0,0
0:0:33.747,37.9478,4.83322,0,0.000885,0,0
0:0:34.047,38.2414,4.8677,0,0.000885,0,0
0:0:34.344,38.9442,4.95733,0,0.000885,0,0
0:0:34.645,39.5892,5.04007,0,0.000885,0,0
0:0:34.941,40.4121,5.14349,0,0.000885,0,0
0:0:35.243,41.1149,5.23312,0,0.000885,0,0
0:0:35.540,41.8756,5.32965,0,0.000885,0,0
0:0:35.839,42.7563,5.44686,0,0.000885,0,0
0:0:36.138,42.8141,5.45375,0,0.000885,0,0
0:0:36.435,43.6949,5.56407,0,0.000885,0,0
0:0:36.737,43.8684,5.58475,0,0.000885,0,0
0:0:37.031,44.3399,5.64681,0,0.000885,0,0
0:0:37.334,45.2206,5.75712,0,0.000885,0,0
0:0:37.638,45.8078,5.83296,0,0.000885,0,0
0:0:37.943,46.1014,5.86744,0,0.000885,0,0
0:0:38.243,46.7464,5.95018,0,0.000885,0,0
0:0:38.547,47.2134,6.01223,0,0.000885,0,0
0:0:38.850,47.5648,6.0536,0,0.000885,0,0
0:0:39.146,48.3299,6.15012,0,0.000885,0,0
0:0:39.446,49.2685,6.27423,0,0.000885,0,0
0:0:39.745,49.9135,6.35697,0,0.000885,0,0
0:0:40.041,50.2649,6.39833,0,0.000885,0,0
0:0:40.343,50.6741,6.45349,0,0.000885,0,0
0:0:40.638,51.0255,6.49486,0,0.000885,0,0
0:0:40.939,51.9641,6.61897,0,0.000885,0,0
0:0:41.236,52.9605,6.74307,0,0.000885,0,0
0:0:41.535,53.3698,6.79823,0,0.000885,0,0
0:0:41.836,54.2505,6.90855,0,0.000885,0,0
0:0:42.131,54.8955,6.99128,0,0.000885,0,0
0:0:42.435,55.0734,7.01197,0,0.000885,0,0
0:0:42.738,55.8919,7.11539,0,0.000885,0,0
0:0:43.042,56.2478,7.16365,0,0.000885,0,0
0:0:43.344,56.8928,7.24639,0,0.000885,0,0
0:0:43.647,57.2442,7.28776,0,0.000885,0,0
0:0:43.950,58.2406,7.41876,0,0.000885,0,0
0:0:44.245,58.5341,7.45323,0,0.000885,0,0
0:0:44.546,59.059,7.52218,0,0.000885,0,0
0:0:44.847,59.8241,7.61871,0,0.000885,0,0
0:0:45.143,60.0599,7.64629,0,0.000885,0,0
0:0:45.444,61.2298,7.79797,0,0.000885,0,0
0:0:45.739,62.1105,7.90829,0,0.000885,0,0
0:0:46.041,62.1683,7.91518,0,0.000885,0,0
0:0:46.336,62.6977,7.98413,0,0.000885,0,0
0:0:46.635,63.1647,8.03929,0,0.000885,0,0
0:0:46.936,64.2813,8.18408,0,0.000885,0,0
0:0:47.232,64.5748,8.21855,0,0.000885,0,0
0:0:47.533,65.162,8.29439,0,0.000885,0,0
0:0:47.837,65.6869,8.36334,0,0.000885,0,0
0:0:48.141,65.9805,8.39781,0,0.000885,0,0
0:0:48.445,67.2705,8.56329,0,0.000885,0,0
0:0:48.746,67.2126,8.55639,0,0.000885,0,0
0:0:49.049,67.9154,8.64603,0,0.000885,0,0
0:0:49.345,68.6227,8.73566,0,0.000885,0,0
0:0:49.648,69.3834,8.83218,0,0.000885,0,0
0:0:49.944,69.7926,8.88734,0,0.000885,0,0
0:0:50.244,70.3219,8.95629,0,0.000885,0,0
0:0:50.542,70.8513,9.01834,0,0.000885,0,0
0:0:50.839,71.6697,9.12866,0,0.000885,0,0
0:0:51.141,72.4348,9.22519,0,0.000885,0,0
0:0:51.437,72.6083,9.24587,0,0.000885,0,0
0:0:51.737,73.2533,9.32861,0,0.000885,0,0
0:0:52.033,74.1341,9.43892,0,0.000885,0,0
0:0:52.337,74.6634,9.50787,0,0.000885,0,0
0:0:52.643,74.7212,9.51477,0,0.000885,0,0
0:0:52.945,75.424,9.6044,0,0.000885,0,0
0:0:53.248,76.1891,9.70092,0,0.000885,0,0
0:0:53.551,76.9498,9.79745,0,0.000885,0,0
0:0:53.849,77.4168,9.8595,0,0.000885,0,0
0:0:54.148,78.0618,9.94224,0,0.000885,0,0
0:0:54.446,78.8848,10.0457,0,0.000885,0,0
0:0:54.747,79.7077,10.1491,0,0.000885,0,0
0:0:55.041,80.2326,10.218,0,0.000885,0,0
0:0:55.342,80.2904,10.2249,0,0.000885,0,0
0:0:55.638,81.229,10.3421,0,0.000885,0,0
0:0:55.936,81.5226,10.3766,0,0.000885,0,0
0:0:56.236,81.9941,10.4387,0,0.000885,0,0
0:0:56.532,82.7547,10.5352,0,0.000885,0,0
0:0:56.835,83.3997,10.6179,0,0.000885,0,0
0:0:57.130,84.0447,10.7007,0,0.000885,0,0
0:0:57.432,84.3383,10.7351,0,0.000885,0,0
0:0:57.737,84.5162,10.7627,0,0.000885,0,0
0:0:58.041,85.864,10.9351,0,0.000885,0,0
0:0:58.343,86.1576,10.9696,0,0.000885,0,0
0:0:58.645,86.8026,11.0523,0,0.000885,0,0
0:0:58.946,87.4476,11.135,0,0.000885,0,0
0:0:59.243,88.5641,11.2729,0,0.000885,0,0
0:0:59.543,89.0312,11.335,0,0.000885,0,0
0:0:59.842,89.734,11.4246,0,0.000885,0,0
0:1:0.138,90.2633,11.4936,0,0.000885,0,0
0:1:0.439,90.2055,11.4867,0,0.000885,0,0
0:1:0.736,90.7927,11.5625,0,0.000885,0,0
0:1:1.036,91.8469,11.6935,0,0.000885,0,0
0:1:1.333,91.5533,11.659,0,0.000885,0,0
0:1:1.632,92.6075,11.79,0,0.000885,0,0
0:1:1.932,93.3726,11.8866,0,0.000885,0,0
0:1:2.226,93.8397,11.9486,0,0.000885,0,0
0:1:2.529,94.7204,12.0589,0,0.000885,0,0
0:1:2.834,95.7168,12.1899,0,0.000885,0,0
0:1:3.136,95.6012,12.1692,0,0.000885,0,0
0:1:3.440,96.4819,12.2865,0,0.000885,0,0
0:1:3.741,96.8912,12.3347,0,0.000885,0,0
0:1:4.045,97.5362,12.4175,0,0.000885,0,0
0:1:4.339,97.7719,12.4519,0,0.000885,0,0
0:1:4.640,98.7105,12.5691,0,0.000885,0,0
0:1:4.938,99.4711,12.6657,0,0.000885,0,0
0:1:5.236,99.9426,12.7277,0,0.000885,0,0
0:1:5.537,100.41,12.7829,0,0.000885,0,0
0:1:5.833,100.997,12.8587,0,0.000885,0,0
0:1:6.135,101.233,12.8863,0,0.000885,0,0
0:1:6.431,102.523,13.0518,0,0.000885,0,0
0:1:6.730,102.754,13.0862,0,0.000885,0,0
0:1:7.030,103.399,13.1621,0,0.000885,0,0
0:1:7.332,104.164,13.2655,0,0.000885,0,0
0:1:7.639,104.631,13.3207,0,0.000885,0,0
0:1:7.942,105.218,13.3965,0,0.000885,0,0
0:1:8.243,105.512,13.431,0,0.000885,0,0
0:1:8.545,105.983,13.493,0,0.000885,0,0
0:1:8.844,106.686,13.5827,0,0.000885,0,0
0:1:9.143,107.74,13.7206,0,0.000885,0,0
0:1:9.440,107.976,13.7481,0,0.000885,0,0
0:1:9.741,108.505,13.8171,0,0.000885,0,0
0:1:10.037,109.208,13.9067,0,0.000885,0,0
0:1:10.337,109.382,13.9274,0,0.000885,0,0
0:1:10.635,110.32,14.0446,0,0.000885,0,0
0:1:10.931,110.965,14.1274,0,0.000885,0,0
0:1:11.232,111.61,14.2101,0,0.000885,0,0
0:1:11.528,112.14,14.279,0,0.000885,0,0
0:1:11.829,113.314,14.4307,0,0.000885,0,0
0:1:12.126,113.194,14.41,0,0.000885,0,0
0:1:12.428,114.546,14.5824,0,0.000885,0,0
0:1:12.732,114.484,14.5755,0,0.000885,0,0
0:1:13.036,115.422,14.6996,0,0.000885,0,0
0:1:13.338,115.658,14.7272,0,0.000885,0,0
0:1:13.641,116.597,14.8444,0,0.000885,0,0
0:1:13.940,116.423,14.8237,0,0.000885,0,0
0:1:14.239,117.006,14.8996,0,0.000885,0,0
0:1:14.537,118.123,15.0375,0,0.000885,0,0
0:1:14.838,118.532,15.0926,0,0.000885,0,0
0:1:15.131,119.47,15.2098,0,0.000885,0,0
0:1:15.434,119.822,15.2581,0,0.000885,0,0
0:1:15.730,120.115,15.2926,0,0.000885,0,0
0:1:16.029,121.463,15.4649,0,0.000885,0,0
0:1:16.329,121.757,15.4994,0,0.000885,0,0
0:1:16.625,122.637,15.6166,0,0.000885,0,0
0:1:16.926,122.58,15.6097,0,0.000885,0,0
0:1:17.221,123.34,15.7063,0,0.000885,0,0
0:1:17.524,123.927,15.7821,0,0.000885,0,0
0:1:17.829,124.105,15.8028,0,0.000885,0,0
0:1:18.133,125.338,15.9614,0,0.000885,0,0
0:1:18.435,125.631,15.9958,0,0.000885,0,0
0:1:18.737,126.628,16.1199,0,0.000885,0,0
0:1:19.039,127.095,16.182,0,0.000885,0,0
0:1:19.336,127.33,16.2096,0,0.000885,0,0
0:1:19.635,127.86,16.2785,0,0.000885,0,0
0:1:19.935,128.563,16.3682,0,0.000885,0,0
0:1:20.228,129.737,16.5198,0,0.000885,0,0
0:1:20.531,129.381,16.4716,0,0.000885,0,0
0:1:20.826,130.262,16.5888,0,0.000885,0,0
0:1:21.127,130.675,16.637,0,0.000885,0,0
0:1:21.425,131.552,16.7474,0,0.000885,0,0
0:1:21.723,132.726,16.8991,0,0.000885,0,0
0:1:22.024,132.784,16.9059,0,0.000885,0,0
0:1:22.317,133.429,16.9887,0,0.000885,0,0
0:1:22.621,133.78,17.0369,0,0.000885,0,0
0:1:22.925,134.194,17.0852,0,0.000885,0,0
0:1:23.229,134.839,17.1679,0,0.000885,0,0
0:1:23.532,135.248,17.2231,0,0.000885,0,0
0:1:23.833,136.245,17.3472,0,0.000885,0,0
0:1:24.137,137.01,17.4437,0,0.000885,0,0
0:1:24.433,137.944,17.5609,0,0.000885,0,0
0:1:24.732,138.006,17.5747,0,0.000885,0,0
0:1:25.032,138.651,17.6506,0,0.000885,0,0
0:1:25.329,139.118,17.7126,0,0.000885,0,0
0:1:25.630,139.999,17.8229,0,0.000885,0,0
0:1:25.926,140.702,17.9126,0,0.000885,0,0
0:1:26.226,140.937,17.9471,0,0.000885,0,0
0:1:26.523,141.525,18.016,0,0.000885,0,0
0:1:26.821,141.992,18.0781,0,0.000885,0,0
0:1:27.123,143.224,18.2366,0,0.000885,0,0
0:1:27.426,143.695,18.2987,0,0.000885,0,0
0:1:27.730,144.22,18.3607,0,0.000885,0,0
0:1:28.033,144.162,18.3538,0,0.000885,0,0
0:1:28.335,145.217,18.4917,0,0.000885,0,0
0:1:28.639,146.097,18.6021,0,0.000885,0,0
0:1:28.935,146.569,18.6641,0,0.000885,0,0
0:1:29.237,146.742,18.6848,0,0.000885,0,0
0:1:29.532,147.565,18.7882,0,0.000885,0,0
0:1:29.833,148.032,18.8503,0,0.000885,0,0
0:1:30.129,148.74,18.9399,0,0.000885,0,0
0:1:30.427,149.029,18.9744,0,0.000885,0,0
0:1:30.728,150.261,19.133,0,0.000885,0,0
0:1:31.022,150.612,19.1743,0,0.000885,0,0
0:1:31.325,151.026,19.2295,0,0.000885,0,0
0:1:31.619,151.026,19.2295,0,0.000885,0,0
0:1:31.920,151.844,19.3329,0,0.000885,0,0
0:1:32.218,152.432,19.4087,0,0.000885,0,0
0:1:32.522,153.722,19.5742,0,0.000885,0,0
0:1:32.826,153.842,19.588,0,0.000885,0,0
0:1:33.128,154.78,19.7052,0,0.000885,0,0
0:1:33.430,155.19,19.7604,0,0.000885,0,0
0:1:33.732,156.012,19.8638,0,0.000885,0,0
0:1:34.031,156.773,19.9603,0,0.000885,0,0
0:1:34.331,156.947,19.981,0,0.000885,0,0
0:1:34.627,156.947,19.981,0,0.000885,0,0
0:1:34.929,157.947,20.112,0,0.000885,0,0
0:1:35.224,158.824,20.2223,0,0.000885,0,0
0:1:35.526,159.469,20.3051,0,0.000885,0,0
0:1:35.824,159.94,20.3671,0,0.000885,0,0
0:1:36.121,160.527,20.4361,0,0.000885,0,0
0:1:36.420,160.527,20.4361,0,0.000885,0,0
0:1:36.717,161.524,20.5671,0,0.000885,0,0
0:1:37.019,162.347,20.6705,0,0.000885,0,0
0:1:37.323,162.347,20.6705,0,0.000885,0,0
0:1:37.628,163.343,20.7946,0,0.000885,0,0
0:1:37.933,164.575,20.9532,0,0.000885,0,0
0:1:38.235,164.34,20.9256,0,0.000885,0,0
0:1:38.538,165.336,21.0497,0,0.000885,0,0
0:1:38.840,165.572,21.0842,0,0.000885,0,0
0:1:39.141,166.275,21.1738,0,0.000885,0,0
0:1:39.440,167.387,21.3117,0,0.000885,0,0
0:1:39.736,167.742,21.36,0,0.000885,0,0
0:1:40.038,168.094,21.4013,0,0.000885,0,0
0:1:40.331,168.797,21.491,0,0.000885,0,0
0:1:40.633,169.677,21.6013,0,0.000885,0,0
0:1:40.930,169.615,21.5944,0,0.000885,0,0
0:1:41.229,170.554,21.7185,0,0.000885,0,0
0:1:41.529,171.199,21.8012,0,0.000885,0,0
0:1:41.825,171.555,21.8426,0,0.000885,0,0
0:1:42.127,172.431,21.9529,0,0.000885,0,0
0:1:42.432,172.96,22.0219,0,0.000885,0,0
0:1:42.735,173.138,22.0425,0,0.000885,0,0
0:1:43.038,174.077,22.1666,0,0.000885,0,0
0:1:43.339,174.722,22.2494,0,0.000885,0,0
0:1:43.643,174.837,22.2632,0,0.000885,0,0
0:1:43.937,176.012,22.408,0,0.000885,0,0
0:1:44.240,176.537,22.4769,0,0.000885,0,0
0:1:44.536,177.244,22.5665,0,0.000885,0,0
0:1:44.835,177.653,22.6217,0,0.000885,0,0
0:1:45.133,178.472,22.7251,0,0.000885,0,0
0:1:45.430,178.885,22.7734,0,0.000885,0,0
0:1:45.731,178.534,22.732,0,0.000885,0,0
0:1:46.025,179.762,22.8906,0,0.000885,0,0
0:1:46.328,180.82,23.0216,0,0.000885,0,0
0:1:46.624,180.642,23.0009,0,0.000885,0,0
0:1:46.921,181.639,23.125,0,0.000885,0,0
0:1:47.221,182.346,23.2146,0,0.000885,0,0
0:1:47.525,182.933,23.2905,0,0.000885,0,0
0:1:47.828,183.516,23.3663,0,0.000885,0,0
0:1:48.132,184.397,23.4766,0,0.000885,0,0
0:1:48.433,184.69,23.518,0,0.000885,0,0
0:1:48.736,185.099,23.5663,0,0.000885,0,0
0:1:49.033,185.98,23.6766,0,0.000885,0,0
0:1:49.335,186.332,23.7249,0,0.000885,0,0
0:1:49.631,186.625,23.7593,0,0.000885,0,0
0:1:49.931,187.212,23.8352,0,0.000885,0,0
0:1:50.229,188.267,23.9731,0,0.000885,0,0
0:1:50.527,188.738,24.0282,0,0.000885,0,0
0:1:50.829,189.499,24.1248,0,0.000885,0,0
0:1:51.123,190.028,24.1937,0,0.000885,0,0
0:1:51.424,190.202,24.2144,0,0.000885,0,0
0:1:51.721,191.376,24.3661,0,0.000885,0,0
0:1:52.020,192.079,24.4557,0,0.000885,0,0
0:1:52.319,192.314,24.4833,0,0.000885,0,0
0:1:52.621,192.902,24.5591,0,0.000885,0,0
0:1:52.923,193.195,24.6005,0,0.000885,0,0
0:1:53.224,193.84,24.6832,0,0.000885,0,0
0:1:53.524,195.13,24.8418,0,0.000885,0,0
0:1:53.824,194.952,24.8211,0,0.000885,0,0
0:1:54.120,195.833,24.9314,0,0.000885,0,0
0:1:54.420,196.536,25.0211,0,0.000885,0,0
0:1:54.710,197.417,25.1383,0,0.000885,0,0
0:1:55.010,197.888,25.1934,0,0.000885,0,0
0:1:55.305,198.355,25.2555,0,0.000885,0,0
0:1:55.610,198.827,25.3175,0,0.000885,0,0
0:1:55.907,199,25.3382,0,0.000885,0,0
0:1:56.212,199.881,25.4485,0,0.000885,0,0
0:1:56.510,200.059,25.4692,0,0.000885,0,0
0:1:56.813,200.877,25.5795,0,0.000885,0,0
0:1:57.111,201.464,25.6485,0,0.000885,0,0
0:1:57.409,202.287,25.7588,0,0.000885,0,0
0:1:57.713,202.403,25.7726,0,0.000885,0,0
0:1:58.013,203.457,25.9036,0,0.000885,0,0
0:1:58.314,203.515,25.9105,0,0.000885,0,0
0:1:58.613,204.28,26.007,0,0.000885,0,0
0:1:58.915,205.161,26.1242,0,0.000885,0,0
0:1:59.209,205.454,26.1587,0,0.000885,0,0
0:1:59.510,206.393,26.2759,0,0.000885,0,0
0:1:59.812,206.451,26.2828,0,0.000885,0,0
0:2:0.110,207.799,26.4552,0,0.000885,0,0
0:2:0.408,208.266,26.5172,0,0.000885,0,0
0:2:0.722,208.679,26.5724,0,0.000885,0,0
0:2:1.022,209.791,26.7103,0,0.000885,0,0
0:2:1.326,210.499,26.7999,0,0.000885,0,0
0:2:1.623,210.614,26.8137,0,0.000885,0,0
0:2:1.919,211.317,26.9033,0,0.000885,0,0
0:2:2.212,211.904,26.9792,0,0.000885,0,0
0:2:2.511,212.02,26.993,0,0.000885,0,0
0:2:2.814,213.194,27.1447,0,0.000885,0,0
0:2:3.119,213.839,27.2274,0,0.000885,0,0
0:2:3.415,213.839,27.2274,0,0.000885,0,0
0:2:3.718,214.427,27.3032,0,0.000885,0,0
0:2:4.015,215.249,27.4067,0,0.000885,0,0
0:2:4.321,215.832,27.4825,0,0.000885,0,0
0:2:4.621,216.246,27.5308,0,0.000885,0,0
0:2:4.915,216.891,27.6135,0,0.000885,0,0
0:2:5.220,216.833,27.6066,0,0.000885,0,0
0:2:5.519,217.945,27.7514,0,0.000885,0,0
0:2:5.811,218.706,27.8479,0,0.000885,0,0
0:2:6.111,219.235,27.9169,0,0.000885,0,0
0:2:6.427,220.174,28.0341,0,0.000885,0,0
0:2:6.724,220.583,28.0823,0,0.000885,0,0
0:2:7.022,221.29,28.172,0,0.000885,0,0
0:2:7.323,221.584,28.2133,0,0.000885,0,0
0:2:7.626,222.109,28.2823,0,0.000885,0,0
0:2:7.925,222.46,28.3237,0,0.000885,0,0
0:2:8.225,223.225,28.4202,0,0.000885,0,0
0:2:8.527,224.337,28.565,0,0.000885,0,0
0:2:8.821,224.982,28.6477,0,0.000885,0,0
0:2:9.120,225.569,28.7236,0,0.000885,0,0
0:2:9.421,225.569,28.7236,0,0.000885,0,0
0:2:9.722,226.508,28.8408,0,0.000885,0,0
0:2:10.015,226.744,28.8683,0,0.000885,0,0
0:2:10.311,227.624,28.9787,0,0.000885,0,0
0:2:10.609,227.624,28.9787,0,0.000885,0,0
0:2:10.902,229.03,29.1579,0,0.000885,0,0
0:2:11.202,229.617,29.2338,0,0.000885,0,0
0:2:11.507,230.32,29.3234,0,0.000885,0,0
0:2:11.802,230.436,29.3372,0,0.000885,0,0
0:2:12.101,231.316,29.4544,0,0.000885,0,0
0:2:12.403,231.374,29.4613,0,0.000885,0,0
0:2:12.706,232.491,29.5992,0,0.000885,0,0
0:2:13.005,233.251,29.6957,0,0.000885,0,0
0:2:13.306,233.02,29.6681,0,0.000885,0,0
0:2:13.607,234.016,29.7991,0,0.000885,0,0
0:2:13.911,234.835,29.9026,0,0.000885,0,0
0:2:14.212,235.186,29.9439,0,0.000885,0,0
0:2:14.515,236.187,30.0749,0,0.000885,0,0
0:2:14.811,235.774,30.0198,0,0.000885,0,0
0:2:15.109,236.89,30.1646,0,0.000885,0,0
0:2:15.413,237.651,30.2611,0,0.000885,0,0
0:2:15.712,237.886,30.2887,0,0.000885,0,0
0:2:16.004,238.238,30.33,0,0.000885,0,0
0:2:16.313,239.176,30.4541,0,0.000885,0,0
0:2:16.621,239.528,30.4955,0,0.000885,0,0
0:2:16.914,240.818,30.661,0,0.000885,0,0
0:2:17.213,241.232,30.7161,0,0.000885,0,0
0:2:17.516,241.756,30.7782,0,0.000885,0,0
0:2:17.817,242.753,30.9092,0,0.000885,0,0
0:2:18.117,243.104,30.9506,0,0.000885,0,0
0:2:18.417,243.398,30.9919,0,0.000885,0,0
0:2:18.717,244.163,31.0885,0,0.000885,0,0
0:2:19.011,244.688,31.1574,0,0.000885,0,0
0:2:19.309,244.866,31.1781,0,0.000885,0,0
0:2:19.614,246.098,31.3367,0,0.000885,0,0
0:2:19.923,246.214,31.3505,0,0.000885,0,0
0:2:20.217,247.566,31.5228,0,0.000885,0,0
0:2:20.513,247.624,31.5297,0,0.000885,0,0
0:2:20.812,248.5,31.64,0,0.000885,0,0
0:2:21.112,248.5,31.64,0,0.000885,0,0
0:2:21.413,249.438,31.7573,0,0.000885,0,0
0:2:21.715,249.559,31.7779,0,0.000885,0,0
0:2:22.013,250.439,31.8883,0,0.000885,0,0
0:2:22.311,251.084,31.971,0,0.000885,0,0
0:2:22.611,251.609,32.033,0,0.000885,0,0
0:2:22.915,252.196,32.1089,0,0.000885,0,0
0:2:23.214,252.374,32.1365,0,0.000885,0,0
0:2:23.517,253.78,32.3157,0,0.000885,0,0
0:2:23.817,254.367,32.3847,0,0.000885,0,0
0:2:24.114,254.839,32.4467,0,0.000885,0,0
0:2:24.411,255.657,32.5501,0,0.000885,0,0
0:2:24.726,255.484,32.5295,0,0.000885,0,0
0:2:25.027,256.653,32.6811,0,0.000885,0,0
0:2:25.317,256.889,32.7087,0,0.000885,0,0
0:2:25.617,257.886,32.8328,0,0.000885,0,0
0:2:25.924,258.064,32.8604,0,0.000885,0,0
0:2:26.228,258.709,32.9363,0,0.000885,0,0
0:2:26.528,259.705,33.0673,0,0.000885,0,0
0:2:26.822,259.821,33.081,0,0.000885,0,0
0:2:27.120,260.35,33.15,0,0.000885,0,0
0:2:27.413,261.462,33.2879,0,0.000885,0,0
0:2:27.713,261.64,33.3155,0,0.000885,0,0
0:2:28.017,262.049,33.3637,0,0.000885,0,0
0:2:28.318,262.752,33.4534,0,0.000885,0,0
0:2:28.621,263.224,33.5154,0,0.000885,0,0
0:2:28.918,264.22,33.6395,0,0.000885,0,0
0:2:29.218,264.456,33.674,0,0.000885,0,0
0:2:29.525,265.043,33.7429,0,0.000885,0,0
0:2:29.818,265.746,33.8326,0,0.000885,0,0
0:2:30.118,266.506,33.936,0,0.000885,0,0
0:2:30.409,266.978,33.9912,0,0.000885,0,0
0:2:30.709,267.623,34.0739,0,0.000885,0,0
0:2:31.014,268.152,34.1428,0,0.000885,0,0
0:2:31.311,268.619,34.2049,0,0.000885,0,0
0:2:31.609,269.206,34.2738,0,0.000885,0,0
0:2:31.903,270.439,34.4324,0,0.000885,0,0
0:2:32.205,271.084,34.5152,0,0.000885,0,0
0:2:32.507,270.963,34.5014,0,0.000885,0,0
0:2:32.809,271.729,34.5979,0,0.000885,0,0
0:2:33.110,272.374,34.6806,0,0.000885,0,0
0:2:33.410,273.018,34.7634,0,0.000885,0,0
0:2:33.711,273.779,34.8599,0,0.000885,0,0
0:2:34.003,274.366,34.9357,0,0.000885,0,0
0:2:34.303,274.251,34.9219,0,0.000885,0,0
0:2:34.608,274.776,34.984,0,0.000885,0,0
0:2:34.914,275.541,35.0805,0,0.000885,0,0
0:2:35.222,276.421,35.1977,0,0.000885,0,0
0:2:35.526,276.653,35.2253,0,0.000885,0,0
0:2:35.826,277.711,35.3563,0,0.000885,0,0
0:2:36.118,278.299,35.4322,0,0.000885,0,0
0:2:36.416,279.001,35.5218,0,0.000885,0,0
0:2:36.713,280.171,35.6735,0,0.000885,0,0
0:2:37.015,280.643,35.7355,0,0.000885,0,0
0:2:37.314,280.936,35.77,0,0.000885,0,0
0:2:37.615,281.523,35.8458,0,0.000885,0,0
0:2:37.918,281.875,35.8872,0,0.000885,0,0
0:2:38.217,282.284,35.9424,0,0.000885,0,0
0:2:38.518,282.693,35.9906,0,0.000885,0,0
0:2:38.818,283.694,36.1216,0,0.000885,0,0
0:2:39.124,283.926,36.1492,0,0.000885,0,0
0:2:39.423,284.046,36.163,0,0.000885,0,0
0:2:39.716,284.806,36.2595,0,0.000885,0,0
0:2:40.013,285.451,36.3423,0,0.000885,0,0
0:2:40.318,286.861,36.5215,0,0.000885,0,0
0:2:40.612,287.68,36.6318,0,0.000885,0,0
0:2:40.911,287.506,36.6043,0,0.000885,0,0
0:2:41.213,287.8,36.6456,0,0.000885,0,0
0:2:41.512,288.445,36.7284,0,0.000885,0,0
0:2:41.807,289.263,36.8318,0,0.000885,0,0
0:2:42.124,289.673,36.8801,0,0.000885,0,0
0:2:42.422,290.086,36.9352,0,0.000885,0,0
0:2:42.726,291.025,37.0524,0,0.000885,0,0
0:2:43.026,291.376,37.1007,0,0.000885,0,0
0:2:43.327,292.373,37.2248,0,0.000885,0,0
0:2:43.628,293.196,37.3282,0,0.000885,0,0
0:2:43.929,293.663,37.3903,0,0.000885,0,0
0:2:44.223,294.366,37.4799,0,0.000885,0,0
0:2:44.520,294.366,37.4799,0,0.000885,0,0
0:2:44.825,295.304,37.5971,0,0.000885,0,0
0:2:45.124,296.3,37.7281,0,0.000885,0,0
0:2:45.418,296.421,37.7419,0,0.000885,0,0
0:2:45.712,296.888,37.804,0,0.000885,0,0
0:2:46.013,297.884,37.9281,0,0.000885,0,0
0:2:46.325,298.765,38.0384,0,0.000885,0,0
0:2:46.625,299.468,38.128,0,0.000885,0,0
0:2:46.929,299.997,38.197,0,0.000885,0,0
0:2:47.229,300.526,38.2659,0,0.000885,0,0
0:2:47.533,300.758,38.2935,0,0.000885,0,0
0:2:47.833,301.638,38.4038,0,0.000885,0,0
0:2:48.134,302.226,38.4796,0,0.000885,0,0
0:2:48.434,302.813,38.5555,0,0.000885,0,0
0:2:48.734,303.222,38.6106,0,0.000885,0,0
0:2:49.028,304.16,38.7279,0,0.000885,0,0
0:2:49.326,304.281,38.7416,0,0.000885,0,0
0:2:49.624,305.219,38.8589,0,0.000885,0,0
0:2:49.915,305.744,38.9278,0,0.000885,0,0
0:2:50.213,306.331,39.0036,0,0.000885,0,0
0:2:50.529,306.567,39.0312,0,0.000885,0,0
0:2:50.827,307.563,39.1622,0,0.000885,0,0
0:2:51.133,307.915,39.2036,0,0.000885,0,0
0:2:51.428,308.618,39.2932,0,0.000885,0,0
0:2:51.727,309.031,39.3484,0,0.000885,0,0
0:2:52.029,309.263,39.376,0,0.000885,0,0
0:2:52.329,310.615,39.5483,0,0.000885,0,0
0:2:52.631,310.615,39.5483,0,0.000885,0,0
0:2:52.932,311.963,39.7207,0,0.000885,0,0
0:2:53.233,311.843,39.7069,0,0.000885,0,0
0:2:53.532,312.43,39.7827,0,0.000885,0,0
0:2:53.834,313.075,39.8655,0,0.000885,0,0
0:2:54.127,313.782,39.9551,0,0.000885,0,0
0:2:54.425,314.133,39.9965,0,0.000885,0,0
0:2:54.720,314.485,40.0448,0,0.000885,0,0
0:2:55.024,315.01,40.1068,0,0.000885,0,0
0:2:55.324,315.659,40.1895,0,0.000885,0,0
0:2:55.616,316.535,40.2999,0,0.000885,0,0
0:2:55.916,317.243,40.3895,0,0.000885,0,0
0:2:56.219,317.71,40.4515,0,0.000885,0,0
0:2:56.518,318.355,40.5343,0,0.000885,0,0
0:2:56.827,318.884,40.6032,0,0.000885,0,0
0:2:57.118,320.054,40.748,0,0.000885,0,0
0:2:57.417,320.054,40.748,0,0.000885,0,0
0:2:57.719,320.468,40.8032,0,0.000885,0,0
0:2:58.021,321.228,40.8997,0,0.000885,0,0
0:2:58.321,321.931,40.9893,0,0.000885,0,0
0:2:58.625,322.928,41.1134,0,0.000885,0,0
0:2:58.924,322.87,41.1065,0,0.000885,0,0
0:2:59.216,323.577,41.1962,0,0.000885,0,0
0:2:59.514,323.693,41.2169,0,0.000885,0,0
0:2:59.808,325.04,41.3823,0,0.000885,0,0
0:3:0.114,325.392,41.4306,0,0.000885,0,0
0:3:0.412,325.743,41.472,0,0.000885,0,0
0:3:0.707,326.451,41.5616,0,0.000885,0,0
0:3:1.006,326.74,41.603,0,0.000885,0,0
0:3:1.309,327.327,41.6788,0,0.000885,0,0
0:3:1.608,328.208,41.7891,0,0.000885,0,0
0:3:1.913,328.679,41.8512,0,0.000885,0,0
0:3:2.209,329.733,41.9822,0,0.000885,0,0
0:3:2.507,330.32,42.058,0,0.000885,0,0
0:3:2.811,330.436,42.0718,0,0.000885,0,0
0:3:3.112,330.908,42.1339,0,0.000885,0,0
0:3:3.413,331.433,42.2028,0,0.000885,0,0
0:3:3.712,332.9,42.389,0,0.000885,0,0
0:3:4.014,333.43,42.451,0,0.000885,0,0
0:3:4.316,333.43,42.451,0,0.000885,0,0
0:3:4.616,333.661,42.4855,0,0.000885,0,0
0:3:4.931,334.893,42.6372,0,0.000885,0,0
0:3:5.229,335.774,42.7544,0,0.000885,0,0
0:3:5.527,336.477,42.844,0,0.000885,0,0
0:3:5.829,337.064,42.913,0,0.000885,0,0
0:3:6.129,337.242,42.9405,0,0.000885,0,0
0:3:6.421,338.296,43.0715,0,0.000885,0,0
0:3:6.720,338.648,43.1198,0,0.000885,0,0
0:3:7.026,338.999,43.1612,0,0.000885,0,0
0:3:7.322,339.822,43.2646,0,0.000885,0,0
0:3:7.629,340.76,43.3887,0,0.000885,0,0
0:3:7.929,340.992,43.4163,0,0.000885,0,0
0:3:8.230,341.521,43.4852,0,0.000885,0,0
0:3:8.529,341.405,43.4714,0,0.000885,0,0
0:3:8.826,342.344,43.5887,0,0.000885,0,0
0:3:9.132,342.931,43.6645,0,0.000885,0,0
0:3:9.428,343.75,43.7679,0,0.000885,0,0
0:3:9.727,344.337,43.8438,0,0.000885,0,0
0:3:10.028,344.101,43.8093,0,0.000885,0,0
0:3:10.328,345.391,43.9748,0,0.000885,0,0
0:3:10.633,345.92,44.0437,0,0.000885,0,0
0:3:10.929,346.45,44.1127,0,0.000885,0,0
0:3:11.226,346.859,44.1609,0,0.000885,0,0
0:3:11.530,348.033,44.3126,0,0.000885,0,0
0:3:11.829,348.385,44.3609,0,0.000885,0,0
0:3:12.120,348.972,44.4298,0,0.000885,0,0
0:3:12.422,349.617,44.5126,0,0.000885,0,0
0:3:12.726,349.968,44.5608,0,0.000885,0,0
0:3:13.029,350.965,44.6849,0,0.000885,0,0
0:3:13.329,351.494,44.7539,0,0.000885,0,0
0:3:13.629,351.432,44.747,0,0.000885,0,0
0:3:13.929,352.37,44.8642,0,0.000885,0,0
0:3:14.221,353.251,44.9745,0,0.000885,0,0
0:3:14.517,353.838,45.0503,0,0.000885,0,0
0:3:14.816,354.074,45.0848,0,0.000885,0,0
0:3:15.130,354.835,45.1813,0,0.000885,0,0
0:3:15.430,354.835,45.1813,0,0.000885,0,0
0:3:15.722,355.306,45.2365,0,0.000885,0,0
0:3:16.020,356.654,45.4089,0,0.000885,0,0
0:3:16.329,357.477,45.5123,0,0.000885,0,0
0:3:16.621,357.886,45.5675,0,0.000885,0,0
0:3:16.921,357.766,45.5537,0,0.000885,0,0
0:3:17.222,358.998,45.7122,0,0.000885,0,0
0:3:17.526,359.35,45.7536,0,0.000885,0,0
0:3:17.829,359.879,45.8226,0,0.000885,0,0
0:3:18.130,360.702,45.926,0,0.000885,0,0
0:3:18.431,361.347,46.0087,0,0.000885,0,0
0:3:18.733,362.228,46.119,0,0.000885,0,0
0:3:19.033,362.873,46.2018,0,0.000885,0,0
0:3:19.328,362.988,46.2156,0,0.000885,0,0
0:3:19.633,363.455,46.2776,0,0.000885,0,0
0:3:19.930,364.514,46.4086,0,0.000885,0,0
0:3:20.223,365.626,46.5534,0,0.000885,0,0
0:3:20.522,365.862,46.581,0,0.000885,0,0
0:3:20.814,366.098,46.6155,0,0.000885,0,0
0:3:21.114,366.507,46.6637,0,0.000885,0,0
0:3:21.419,367.739,46.8223,0,0.000885,0,0
0:3:21.724,368.033,46.8568,0,0.000885,0,0
0:3:22.023,368.678,46.9395,0,0.000885,0,0
0:3:22.322,368.793,46.9533,0,0.000885,0,0
0:3:22.627,369.79,47.0843,0,0.000885,0,0
0:3:22.929,370.319,47.1532,0,0.000885,0,0
0:3:23.229,370.67,47.1946,0,0.000885,0,0
0:3:23.530,371.373,47.2842,0,0.000885,0,0
0:3:23.833,372.254,47.3946,0,0.000885,0,0
0:3:24.133,372.312,47.4015,0,0.000885,0,0
0:3:24.427,373.019,47.4911,0,0.000885,0,0
0:3:24.723,373.78,47.5945,0,0.000885,0,0
0:3:25.018,374.015,47.6221,0,0.000885,0,0
0:3:25.324,374.54,47.691,0,0.000885,0,0
0:3:25.623,375.363,47.7945,0,0.000885,0,0
0:3:25.938,376.008,47.8772,0,0.000885,0,0
0:3:26.237,376.653,47.9599,0,0.000885,0,0
0:3:26.531,377.062,48.0082,0,0.000885,0,0
0:3:26.829,377.77,48.0978,0,0.000885,0,0
0:3:27.124,378.295,48.1668,0,0.000885,0,0
0:3:27.424,379.233,48.284,0,0.000885,0,0
0:3:27.731,379.705,48.346,0,0.000885,0,0
0:3:28.030,379.998,48.3805,0,0.000885,0,0
0:3:28.331,380.523,48.4495,0,0.000885,0,0
0:3:28.631,381.288,48.546,0,0.000885,0,0
0:3:28.927,381.697,48.6011,0,0.000885,0,0
0:3:29.224,382.458,48.6977,0,0.000885,0,0
0:3:29.529,383.103,48.7804,0,0.000885,0,0
0:3:29.829,383.339,48.808,0,0.000885,0,0
0:3:30.130,383.868,48.8769,0,0.000885,0,0
0:3:30.429,384.629,48.9735,0,0.000885,0,0
0:3:30.728,385.216,49.0493,0,0.000885,0,0
0:3:31.030,386.27,49.1803,0,0.000885,0,0
0:3:31.331,386.977,49.2699,0,0.000885,0,0
0:3:31.634,387.622,49.3527,0,0.000885,0,0
0:3:31.932,388.09,49.4147,0,0.000885,0,0
0:3:32.225,388.735,49.4975,0,0.000885,0,0
0:3:32.528,389.38,49.5802,0,0.000885,0,0
0:3:32.832,389.909,49.6423,0,0.000885,0,0
0:3:33.132,390.67,49.7388,0,0.000885,0,0
0:3:33.433,390.847,49.7664,0,0.000885,0,0
0:3:33.733,391.55,49.856,0,0.000885,0,0
0:3:34.032,392.137,49.9318,0,0.000885,0,0
0:3:34.336,392.253,49.9456,0,0.000885,0,0
0:3:34.630,393.076,50.049,0,0.000885,0,0
0:3:34.930,393.427,50.0904,0,0.000885,0,0
0:3:35.219,394.072,50.1731,0,0.000885,0,0
0:3:35.520,394.544,50.2352,0,0.000885,0,0
0:3:35.823,395.305,50.3317,0,0.000885,0,0
0:3:36.120,396.065,50.4283,0,0.000885,0,0
0:3:36.417,396.301,50.4558,0,0.000885,0,0
0:3:36.720,397.297,50.5868,0,0.000885,0,0
0:3:37.021,397.827,50.6558,0,0.000885,0,0
0:3:37.314,398.356,50.7178,0,0.000885,0,0
0:3:37.615,399.232,50.835,0,0.000885,0,0
0:3:37.918,399.468,50.8626,0,0.000885,0,0
0:3:38.220,400.291,50.966,0,0.000885,0,0
0:3:38.521,401.167,51.0764,0,0.000885,0,0
0:3:38.821,401.754,51.1522,0,0.000885,0,0
0:3:39.121,402.168,51.2074,0,0.000885,0,0
0:3:39.425,402.577,51.2556,0,0.000885,0,0
0:3:39.722,403.516,51.3797,0,0.000885,0,0
0:3:40.019,403.632,51.3935,0,0.000885,0,0
0:3:40.322,404.103,51.4487,0,0.000885,0,0
0:3:40.623,404.628,51.5176,0,0.000885,0,0
0:3:40.925,405.393,51.6142,0,0.000885,0,0
0:3:41.225,405.918,51.6831,0,0.000885,0,0
0:3:41.520,406.683,51.7796,0,0.000885,0,0
0:3:41.825,407.212,51.8486,0,0.000885,0,0
0:3:42.124,408.089,51.9589,0,0.000885,0,0
0:3:42.429,408.676,52.0347,0,0.000885,0,0
0:3:42.731,408.912,52.0623,0,0.000885,0,0
0:3:43.031,409.027,52.0761,0,0.000885,0,0
0:3:43.331,410.024,52.2071,0,0.000885,0,0
0:3:43.634,411.14,52.345,0,0.000885,0,0
0:3:43.936,412.021,52.4622,0,0.000885,0,0
0:3:44.237,412.021,52.4622,0,0.000885,0,0
0:3:44.531,412.666,52.5449,0,0.000885,0,0
0:3:44.829,413.253,52.6139,0,0.000885,0,0
0:3:45.134,414.129,52.7311,0,0.000885,0,0
0:3:45.430,414.307,52.7518,0,0.000885,0,0
0:3:45.729,415.01,52.8414,0,0.000885,0,0
0:3:46.019,415.246,52.869,0,0.000885,0,0
0:3:46.319,415.833,52.9448,0,0.000885,0,0
0:3:46.614,416.536,53.0345,0,0.000885,0,0
0:3:46.911,416.945,53.0896,0,0.000885,0,0
0:3:47.209,417.648,53.1793,0,0.000885,0,0
0:3:47.509,418.119,53.2344,0,0.000885,0,0
0:3:47.813,418.942,53.3378,0,0.000885,0,0
0:3:48.114,419.819,53.4551,0,0.000885,0,0
0:3:48.413,420.17,53.4964,0,0.000885,0,0
0:3:48.713,420.993,53.5998,0,0.000885,0,0
0:3:49.009,421.58,53.6757,0,0.000885,0,0
0:3:49.307,422.577,53.8067,0,0.000885,0,0
0:3:49.602,422.87,53.8412,0,0.000885,0,0
0:3:49.901,423.337,53.9032,0,0.000885,0,0
0:3:50.193,423.457,53.917,0,0.000885,0,0
0:3:50.491,423.693,53.9446,0,0.000885,0,0
0:3:50.789,425.157,54.1307,0,0.000885,0,0
0:3:51.084,425.859,54.2204,0,0.000885,0,0
0:3:51.382,425.802,54.2135,0,0.000885,0,0
0:3:51.675,426.567,54.31,0,0.000885,0,0
0:3:51.975,427.034,54.3721,0,0.000885,0,0
0:3:52.269,428.03,54.4962,0,0.000885,0,0
0:3:52.571,428.617,54.572,0,0.000885,0,0
0:3:52.873,428.733,54.5858,0,0.000885,0,0
0:3:53.176,429.262,54.6547,0,0.000885,0,0
0:3:53.475,430.085,54.7582,0,0.000885,0,0
0:3:53.776,430.73,54.8409,0,0.000885,0,0
0:3:54.075,431.433,54.9305,0,0.000885,0,0
0:3:54.371,432.02,55.0064,0,0.000885,0,0
0:3:54.665,432.665,55.0891,0,0.000885,0,0
0:3:54.964,432.839,55.1098,0,0.000885,0,0
0:3:55.257,433.426,55.1856,0,0.000885,0,0
0:3:55.558,434.658,55.3442,0,0.000885,0,0
0:3:55.851,435.009,55.3856,0,0.000885,0,0
0:3:56.148,435.361,55.4338,0,0.000885,0,0
0:3:56.446,435.832,55.489,0,0.000885,0,0
0:3:56.739,436.651,55.5993,0,0.000885,0,0
0:3:57.039,437.18,55.6614,0,0.000885,0,0
0:3:57.340,437.474,55.7027,0,0.000885,0,0
0:3:57.643,438.297,55.8062,0,0.000885,0,0
0:3:57.943,438.59,55.8406,0,0.000885,0,0
0:3:58.244,439.115,55.9096,0,0.000885,0,0
0:3:58.545,439.996,56.0199,0,0.000885,0,0
0:3:58.839,440.174,56.0475,0,0.000885,0,0
0:3:59.139,441.286,56.1854,0,0.000885,0,0
0:3:59.432,442.109,56.2888,0,0.000885,0,0
0:3:59.731,442.34,56.3233,0,0.000885,0,0
0:4:0.036,442.927,56.3922,0,0.000885,0,0
0:4:0.332,443.75,56.5025,0,0.000885,0,0
0:4:0.632,444.631,56.6129,0,0.000885,0,0
0:4:0.920,445.04,56.6611,0,0.000885,0,0
0:4:1.221,445.685,56.7439,0,0.000885,0,0
0:4:1.526,445.743,56.7507,0,0.000885,0,0
0:4:1.832,446.33,56.8266,0,0.000885,0,0
0:4:2.127,447.091,56.9231,0,0.000885,0,0
0:4:2.431,447.914,57.0334,0,0.000885,0,0
0:4:2.734,448.559,57.1093,0,0.000885,0,0
0:4:3.035,449.439,57.2265,0,0.000885,0,0
0:4:3.334,449.146,57.1851,0,0.000885,0,0
0:4:3.635,450.494,57.3575,0,0.000885,0,0
0:4:3.939,450.436,57.3506,0,0.000885,0,0
0:4:4.238,451.548,57.4954,0,0.000885,0,0
0:4:4.528,451.904,57.5367,0,0.000885,0,0
0:4:4.831,452.664,57.6333,0,0.000885,0,0
0:4:5.133,453.074,57.6884,0,0.000885,0,0
0:4:5.431,453.839,57.785,0,0.000885,0,0
0:4:5.728,454.426,57.8608,0,0.000885,0,0
0:4:6.022,454.893,57.916,0,0.000885,0,0
0:4:6.320,455.244,57.9642,0,0.000885,0,0
0:4:6.624,456.183,58.0814,0,0.000885,0,0
0:4:6.923,456.361,58.1021,0,0.000885,0,0
0:4:7.218,456.948,58.178,0,0.000885,0,0
0:4:7.519,457.357,58.2331,0,0.000885,0,0
0:4:7.822,458.589,58.3917,0,0.000885,0,0
0:4:8.123,458.821,58.4193,0,0.000885,0,0
0:4:8.423,459.114,58.4538,0,0.000885,0,0
0:4:8.723,459.586,58.5158,0,0.000885,0,0
0:4:9.022,460.698,58.6606,0,0.000885,0,0
0:4:9.328,461.699,58.7847,0,0.000885,0,0
0:4:9.622,461.636,58.7778,0,0.000885,0,0
0:4:9.922,462.695,58.9088,0,0.000885,0,0
0:4:10.214,462.926,58.9433,0,0.000885,0,0
0:4:10.514,463.692,59.0398,0,0.000885,0,0
0:4:10.819,464.159,59.1019,0,0.000885,0,0
0:4:11.125,464.982,59.2053,0,0.000885,0,0
0:4:11.423,465.333,59.2466,0,0.000885,0,0
0:4:11.725,466.036,59.3363,0,0.000885,0,0
0:4:12.025,466.681,59.419,0,0.000885,0,0
0:4:12.327,467.032,59.4673,0,0.000885,0,0
0:4:12.629,467.446,59.5155,0,0.000885,0,0
0:4:12.932,468.149,59.6052,0,0.000885,0,0
0:4:13.232,469.145,59.7362,0,0.000885,0,0
0:4:13.534,469.323,59.7569,0,0.000885,0,0
0:4:13.836,470.262,59.8741,0,0.000885,0,0
0:4:14.135,470.786,59.943,0,0.000885,0,0
0:4:14.429,471.2,59.9982,0,0.000885,0,0
0:4:14.735,472.197,60.1223,0,0.000885,0,0
0:4:15.033,472.664,60.1843,0,0.000885,0,0
0:4:15.336,473.193,60.2464,0,0.000885,0,0
0:4:15.635,473.544,60.2947,0,0.000885,0,0
0:4:15.939,474.074,60.3636,0,0.000885,0,0
0:4:16.235,474.776,60.4532,0,0.000885,0,0
0:4:16.533,475.186,60.5015,0,0.000885,0,0
0:4:16.837,475.715,60.5704,0,0.000885,0,0
0:4:17.137,476.769,60.7014,0,0.000885,0,0
0:4:17.439,477.414,60.7842,0,0.000885,0,0
0:4:17.741,477.944,60.8531,0,0.000885,0,0
0:4:18.043,478.295,60.9014,0,0.000885,0,0
0:4:18.341,478.94,60.9772,0,0.000885,0,0
0:4:18.644,479.469,61.0462,0,0.000885,0,0
0:4:18.937,480.172,61.1358,0,0.000885,0,0
0:4:19.236,480.702,61.2048,0,0.000885,0,0
0:4:19.532,481.578,61.3151,0,0.000885,0,0
0:4:19.838,481.756,61.3358,0,0.000885,0,0
0:4:20.135,482.516,61.4392,0,0.000885,0,0
0:4:20.438,482.81,61.4737,0,0.000885,0,0
0:4:20.738,483.575,61.5702,0,0.000885,0,0
0:4:21.040,484.451,61.6805,0,0.000885,0,0
0:4:21.338,484.451,61.6805,0,0.000885,0,0
0:4:21.636,485.452,61.8115,0,0.000885,0,0
0:4:21.929,485.919,61.8667,0,0.000885,0,0
0:4:22.227,486.386,61.9287,0,0.000885,0,0
0:4:22.528,487.036,62.0114,0,0.000885,0,0
0:4:22.830,488.148,62.1562,0,0.000885,0,0
0:4:23.133,488.619,62.2114,0,0.000885,0,0
0:4:23.433,488.971,62.2597,0,0.000885,0,0
0:4:23.734,489.202,62.2872,0,0.000885,0,0
0:4:24.038,490.261,62.4251,0,0.000885,0,0
0:4:24.337,490.612,62.4665,0,0.000885,0,0
0:4:24.629,491.431,62.5699,0,0.000885,0,0
0:4:24.928,491.902,62.632,0,0.000885,0,0
0:4:25.235,492.196,62.6664,0,0.000885,0,0
0:4:25.539,493.544,62.8388,0,0.000885,0,0
0:4:25.838,493.601,62.8457,0,0.000885,0,0
0:4:26.142,494.246,62.9284,0,0.000885,0,0
0:4:26.439,495.069,63.0319,0,0.000885,0,0
0:4:26.736,495.363,63.0732,0,0.000885,0,0
0:4:27.029,496.123,63.1698,0,0.000885,0,0
0:4:27.327,496.711,63.2456,0,0.000885,0,0
0:4:27.630,497.827,63.3835,0,0.000885,0,0
0:4:27.933,497.943,63.3973,0,0.000885,0,0
0:4:28.234,498.352,63.4525,0,0.000885,0,0
0:4:28.535,498.881,63.5214,0,0.000885,0,0
0:4:28.835,499.469,63.5972,0,0.000885,0,0
0:4:29.128,500.056,63.6662,0,0.000885,0,0
0:4:29.427,500.638,63.742,0,0.000885,0,0
0:4:29.721,501.346,63.8317,0,0.000885,0,0
0:4:30.019,502.106,63.9282,0,0.000885,0,0
0:4:30.325,502.871,64.0247,0,0.000885,0,0
0:4:30.619,503.396,64.0937,0,0.000885,0,0
0:4:30.919,503.574,64.1143,0,0.000885,0,0
0:4:31.214,504.099,64.1833,0,0.000885,0,0
0:4:31.511,504.98,64.2936,0,0.000885,0,0
0:4:31.807,505.567,64.3695,0,0.000885,0,0
0:4:32.102,505.976,64.4246,0,0.000885,0,0
0:4:32.402,506.621,64.5073,0,0.000885,0,0
0:4:32.706,507.386,64.6039,0,0.000885,0,0
0:4:33.008,507.796,64.6521,0,0.000885,0,0
0:4:33.308,508.205,64.7073,0,0.000885,0,0
0:4:33.607,508.912,64.7969,0,0.000885,0,0
0:4:33.908,509.264,64.8383,0,0.000885,0,0
0:4:34.201,510.024,64.9417,0,0.000885,0,0
0:4:34.502,510.789,65.0382,0,0.000885,0,0
0:4:34.795,510.963,65.0589,0,0.000885,0,0
0:4:35.091,511.608,65.1417,0,0.000885,0,0
0:4:35.388,512.195,65.2175,0,0.000885,0,0
0:4:35.684,513.018,65.3209,0,0.000885,0,0
0:4:35.983,513.836,65.4244,0,0.000885,0,0
0:4:36.277,514.13,65.4588,0,0.000885,0,0
0:4:36.576,515.011,65.576,0,0.000885,0,0
0:4:36.873,515.598,65.645,0,0.000885,0,0
0:4:37.175,516.474,65.7622,0,0.000885,0,0
0:4:37.477,517.061,65.8311,0,0.000885,0,0
0:4:37.779,517.355,65.8725,0,0.000885,0,0
0:4:38.077,517.826,65.9346,0,0.000885,0,0
0:4:38.377,518.12,65.969,0,0.000885,0,0
0:4:38.674,519.059,66.0862,0,0.000885,0,0
0:4:38.973,519.526,66.1483,0,0.000885,0,0
0:4:39.264,520.291,66.2448,0,0.000885,0,0
0:4:39.565,520.464,66.2655,0,0.000885,0,0
0:4:39.861,520.642,66.2931,0,0.000885,0,0
0:4:40.154,522.048,66.4724,0,0.000885,0,0
0:4:40.454,522.341,66.5068,0,0.000885,0,0
0:4:40.748,522.693,66.5482,0,0.000885,0,0
0:4:41.048,523.222,66.6171,0,0.000885,0,0
0:4:41.342,523.747,66.6861,0,0.000885,0,0
0:4:41.640,524.979,66.8447,0,0.000885,0,0
0:4:41.937,525.566,66.9205,0,0.000885,0,0
0:4:42.238,525.976,66.9688,0,0.000885,0,0
0:4:42.542,526.096,66.9826,0,0.000885,0,0
0:4:42.842,526.798,67.0722,0,0.000885,0,0
0:4:43.143,527.621,67.1756,0,0.000885,0,0
0:4:43.444,528.498,67.2928,0,0.000885,0,0
0:4:43.739,528.969,67.348,0,0.000885,0,0
0:4:44.040,529.499,67.4169,0,0.000885,0,0
0:4:44.330,530.081,67.4928,0,0.000885,0,0
0:4:44.631,530.788,67.5824,0,0.000885,0,0
0:4:44.945,531.256,67.6445,0,0.000885,0,0
0:4:45.241,531.371,67.6583,0,0.000885,0,0
0:4:45.537,532.252,67.7686,0,0.000885,0,0
0:4:45.830,532.959,67.8582,0,0.000885,0,0
0:4:46.129,533.426,67.9203,0,0.000885,0,0
0:4:46.422,534.129,68.0099,0,0.000885,0,0
0:4:46.723,534.894,68.1064,0,0.000885,0,0
0:4:47.026,535.303,68.1547,0,0.000885,0,0
0:4:47.327,536.122,68.2581,0,0.000885,0,0
0:4:47.630,537.123,68.3891,0,0.000885,0,0
0:4:47.930,537.003,68.3753,0,0.000885,0,0
0:4:48.230,537.474,68.4305,0,0.000885,0,0
0:4:48.531,537.999,68.4994,0,0.000885,0,0
0:4:48.830,538.764,68.5959,0,0.000885,0,0
0:4:49.138,539.645,68.7063,0,0.000885,0,0
0:4:49.431,540.29,68.789,0,0.000885,0,0
0:4:49.732,540.641,68.8373,0,0.000885,0,0
0:4:50.032,541.051,68.8855,0,0.000885,0,0
0:4:50.332,541.811,68.9889,0,0.000885,0,0
0:4:50.640,542.225,69.0372,0,0.000885,0,0
0:4:50.932,542.692,69.0993,0,0.000885,0,0
0:4:51.232,543.395,69.1889,0,0.000885,0,0
0:4:51.525,544.102,69.2785,0,0.000885,0,0
0:4:51.825,545.098,69.4026,0,0.000885,0,0
0:4:52.119,545.628,69.4716,0,0.000885,0,0
0:4:52.419,545.917,69.506,0,0.000885,0,0
0:4:52.724,546.504,69.5819,0,0.000885,0,0
0:4:53.023,547.443,69.706,0,0.000885,0,0
0:4:53.324,547.621,69.7267,0,0.000885,0,0
0:4:53.623,547.972,69.768,0,0.000885,0,0
0:4:53.921,548.381,69.8232,0,0.000885,0,0
0:4:54.216,549.084,69.9128,0,0.000885,0,0
0:4:54.512,549.907,70.0163,0,0.000885,0,0
0:4:54.811,550.73,70.1197,0,0.000885,0,0
0:4:55.104,551.139,70.1748,0,0.000885,0,0
0:4:55.402,551.726,70.2507,0,0.000885,0,0
0:4:55.698,552.487,70.3472,0,0.000885,0,0
0:4:55.994,553.074,70.4162,0,0.000885,0,0
0:4:56.289,553.252,70.4437,0,0.000885,0,0
0:4:56.584,554.248,70.5678,0,0.000885,0,0
0:4:56.884,554.364,70.5816,0,0.000885,0,0
0:4:57.187,555.125,70.6782,0,0.000885,0,0
0:4:57.489,555.774,70.7609,0,0.000885,0,0
0:4:57.789,556.535,70.8574,0,0.000885,0,0
0:4:58.090,557.064,70.9264,0,0.000885,0,0
0:4:58.391,557.295,70.9539,0,0.000885,0,0
0:4:58.684,558.176,71.0712,0,0.000885,0,0
0:4:58.985,558.763,71.147,0,0.000885,0,0
0:4:59.277,559.466,71.2366,0,0.000885,0,0
0:4:59.575,559.76,71.2711,0,0.000885,0,0
0:4:59.872,560.169,71.3263,0,0.000885,0,0
0:5:0.168,560.756,71.3952,0,0.000885,0,0
0:5:0.465,561.579,71.5055,0,0.000885,0,0
0:5:0.760,562.224,71.5814,0,0.000885,0,0
0:5:1.061,563.336,71.7262,0,0.000885,0,0
0:5:1.354,563.456,71.7399,0,0.000885,0,0
0:5:1.650,563.865,71.7951,0,0.000885,0,0
0:5:1.948,564.688,71.8985,0,0.000885,0,0
0:5:2.248,565.276,71.9744,0,0.000885,0,0
0:5:2.551,565.858,72.0502,0,0.000885,0,0
0:5:2.853,566.21,72.0916,0,0.000885,0,0
0:5:3.152,567.211,72.2226,0,0.000885,0,0
0:5:3.454,567.62,72.2708,0,0.000885,0,0
0:5:3.750,568.207,72.3467,0,0.000885,0,0
0:5:4.046,568.265,72.3536,0,0.000885,0,0
0:5:4.342,569.088,72.457,0,0.000885,0,0
0:5:4.642,569.964,72.5673,0,0.000885,0,0
0:5:4.931,570.729,72.6707,0,0.000885,0,0
0:5:5.231,571.374,72.7466,0,0.000885,0,0
0:5:5.527,571.61,72.7811,0,0.000885,0,0
0:5:5.831,572.255,72.8638,0,0.000885,0,0
0:5:6.130,573.131,72.9741,0,0.000885,0,0
0:5:6.423,573.309,72.9948,0,0.000885,0,0
0:5:6.723,573.838,73.0637,0,0.000885,0,0
0:5:7.025,574.128,73.0982,0,0.000885,0,0
0:5:7.326,575.186,73.2361,0,0.000885,0,0
0:5:7.630,575.773,73.312,0,0.000885,0,0
0:5:7.931,576.067,73.3464,0,0.000885,0,0
0:5:8.232,576.943,73.4567,0,0.000885,0,0
0:5:8.532,577.295,73.505,0,0.000885,0,0
0:5:8.831,578.233,73.6222,0,0.000885,0,0
0:5:9.126,579.465,73.7808,0,0.000885,0,0
0:5:9.423,579.528,73.7877,0,0.000885,0,0
0:5:9.721,579.879,73.8291,0,0.000885,0,0
0:5:10.014,580.404,73.898,0,0.000885,0,0
0:5:10.313,580.933,73.967,0,0.000885,0,0
0:5:10.610,581.636,74.0566,0,0.000885,0,0
0:5:10.906,581.636,74.0566,0,0.000885,0,0
0:5:11.203,582.695,74.1876,0,0.000885,0,0
0:5:11.499,583.34,74.2703,0,0.000885,0,0
0:5:11.795,583.513,74.2979,0,0.000885,0,0
0:5:12.100,584.688,74.4427,0,0.000885,0,0
0:5:12.403,585.212,74.5116,0,0.000885,0,0
0:5:12.703,585.39,74.5323,0,0.000885,0,0
0:5:13.004,586.213,74.6357,0,0.000885,0,0
0:5:13.305,587.325,74.7805,0,0.000885,0,0
0:5:13.599,587.855,74.8495,0,0.000885,0,0
0:5:13.899,587.97,74.8633,0,0.000885,0,0
0:5:14.191,588.558,74.9391,0,0.000885,0,0
0:5:14.491,589.087,75.0081,0,0.000885,0,0
0:5:14.790,589.91,75.1115,0,0.000885,0,0
0:5:15.086,590.261,75.1529,0,0.000885,0,0
0:5:15.386,590.964,75.2425,0,0.000885,0,0
0:5:15.682,591.373,75.2976,0,0.000885,0,0
0:5:15.984,591.96,75.3735,0,0.000885,0,0
0:5:16.279,592.726,75.47,0,0.000885,0,0
0:5:16.578,593.255,75.5321,0,0.000885,0,0
0:5:16.875,593.958,75.6217,0,0.000885,0,0
0:5:17.178,594.309,75.67,0,0.000885,0,0
0:5:17.483,595.016,75.7596,0,0.000885,0,0
0:5:17.786,595.604,75.8354,0,0.000885,0,0
0:5:18.088,596.249,75.9182,0,0.000885,0,0
0:5:18.390,596.836,75.994,0,0.000885,0,0
0:5:18.686,596.894,76.0009,0,0.000885,0,0
0:5:18.986,598.01,76.1388,0,0.000885,0,0
0:5:19.281,598.713,76.2284,0,0.000885,0,0
0:5:19.583,599.416,76.3181,0,0.000885,0,0
0:5:19.878,599.829,76.3732,0,0.000885,0,0
0:5:20.178,600.239,76.4215,0,0.000885,0,0
0:5:20.475,600.648,76.4766,0,0.000885,0,0
0:5:20.770,601.471,76.5801,0,0.000885,0,0
0:5:21.071,602,76.649,0,0.000885,0,0
0:5:21.367,602.529,76.718,0,0.000885,0,0
0:5:21.666,603.41,76.8283,0,0.000885,0,0
0:5:21.964,604.229,76.9317,0,0.000885,0,0
0:5:22.266,604.7,76.9938,0,0.000885,0,0
0:5:22.570,605.172,77.0558,0,0.000885,0,0
0:5:22.872,606.11,77.173,0,0.000885,0,0
0:5:23.175,606.284,77.1937,0,0.000885,0,0
0:5:23.476,606.929,77.2764,0,0.000885,0,0
0:5:23.774,607.107,77.2971,0,0.000885,0,0
0:5:24.073,607.93,77.4005,0,0.000885,0,0
0:5:24.370,608.459,77.4695,0,0.000885,0,0
0:5:24.672,609.22,77.566,0,0.000885,0,0
0:5:24.965,609.922,77.6557,0,0.000885,0,0
0:5:25.266,609.985,77.6625,0,0.000885,0,0
0:5:25.564,610.981,77.7935,0,0.000885,0,0
0:5:25.860,611.332,77.8349,0,0.000885,0,0
0:5:26.160,612.035,77.9245,0,0.000885,0,0
0:5:26.454,612.743,78.0142,0,0.000885,0,0
0:5:26.757,613.388,78.0969,0,0.000885,0,0
0:5:27.062,613.739,78.1452,0,0.000885,0,0
0:5:27.365,614.62,78.2555,0,0.000885,0,0
0:5:27.668,615.385,78.352,0,0.000885,0,0
0:5:27.970,616.03,78.4348,0,0.000885,0,0
0:5:28.271,616.323,78.4692,0,0.000885,0,0
0:5:28.566,616.675,78.5175,0,0.000885,0,0
0:5:28.867,618.023,78.6899,0,0.000885,0,0
0:5:29.163,618.023,78.6899,0,0.000885,0,0
0:5:29.460,618.788,78.7864,0,0.000885,0,0
0:5:29.761,619.259,78.8484,0,0.000885,0,0
0:5:30.054,619.726,78.9036,0,0.000885,0,0
0:5:30.355,620.549,79.0139,0,0.000885,0,0
0:5:30.650,620.607,79.0208,0,0.000885,0,0
0:5:30.951,621.43,79.1242,0,0.000885,0,0
0:5:31.249,622.368,79.2414,0,0.000885,0,0
0:5:31.544,622.426,79.2483,0,0.000885,0,0
0:5:31.845,623.307,79.3587,0,0.000885,0,0
0:5:32.148,624.072,79.4621,0,0.000885,0,0
0:5:32.451,624.539,79.5172,0,0.000885,0,0
0:5:32.754,624.775,79.5517,0,0.000885,0,0
0:5:33.056,625.714,79.6689,0,0.000885,0,0
0:5:33.357,626.127,79.7241,0,0.000885,0,0
0:5:33.653,626.479,79.7654,0,0.000885,0,0
0:5:33.956,627.239,79.862,0,0.000885,0,0
0:5:34.250,628.356,80.0068,0,0.000885,0,0
0:5:34.549,628.943,80.0826,0,0.000885,0,0
0:5:34.846,629.53,80.1516,0,0.000885,0,0
0:5:35.144,630.353,80.2619,0,0.000885,0,0
0:5:35.443,630.527,80.2826,0,0.000885,0,0
0:5:35.735,630.469,80.2757,0,0.000885,0,0
0:5:36.036,631.879,80.4549,0,0.000885,0,0
0:5:36.332,632.346,80.5101,0,0.000885,0,0
0:5:36.630,632.639,80.5514,0,0.000885,0,0
0:5:36.927,633.284,80.6342,0,0.000885,0,0
0:5:37.229,633.756,80.6893,0,0.000885,0,0
0:5:37.535,634.05,80.7307,0,0.000885,0,0
0:5:37.835,634.752,80.8203,0,0.000885,0,0
0:5:38.137,635.633,80.9307,0,0.000885,0,0
0:5:38.438,636.105,80.9927,0,0.000885,0,0
0:5:38.737,637.101,81.1168,0,0.000885,0,0
0:5:39.036,637.515,81.172,0,0.000885,0,0
0:5:39.332,637.866,81.2133,0,0.000885,0,0
0:5:39.634,638.453,81.2892,0,0.000885,0,0
0:5:39.928,638.805,81.3375,0,0.000885,0,0
0:5:40.226,639.801,81.4616,0,0.000885,0,0
0:5:40.535,640.388,81.5374,0,0.000885,0,0
0:5:40.842,640.975,81.6132,0,0.000885,0,0
0:5:41.142,641.153,81.6339,0,0.000885,0,0
0:5:41.448,642.15,81.758,0,0.000885,0,0
0:5:41.747,642.621,81.8201,0,0.000885,0,0
0:5:42.045,643.382,81.9166,0,0.000885,0,0
0:5:42.348,644.027,81.9993,0,0.000885,0,0
0:5:42.652,644.792,82.0959,0,0.000885,0,0
0:5:42.955,645.437,82.1786,0,0.000885,0,0
0:5:43.257,645.966,82.2476,0,0.000885,0,0
0:5:43.558,646.376,82.2958,0,0.000885,0,0
0:5:43.856,646.669,82.3372,0,0.000885,0,0
0:5:44.156,647.492,82.4406,0,0.000885,0,0
0:5:44.451,647.786,82.482,0,0.000885,0,0
0:5:44.753,648.431,82.5578,0,0.000885,0,0
0:5:45.046,649.311,82.675,0,0.000885,0,0
0:5:45.346,650.076,82.7716,0,0.000885,0,0
0:5:45.644,650.601,82.8405,0,0.000885,0,0
0:5:45.938,651.015,82.8888,0,0.000885,0,0
0:5:46.237,651.776,82.9853,0,0.000885,0,0
0:5:46.543,651.776,82.9853,0,0.000885,0,0
0:5:46.845,652.189,83.0405,0,0.000885,0,0
0:5:47.150,653.186,83.1646,0,0.000885,0,0
0:5:47.453,654.182,83.2956,0,0.000885,0,0
0:5:47.757,654.769,83.3645,0,0.000885,0,0
0:5:48.057,655.241,83.4266,0,0.000885,0,0
0:5:48.360,656.064,83.53,0,0.000885,0,0
0:5:48.655,656.767,83.6196,0,0.000885,0,0
0:5:48.954,657.118,83.6679,0,0.000885,0,0
0:5:49.252,657.296,83.6886,0,0.000885,0,0
0:5:49.548,657.999,83.7782,0,0.000885,0,0
0:5:49.847,658.764,83.8747,0,0.000885,0,0
0:5:50.142,659.115,83.923,0,0.000885,0,0
0:5:50.444,659.289,83.9437,0,0.000885,0,0
0:5:50.747,659.996,84.0333,0,0.000885,0,0
0:5:51.048,661.17,84.185,0,0.000885,0,0
0:5:51.345,661.58,84.2332,0,0.000885,0,0
0:5:51.638,662.225,84.316,0,0.000885,0,0
0:5:51.938,662.576,84.3643,0,0.000885,0,0
0:5:52.243,663.283,84.4539,0,0.000885,0,0
0:5:52.548,663.635,84.4953,0,0.000885,0,0
0:5:52.848,664.164,84.5642,0,0.000885,0,0
0:5:53.150,665.103,84.6814,0,0.000885,0,0
0:5:53.453,665.454,84.7297,0,0.000885,0,0
0:5:53.748,666.099,84.8124,0,0.000885,0,0
0:5:54.051,666.922,84.9158,0,0.000885,0,0
0:5:54.346,667.389,84.9779,0,0.000885,0,0
0:5:54.645,667.86,85.033,0,0.000885,0,0
0:5:54.943,668.563,85.1227,0,0.000885,0,0
0:5:55.238,669.093,85.1916,0,0.000885,0,0
0:5:55.538,669.738,85.2744,0,0.000885,0,0
0:5:55.844,670.209,85.3364,0,0.000885,0,0
0:5:56.145,670.618,85.3847,0,0.000885,0,0
0:5:56.439,671.263,85.4674,0,0.000885,0,0
0:5:56.736,672.495,85.626,0,0.000885,0,0
0:5:57.036,673.025,85.6949,0,0.000885,0,0
0:5:57.338,673.318,85.7294,0,0.000885,0,0
0:5:57.645,673.496,85.7501,0,0.000885,0,0
0:5:57.946,674.493,85.8811,0,0.000885,0,0
0:5:58.249,674.844,85.9225,0,0.000885,0,0
0:5:58.552,675.489,86.0052,0,0.000885,0,0
0:5:58.847,675.551,86.0121,0,0.000885,0,0
0:5:59.148,676.076,86.081,0,0.000885,0,0
0:5:59.444,677.313,86.2396,0,0.000885,0,0
0:5:59.744,677.606,86.2741,0,0.000885,0,0
0:6:0.038,678.309,86.3637,0,0.000885,0,0
0:6:0.335,678.954,86.4465,0,0.000885,0,0
0:6:0.637,679.19,86.474,0,0.000885,0,0
0:6:0.931,680.364,86.6257,0,0.000885,0,0
0:6:1.231,680.6,86.6533,0,0.000885,0,0
0:6:1.536,681.183,86.7292,0,0.000885,0,0
0:6:1.837,681.183,86.7292,0,0.000885,0,0
0:6:2.144,682.357,86.8808,0,0.000885,0,0
0:6:2.448,682.006,86.8326,0,0.000885,0,0
0:6:2.747,680.48,86.6395,0,0.000885,0,0
0:6:3.048,681.419,86.7636,0,0.000885,0,0
0:6:3.347,682.357,86.8808,0,0.000885,0,0
0:6:3.640,683.007,86.9636,0,0.000885,0,0
0:6:3.939,683.18,86.9843,0,0.000885,0,0
0:6:4.236,684.354,87.1359,0,0.000885,0,0
0:6:4.552,684.884,87.2049,0,0.000885,0,0
0:6:4.855,686.587,87.4186,0,0.000885,0,0
0:6:5.150,687.406,87.522,0,0.000885,0,0
0:6:5.449,687.757,87.5703,0,0.000885,0,0
0:6:5.749,688.758,87.6944,0,0.000885,0,0
0:6:6.045,689.875,87.8392,0,0.000885,0,0
0:6:6.347,691.222,88.0116,0,0.000885,0,0
0:6:6.649,691.107,87.9909,0,0.000885,0,0
0:6:6.951,691.752,88.0736,0,0.000885,0,0
0:6:7.255,692.926,88.2253,0,0.000885,0,0
0:6:7.559,693.807,88.3356,0,0.000885,0,0
0:6:7.863,694.216,88.3908,0,0.000885,0,0
0:6:8.164,694.981,88.4873,0,0.000885,0,0
0:6:8.466,695.333,88.5356,0,0.000885,0,0
0:6:8.761,694.452,88.4184,0,0.000885,0,0
0:6:9.059,690.226,87.8806,0,0.000885,0,0
0:6:9.356,686.41,87.3979,0,0.000885,0,0
0:6:9.651,592.374,75.4217,0,0.000885,0,0
0:6:9.948,497.649,63.3628,0,0.000885,0,0
0:6:10.239,496.537,63.218,0,0.000885,0,0
0:6:10.539,497.24,63.3077,0,0.000885,0,0
0:6:10.831,497.943,63.3973,0,0.000885,0,0
0:6:11.129,498.001,63.4042,0,0.000885,0,0
0:6:11.434,498.352,63.4525,0,0.000885,0,0
0:6:11.737,498.997,63.5352,0,0.000885,0,0
0:6:12.036,498.997,63.5352,0,0.000885,0,0
0:6:12.338,498.766,63.5076,0,0.000885,0,0
0:6:12.641,498.352,63.4525,0,0.000885,0,0
0:6:12.940,498.001,63.4042,0,0.000885,0,0
0:6:13.240,497.591,63.3559,0,0.000885,0,0
0:6:13.541,497.182,63.3008,0,0.000885,0,0
0:6:13.844,495.185,63.0457,0,0.000885,0,0
0:6:14.141,492.018,62.6458,0,0.000885,0,0
0:6:14.446,490.554,62.4596,0,0.000885,0,0
0:6:14.741,489.438,62.3148,0,0.000885,0,0
0:6:14.968,488.908,62.2528,0,0.000885,0,0