File: DataFile2021-06-07_071657.csv
Test ID:,Date Tested:,Time:,Test Type:,Diameter Avg. (mm):,Cyl. Corr. Factor:,Height (mm):,Age (days):,Weight (kN):,Break Type:,Ramp Rate (MPa/s):,Load at Break (kN):,Stress at Break (MPa):
12,6/7/2021,07:16,Cylinder,100,1,200,0,3.6,3,0.25,590.79,75.22
Sample Time,Load (kN),Stress (MPa),Long. Strain,Trans. Strain,Chan1 Deflection (mm),Chan2 Deflection (mm)
0:0:17.732,5.04428,0.641212,0,0.000885,0,0
0:0:18.029,8.44717,1.07558,0,0.000885,0,0
0:0:18.327,10.2042,1.29621,0,0.000885,0,0
0:0:18.628,9.44357,1.19969,0,0.000885,0,0
0:0:18.922,9.03434,1.15142,0,0.000885,0,0
0:0:19.220,9.44357,1.19969,0,0.000885,0,0
0:0:19.516,8.79858,1.11695,0,0.000885,0,0
0:0:19.812,8.505,1.08248,0,0.000885,0,0
0:0:20.111,9.14999,1.16521,0,0.000885,0,0
0:0:20.405,9.85281,1.25485,0,0.000885,0,0
0:0:20.706,9.85281,1.25485,0,0.000885,0,0
0:0:21.000,10.0307,1.27553,0,0.000885,0,0
0:0:21.300,10.8492,1.37895,0,0.000885,0,0
0:0:21.597,11.7878,1.50306,0,0.000885,0,0
0:0:21.894,11.8456,1.50995,0,0.000885,0,0
0:0:22.196,13.3714,1.70301,0,0.000885,0,0
0:0:22.489,14.1364,1.79953,0,0.000885,0,0
0:0:22.791,14.8971,1.89606,0,0.000885,0,0
0:0:23.087,15.4843,1.9719,0,0.000885,0,0
0:0:23.391,16.0714,2.04774,0,0.000885,0,0
0:0:23.696,16.8321,2.14427,0,0.000885,0,0
0:0:24.000,17.3036,2.20632,0,0.000885,0,0
0:0:24.304,18.3578,2.33732,0,0.000885,0,0
0:0:24.605,18.945,2.41317,0,0.000885,0,0
0:0:24.907,19.4699,2.48211,0,0.000885,0,0
0:0:25.205,20.1193,2.55795,0,0.000885,0,0
0:0:25.500,20.4707,2.60622,0,0.000885,0,0
0:0:25.802,21.2314,2.70274,0,0.000885,0,0
0:0:26.097,21.992,2.79927,0,0.000885,0,0
0:0:26.399,22.2856,2.84064,0,0.000885,0,0
0:0:26.697,22.9306,2.91648,0,0.000885,0,0
0:0:26.995,23.1663,2.95096,0,0.000885,0,0
0:0:27.296,24.0471,3.06127,0,0.000885,0,0
0:0:27.590,24.6343,3.13711,0,0.000885,0,0
0:0:27.892,25.1013,3.19917,0,0.000885,0,0
0:0:28.197,25.5728,3.25433,0,0.000885,0,0
0:0:28.501,26.7427,3.40601,0,0.000885,0,0
0:0:28.804,27.1564,3.45427,0,0.000885,0,0
0:0:29.106,27.5078,3.50254,0,0.000885,0,0
0:0:29.410,27.6813,3.52322,0,0.000885,0,0
0:0:29.706,28.2106,3.59217,0,0.000885,0,0
0:0:30.007,29.0914,3.70248,0,0.000885,0,0
0:0:30.306,29.6207,3.77143,0,0.000885,0,0
0:0:30.602,29.7942,3.79212,0,0.000885,0,0
0:0:30.902,30.8484,3.93001,0,0.000885,0,0
0:0:31.200,31.6135,4.02654,0,0.000885,0,0
0:0:31.501,32.2007,4.10238,0,0.000885,0,0
0:0:31.797,33.077,4.2127,0,0.000885,0,0
0:0:32.095,33.3706,4.24717,0,0.000885,0,0
0:0:32.396,33.7842,4.30233,0,0.000885,0,0
0:0:32.692,34.9541,4.45401,0,0.000885,0,0
0:0:32.994,35.4256,4.50917,0,0.000885,0,0
0:0:33.299,35.4835,4.51607,0,0.000885,0,0
0:0:33.603,36.0128,4.58501,0,0.000885,0,0
0:0:33.907,36.9514,4.70222,0,0.000885,0,0
0:0:34.210,37.5964,4.78496,0,0.000885,0,0
0:0:34.511,38.357,4.88149,0,0.000885,0,0
0:0:34.809,38.8285,4.94354,0,0.000885,0,0
0:0:35.108,39.4735,5.02628,0,0.000885,0,0
0:0:35.407,40.1763,5.11591,0,0.000885,0,0
0:0:35.704,40.8213,5.19865,0,0.000885,0,0
0:0:36.006,40.937,5.21244,0,0.000885,0,0
0:0:36.300,41.5241,5.28828,0,0.000885,0,0
0:0:36.602,42.4627,5.40549,0,0.000885,0,0
0:0:36.899,42.8141,5.45375,0,0.000885,0,0
0:0:37.198,43.6371,5.55717,0,0.000885,0,0
0:0:37.497,44.0463,5.60544,0,0.000885,0,0
0:0:37.792,44.5756,5.67439,0,0.000885,0,0
0:0:38.096,45.3941,5.77781,0,0.000885,0,0
0:0:38.401,45.4519,5.7847,0,0.000885,0,0
0:0:38.705,45.9234,5.84675,0,0.000885,0,0
0:0:39.008,46.5684,5.92949,0,0.000885,0,0
0:0:39.312,47.3291,6.02602,0,0.000885,0,0
0:0:39.614,48.152,6.12944,0,0.000885,0,0
0:0:39.912,48.797,6.21218,0,0.000885,0,0
0:0:40.210,49.0906,6.25354,0,0.000885,0,0
0:0:40.510,49.6777,6.32249,0,0.000885,0,0
0:0:40.807,50.2649,6.39833,0,0.000885,0,0
0:0:41.108,51.2035,6.52244,0,0.000885,0,0
0:0:41.403,51.3191,6.53623,0,0.000885,0,0
0:0:41.703,52.2577,6.65344,0,0.000885,0,0
0:0:42.002,52.3155,6.66034,0,0.000885,0,0
0:0:42.300,53.5477,6.81891,0,0.000885,0,0
0:0:42.601,53.6633,6.8327,0,0.000885,0,0
0:0:42.897,54.4284,6.92923,0,0.000885,0,0
0:0:43.201,55.4248,7.06023,0,0.000885,0,0
0:0:43.505,55.4248,7.06023,0,0.000885,0,0
0:0:43.809,56.3634,7.17744,0,0.000885,0,0
0:0:44.111,56.7148,7.21881,0,0.000885,0,0
0:0:44.415,57.0084,7.26018,0,0.000885,0,0
0:0:44.718,58.1205,7.39807,0,0.000885,0,0
0:0:45.013,58.7076,7.47392,0,0.000885,0,0
0:0:45.312,59.0012,7.51529,0,0.000885,0,0
0:0:45.612,59.7663,7.61181,0,0.000885,0,0
0:0:45.907,60.7049,7.72902,0,0.000885,0,0
0:0:46.211,61.2876,7.80487,0,0.000885,0,0
0:0:46.507,61.8748,7.88071,0,0.000885,0,0
0:0:46.807,62.3463,7.93587,0,0.000885,0,0
0:0:47.105,62.4619,7.94966,0,0.000885,0,0
0:0:47.401,63.227,8.05308,0,0.000885,0,0
0:0:47.702,63.5784,8.09445,0,0.000885,0,0
0:0:47.999,64.5748,8.21855,0,0.000885,0,0
0:0:48.301,64.9262,8.26681,0,0.000885,0,0
0:0:48.606,65.162,8.29439,0,0.000885,0,0
0:0:48.910,66.5676,8.47366,0,0.000885,0,0
0:0:49.213,67.2705,8.56329,0,0.000885,0,0
0:0:49.516,67.564,8.60466,0,0.000885,0,0
0:0:49.819,68.387,8.70808,0,0.000885,0,0
0:0:50.117,68.9741,8.78392,0,0.000885,0,0
0:0:50.416,70.0284,8.91492,0,0.000885,0,0
0:0:50.717,70.2641,8.94939,0,0.000885,0,0
0:0:51.011,70.6155,8.99076,0,0.000885,0,0
0:0:51.313,70.5577,8.98387,0,0.000885,0,0
0:0:51.611,71.6697,9.12866,0,0.000885,0,0
0:0:51.908,72.0834,9.17692,0,0.000885,0,0
0:0:52.209,72.1991,9.19071,0,0.000885,0,0
0:0:52.506,72.9019,9.28034,0,0.000885,0,0
0:0:52.808,73.5469,9.36308,0,0.000885,0,0
0:0:53.105,75.0148,9.54924,0,0.000885,0,0
0:0:53.406,74.7791,9.52166,0,0.000885,0,0
0:0:53.711,75.9534,9.67334,0,0.000885,0,0
0:0:54.015,76.4204,9.7285,0,0.000885,0,0
0:0:54.319,76.8341,9.78366,0,0.000885,0,0
0:0:54.622,77.6526,9.88708,0,0.000885,0,0
0:0:54.923,77.8884,9.91466,0,0.000885,0,0
0:0:55.221,79.0004,10.0595,0,0.000885,0,0
0:0:55.517,78.9426,10.0526,0,0.000885,0,0
0:0:55.818,80.1747,10.2111,0,0.000885,0,0
0:0:56.114,80.2326,10.218,0,0.000885,0,0
0:0:56.416,80.9977,10.3146,0,0.000885,0,0
0:0:56.712,81.229,10.3421,0,0.000885,0,0
0:0:57.010,81.9941,10.4387,0,0.000885,0,0
0:0:57.311,82.4033,10.4938,0,0.000885,0,0
0:0:57.606,83.2841,10.6041,0,0.000885,0,0
0:0:57.908,83.5776,10.6386,0,0.000885,0,0
0:0:58.206,84.2805,10.7282,0,0.000885,0,0
0:0:58.510,85.1612,10.8455,0,0.000885,0,0
0:0:58.816,85.6283,10.9006,0,0.000885,0,0
0:0:59.119,86.5668,11.0247,0,0.000885,0,0
0:0:59.423,87.0962,11.0868,0,0.000885,0,0
0:0:59.724,88.0348,11.2109,0,0.000885,0,0
0:1:0.025,88.7954,11.3074,0,0.000885,0,0
0:1:0.323,89.4404,11.3901,0,0.000885,0,0
0:1:0.619,89.2091,11.3557,0,0.000885,0,0
0:1:0.919,89.5027,11.397,0,0.000885,0,0
0:1:1.217,90.6147,11.5349,0,0.000885,0,0
0:1:1.518,91.0862,11.597,0,0.000885,0,0
0:1:1.814,91.8469,11.6935,0,0.000885,0,0
0:1:2.112,92.7855,11.8107,0,0.000885,0,0
0:1:2.413,92.8433,11.8245,0,0.000885,0,0
0:1:2.707,93.1947,11.8659,0,0.000885,0,0
0:1:3.010,93.8975,11.9555,0,0.000885,0,0
0:1:3.314,94.0754,11.9762,0,0.000885,0,0
0:1:3.619,94.6626,12.052,0,0.000885,0,0
0:1:3.922,95.9526,12.2175,0,0.000885,0,0
0:1:4.225,96.5398,12.2934,0,0.000885,0,0
0:1:4.528,97.2426,12.383,0,0.000885,0,0
0:1:4.823,97.3004,12.3899,0,0.000885,0,0
0:1:5.123,97.8297,12.4588,0,0.000885,0,0
0:1:5.423,98.8261,12.5829,0,0.000885,0,0
0:1:5.720,99.2932,12.645,0,0.000885,0,0
0:1:6.021,100.232,12.7622,0,0.000885,0,0
0:1:6.318,100.294,12.7691,0,0.000885,0,0
0:1:6.620,100.819,12.838,0,0.000885,0,0
0:1:6.917,102.523,13.0518,0,0.000885,0,0
0:1:7.213,102.403,13.038,0,0.000885,0,0
0:1:7.513,102.523,13.0518,0,0.000885,0,0
0:1:7.809,103.225,13.1414,0,0.000885,0,0
0:1:8.111,104.164,13.2655,0,0.000885,0,0
0:1:8.417,104.28,13.2793,0,0.000885,0,0
0:1:8.721,105.338,13.4103,0,0.000885,0,0
0:1:9.022,105.512,13.431,0,0.000885,0,0
0:1:9.324,105.863,13.4793,0,0.000885,0,0
0:1:9.628,107.095,13.6378,0,0.000885,0,0
0:1:9.925,107.505,13.6861,0,0.000885,0,0
0:1:10.227,107.683,13.7137,0,0.000885,0,0
0:1:10.523,108.679,13.8378,0,0.000885,0,0
0:1:10.823,109.675,13.9619,0,0.000885,0,0
0:1:11.121,109.733,13.9688,0,0.000885,0,0
0:1:11.417,110.263,14.0377,0,0.000885,0,0
0:1:11.718,111.201,14.1618,0,0.000885,0,0
0:1:12.013,112.255,14.2928,0,0.000885,0,0
0:1:12.316,112.255,14.2928,0,0.000885,0,0
0:1:12.611,113.256,14.4169,0,0.000885,0,0
0:1:12.911,113.487,14.4514,0,0.000885,0,0
0:1:13.209,113.372,14.4376,0,0.000885,0,0
0:1:13.513,114.017,14.5204,0,0.000885,0,0
0:1:13.819,114.898,14.6307,0,0.000885,0,0
0:1:14.123,115.658,14.7272,0,0.000885,0,0
0:1:14.425,115.894,14.7548,0,0.000885,0,0
0:1:14.729,116.89,14.8858,0,0.000885,0,0
0:1:15.027,118.123,15.0375,0,0.000885,0,0
0:1:15.328,118.474,15.0857,0,0.000885,0,0
0:1:15.623,119.119,15.1685,0,0.000885,0,0
0:1:15.925,119.59,15.2236,0,0.000885,0,0
0:1:16.222,120,15.2788,0,0.000885,0,0
0:1:16.520,120.235,15.3064,0,0.000885,0,0
0:1:16.820,121.29,15.4443,0,0.000885,0,0
0:1:17.114,121.232,15.4374,0,0.000885,0,0
0:1:17.418,121.935,15.527,0,0.000885,0,0
0:1:17.711,122.286,15.5684,0,0.000885,0,0
0:1:18.016,123.403,15.7132,0,0.000885,0,0
0:1:18.320,124.048,15.7959,0,0.000885,0,0
0:1:18.623,124.399,15.8373,0,0.000885,0,0
0:1:18.925,125.044,15.92,0,0.000885,0,0
0:1:19.228,126.04,16.051,0,0.000885,0,0
0:1:19.529,126.098,16.0579,0,0.000885,0,0
0:1:19.827,126.859,16.1544,0,0.000885,0,0
0:1:20.124,127.215,16.1958,0,0.000885,0,0
0:1:20.427,129.15,16.444,0,0.000885,0,0
0:1:20.719,129.092,16.4371,0,0.000885,0,0
0:1:21.022,129.852,16.5336,0,0.000885,0,0
0:1:21.317,130.026,16.5543,0,0.000885,0,0
0:1:21.618,129.968,16.5474,0,0.000885,0,0
0:1:21.916,130.965,16.6784,0,0.000885,0,0
0:1:22.211,131.672,16.768,0,0.000885,0,0
0:1:22.514,132.259,16.837,0,0.000885,0,0
0:1:22.807,131.845,16.7887,0,0.000885,0,0
0:1:23.109,132.842,16.9128,0,0.000885,0,0
0:1:23.415,134.194,17.0852,0,0.000885,0,0
0:1:23.720,134.719,17.1542,0,0.000885,0,0
0:1:24.024,135.012,17.1886,0,0.000885,0,0
0:1:24.325,135.893,17.3058,0,0.000885,0,0
0:1:24.628,136.187,17.3403,0,0.000885,0,0
0:1:24.924,137.299,17.4851,0,0.000885,0,0
0:1:25.225,138.064,17.5816,0,0.000885,0,0
0:1:25.523,138.709,17.6575,0,0.000885,0,0
0:1:25.820,138.651,17.6506,0,0.000885,0,0
0:1:26.121,139.412,17.7471,0,0.000885,0,0
0:1:26.414,139.763,17.7954,0,0.000885,0,0
0:1:26.717,140.586,17.8988,0,0.000885,0,0
0:1:27.013,140.995,17.9539,0,0.000885,0,0
0:1:27.311,141.582,18.0298,0,0.000885,0,0
0:1:27.610,142.285,18.1194,0,0.000885,0,0
0:1:27.908,143.224,18.2366,0,0.000885,0,0
0:1:28.211,143.224,18.2366,0,0.000885,0,0
0:1:28.514,143.869,18.3194,0,0.000885,0,0
0:1:28.820,144.572,18.409,0,0.000885,0,0
0:1:29.122,144.865,18.4435,0,0.000885,0,0
0:1:29.423,145.337,18.5055,0,0.000885,0,0
0:1:29.725,145.804,18.5676,0,0.000885,0,0
0:1:30.021,146.685,18.6779,0,0.000885,0,0
0:1:30.321,147.739,18.8089,0,0.000885,0,0
0:1:30.619,148.326,18.8847,0,0.000885,0,0
0:1:30.919,149.322,19.0157,0,0.000885,0,0
0:1:31.219,149.149,18.9882,0,0.000885,0,0
0:1:31.513,149.736,19.064,0,0.000885,0,0
0:1:31.814,150.906,19.2157,0,0.000885,0,0
0:1:32.111,151.026,19.2295,0,0.000885,0,0
0:1:32.410,151.965,19.3467,0,0.000885,0,0
0:1:32.708,152.667,19.4363,0,0.000885,0,0
0:1:33.004,153.428,19.5328,0,0.000885,0,0
0:1:33.306,152.783,19.4501,0,0.000885,0,0
0:1:33.611,153.957,19.6018,0,0.000885,0,0
0:1:33.915,154.193,19.6294,0,0.000885,0,0
0:1:34.219,155.425,19.788,0,0.000885,0,0
0:1:34.522,156.364,19.9121,0,0.000885,0,0
0:1:34.824,156.537,19.9327,0,0.000885,0,0
0:1:35.119,156.831,19.9672,0,0.000885,0,0
0:1:35.421,157.712,20.0775,0,0.000885,0,0
0:1:35.717,158.766,20.2154,0,0.000885,0,0
0:1:36.015,158.415,20.1672,0,0.000885,0,0
0:1:36.314,159.469,20.3051,0,0.000885,0,0
0:1:36.609,160.47,20.4292,0,0.000885,0,0
0:1:36.911,160.234,20.4016,0,0.000885,0,0
0:1:37.206,160.879,20.4843,0,0.000885,0,0
0:1:37.508,161.466,20.5602,0,0.000885,0,0
0:1:37.804,162.698,20.7119,0,0.000885,0,0
0:1:38.106,162.636,20.705,0,0.000885,0,0
0:1:38.411,163.281,20.7877,0,0.000885,0,0
0:1:38.713,163.752,20.8497,0,0.000885,0,0
0:1:39.015,164.807,20.9807,0,0.000885,0,0
0:1:39.319,165.1,21.0221,0,0.000885,0,0
0:1:39.620,165.158,21.029,0,0.000885,0,0
0:1:39.919,166.568,21.2083,0,0.000885,0,0
0:1:40.213,167.565,21.3324,0,0.000885,0,0
0:1:40.513,167.565,21.3324,0,0.000885,0,0
0:1:40.809,167.565,21.3324,0,0.000885,0,0
0:1:41.109,168.619,21.4703,0,0.000885,0,0
0:1:41.407,169.499,21.5806,0,0.000885,0,0
0:1:41.706,170.087,21.6564,0,0.000885,0,0
0:1:42.003,169.677,21.6013,0,0.000885,0,0
0:1:42.299,170.91,21.7599,0,0.000885,0,0
0:1:42.600,171.492,21.8357,0,0.000885,0,0
0:1:42.896,172.315,21.9391,0,0.000885,0,0
0:1:43.199,173.076,22.0356,0,0.000885,0,0
0:1:43.505,173.605,22.1046,0,0.000885,0,0
0:1:43.808,173.721,22.1184,0,0.000885,0,0
0:1:44.112,175.073,22.2908,0,0.000885,0,0
0:1:44.414,175.949,22.4011,0,0.000885,0,0
0:1:44.717,176.363,22.4562,0,0.000885,0,0
0:1:45.012,175.949,22.4011,0,0.000885,0,0
0:1:45.312,177.066,22.5459,0,0.000885,0,0
0:1:45.610,177.947,22.6562,0,0.000885,0,0
0:1:45.908,178.414,22.7182,0,0.000885,0,0
0:1:46.209,178.827,22.7665,0,0.000885,0,0
0:1:46.503,179.117,22.8079,0,0.000885,0,0
0:1:46.805,179.939,22.9113,0,0.000885,0,0
0:1:47.102,180.291,22.9526,0,0.000885,0,0
0:1:47.398,180.878,23.0285,0,0.000885,0,0
0:1:47.699,181.995,23.1733,0,0.000885,0,0
0:1:47.994,181.874,23.1595,0,0.000885,0,0
0:1:48.297,182.64,23.256,0,0.000885,0,0
0:1:48.603,183.458,23.3594,0,0.000885,0,0
0:1:48.907,184.454,23.4835,0,0.000885,0,0
0:1:49.209,184.223,23.456,0,0.000885,0,0
0:1:49.511,185.099,23.5663,0,0.000885,0,0
0:1:49.813,185.451,23.6145,0,0.000885,0,0
0:1:50.109,186.509,23.7455,0,0.000885,0,0
0:1:50.410,187.39,23.8559,0,0.000885,0,0
0:1:50.706,186.919,23.8007,0,0.000885,0,0
0:1:51.004,188.093,23.9455,0,0.000885,0,0
0:1:51.304,189.032,24.0696,0,0.000885,0,0
0:1:51.599,189.85,24.173,0,0.000885,0,0
0:1:51.901,190.144,24.2075,0,0.000885,0,0
0:1:52.198,190.264,24.2282,0,0.000885,0,0
0:1:52.497,191.434,24.373,0,0.000885,0,0
0:1:52.794,191.14,24.3385,0,0.000885,0,0
0:1:53.098,192.079,24.4557,0,0.000885,0,0
0:1:53.402,192.902,24.5591,0,0.000885,0,0
0:1:53.703,193.489,24.635,0,0.000885,0,0
0:1:54.003,194.076,24.7108,0,0.000885,0,0
0:1:54.303,194.307,24.7384,0,0.000885,0,0
0:1:54.599,195.482,24.8901,0,0.000885,0,0
0:1:54.898,195.717,24.9177,0,0.000885,0,0
0:1:55.191,197.007,25.0831,0,0.000885,0,0
0:1:55.492,196.714,25.0487,0,0.000885,0,0
0:1:55.784,197.537,25.1521,0,0.000885,0,0
0:1:56.080,198.533,25.2762,0,0.000885,0,0
0:1:56.374,198.182,25.2348,0,0.000885,0,0
0:1:56.681,199.236,25.3658,0,0.000885,0,0
0:1:56.981,200.174,25.4899,0,0.000885,0,0
0:1:57.281,201.286,25.6278,0,0.000885,0,0
0:1:57.581,201.055,25.6002,0,0.000885,0,0
0:1:57.885,202.052,25.7243,0,0.000885,0,0
0:1:58.185,202.167,25.7381,0,0.000885,0,0
0:1:58.489,203.106,25.8622,0,0.000885,0,0
0:1:58.790,204.044,25.9794,0,0.000885,0,0
0:1:59.090,204.396,26.0277,0,0.000885,0,0
0:1:59.392,204.747,26.0691,0,0.000885,0,0
0:1:59.690,205.57,26.1725,0,0.000885,0,0
0:1:59.986,206.273,26.2621,0,0.000885,0,0
0:2:0.280,206.273,26.2621,0,0.000885,0,0
0:2:0.579,206.157,26.2483,0,0.000885,0,0
0:2:0.882,207.389,26.4069,0,0.000885,0,0
0:2:1.181,207.799,26.4552,0,0.000885,0,0
0:2:1.483,208.501,26.5448,0,0.000885,0,0
0:2:1.780,209.498,26.6758,0,0.000885,0,0
0:2:2.079,209.382,26.662,0,0.000885,0,0
0:2:2.381,210.614,26.8137,0,0.000885,0,0
0:2:2.681,210.788,26.8413,0,0.000885,0,0
0:2:2.984,211.553,26.9378,0,0.000885,0,0
0:2:3.287,212.434,27.0481,0,0.000885,0,0
0:2:3.589,213.31,27.1584,0,0.000885,0,0
0:2:3.891,213.372,27.1653,0,0.000885,0,0
0:2:4.190,213.252,27.1516,0,0.000885,0,0
0:2:4.491,214.133,27.2619,0,0.000885,0,0
0:2:4.787,215.601,27.448,0,0.000885,0,0
0:2:5.086,216.419,27.5583,0,0.000885,0,0
0:2:5.379,216.361,27.5515,0,0.000885,0,0
0:2:5.679,216.477,27.5652,0,0.000885,0,0
0:2:5.982,217.594,27.7031,0,0.000885,0,0
0:2:6.281,218.123,27.7721,0,0.000885,0,0
0:2:6.573,219.293,27.9238,0,0.000885,0,0
0:2:6.880,219.351,27.9307,0,0.000885,0,0
0:2:7.180,219.235,27.9169,0,0.000885,0,0
0:2:7.482,220.525,28.0755,0,0.000885,0,0
0:2:7.781,220.997,28.1375,0,0.000885,0,0
0:2:8.073,221.815,28.2409,0,0.000885,0,0
0:2:8.374,221.699,28.2271,0,0.000885,0,0
0:2:8.679,222.518,28.3306,0,0.000885,0,0
0:2:8.981,223.692,28.4822,0,0.000885,0,0
0:2:9.281,223.812,28.496,0,0.000885,0,0
0:2:9.582,225.04,28.6546,0,0.000885,0,0
0:2:9.879,225.627,28.7305,0,0.000885,0,0
0:2:10.175,225.921,28.7649,0,0.000885,0,0
0:2:10.480,226.508,28.8408,0,0.000885,0,0
0:2:10.781,227.211,28.9304,0,0.000885,0,0
0:2:11.083,228.501,29.0959,0,0.000885,0,0
0:2:11.380,228.794,29.1303,0,0.000885,0,0
0:2:11.687,228.972,29.151,0,0.000885,0,0
0:2:11.981,229.969,29.282,0,0.000885,0,0
0:2:12.281,230.147,29.3027,0,0.000885,0,0
0:2:12.584,230.204,29.3096,0,0.000885,0,0
0:2:12.881,230.32,29.3234,0,0.000885,0,0
0:2:13.174,231.259,29.4475,0,0.000885,0,0
0:2:13.478,231.73,29.5027,0,0.000885,0,0
0:2:13.781,232.842,29.6475,0,0.000885,0,0
0:2:14.081,233.371,29.7164,0,0.000885,0,0
0:2:14.381,233.487,29.7302,0,0.000885,0,0
0:2:14.683,234.252,29.8267,0,0.000885,0,0
0:2:14.979,235.129,29.937,0,0.000885,0,0
0:2:15.275,235.48,29.9853,0,0.000885,0,0
0:2:15.580,236.77,30.1439,0,0.000885,0,0
0:2:15.880,236.654,30.1301,0,0.000885,0,0
0:2:16.183,237.535,30.2404,0,0.000885,0,0
0:2:16.479,238.883,30.4128,0,0.000885,0,0
0:2:16.775,238.474,30.3645,0,0.000885,0,0
0:2:17.080,239.354,30.4748,0,0.000885,0,0
0:2:17.380,240.76,30.6541,0,0.000885,0,0
0:2:17.684,241.405,30.7368,0,0.000885,0,0
0:2:17.985,241.169,30.7092,0,0.000885,0,0
0:2:18.286,241.583,30.7575,0,0.000885,0,0
0:2:18.588,242.401,30.8609,0,0.000885,0,0
0:2:18.888,242.228,30.8402,0,0.000885,0,0
0:2:19.189,243.576,31.0126,0,0.000885,0,0
0:2:19.487,244.221,31.0954,0,0.000885,0,0
0:2:19.781,243.576,31.0126,0,0.000885,0,0
0:2:20.079,244.572,31.1367,0,0.000885,0,0
0:2:20.376,246.271,31.3574,0,0.000885,0,0
0:2:20.681,246.507,31.3849,0,0.000885,0,0
0:2:20.980,246.979,31.447,0,0.000885,0,0
0:2:21.284,247.917,31.5642,0,0.000885,0,0
0:2:21.579,248.562,31.6469,0,0.000885,0,0
0:2:21.874,248.5,31.64,0,0.000885,0,0
0:2:22.168,249.207,31.7297,0,0.000885,0,0
0:2:22.468,249.968,31.8262,0,0.000885,0,0
0:2:22.770,250.439,31.8883,0,0.000885,0,0
0:2:23.072,252.023,32.0882,0,0.000885,0,0
0:2:23.375,252.196,32.1089,0,0.000885,0,0
0:2:23.676,251.961,32.0813,0,0.000885,0,0
0:2:23.980,252.726,32.1778,0,0.000885,0,0
0:2:24.276,253.486,32.2744,0,0.000885,0,0
0:2:24.575,254.251,32.3709,0,0.000885,0,0
0:2:24.883,254.309,32.3778,0,0.000885,0,0
0:2:25.175,255.248,32.5019,0,0.000885,0,0
0:2:25.476,255.599,32.5433,0,0.000885,0,0
0:2:25.781,256.302,32.6329,0,0.000885,0,0
0:2:26.086,257.067,32.7294,0,0.000885,0,0
0:2:26.385,257.712,32.8121,0,0.000885,0,0
0:2:26.677,258.064,32.8604,0,0.000885,0,0
0:2:26.976,259.06,32.9845,0,0.000885,0,0
0:2:27.269,259.469,33.0397,0,0.000885,0,0
0:2:27.568,259.647,33.0604,0,0.000885,0,0
0:2:27.863,260.817,33.2052,0,0.000885,0,0
0:2:28.163,260.701,33.1914,0,0.000885,0,0
0:2:28.467,261.64,33.3155,0,0.000885,0,0
0:2:28.767,262.463,33.4189,0,0.000885,0,0
0:2:29.069,262.814,33.4603,0,0.000885,0,0
0:2:29.370,264.046,33.6188,0,0.000885,0,0
0:2:29.667,264.456,33.674,0,0.000885,0,0
0:2:29.963,264.865,33.7223,0,0.000885,0,0
0:2:30.266,265.158,33.7636,0,0.000885,0,0
0:2:30.565,266.275,33.9015,0,0.000885,0,0
0:2:30.877,266.275,33.9015,0,0.000885,0,0
0:2:31.187,266.742,33.9636,0,0.000885,0,0
0:2:31.483,267.387,34.0463,0,0.000885,0,0
0:2:31.776,268.383,34.1704,0,0.000885,0,0
0:2:32.073,267.859,34.1015,0,0.000885,0,0
0:2:32.367,269.38,34.3014,0,0.000885,0,0
0:2:32.667,270.612,34.4531,0,0.000885,0,0
0:2:32.969,270.145,34.3979,0,0.000885,0,0
0:2:33.269,271.199,34.5289,0,0.000885,0,0
0:2:33.574,271.319,34.5427,0,0.000885,0,0
0:2:33.874,272.253,34.6668,0,0.000885,0,0
0:2:34.176,273.134,34.7772,0,0.000885,0,0
0:2:34.475,273.192,34.7841,0,0.000885,0,0
0:2:34.775,274.424,34.9426,0,0.000885,0,0
0:2:35.070,274.602,34.9633,0,0.000885,0,0
0:2:35.366,275.247,35.0461,0,0.000885,0,0
0:2:35.664,276.359,35.1839,0,0.000885,0,0
0:2:35.976,276.243,35.1702,0,0.000885,0,0
0:2:36.275,277.298,35.3081,0,0.000885,0,0
0:2:36.568,277.476,35.3287,0,0.000885,0,0
0:2:36.867,278.178,35.4184,0,0.000885,0,0
0:2:37.164,279.117,35.5356,0,0.000885,0,0
0:2:37.465,279.117,35.5356,0,0.000885,0,0
0:2:37.765,279.646,35.6045,0,0.000885,0,0
0:2:38.057,280.407,35.7011,0,0.000885,0,0
0:2:38.359,281.052,35.7838,0,0.000885,0,0
0:2:38.662,281.817,35.8803,0,0.000885,0,0
0:2:38.964,281.875,35.8872,0,0.000885,0,0
0:2:39.263,282.756,36.0044,0,0.000885,0,0
0:2:39.562,283.165,36.0527,0,0.000885,0,0
0:2:39.862,284.103,36.1699,0,0.000885,0,0
0:2:40.166,285.158,36.3078,0,0.000885,0,0
0:2:40.464,285.393,36.3354,0,0.000885,0,0
0:2:40.761,286.39,36.4664,0,0.000885,0,0
0:2:41.055,286.626,36.494,0,0.000885,0,0
0:2:41.355,286.919,36.5284,0,0.000885,0,0
0:2:41.647,288.151,36.687,0,0.000885,0,0
0:2:41.946,288.031,36.6732,0,0.000885,0,0
0:2:42.241,289.206,36.8249,0,0.000885,0,0
0:2:42.537,288.854,36.7766,0,0.000885,0,0
0:2:42.834,289.851,36.9076,0,0.000885,0,0
0:2:43.134,290.731,37.018,0,0.000885,0,0
0:2:43.437,290.905,37.0386,0,0.000885,0,0
0:2:43.738,291.728,37.1421,0,0.000885,0,0
0:2:44.039,291.376,37.1007,0,0.000885,0,0
0:2:44.339,292.782,37.28,0,0.000885,0,0
0:2:44.637,292.724,37.2731,0,0.000885,0,0
0:2:44.934,293.427,37.3627,0,0.000885,0,0
0:2:45.226,294.486,37.4937,0,0.000885,0,0
0:2:45.527,295.188,37.5833,0,0.000885,0,0
0:2:45.821,295.655,37.6454,0,0.000885,0,0
0:2:46.119,297.181,37.8384,0,0.000885,0,0
0:2:46.413,296.888,37.804,0,0.000885,0,0
0:2:46.709,297.066,37.8246,0,0.000885,0,0
0:2:47.008,298.356,37.9901,0,0.000885,0,0
0:2:47.301,298.413,37.997,0,0.000885,0,0
0:2:47.601,299.703,38.1625,0,0.000885,0,0
0:2:47.895,299.939,38.1901,0,0.000885,0,0
0:2:48.195,300.406,38.2521,0,0.000885,0,0
0:2:48.499,301.345,38.3693,0,0.000885,0,0
0:2:48.801,301.758,38.4176,0,0.000885,0,0
0:2:49.102,302.813,38.5555,0,0.000885,0,0
0:2:49.401,302.871,38.5624,0,0.000885,0,0
0:2:49.701,303.106,38.59,0,0.000885,0,0
0:2:49.995,304.632,38.7899,0,0.000885,0,0
0:2:50.290,304.396,38.7554,0,0.000885,0,0
0:2:50.589,305.744,38.9278,0,0.000885,0,0
0:2:50.880,305.335,38.8795,0,0.000885,0,0
0:2:51.183,306.389,39.0105,0,0.000885,0,0
0:2:51.473,306.567,39.0312,0,0.000885,0,0
0:2:51.773,307.799,39.1898,0,0.000885,0,0
0:2:52.068,308.151,39.2381,0,0.000885,0,0
0:2:52.364,308.386,39.2656,0,0.000885,0,0
0:2:52.661,309.383,39.3897,0,0.000885,0,0
0:2:52.963,310.143,39.4863,0,0.000885,0,0
0:2:53.266,310.495,39.5345,0,0.000885,0,0
0:2:53.566,311.14,39.6173,0,0.000885,0,0
0:2:53.867,311.843,39.7069,0,0.000885,0,0
0:2:54.166,311.669,39.6862,0,0.000885,0,0
0:2:54.480,313.075,39.8655,0,0.000885,0,0
0:2:54.780,313.253,39.8862,0,0.000885,0,0
0:2:55.073,314.133,39.9965,0,0.000885,0,0
0:2:55.372,314.191,40.0034,0,0.000885,0,0
0:2:55.668,315.659,40.1895,0,0.000885,0,0
0:2:55.963,315.833,40.2102,0,0.000885,0,0
0:2:56.263,316.656,40.3205,0,0.000885,0,0
0:2:56.555,317.301,40.3964,0,0.000885,0,0
0:2:56.855,317.358,40.4102,0,0.000885,0,0
0:2:57.150,318.119,40.5067,0,0.000885,0,0
0:2:57.447,318.297,40.5274,0,0.000885,0,0
0:2:57.743,319.178,40.6377,0,0.000885,0,0
0:2:58.044,319.881,40.7273,0,0.000885,0,0
0:2:58.347,319.996,40.7411,0,0.000885,0,0
0:2:58.648,321.406,40.9204,0,0.000885,0,0
0:2:58.948,321.286,40.9066,0,0.000885,0,0
0:2:59.249,322.403,41.0514,0,0.000885,0,0
0:2:59.545,322.109,41.01,0,0.000885,0,0
0:2:59.843,323.283,41.1617,0,0.000885,0,0
0:3:0.137,323.573,41.1962,0,0.000885,0,0
0:3:0.435,324.983,41.3754,0,0.000885,0,0
0:3:0.729,324.983,41.3754,0,0.000885,0,0
0:3:1.028,325.685,41.4651,0,0.000885,0,0
0:3:1.322,326.566,41.5823,0,0.000885,0,0
0:3:1.618,326.975,41.6305,0,0.000885,0,0
0:3:1.915,327.096,41.6443,0,0.000885,0,0
0:3:2.208,328.386,41.8098,0,0.000885,0,0
0:3:2.509,328.443,41.8167,0,0.000885,0,0
0:3:2.802,329.146,41.9063,0,0.000885,0,0
0:3:3.103,329.675,41.9753,0,0.000885,0,0
0:3:3.405,330.085,42.0304,0,0.000885,0,0
0:3:3.706,331.375,42.189,0,0.000885,0,0
0:3:4.007,331.259,42.1752,0,0.000885,0,0
0:3:4.308,332.313,42.3131,0,0.000885,0,0
0:3:4.610,333.488,42.4579,0,0.000885,0,0
0:3:4.902,333.194,42.4234,0,0.000885,0,0
0:3:5.199,334.306,42.5682,0,0.000885,0,0
0:3:5.495,334.19,42.5475,0,0.000885,0,0
0:3:5.789,335.013,42.6579,0,0.000885,0,0
0:3:6.090,335.89,42.7682,0,0.000885,0,0
0:3:6.392,336.125,42.7958,0,0.000885,0,0
0:3:6.691,337.415,42.9612,0,0.000885,0,0
0:3:6.986,337.006,42.9061,0,0.000885,0,0
0:3:7.280,338.06,43.044,0,0.000885,0,0
0:3:7.579,338.705,43.1267,0,0.000885,0,0
0:3:7.872,339.47,43.2232,0,0.000885,0,0
0:3:8.172,340.173,43.3129,0,0.000885,0,0
0:3:8.473,339.88,43.2715,0,0.000885,0,0
0:3:8.775,341.348,43.4645,0,0.000885,0,0
0:3:9.075,341.405,43.4714,0,0.000885,0,0
0:3:9.375,341.579,43.4921,0,0.000885,0,0
0:3:9.675,342.753,43.6438,0,0.000885,0,0
0:3:9.979,343.105,43.6852,0,0.000885,0,0
0:3:10.277,343.75,43.7679,0,0.000885,0,0
0:3:10.587,344.337,43.8438,0,0.000885,0,0
0:3:10.890,345.16,43.9472,0,0.000885,0,0
0:3:11.190,345.685,44.0161,0,0.000885,0,0
0:3:11.492,346.508,44.1196,0,0.000885,0,0
0:3:11.788,346.623,44.1333,0,0.000885,0,0
0:3:12.086,347.446,44.2368,0,0.000885,0,0
0:3:12.389,347.74,44.2781,0,0.000885,0,0
0:3:12.689,348.149,44.3264,0,0.000885,0,0
0:3:12.993,349.203,44.4643,0,0.000885,0,0
0:3:13.295,349.265,44.4712,0,0.000885,0,0
0:3:13.595,350.965,44.6849,0,0.000885,0,0
0:3:13.895,351.143,44.7056,0,0.000885,0,0
0:3:14.195,352.255,44.8504,0,0.000885,0,0
0:3:14.490,352.077,44.8297,0,0.000885,0,0
0:3:14.787,352.726,44.9124,0,0.000885,0,0
0:3:15.080,352.784,44.9193,0,0.000885,0,0
0:3:15.388,353.66,45.0297,0,0.000885,0,0
0:3:15.688,354.247,45.1055,0,0.000885,0,0
0:3:15.989,354.247,45.1055,0,0.000885,0,0
0:3:16.290,355.537,45.271,0,0.000885,0,0
0:3:16.585,355.658,45.2848,0,0.000885,0,0
0:3:16.877,355.893,45.3123,0,0.000885,0,0
0:3:17.175,357.535,45.5192,0,0.000885,0,0
0:3:17.469,358.353,45.6295,0,0.000885,0,0
0:3:17.769,358.589,45.6571,0,0.000885,0,0
0:3:18.070,358.94,45.6985,0,0.000885,0,0
0:3:18.373,359.879,45.8226,0,0.000885,0,0
0:3:18.673,360.466,45.8984,0,0.000885,0,0
0:3:18.972,360.408,45.8915,0,0.000885,0,0
0:3:19.273,361.64,46.0432,0,0.000885,0,0
0:3:19.576,361.347,46.0087,0,0.000885,0,0
0:3:19.885,362.517,46.1604,0,0.000885,0,0
0:3:20.192,363.104,46.2293,0,0.000885,0,0
0:3:20.486,364.042,46.3535,0,0.000885,0,0
0:3:20.788,364.923,46.4638,0,0.000885,0,0
0:3:21.089,364.808,46.45,0,0.000885,0,0
0:3:21.387,365.684,46.5603,0,0.000885,0,0
0:3:21.682,366.155,46.6223,0,0.000885,0,0
0:3:21.978,366.916,46.7189,0,0.000885,0,0
0:3:22.276,367.739,46.8223,0,0.000885,0,0
0:3:22.568,367.561,46.8016,0,0.000885,0,0
0:3:22.869,367.855,46.8361,0,0.000885,0,0
0:3:23.172,368.5,46.9188,0,0.000885,0,0
0:3:23.475,369.38,47.0291,0,0.000885,0,0
0:3:23.774,369.79,47.0843,0,0.000885,0,0
0:3:24.075,370.79,47.2084,0,0.000885,0,0
0:3:24.376,371.257,47.2705,0,0.000885,0,0
0:3:24.680,371.96,47.3601,0,0.000885,0,0
0:3:24.988,372.374,47.4152,0,0.000885,0,0
0:3:25.288,372.783,47.4635,0,0.000885,0,0
0:3:25.578,373.192,47.5187,0,0.000885,0,0
0:3:25.879,374.015,47.6221,0,0.000885,0,0
0:3:26.174,374.603,47.6979,0,0.000885,0,0
0:3:26.479,375.599,47.822,0,0.000885,0,0
0:3:26.775,375.541,47.8151,0,0.000885,0,0
0:3:27.071,376.48,47.9324,0,0.000885,0,0
0:3:27.370,376.711,47.9668,0,0.000885,0,0
0:3:27.661,377.414,48.0565,0,0.000885,0,0
0:3:27.961,378.063,48.1392,0,0.000885,0,0
0:3:28.263,378.824,48.2357,0,0.000885,0,0
0:3:28.565,379.353,48.2978,0,0.000885,0,0
0:3:28.867,379.82,48.3598,0,0.000885,0,0
0:3:29.168,380.643,48.4632,0,0.000885,0,0
0:3:29.469,380.875,48.4977,0,0.000885,0,0
0:3:29.762,381.933,48.6287,0,0.000885,0,0
0:3:30.060,382.458,48.6977,0,0.000885,0,0
0:3:30.358,382.987,48.7666,0,0.000885,0,0
0:3:30.652,383.281,48.8011,0,0.000885,0,0
0:3:30.951,383.517,48.8287,0,0.000885,0,0
0:3:31.246,384.162,48.9114,0,0.000885,0,0
0:3:31.544,384.513,48.9597,0,0.000885,0,0
0:3:31.839,384.749,48.9873,0,0.000885,0,0
0:3:32.135,385.625,49.0976,0,0.000885,0,0
0:3:32.434,386.448,49.201,0,0.000885,0,0
0:3:32.727,387.271,49.3113,0,0.000885,0,0
0:3:33.027,387.854,49.3803,0,0.000885,0,0
0:3:33.331,388.09,49.4147,0,0.000885,0,0
0:3:33.632,388.325,49.4423,0,0.000885,0,0
0:3:33.933,389.322,49.5733,0,0.000885,0,0
0:3:34.234,389.437,49.5871,0,0.000885,0,0
0:3:34.534,390.202,49.6836,0,0.000885,0,0
0:3:34.828,390.963,49.7801,0,0.000885,0,0
0:3:35.125,391.315,49.8215,0,0.000885,0,0
0:3:35.420,391.666,49.8698,0,0.000885,0,0
0:3:35.716,391.902,49.8974,0,0.000885,0,0
0:3:36.013,391.786,49.8836,0,0.000885,0,0
0:3:36.307,392.898,50.0284,0,0.000885,0,0
0:3:36.607,393.192,50.0628,0,0.000885,0,0
0:3:36.900,393.605,50.118,0,0.000885,0,0
0:3:37.196,394.072,50.1731,0,0.000885,0,0
0:3:37.494,394.424,50.2214,0,0.000885,0,0
0:3:37.795,394.366,50.2145,0,0.000885,0,0
0:3:38.099,394.424,50.2214,0,0.000885,0,0
0:3:38.399,394.953,50.2835,0,0.000885,0,0
0:3:38.700,395.772,50.3938,0,0.000885,0,0
0:3:39.002,396.185,50.442,0,0.000885,0,0
0:3:39.297,396.185,50.442,0,0.000885,0,0
0:3:39.596,396.772,50.5179,0,0.000885,0,0
0:3:39.889,396.652,50.5041,0,0.000885,0,0
0:3:40.189,396.71,50.511,0,0.000885,0,0
0:3:40.491,396.71,50.511,0,0.000885,0,0
0:3:40.788,396.652,50.5041,0,0.000885,0,0
0:3:41.093,395.714,50.3869,0,0.000885,0,0
0:3:41.388,394.895,50.2766,0,0.000885,0,0
0:3:41.695,392.311,49.9525,0,0.000885,0,0
0:3:41.988,390.26,49.6905,0,0.000885,0,0
0:3:42.285,388.267,49.4354,0,0.000885,0,0
0:3:42.590,386.626,49.2286,0,0.000885,0,0
0:3:42.890,383.397,48.8149,0,0.000885,0,0
0:3:43.193,381.52,48.5736,0,0.000885,0,0
0:3:43.494,379.762,48.3529,0,0.000885,0,0
0:3:43.793,377.827,48.1047,0,0.000885,0,0
0:3:44.092,377.062,48.0082,0,0.000885,0,0
0:3:44.390,376.186,47.8979,0,0.000885,0,0
0:3:44.682,376.124,47.891,0,0.000885,0,0
0:3:44.978,376.538,47.9392,0,0.000885,0,0
0:3:45.276,376.769,47.9737,0,0.000885,0,0
0:3:45.568,377.65,48.084,0,0.000885,0,0
0:3:45.866,378.588,48.2012,0,0.000885,0,0
0:3:46.161,379.469,48.3185,0,0.000885,0,0
0:3:46.457,380.701,48.4701,0,0.000885,0,0
0:3:46.753,381.933,48.6287,0,0.000885,0,0
0:3:47.048,382.987,48.7666,0,0.000885,0,0
0:3:47.346,384.513,48.9597,0,0.000885,0,0
0:3:47.638,385.625,49.0976,0,0.000885,0,0
0:3:47.938,386.626,49.2286,0,0.000885,0,0
0:3:48.241,387.68,49.3596,0,0.000885,0,0
0:3:48.542,389.086,49.5388,0,0.000885,0,0
0:3:48.842,390.963,49.7801,0,0.000885,0,0
0:3:49.142,391.959,49.9043,0,0.000885,0,0
0:3:49.442,393.543,50.1111,0,0.000885,0,0
0:3:49.735,394.602,50.2421,0,0.000885,0,0
0:3:50.032,396.301,50.4558,0,0.000885,0,0
0:3:50.329,399.232,50.835,0,0.000885,0,0
0:3:50.625,400.349,50.9729,0,0.000885,0,0
0:3:50.923,401.812,51.1591,0,0.000885,0,0
0:3:51.216,403.044,51.3177,0,0.000885,0,0
0:3:51.518,404.512,51.5038,0,0.000885,0,0
0:3:51.810,406.919,51.8072,0,0.000885,0,0
0:3:52.108,408.147,51.9658,0,0.000885,0,0
0:3:52.404,409.499,52.1382,0,0.000885,0,0
0:3:52.706,411.14,52.345,0,0.000885,0,0
0:3:53.009,412.897,52.5725,0,0.000885,0,0
0:3:53.313,415.362,52.8828,0,0.000885,0,0
0:3:53.612,417.065,53.1034,0,0.000885,0,0
0:3:53.912,418.355,53.2689,0,0.000885,0,0
0:3:54.209,420.348,53.5171,0,0.000885,0,0
0:3:54.506,422.047,53.7377,0,0.000885,0,0
0:3:54.801,424.805,54.0894,0,0.000885,0,0
0:3:55.101,426.331,54.2824,0,0.000885,0,0
0:3:55.393,428.15,54.5168,0,0.000885,0,0
0:3:55.692,429.44,54.6754,0,0.000885,0,0
0:3:55.986,430.966,54.8754,0,0.000885,0,0
0:3:56.281,433.252,55.165,0,0.000885,0,0
0:3:56.579,435.245,55.4201,0,0.000885,0,0
0:3:56.873,436.713,55.6062,0,0.000885,0,0
0:3:57.173,438.234,55.7993,0,0.000885,0,0
0:3:57.466,439.409,55.9441,0,0.000885,0,0
0:3:57.768,441.579,56.2267,0,0.000885,0,0
0:3:58.071,442.167,56.2957,0,0.000885,0,0
0:3:58.374,443.692,56.4956,0,0.000885,0,0
0:3:58.674,444.337,56.5715,0,0.000885,0,0
0:3:58.974,444.862,56.6404,0,0.000885,0,0
0:3:59.274,445.921,56.7783,0,0.000885,0,0
0:3:59.579,446.682,56.8749,0,0.000885,0,0
0:3:59.884,446.859,56.8955,0,0.000885,0,0
0:4:0.183,447.153,56.93,0,0.000885,0,0
0:4:0.486,447.562,56.9852,0,0.000885,0,0
0:4:0.784,448.092,57.0541,0,0.000885,0,0
0:4:1.079,448.385,57.0886,0,0.000885,0,0
0:4:1.385,447.856,57.0196,0,0.000885,0,0
0:4:1.682,447.972,57.0403,0,0.000885,0,0
0:4:1.985,448.265,57.0748,0,0.000885,0,0
0:4:2.285,448.559,57.1093,0,0.000885,0,0
0:4:2.576,448.852,57.1506,0,0.000885,0,0
0:4:2.878,448.674,57.13,0,0.000885,0,0
0:4:3.180,449.088,57.1782,0,0.000885,0,0
0:4:3.482,448.794,57.1437,0,0.000885,0,0
0:4:3.783,449.319,57.2127,0,0.000885,0,0
0:4:4.081,449.439,57.2265,0,0.000885,0,0
0:4:4.383,449.733,57.261,0,0.000885,0,0
0:4:4.676,450.787,57.3989,0,0.000885,0,0
0:4:4.974,450.845,57.4057,0,0.000885,0,0
0:4:5.272,451.61,57.5023,0,0.000885,0,0
0:4:5.566,452.371,57.5988,0,0.000885,0,0
0:4:5.865,452.722,57.6402,0,0.000885,0,0
0:4:6.158,453.367,57.7229,0,0.000885,0,0
0:4:6.459,453.719,57.7712,0,0.000885,0,0
0:4:6.752,454.306,57.847,0,0.000885,0,0
0:4:7.047,454.599,57.8815,0,0.000885,0,0
0:4:7.346,455.364,57.978,0,0.000885,0,0
0:4:7.647,456.183,58.0814,0,0.000885,0,0
0:4:7.951,456.828,58.1642,0,0.000885,0,0
0:4:8.252,456.712,58.1504,0,0.000885,0,0
0:4:8.553,457.882,58.3021,0,0.000885,0,0
0:4:8.853,457.882,58.3021,0,0.000885,0,0
0:4:9.149,459.056,58.4469,0,0.000885,0,0
0:4:9.446,459.177,58.4606,0,0.000885,0,0
0:4:9.740,459.644,58.5227,0,0.000885,0,0
0:4:10.040,460.524,58.633,0,0.000885,0,0
0:4:10.334,461.049,58.702,0,0.000885,0,0
0:4:10.633,461.93,58.8123,0,0.000885,0,0
0:4:10.929,462.753,58.9226,0,0.000885,0,0
0:4:11.224,463.34,58.9915,0,0.000885,0,0
0:4:11.523,463.865,59.0605,0,0.000885,0,0
0:4:11.815,464.101,59.0881,0,0.000885,0,0
0:4:12.114,464.866,59.1915,0,0.000885,0,0
0:4:12.408,465.684,59.2949,0,0.000885,0,0
0:4:12.709,466.271,59.3708,0,0.000885,0,0
0:4:13.012,466.974,59.4604,0,0.000885,0,0
0:4:13.313,467.739,59.5569,0,0.000885,0,0
0:4:13.615,468.616,59.6672,0,0.000885,0,0
0:4:13.914,468.794,59.6879,0,0.000885,0,0
0:4:14.214,469.381,59.7638,0,0.000885,0,0
0:4:14.508,469.554,59.7844,0,0.000885,0,0
0:4:14.803,470.199,59.8672,0,0.000885,0,0
0:4:15.103,471.667,60.0533,0,0.000885,0,0
0:4:15.396,471.903,60.0878,0,0.000885,0,0
0:4:15.696,472.664,60.1843,0,0.000885,0,0
0:4:15.988,472.899,60.2119,0,0.000885,0,0
0:4:16.297,473.722,60.3153,0,0.000885,0,0
0:4:16.594,474.189,60.3774,0,0.000885,0,0
0:4:16.897,474.776,60.4532,0,0.000885,0,0
0:4:17.198,475.128,60.4946,0,0.000885,0,0
0:4:17.488,475.479,60.5429,0,0.000885,0,0
0:4:17.791,476.24,60.6394,0,0.000885,0,0
0:4:18.094,476.885,60.7221,0,0.000885,0,0
0:4:18.396,477.592,60.8118,0,0.000885,0,0
0:4:18.696,477.944,60.8531,0,0.000885,0,0
0:4:18.995,479.118,61.0048,0,0.000885,0,0
0:4:19.295,479.349,61.0324,0,0.000885,0,0
0:4:19.588,480.288,61.1496,0,0.000885,0,0
0:4:19.884,480.581,61.191,0,0.000885,0,0
0:4:20.182,481.698,61.3289,0,0.000885,0,0
0:4:20.486,481.756,61.3358,0,0.000885,0,0
0:4:20.785,482.401,61.4185,0,0.000885,0,0
0:4:21.088,482.516,61.4392,0,0.000885,0,0
0:4:21.396,482.988,61.4943,0,0.000885,0,0
0:4:21.691,483.575,61.5702,0,0.000885,0,0
0:4:21.985,484.451,61.6805,0,0.000885,0,0
0:4:22.283,485.332,61.7977,0,0.000885,0,0
0:4:22.586,485.804,61.8529,0,0.000885,0,0
0:4:22.887,485.977,61.8736,0,0.000885,0,0
0:4:23.188,487.036,62.0114,0,0.000885,0,0
0:4:23.488,487.97,62.1287,0,0.000885,0,0
0:4:23.792,488.619,62.2114,0,0.000885,0,0
0:4:24.095,488.619,62.2114,0,0.000885,0,0
0:4:24.394,489.322,62.301,0,0.000885,0,0
0:4:24.695,489.496,62.3217,0,0.000885,0,0
0:4:24.995,490.492,62.4527,0,0.000885,0,0
0:4:25.289,491.079,62.5286,0,0.000885,0,0
0:4:25.587,491.666,62.6044,0,0.000885,0,0
0:4:25.897,492.431,62.7009,0,0.000885,0,0
0:4:26.187,493.308,62.8112,0,0.000885,0,0
0:4:26.487,493.486,62.8319,0,0.000885,0,0
0:4:26.790,493.779,62.8664,0,0.000885,0,0
0:4:27.098,494.366,62.9422,0,0.000885,0,0
0:4:27.395,495.421,63.0801,0,0.000885,0,0
0:4:27.695,496.066,63.1629,0,0.000885,0,0
0:4:27.998,495.95,63.1491,0,0.000885,0,0
0:4:28.299,496.475,63.2111,0,0.000885,0,0
0:4:28.600,497.471,63.3421,0,0.000885,0,0
0:4:28.901,498.41,63.4593,0,0.000885,0,0
0:4:29.198,499.117,63.549,0,0.000885,0,0
0:4:29.496,499.055,63.5421,0,0.000885,0,0
0:4:29.788,499.82,63.6386,0,0.000885,0,0
0:4:30.086,500.638,63.742,0,0.000885,0,0
0:4:30.402,501.404,63.8386,0,0.000885,0,0
0:4:30.699,502.164,63.9351,0,0.000885,0,0
0:4:30.996,502.164,63.9351,0,0.000885,0,0
0:4:31.287,503.223,64.073,0,0.000885,0,0
0:4:31.586,503.632,64.1212,0,0.000885,0,0
0:4:31.880,504.099,64.1833,0,0.000885,0,0
0:4:32.179,504.744,64.266,0,0.000885,0,0
0:4:32.472,504.806,64.2729,0,0.000885,0,0
0:4:32.775,505.625,64.3763,0,0.000885,0,0
0:4:33.077,506.154,64.4453,0,0.000885,0,0
0:4:33.379,507.266,64.5901,0,0.000885,0,0
0:4:33.679,507.796,64.6521,0,0.000885,0,0
0:4:33.981,508.147,64.7004,0,0.000885,0,0
0:4:34.279,508.676,64.7693,0,0.000885,0,0
0:4:34.584,509.321,64.8521,0,0.000885,0,0
0:4:34.880,510.082,64.9486,0,0.000885,0,0
0:4:35.179,510.202,64.9624,0,0.000885,0,0
0:4:35.472,510.789,65.0382,0,0.000885,0,0
0:4:35.772,511.256,65.0934,0,0.000885,0,0
0:4:36.076,511.55,65.1348,0,0.000885,0,0
0:4:36.374,512.137,65.2106,0,0.000885,0,0
0:4:36.671,512.84,65.3002,0,0.000885,0,0
0:4:36.983,513.836,65.4244,0,0.000885,0,0
0:4:37.284,515.068,65.5829,0,0.000885,0,0
0:4:37.576,515.54,65.6381,0,0.000885,0,0
0:4:37.878,515.891,65.6864,0,0.000885,0,0
0:4:38.181,516.301,65.7346,0,0.000885,0,0
0:4:38.481,516.652,65.7829,0,0.000885,0,0
0:4:38.784,517.533,65.8932,0,0.000885,0,0
0:4:39.084,517.884,65.9415,0,0.000885,0,0
0:4:39.384,518,65.9552,0,0.000885,0,0
0:4:39.678,518.414,66.0035,0,0.000885,0,0
0:4:39.976,519.29,66.1207,0,0.000885,0,0
0:4:40.272,520.349,66.2517,0,0.000885,0,0
0:4:40.568,521.051,66.3414,0,0.000885,0,0
0:4:40.867,521.874,66.4448,0,0.000885,0,0
0:4:41.159,522.341,66.5068,0,0.000885,0,0
0:4:41.460,522.635,66.5413,0,0.000885,0,0
0:4:41.755,523.573,66.6654,0,0.000885,0,0
0:4:42.050,524.512,66.7826,0,0.000885,0,0
0:4:42.348,524.628,66.7964,0,0.000885,0,0
0:4:42.648,525.393,66.8929,0,0.000885,0,0
0:4:42.953,526.331,67.017,0,0.000885,0,0
0:4:43.252,526.741,67.0653,0,0.000885,0,0
0:4:43.553,527.034,67.1067,0,0.000885,0,0
0:4:43.854,527.621,67.1756,0,0.000885,0,0
0:4:44.150,528.733,67.3204,0,0.000885,0,0
0:4:44.449,529.378,67.4031,0,0.000885,0,0
0:4:44.744,529.378,67.4031,0,0.000885,0,0
0:4:45.041,529.85,67.4652,0,0.000885,0,0
0:4:45.336,530.611,67.5617,0,0.000885,0,0
0:4:45.633,531.02,67.61,0,0.000885,0,0
0:4:45.931,531.958,67.7341,0,0.000885,0,0
0:4:46.225,532.488,67.7961,0,0.000885,0,0
0:4:46.523,532.897,67.8513,0,0.000885,0,0
0:4:46.816,533.484,67.9271,0,0.000885,0,0
0:4:47.115,534.658,68.0719,0,0.000885,0,0
0:4:47.410,534.365,68.0375,0,0.000885,0,0
0:4:47.710,534.894,68.1064,0,0.000885,0,0
0:4:48.015,535.713,68.2098,0,0.000885,0,0
0:4:48.315,536.126,68.2581,0,0.000885,0,0
0:4:48.617,536.829,68.3477,0,0.000885,0,0
0:4:48.916,537.532,68.4374,0,0.000885,0,0
0:4:49.213,538.119,68.5132,0,0.000885,0,0
0:4:49.511,538.644,68.5822,0,0.000885,0,0
0:4:49.805,539.231,68.658,0,0.000885,0,0
0:4:50.105,539.703,68.72,0,0.000885,0,0
0:4:50.398,540.406,68.8097,0,0.000885,0,0
0:4:50.697,541.344,68.9269,0,0.000885,0,0
0:4:50.991,541.989,69.0096,0,0.000885,0,0
0:4:51.298,542.105,69.0234,0,0.000885,0,0
0:4:51.595,542.518,69.0786,0,0.000885,0,0
0:4:51.888,543.221,69.1682,0,0.000885,0,0
0:4:52.188,543.457,69.1958,0,0.000885,0,0
0:4:52.491,544.453,69.3199,0,0.000885,0,0
0:4:52.792,545.098,69.4026,0,0.000885,0,0
0:4:53.096,545.686,69.4785,0,0.000885,0,0
0:4:53.400,546.388,69.5681,0,0.000885,0,0
0:4:53.699,547.033,69.6508,0,0.000885,0,0
0:4:54.000,547.443,69.706,0,0.000885,0,0
0:4:54.299,547.856,69.7543,0,0.000885,0,0
0:4:54.591,548.795,69.8715,0,0.000885,0,0
0:4:54.889,549.498,69.9611,0,0.000885,0,0
0:4:55.185,549.613,69.9818,0,0.000885,0,0
0:4:55.481,550.552,70.099,0,0.000885,0,0
0:4:55.780,551.081,70.1679,0,0.000885,0,0
0:4:56.083,551.548,70.2231,0,0.000885,0,0
0:4:56.382,552.429,70.3403,0,0.000885,0,0
0:4:56.686,552.607,70.361,0,0.000885,0,0
0:4:56.982,553.074,70.4162,0,0.000885,0,0
0:4:57.280,553.368,70.4575,0,0.000885,0,0
0:4:57.583,555.009,70.6644,0,0.000885,0,0
0:4:57.885,555.067,70.6713,0,0.000885,0,0
0:4:58.186,555.774,70.7609,0,0.000885,0,0
0:4:58.488,556.357,70.8367,0,0.000885,0,0
0:4:58.789,557.416,70.9746,0,0.000885,0,0
0:4:59.095,558.118,71.0643,0,0.000885,0,0
0:4:59.395,558.234,71.0781,0,0.000885,0,0
0:4:59.700,558.648,71.1263,0,0.000885,0,0
0:5:0.004,559.351,71.2159,0,0.000885,0,0
0:5:0.302,559.818,71.278,0,0.000885,0,0
0:5:0.597,560.347,71.3469,0,0.000885,0,0
0:5:0.897,561.05,71.4366,0,0.000885,0,0
0:5:1.202,561.459,71.4848,0,0.000885,0,0
0:5:1.500,562.166,71.5745,0,0.000885,0,0
0:5:1.798,562.398,71.6089,0,0.000885,0,0
0:5:2.100,563.572,71.7537,0,0.000885,0,0
0:5:2.400,564.217,71.8365,0,0.000885,0,0
0:5:2.702,564.631,71.8916,0,0.000885,0,0
0:5:3.004,565.276,71.9744,0,0.000885,0,0
0:5:3.306,566.036,72.0709,0,0.000885,0,0
0:5:3.605,566.566,72.1398,0,0.000885,0,0
0:5:3.906,566.681,72.1536,0,0.000885,0,0
0:5:4.199,567.504,72.2571,0,0.000885,0,0
0:5:4.499,568.149,72.3398,0,0.000885,0,0
0:5:4.804,568.443,72.3743,0,0.000885,0,0
0:5:5.099,569.439,72.5053,0,0.000885,0,0
0:5:5.397,569.613,72.526,0,0.000885,0,0
0:5:5.689,570.315,72.6156,0,0.000885,0,0
0:5:5.990,571.254,72.7328,0,0.000885,0,0
0:5:6.293,571.374,72.7466,0,0.000885,0,0
0:5:6.590,572.193,72.8569,0,0.000885,0,0
0:5:6.886,573.073,72.9672,0,0.000885,0,0
0:5:7.191,573.718,73.05,0,0.000885,0,0
0:5:7.491,573.718,73.05,0,0.000885,0,0
0:5:7.798,574.363,73.1327,0,0.000885,0,0
0:5:8.098,575.186,73.2361,0,0.000885,0,0
0:5:8.399,575.066,73.2223,0,0.000885,0,0
0:5:8.699,575.595,73.2844,0,0.000885,0,0
0:5:9.000,577.006,73.4636,0,0.000885,0,0
0:5:9.292,577.237,73.4981,0,0.000885,0,0
0:5:9.590,577.824,73.574,0,0.000885,0,0
0:5:9.885,578.705,73.6843,0,0.000885,0,0
0:5:10.182,579.292,73.7601,0,0.000885,0,0
0:5:10.479,579.817,73.8222,0,0.000885,0,0
0:5:10.772,580.462,73.9049,0,0.000885,0,0
0:5:11.073,580.933,73.967,0,0.000885,0,0
0:5:11.366,581.814,74.0773,0,0.000885,0,0
0:5:11.665,582.339,74.1462,0,0.000885,0,0
0:5:11.961,583.046,74.2359,0,0.000885,0,0
0:5:12.257,583.162,74.2496,0,0.000885,0,0
0:5:12.554,583.22,74.2565,0,0.000885,0,0
0:5:12.859,584.452,74.4151,0,0.000885,0,0
0:5:13.160,583.571,74.3048,0,0.000885,0,0
0:5:13.460,582.926,74.2221,0,0.000885,0,0
0:5:13.760,583.455,74.291,0,0.000885,0,0
0:5:14.058,584.63,74.4358,0,0.000885,0,0
0:5:14.354,585.448,74.5392,0,0.000885,0,0
0:5:14.653,586.623,74.6909,0,0.000885,0,0
0:5:14.947,587.445,74.7943,0,0.000885,0,0
0:5:15.245,588.264,74.8977,0,0.000885,0,0
0:5:15.543,588.851,74.9736,0,0.000885,0,0
0:5:15.839,590.199,75.146,0,0.000885,0,0
0:5:16.139,590.786,75.2218,0,0.000885,0,0
0:5:16.432,587.152,74.7599,0,0.000885,0,0
0:5:16.733,585.978,74.6082,0,0.000885,0,0
0:5:17.024,586.623,74.6909,0,0.000885,0,0
0:5:17.326,588.909,74.9805,0,0.000885,0,0
0:5:17.627,490.67,62.4734,0,0.000885,0,0
0:5:17.928,478.94,60.9772,0,0.000885,0,0
0:5:17.967,478.94,60.9772,0,0.000885,0,0