File: DataFile2021-07-17_041835.csv
Test ID:,Date Tested:,Time:,Test Type:,Diameter Avg. (mm):,Cyl. Corr. Factor:,Height (mm):,Age (days):,Weight (kN):,Break Type:,Ramp Rate (MPa/s):,Load at Break (kN):,Stress at Break (MPa):
12,7/17/2021,04:18,Cylinder,100,1,200,0,3.6,3,0.25,1108.34,141.11
Sample Time,Load (kN),Stress (MPa),Long. Strain,Trans. Strain,Chan1 Deflection (mm),Chan2 Deflection (mm)
0:0:15.254,5.10211,0.648107,0,0.000885,0,0
0:0:15.752,7.86001,0.99974,0,0.000885,0,0
0:0:16.248,8.62065,1.09627,0,0.000885,0,0
0:0:16.746,9.32347,1.1859,0,0.000885,0,0
0:0:17.240,8.85641,1.13074,0,0.000885,0,0
0:0:17.737,9.91064,1.26174,0,0.000885,0,0
0:0:18.234,10.7336,1.36516,0,0.000885,0,0
0:0:18.732,11.4942,1.46169,0,0.000885,0,0
0:0:19.227,12.1392,1.54443,0,0.000885,0,0
0:0:19.724,13.6071,1.73058,0,0.000885,0,0
0:0:20.221,14.2521,1.81332,0,0.000885,0,0
0:0:20.721,15.1907,1.93743,0,0.000885,0,0
0:0:21.227,16.1871,2.06153,0,0.000885,0,0
0:0:21.735,17.4192,2.22011,0,0.000885,0,0
0:0:22.237,18.1799,2.31664,0,0.000885,0,0
0:0:22.735,19.412,2.47522,0,0.000885,0,0
0:0:23.234,20.4707,2.60622,0,0.000885,0,0
0:0:23.731,21.6406,2.7579,0,0.000885,0,0
0:0:24.230,21.9342,2.79238,0,0.000885,0,0
0:0:24.726,23.2242,2.95785,0,0.000885,0,0
0:0:25.225,24.4563,3.11643,0,0.000885,0,0
0:0:25.720,24.6921,3.14401,0,0.000885,0,0
0:0:26.227,25.9821,3.30948,0,0.000885,0,0
0:0:26.735,26.9785,3.43359,0,0.000885,0,0
0:0:27.239,27.917,3.55769,0,0.000885,0,0
0:0:27.737,29.2648,3.72317,0,0.000885,0,0
0:0:28.235,30.4392,3.87485,0,0.000885,0,0
0:0:28.735,31.9071,4.06101,0,0.000885,0,0
0:0:29.232,32.7834,4.17133,0,0.000885,0,0
0:0:29.730,33.8421,4.30922,0,0.000885,0,0
0:0:30.225,35.1321,4.4747,0,0.000885,0,0
0:0:30.724,36.422,4.64017,0,0.000885,0,0
0:0:31.232,37.245,4.74359,0,0.000885,0,0
0:0:31.737,38.4148,4.88838,0,0.000885,0,0
0:0:32.242,39.1799,4.9918,0,0.000885,0,0
0:0:32.740,39.9984,5.09523,0,0.000885,0,0
0:0:33.235,40.4699,5.15038,0,0.000885,0,0
0:0:33.734,41.7021,5.30896,0,0.000885,0,0
0:0:34.232,42.4627,5.40549,0,0.000885,0,0
0:0:34.730,43.6949,5.56407,0,0.000885,0,0
0:0:35.225,44.5756,5.67439,0,0.000885,0,0
0:0:35.732,45.6877,5.81918,0,0.000885,0,0
0:0:36.237,46.1592,5.87433,0,0.000885,0,0
0:0:36.742,47.4492,6.03981,0,0.000885,0,0
0:0:37.242,48.3878,6.16391,0,0.000885,0,0
0:0:37.739,49.2685,6.27423,0,0.000885,0,0
0:0:38.238,49.9713,6.36386,0,0.000885,0,0
0:0:38.737,51.6127,6.5707,0,0.000885,0,0
0:0:39.232,52.2577,6.65344,0,0.000885,0,0
0:0:39.728,53.3698,6.79823,0,0.000885,0,0
0:0:40.227,54.6019,6.94992,0,0.000885,0,0
0:0:40.735,55.3092,7.03955,0,0.000885,0,0
0:0:41.241,56.3634,7.17744,0,0.000885,0,0
0:0:41.746,57.0084,7.26018,0,0.000885,0,0
0:0:42.244,58.8277,7.48771,0,0.000885,0,0
0:0:42.741,59.059,7.52218,0,0.000885,0,0
0:0:43.242,60.2912,7.67386,0,0.000885,0,0
0:0:43.739,61.4077,7.81865,0,0.000885,0,0
0:0:44.239,62.2262,7.92208,0,0.000885,0,0
0:0:44.735,62.6977,7.98413,0,0.000885,0,0
0:0:45.235,63.9298,8.14271,0,0.000885,0,0
0:0:45.737,64.517,8.21166,0,0.000885,0,0
0:0:46.245,65.8648,8.38402,0,0.000885,0,0
0:0:46.748,67.6841,8.61845,0,0.000885,0,0
0:0:47.250,67.9154,8.64603,0,0.000885,0,0
0:0:47.749,69.2054,8.8115,0,0.000885,0,0
0:0:48.245,70.0284,8.91492,0,0.000885,0,0
0:0:48.744,71.3183,9.0804,0,0.000885,0,0
0:0:49.241,72.0834,9.17692,0,0.000885,0,0
0:0:49.741,72.1991,9.19071,0,0.000885,0,0
0:0:50.238,73.6047,9.36998,0,0.000885,0,0
0:0:50.735,74.4276,9.4734,0,0.000885,0,0
0:0:51.244,75.4819,9.61129,0,0.000885,0,0
0:0:51.747,76.6562,9.76298,0,0.000885,0,0
0:0:52.251,78.0618,9.94224,0,0.000885,0,0
0:0:52.747,78.9426,10.0526,0,0.000885,0,0
0:0:53.243,80.2326,10.218,0,0.000885,0,0
0:0:53.740,80.7041,10.2732,0,0.000885,0,0
0:0:54.240,81.7583,10.4111,0,0.000885,0,0
0:0:54.735,82.1675,10.4593,0,0.000885,0,0
0:0:55.233,83.4575,10.6248,0,0.000885,0,0
0:0:55.741,84.8098,10.7972,0,0.000885,0,0
0:0:56.247,85.9218,10.942,0,0.000885,0,0
0:0:56.750,86.509,11.0178,0,0.000885,0,0
0:0:57.248,87.5054,11.1419,0,0.000885,0,0
0:0:57.746,88.7954,11.3074,0,0.000885,0,0
0:0:58.243,89.8541,11.4384,0,0.000885,0,0
0:0:58.739,90.9661,11.5832,0,0.000885,0,0
0:0:59.238,91.4376,11.6452,0,0.000885,0,0
0:0:59.735,92.3139,11.7556,0,0.000885,0,0
0:1:0.233,93.724,11.9348,0,0.000885,0,0
0:1:0.737,94.0754,11.9762,0,0.000885,0,0
0:1:1.245,95.2498,12.1279,0,0.000885,0,0
0:1:1.748,96.3618,12.2727,0,0.000885,0,0
0:1:2.249,97.3582,12.3968,0,0.000885,0,0
0:1:2.747,98.4747,12.5416,0,0.000885,0,0
0:1:3.245,99.5868,12.6795,0,0.000885,0,0
0:1:3.742,100.294,12.7691,0,0.000885,0,0
0:1:4.241,101.17,12.8794,0,0.000885,0,0
0:1:4.739,102.287,13.0242,0,0.000885,0,0
0:1:5.235,102.874,13.1,0,0.000885,0,0
0:1:5.736,104.044,13.2448,0,0.000885,0,0
0:1:6.242,104.982,13.3689,0,0.000885,0,0
0:1:6.747,106.041,13.4999,0,0.000885,0,0
0:1:7.250,106.922,13.6103,0,0.000885,0,0
0:1:7.749,108.15,13.7688,0,0.000885,0,0
0:1:8.245,109.15,13.8998,0,0.000885,0,0
0:1:8.744,109.969,14.0033,0,0.000885,0,0
0:1:9.241,110.85,14.1136,0,0.000885,0,0
0:1:9.738,112.255,14.2928,0,0.000885,0,0
0:1:10.236,113.078,14.3963,0,0.000885,0,0
0:1:10.731,114.426,14.5686,0,0.000885,0,0
0:1:11.238,115.249,14.672,0,0.000885,0,0
0:1:11.744,116.712,14.8582,0,0.000885,0,0
0:1:12.247,117.42,14.9478,0,0.000885,0,0
0:1:12.746,117.829,15.003,0,0.000885,0,0
0:1:13.245,118.883,15.134,0,0.000885,0,0
0:1:13.741,119.47,15.2098,0,0.000885,0,0
0:1:14.238,120.88,15.3891,0,0.000885,0,0
0:1:14.736,121.992,15.5339,0,0.000885,0,0
0:1:15.234,122.815,15.6373,0,0.000885,0,0
0:1:15.739,123.754,15.7545,0,0.000885,0,0
0:1:16.246,124.986,15.9131,0,0.000885,0,0
0:1:16.749,126.04,16.051,0,0.000885,0,0
0:1:17.248,127.095,16.182,0,0.000885,0,0
0:1:17.745,128.269,16.3337,0,0.000885,0,0
0:1:18.242,128.385,16.3475,0,0.000885,0,0
0:1:18.741,129.443,16.4785,0,0.000885,0,0
0:1:19.240,130.026,16.5543,0,0.000885,0,0
0:1:19.737,131.787,16.7818,0,0.000885,0,0
0:1:20.235,132.842,16.9128,0,0.000885,0,0
0:1:20.737,134.074,17.0714,0,0.000885,0,0
0:1:21.245,135.012,17.1886,0,0.000885,0,0
0:1:21.748,136.245,17.3472,0,0.000885,0,0
0:1:22.249,136.129,17.3334,0,0.000885,0,0
0:1:22.749,137.477,17.5058,0,0.000885,0,0
0:1:23.246,138.651,17.6506,0,0.000885,0,0
0:1:23.745,139.527,17.7678,0,0.000885,0,0
0:1:24.242,140.408,17.8781,0,0.000885,0,0
0:1:24.743,141.582,18.0298,0,0.000885,0,0
0:1:25.239,142.227,18.1056,0,0.000885,0,0
0:1:25.737,143.811,18.3125,0,0.000885,0,0
0:1:26.245,145.337,18.5055,0,0.000885,0,0
0:1:26.749,145.63,18.54,0,0.000885,0,0
0:1:27.253,146.685,18.6779,0,0.000885,0,0
0:1:27.750,147.507,18.7813,0,0.000885,0,0
0:1:28.249,148.504,18.9054,0,0.000885,0,0
0:1:28.746,149.5,19.0364,0,0.000885,0,0
0:1:29.244,150.145,19.1192,0,0.000885,0,0
0:1:29.742,151.2,19.2502,0,0.000885,0,0
0:1:30.239,152.08,19.3605,0,0.000885,0,0
0:1:30.746,153.197,19.5053,0,0.000885,0,0
0:1:31.252,154.193,19.6294,0,0.000885,0,0
0:1:31.755,155.483,19.7948,0,0.000885,0,0
0:1:32.253,156.422,19.919,0,0.000885,0,0
0:1:32.750,157.77,20.0913,0,0.000885,0,0
0:1:33.247,158.415,20.1672,0,0.000885,0,0
0:1:33.744,159.469,20.3051,0,0.000885,0,0
0:1:34.242,160.527,20.4361,0,0.000885,0,0
0:1:34.740,161.172,20.5188,0,0.000885,0,0
0:1:35.237,162.111,20.6429,0,0.000885,0,0
0:1:35.743,162.992,20.7532,0,0.000885,0,0
0:1:36.250,164.046,20.8842,0,0.000885,0,0
0:1:36.754,164.749,20.9739,0,0.000885,0,0
0:1:37.254,166.51,21.2014,0,0.000885,0,0
0:1:37.751,166.742,21.229,0,0.000885,0,0
0:1:38.248,167.858,21.3737,0,0.000885,0,0
0:1:38.748,168.445,21.4496,0,0.000885,0,0
0:1:39.244,169.615,21.5944,0,0.000885,0,0
0:1:39.743,171.261,21.8081,0,0.000885,0,0
0:1:40.241,172.079,21.9115,0,0.000885,0,0
0:1:40.743,173.547,22.0977,0,0.000885,0,0
0:1:41.251,174.077,22.1666,0,0.000885,0,0
0:1:41.755,175.189,22.3045,0,0.000885,0,0
0:1:42.257,176.421,22.4631,0,0.000885,0,0
0:1:42.756,177.182,22.5596,0,0.000885,0,0
0:1:43.253,177.711,22.6286,0,0.000885,0,0
0:1:43.750,178.827,22.7665,0,0.000885,0,0
0:1:44.247,180.233,22.9458,0,0.000885,0,0
0:1:44.744,181.172,23.0699,0,0.000885,0,0
0:1:45.244,180.994,23.0423,0,0.000885,0,0
0:1:45.739,182.404,23.2215,0,0.000885,0,0
0:1:46.246,183.636,23.3801,0,0.000885,0,0
0:1:46.750,184.454,23.4835,0,0.000885,0,0
0:1:47.256,185.393,23.6076,0,0.000885,0,0
0:1:47.754,186.745,23.78,0,0.000885,0,0
0:1:48.253,187.328,23.849,0,0.000885,0,0
0:1:48.750,188.912,24.0558,0,0.000885,0,0
0:1:49.248,189.912,24.1799,0,0.000885,0,0
0:1:49.744,190.673,24.2764,0,0.000885,0,0
0:1:50.242,191.905,24.435,0,0.000885,0,0
0:1:50.748,193.08,24.5867,0,0.000885,0,0
0:1:51.250,194.249,24.7315,0,0.000885,0,0
0:1:51.750,194.076,24.7108,0,0.000885,0,0
0:1:52.246,195.366,24.8763,0,0.000885,0,0
0:1:52.739,196.42,25.0073,0,0.000885,0,0
0:1:53.233,197.594,25.159,0,0.000885,0,0
0:1:53.727,198.649,25.29,0,0.000885,0,0
0:1:54.220,200.059,25.4692,0,0.000885,0,0
0:1:54.715,200.117,25.4761,0,0.000885,0,0
0:1:55.209,200.704,25.552,0,0.000885,0,0
0:1:55.706,202.287,25.7588,0,0.000885,0,0
0:1:56.210,203.342,25.8898,0,0.000885,0,0
0:1:56.712,204.925,26.0898,0,0.000885,0,0
0:1:57.211,205.277,26.138,0,0.000885,0,0
0:1:57.706,205.922,26.2208,0,0.000885,0,0
0:1:58.200,207.389,26.4069,0,0.000885,0,0
0:1:58.703,207.683,26.4414,0,0.000885,0,0
0:1:59.207,209.146,26.6276,0,0.000885,0,0
0:1:59.700,210.263,26.7723,0,0.000885,0,0
0:2:0.192,210.73,26.8344,0,0.000885,0,0
0:2:0.708,211.611,26.9447,0,0.000885,0,0
0:2:1.211,213.016,27.124,0,0.000885,0,0
0:2:1.714,213.724,27.2136,0,0.000885,0,0
0:2:2.214,215.129,27.3929,0,0.000885,0,0
0:2:2.709,216.477,27.5652,0,0.000885,0,0
0:2:3.203,217.358,27.6756,0,0.000885,0,0
0:2:3.706,218.003,27.7583,0,0.000885,0,0
0:2:4.200,218.768,27.8548,0,0.000885,0,0
0:2:4.692,220.058,28.0203,0,0.000885,0,0
0:2:5.186,221.228,28.1651,0,0.000885,0,0
0:2:5.690,221.521,28.2065,0,0.000885,0,0
0:2:6.194,222.811,28.3719,0,0.000885,0,0
0:2:6.695,223.928,28.5098,0,0.000885,0,0
0:2:7.194,225.334,28.6891,0,0.000885,0,0
0:2:7.688,226.041,28.7787,0,0.000885,0,0
0:2:8.181,227.153,28.9235,0,0.000885,0,0
0:2:8.676,227.798,29.0062,0,0.000885,0,0
0:2:9.170,229.03,29.1579,0,0.000885,0,0
0:2:9.663,230.147,29.3027,0,0.000885,0,0
0:2:10.155,230.378,29.3303,0,0.000885,0,0
0:2:10.657,231.374,29.4613,0,0.000885,0,0
0:2:11.160,232.9,29.6544,0,0.000885,0,0
0:2:11.661,233.896,29.7785,0,0.000885,0,0
0:2:12.155,234.604,29.8681,0,0.000885,0,0
0:2:12.650,236.125,30.068,0,0.000885,0,0
0:2:13.142,236.77,30.1439,0,0.000885,0,0
0:2:13.640,237.944,30.2956,0,0.000885,0,0
0:2:14.131,238.354,30.3507,0,0.000885,0,0
0:2:14.626,239.412,30.4817,0,0.000885,0,0
0:2:15.120,240.231,30.5851,0,0.000885,0,0
0:2:15.621,241.641,30.7644,0,0.000885,0,0
0:2:16.124,242.695,30.9023,0,0.000885,0,0
0:2:16.625,243.398,30.9919,0,0.000885,0,0
0:2:17.120,244.688,31.1574,0,0.000885,0,0
0:2:17.613,245.275,31.2264,0,0.000885,0,0
0:2:18.108,246.449,31.378,0,0.000885,0,0
0:2:18.602,247.446,31.509,0,0.000885,0,0
0:2:19.107,248.384,31.6263,0,0.000885,0,0
0:2:19.601,249.207,31.7297,0,0.000885,0,0
0:2:20.105,250.555,31.902,0,0.000885,0,0
0:2:20.601,251.787,32.0606,0,0.000885,0,0
0:2:21.105,252.606,32.164,0,0.000885,0,0
0:2:21.606,253.371,32.2606,0,0.000885,0,0
0:2:22.104,254.074,32.3502,0,0.000885,0,0
0:2:22.607,254.661,32.426,0,0.000885,0,0
0:2:23.101,256.129,32.6122,0,0.000885,0,0
0:2:23.604,257.067,32.7294,0,0.000885,0,0
0:2:24.107,257.712,32.8121,0,0.000885,0,0
0:2:24.602,258.94,32.9707,0,0.000885,0,0
0:2:25.104,259.821,33.081,0,0.000885,0,0
0:2:25.603,261.231,33.2603,0,0.000885,0,0
0:2:26.106,261.698,33.3224,0,0.000885,0,0
0:2:26.606,263.224,33.5154,0,0.000885,0,0
0:2:27.106,264.278,33.6464,0,0.000885,0,0
0:2:27.598,264.985,33.736,0,0.000885,0,0
0:2:28.103,266.039,33.8739,0,0.000885,0,0
0:2:28.608,266.92,33.9843,0,0.000885,0,0
0:2:29.099,268.152,34.1428,0,0.000885,0,0
0:2:29.605,269.38,34.3014,0,0.000885,0,0
0:2:30.108,269.736,34.3428,0,0.000885,0,0
0:2:30.601,271.377,34.5496,0,0.000885,0,0
0:2:31.105,272.022,34.6324,0,0.000885,0,0
0:2:31.605,272.667,34.7151,0,0.000885,0,0
0:2:32.107,273.312,34.7978,0,0.000885,0,0
0:2:32.610,274.308,34.9288,0,0.000885,0,0
0:2:33.104,275.834,35.1219,0,0.000885,0,0
0:2:33.596,277.418,35.3218,0,0.000885,0,0
0:2:34.090,277.711,35.3563,0,0.000885,0,0
0:2:34.583,278.414,35.4459,0,0.000885,0,0
0:2:35.085,280.056,35.6597,0,0.000885,0,0
0:2:35.588,280.821,35.7562,0,0.000885,0,0
0:2:36.090,281.581,35.8527,0,0.000885,0,0
0:2:36.591,281.991,35.901,0,0.000885,0,0
0:2:37.095,283.574,36.1078,0,0.000885,0,0
0:2:37.597,284.103,36.1699,0,0.000885,0,0
0:2:38.091,285.629,36.3698,0,0.000885,0,0
0:2:38.594,286.861,36.5215,0,0.000885,0,0
0:2:39.089,287.622,36.6181,0,0.000885,0,0
0:2:39.593,288.676,36.756,0,0.000885,0,0
0:2:40.097,289.615,36.8732,0,0.000885,0,0
0:2:40.595,290.611,37.0042,0,0.000885,0,0
0:2:41.099,291.083,37.0593,0,0.000885,0,0
0:2:41.600,292.431,37.2317,0,0.000885,0,0
0:2:42.108,294.014,37.4385,0,0.000885,0,0
0:2:42.603,294.543,37.5006,0,0.000885,0,0
0:2:43.105,294.837,37.542,0,0.000885,0,0
0:2:43.609,297.008,37.8177,0,0.000885,0,0
0:2:44.100,297.653,37.9005,0,0.000885,0,0
0:2:44.605,297.826,37.9212,0,0.000885,0,0
0:2:45.097,299.761,38.1694,0,0.000885,0,0
0:2:45.599,300.348,38.2383,0,0.000885,0,0
0:2:46.104,300.82,38.3004,0,0.000885,0,0
0:2:46.606,301.758,38.4176,0,0.000885,0,0
0:2:47.106,303.4,38.6313,0,0.000885,0,0
0:2:47.598,303.636,38.6589,0,0.000885,0,0
0:2:48.103,305.041,38.8382,0,0.000885,0,0
0:2:48.608,306.389,39.0105,0,0.000885,0,0
0:2:49.109,306.918,39.0795,0,0.000885,0,0
0:2:49.601,308.266,39.2519,0,0.000885,0,0
0:2:50.093,309.734,39.438,0,0.000885,0,0
0:2:50.595,310.615,39.5483,0,0.000885,0,0
0:2:51.098,311.843,39.7069,0,0.000885,0,0
0:2:51.599,311.905,39.7138,0,0.000885,0,0
0:2:52.098,312.55,39.7965,0,0.000885,0,0
0:2:52.605,313.955,39.9758,0,0.000885,0,0
0:2:53.097,314.721,40.0723,0,0.000885,0,0
0:2:53.601,315.775,40.2033,0,0.000885,0,0
0:2:54.105,316.362,40.2792,0,0.000885,0,0
0:2:54.597,317.946,40.4791,0,0.000885,0,0
0:2:55.092,319.409,40.6653,0,0.000885,0,0
0:2:55.594,320.348,40.7894,0,0.000885,0,0
0:2:56.095,320.819,40.8445,0,0.000885,0,0
0:2:56.594,321.931,40.9893,0,0.000885,0,0
0:2:57.098,322.812,41.0996,0,0.000885,0,0
0:2:57.594,323.866,41.2375,0,0.000885,0,0
0:2:58.087,324.689,41.341,0,0.000885,0,0
0:2:58.582,325.743,41.472,0,0.000885,0,0
0:2:59.076,326.802,41.6099,0,0.000885,0,0
0:2:59.572,326.918,41.6236,0,0.000885,0,0
0:3:0.064,327.972,41.7615,0,0.000885,0,0
0:3:0.561,329.733,41.9822,0,0.000885,0,0
0:3:1.065,330.672,42.0994,0,0.000885,0,0
0:3:1.566,331.846,42.2511,0,0.000885,0,0
0:3:2.066,332.723,42.3614,0,0.000885,0,0
0:3:2.560,333.545,42.4717,0,0.000885,0,0
0:3:3.054,334.248,42.5613,0,0.000885,0,0
0:3:3.545,335.538,42.7199,0,0.000885,0,0
0:3:4.039,336.125,42.7958,0,0.000885,0,0
0:3:4.531,337.415,42.9612,0,0.000885,0,0
0:3:5.024,338.296,43.0715,0,0.000885,0,0
0:3:5.518,339.644,43.2439,0,0.000885,0,0
0:3:6.021,340.876,43.4025,0,0.000885,0,0
0:3:6.524,340.992,43.4163,0,0.000885,0,0
0:3:7.024,342.575,43.6162,0,0.000885,0,0
0:3:7.517,343.163,43.6921,0,0.000885,0,0
0:3:8.010,343.807,43.7748,0,0.000885,0,0
0:3:8.513,344.688,43.8851,0,0.000885,0,0
0:3:9.006,345.742,44.023,0,0.000885,0,0
0:3:9.509,347.037,44.1885,0,0.000885,0,0
0:3:10.002,347.975,44.3057,0,0.000885,0,0
0:3:10.507,349.675,44.5194,0,0.000885,0,0
0:3:11.010,350.084,44.5746,0,0.000885,0,0
0:3:11.510,351.08,44.6987,0,0.000885,0,0
0:3:12.003,352.139,44.8366,0,0.000885,0,0
0:3:12.509,352.726,44.9124,0,0.000885,0,0
0:3:13.001,354.19,45.0986,0,0.000885,0,0
0:3:13.497,355.364,45.2434,0,0.000885,0,0
0:3:13.999,356.245,45.3606,0,0.000885,0,0
0:3:14.502,356.538,45.3951,0,0.000885,0,0
0:3:14.996,358.353,45.6295,0,0.000885,0,0
0:3:15.493,358.998,45.7122,0,0.000885,0,0
0:3:15.997,359.47,45.7674,0,0.000885,0,0
0:3:16.496,360.115,45.8501,0,0.000885,0,0
0:3:16.995,362.107,46.1052,0,0.000885,0,0
0:3:17.489,362.873,46.2018,0,0.000885,0,0
0:3:17.983,363.869,46.3259,0,0.000885,0,0
0:3:18.476,365.101,46.4845,0,0.000885,0,0
0:3:18.970,365.568,46.5465,0,0.000885,0,0
0:3:19.462,366.858,46.712,0,0.000885,0,0
0:3:19.955,367.623,46.8085,0,0.000885,0,0
0:3:20.448,368.5,46.9188,0,0.000885,0,0
0:3:20.951,369.438,47.036,0,0.000885,0,0
0:3:21.454,370.728,47.2015,0,0.000885,0,0
0:3:21.956,371.493,47.298,0,0.000885,0,0
0:3:22.451,373.192,47.5187,0,0.000885,0,0
0:3:22.945,374.073,47.629,0,0.000885,0,0
0:3:23.437,374.367,47.6635,0,0.000885,0,0
0:3:23.932,375.421,47.8014,0,0.000885,0,0
0:3:24.422,376.538,47.9392,0,0.000885,0,0
0:3:24.918,377.414,48.0565,0,0.000885,0,0
0:3:25.422,378.94,48.2495,0,0.000885,0,0
0:3:25.924,379.411,48.3047,0,0.000885,0,0
0:3:26.424,380.056,48.3874,0,0.000885,0,0
0:3:26.917,381.11,48.5253,0,0.000885,0,0
0:3:27.410,381.991,48.6356,0,0.000885,0,0
0:3:27.914,382.872,48.7459,0,0.000885,0,0
0:3:28.409,383.926,48.8838,0,0.000885,0,0
0:3:28.912,385.1,49.0355,0,0.000885,0,0
0:3:29.416,386.448,49.201,0,0.000885,0,0
0:3:29.911,387.796,49.3734,0,0.000885,0,0
0:3:30.412,388.677,49.4906,0,0.000885,0,0
0:3:30.915,389.437,49.5871,0,0.000885,0,0
0:3:31.414,389.909,49.6423,0,0.000885,0,0
0:3:31.910,390.67,49.7388,0,0.000885,0,0
0:3:32.414,391.902,49.8974,0,0.000885,0,0
0:3:32.908,392.782,50.0077,0,0.000885,0,0
0:3:33.401,393.894,50.1525,0,0.000885,0,0
0:3:33.904,395.011,50.2973,0,0.000885,0,0
0:3:34.409,395.598,50.3662,0,0.000885,0,0
0:3:34.912,396.83,50.5248,0,0.000885,0,0
0:3:35.408,397.711,50.6351,0,0.000885,0,0
0:3:35.913,398.65,50.7592,0,0.000885,0,0
0:3:36.412,399.94,50.9247,0,0.000885,0,0
0:3:36.914,400.7,51.0212,0,0.000885,0,0
0:3:37.418,401.817,51.1591,0,0.000885,0,0
0:3:37.912,402.693,51.2694,0,0.000885,0,0
0:3:38.414,403.81,51.4142,0,0.000885,0,0
0:3:38.906,405.393,51.6142,0,0.000885,0,0
0:3:39.410,405.393,51.6142,0,0.000885,0,0
0:3:39.915,406.563,51.7658,0,0.000885,0,0
0:3:40.417,407.973,51.9451,0,0.000885,0,0
0:3:40.921,408.56,52.0209,0,0.000885,0,0
0:3:41.422,409.379,52.1244,0,0.000885,0,0
0:3:41.923,410.553,52.276,0,0.000885,0,0
0:3:42.416,411.376,52.3795,0,0.000885,0,0
0:3:42.910,412.546,52.5243,0,0.000885,0,0
0:3:43.414,413.662,52.6691,0,0.000885,0,0
0:3:43.916,414.717,52.8001,0,0.000885,0,0
0:3:44.410,415.775,52.9379,0,0.000885,0,0
0:3:44.913,416.83,53.0689,0,0.000885,0,0
0:3:45.415,418.004,53.2206,0,0.000885,0,0
0:3:45.918,418.707,53.3103,0,0.000885,0,0
0:3:46.418,419.645,53.4275,0,0.000885,0,0
0:3:46.912,420.815,53.5792,0,0.000885,0,0
0:3:47.405,421.051,53.6067,0,0.000885,0,0
0:3:47.918,422.461,53.786,0,0.000885,0,0
0:3:48.413,423.573,53.9308,0,0.000885,0,0
0:3:48.916,424.396,54.0342,0,0.000885,0,0
0:3:49.410,424.632,54.0687,0,0.000885,0,0
0:3:49.914,426.918,54.3583,0,0.000885,0,0
0:3:50.414,428.03,54.4962,0,0.000885,0,0
0:3:50.916,428.853,54.6065,0,0.000885,0,0
0:3:51.416,429.792,54.7237,0,0.000885,0,0
0:3:51.914,431.024,54.8823,0,0.000885,0,0
0:3:52.417,430.966,54.8754,0,0.000885,0,0
0:3:52.911,432.314,55.0408,0,0.000885,0,0
0:3:53.403,433.252,55.165,0,0.000885,0,0
0:3:53.897,434.542,55.3304,0,0.000885,0,0
0:3:54.391,435.067,55.3925,0,0.000885,0,0
0:3:54.885,435.89,55.4959,0,0.000885,0,0
0:3:55.379,436.713,55.6062,0,0.000885,0,0
0:3:55.882,437.825,55.7441,0,0.000885,0,0
0:3:56.384,439.115,55.9096,0,0.000885,0,0
0:3:56.884,440.699,56.1095,0,0.000885,0,0
0:3:57.377,441.286,56.1854,0,0.000885,0,0
0:3:57.872,441.757,56.2474,0,0.000885,0,0
0:3:58.364,442.869,56.3853,0,0.000885,0,0
0:3:58.859,444.395,56.5853,0,0.000885,0,0
0:3:59.351,445.156,56.6818,0,0.000885,0,0
0:3:59.844,445.392,56.7094,0,0.000885,0,0
0:4:0.348,446.739,56.8817,0,0.000885,0,0
0:4:0.852,448.501,57.1024,0,0.000885,0,0
0:4:1.352,449.319,57.2127,0,0.000885,0,0
0:4:1.844,449.613,57.2472,0,0.000885,0,0
0:4:2.339,450.787,57.3989,0,0.000885,0,0
0:4:2.831,452.135,57.5712,0,0.000885,0,0
0:4:3.324,453.252,57.7091,0,0.000885,0,0
0:4:3.818,453.954,57.7988,0,0.000885,0,0
0:4:4.313,455.071,57.9435,0,0.000885,0,0
0:4:4.817,456.009,58.0608,0,0.000885,0,0
0:4:5.316,457.064,58.1918,0,0.000885,0,0
0:4:5.819,458.238,58.3434,0,0.000885,0,0
0:4:6.320,458.354,58.3572,0,0.000885,0,0
0:4:6.818,459.234,58.4744,0,0.000885,0,0
0:4:7.313,460.231,58.5985,0,0.000885,0,0
0:4:7.816,461.757,58.7916,0,0.000885,0,0
0:4:8.321,462.753,58.9226,0,0.000885,0,0
0:4:8.815,463.456,59.0122,0,0.000885,0,0
0:4:9.317,464.804,59.1777,0,0.000885,0,0
0:4:9.812,465.804,59.3087,0,0.000885,0,0
0:4:10.315,466.974,59.4604,0,0.000885,0,0
0:4:10.819,467.797,59.5638,0,0.000885,0,0
0:4:11.319,467.913,59.5776,0,0.000885,0,0
0:4:11.818,469.732,59.8051,0,0.000885,0,0
0:4:12.323,470.729,59.9361,0,0.000885,0,0
0:4:12.817,471.609,60.0464,0,0.000885,0,0
0:4:13.320,472.37,60.143,0,0.000885,0,0
0:4:13.814,473.251,60.2533,0,0.000885,0,0
0:4:14.316,474.425,60.405,0,0.000885,0,0
0:4:14.808,475.186,60.5015,0,0.000885,0,0
0:4:15.313,476.596,60.6808,0,0.000885,0,0
0:4:15.816,477.356,60.7773,0,0.000885,0,0
0:4:16.318,477.766,60.8324,0,0.000885,0,0
0:4:16.818,479.407,61.0393,0,0.000885,0,0
0:4:17.313,480.408,61.1703,0,0.000885,0,0
0:4:17.817,481.636,61.322,0,0.000885,0,0
0:4:18.309,482.752,61.4668,0,0.000885,0,0
0:4:18.814,483.281,61.5357,0,0.000885,0,0
0:4:19.317,484.278,61.6598,0,0.000885,0,0
0:4:19.819,485.51,61.8184,0,0.000885,0,0
0:4:20.323,486.271,61.9149,0,0.000885,0,0
0:4:20.825,486.8,61.9839,0,0.000885,0,0
0:4:21.327,488.384,62.1838,0,0.000885,0,0
0:4:21.823,489.616,62.3424,0,0.000885,0,0
0:4:22.319,490.203,62.4113,0,0.000885,0,0
0:4:22.821,491.021,62.5217,0,0.000885,0,0
0:4:23.316,491.902,62.632,0,0.000885,0,0
0:4:23.821,493.25,62.8043,0,0.000885,0,0
0:4:24.315,493.953,62.894,0,0.000885,0,0
0:4:24.819,495.656,63.1077,0,0.000885,0,0
0:4:25.323,495.83,63.1284,0,0.000885,0,0
0:4:25.827,496.768,63.2525,0,0.000885,0,0
0:4:26.327,498.058,63.418,0,0.000885,0,0
0:4:26.828,498.703,63.4938,0,0.000885,0,0
0:4:27.322,500.407,63.7145,0,0.000885,0,0
0:4:27.818,500.523,63.7282,0,0.000885,0,0
0:4:28.320,502.578,63.9902,0,0.000885,0,0
0:4:28.814,502.871,64.0247,0,0.000885,0,0
0:4:29.316,503.868,64.1557,0,0.000885,0,0
0:4:29.820,504.98,64.2936,0,0.000885,0,0
0:4:30.322,505.273,64.335,0,0.000885,0,0
0:4:30.826,506.741,64.5211,0,0.000885,0,0
0:4:31.327,507.444,64.6108,0,0.000885,0,0
0:4:31.827,509.028,64.8107,0,0.000885,0,0
0:4:32.322,509.673,64.8935,0,0.000885,0,0
0:4:32.816,510.963,65.0589,0,0.000885,0,0
0:4:33.318,511.434,65.121,0,0.000885,0,0
0:4:33.822,513.191,65.3416,0,0.000885,0,0
0:4:34.312,513.485,65.3761,0,0.000885,0,0
0:4:34.817,515.304,65.6105,0,0.000885,0,0
0:4:35.322,515.478,65.6312,0,0.000885,0,0
0:4:35.824,517.003,65.8242,0,0.000885,0,0
0:4:36.325,517.297,65.8656,0,0.000885,0,0
0:4:36.819,518.236,65.9828,0,0.000885,0,0
0:4:37.322,519.935,66.2035,0,0.000885,0,0
0:4:37.816,520.58,66.2793,0,0.000885,0,0
0:4:38.321,521.403,66.3896,0,0.000885,0,0
0:4:38.815,522.871,66.5758,0,0.000885,0,0
0:4:39.319,523.044,66.5965,0,0.000885,0,0
0:4:39.822,524.806,66.8171,0,0.000885,0,0
0:4:40.323,525.331,66.886,0,0.000885,0,0
0:4:40.827,526.856,67.0791,0,0.000885,0,0
0:4:41.328,527.386,67.148,0,0.000885,0,0
0:4:41.826,529.027,67.3549,0,0.000885,0,0
0:4:42.320,529.085,67.3687,0,0.000885,0,0
0:4:42.816,530.846,67.5893,0,0.000885,0,0
0:4:43.307,530.904,67.5962,0,0.000885,0,0
0:4:43.802,532.372,67.7824,0,0.000885,0,0
0:4:44.316,533.017,67.8651,0,0.000885,0,0
0:4:44.821,534.601,68.065,0,0.000885,0,0
0:4:45.317,535.361,68.1616,0,0.000885,0,0
0:4:45.822,535.713,68.2098,0,0.000885,0,0
0:4:46.324,537.123,68.3891,0,0.000885,0,0
0:4:46.823,538.061,68.5063,0,0.000885,0,0
0:4:47.316,538.88,68.6097,0,0.000885,0,0
0:4:47.808,539.996,68.7545,0,0.000885,0,0
0:4:48.302,541.46,68.9407,0,0.000885,0,0
0:4:48.796,541.753,68.9752,0,0.000885,0,0
0:4:49.291,543.106,69.1475,0,0.000885,0,0
0:4:49.786,543.982,69.2647,0,0.000885,0,0
0:4:50.280,544.978,69.3888,0,0.000885,0,0
0:4:50.786,545.917,69.506,0,0.000885,0,0
0:4:51.287,547.327,69.6853,0,0.000885,0,0
0:4:51.789,548.795,69.8715,0,0.000885,0,0
0:4:52.281,548.675,69.8577,0,0.000885,0,0
0:4:52.775,550.316,70.0714,0,0.000885,0,0
0:4:53.269,550.436,70.0852,0,0.000885,0,0
0:4:53.762,551.606,70.23,0,0.000885,0,0
0:4:54.259,553.016,70.4093,0,0.000885,0,0
0:4:54.749,553.31,70.4506,0,0.000885,0,0
0:4:55.245,554.364,70.5816,0,0.000885,0,0
0:4:55.748,555.948,70.7885,0,0.000885,0,0
0:4:56.250,557.122,70.9333,0,0.000885,0,0
0:4:56.749,557.883,71.0298,0,0.000885,0,0
0:4:57.245,558.879,71.1608,0,0.000885,0,0
0:4:57.739,560.053,71.3056,0,0.000885,0,0
0:4:58.232,560.405,71.3538,0,0.000885,0,0
0:4:58.726,561.521,71.4917,0,0.000885,0,0
0:4:59.221,562.282,71.5952,0,0.000885,0,0
0:4:59.722,563.514,71.7468,0,0.000885,0,0
0:5:0.227,564.746,71.9054,0,0.000885,0,0
0:5:0.729,565.978,72.064,0,0.000885,0,0
0:5:1.228,566.21,72.0916,0,0.000885,0,0
0:5:1.724,567.678,72.2777,0,0.000885,0,0
0:5:2.218,568.674,72.4087,0,0.000885,0,0
0:5:2.720,569.377,72.4984,0,0.000885,0,0
0:5:3.213,570.142,72.5949,0,0.000885,0,0
0:5:3.709,571.61,72.7811,0,0.000885,0,0
0:5:4.201,572.664,72.9121,0,0.000885,0,0
0:5:4.696,573.367,73.0017,0,0.000885,0,0
0:5:5.198,574.363,73.1327,0,0.000885,0,0
0:5:5.701,574.95,73.2016,0,0.000885,0,0
0:5:6.203,576.418,73.3947,0,0.000885,0,0
0:5:6.699,577.237,73.4981,0,0.000885,0,0
0:5:7.193,578.411,73.6429,0,0.000885,0,0
0:5:7.687,579.465,73.7808,0,0.000885,0,0
0:5:8.182,579.995,73.8497,0,0.000885,0,0
0:5:8.676,580.64,73.9325,0,0.000885,0,0
0:5:9.172,582.045,74.1117,0,0.000885,0,0
0:5:9.665,583.162,74.2496,0,0.000885,0,0
0:5:10.160,584.394,74.4082,0,0.000885,0,0
0:5:10.666,584.923,74.4772,0,0.000885,0,0
0:5:11.166,586.213,74.6357,0,0.000885,0,0
0:5:11.667,587.325,74.7805,0,0.000885,0,0
0:5:12.163,588.148,74.884,0,0.000885,0,0
0:5:12.661,589.323,75.0356,0,0.000885,0,0
0:5:13.156,589.616,75.0701,0,0.000885,0,0
0:5:13.652,590.906,75.2356,0,0.000885,0,0
0:5:14.148,592.023,75.3804,0,0.000885,0,0
0:5:14.644,592.258,75.408,0,0.000885,0,0
0:5:15.139,593.842,75.6079,0,0.000885,0,0
0:5:15.645,594.896,75.7458,0,0.000885,0,0
0:5:16.150,595.777,75.8561,0,0.000885,0,0
0:5:16.652,596.836,75.994,0,0.000885,0,0
0:5:17.148,598.126,76.1526,0,0.000885,0,0
0:5:17.644,598.833,76.2422,0,0.000885,0,0
0:5:18.140,599.594,76.3456,0,0.000885,0,0
0:5:18.637,600.532,76.4629,0,0.000885,0,0
0:5:19.134,602.116,76.6628,0,0.000885,0,0
0:5:19.629,602.409,76.7042,0,0.000885,0,0
0:5:20.134,603.646,76.8559,0,0.000885,0,0
0:5:20.639,604.7,76.9938,0,0.000885,0,0
0:5:21.143,605.581,77.1041,0,0.000885,0,0
0:5:21.643,606.813,77.2627,0,0.000885,0,0
0:5:22.138,607.4,77.3385,0,0.000885,0,0
0:5:22.636,608.459,77.4695,0,0.000885,0,0
0:5:23.130,609.691,77.6281,0,0.000885,0,0
0:5:23.627,610.803,77.7729,0,0.000885,0,0
0:5:24.124,611.51,77.8625,0,0.000885,0,0
0:5:24.621,612.333,77.9659,0,0.000885,0,0
0:5:25.130,612.92,78.0418,0,0.000885,0,0
0:5:25.638,614.562,78.2486,0,0.000885,0,0
0:5:26.141,615.327,78.3451,0,0.000885,0,0
0:5:26.643,616.559,78.5037,0,0.000885,0,0
0:5:27.142,617.44,78.614,0,0.000885,0,0
0:5:27.636,618.027,78.6899,0,0.000885,0,0
0:5:28.132,619.611,78.8898,0,0.000885,0,0
0:5:28.628,620.313,78.9794,0,0.000885,0,0
0:5:29.123,621.314,79.1104,0,0.000885,0,0
0:5:29.630,622.311,79.2346,0,0.000885,0,0
0:5:30.124,623.721,79.4138,0,0.000885,0,0
0:5:30.632,624.833,79.5586,0,0.000885,0,0
0:5:31.135,625.714,79.6689,0,0.000885,0,0
0:5:31.639,626.243,79.7379,0,0.000885,0,0
0:5:32.135,627.181,79.8551,0,0.000885,0,0
0:5:32.630,627.595,79.9102,0,0.000885,0,0
0:5:33.126,628.827,80.0619,0,0.000885,0,0
0:5:33.622,630.295,80.2481,0,0.000885,0,0
0:5:34.126,630.762,80.3101,0,0.000885,0,0
0:5:34.624,631.879,80.4549,0,0.000885,0,0
0:5:35.130,633.405,80.648,0,0.000885,0,0
0:5:35.637,634.521,80.7928,0,0.000885,0,0
0:5:36.138,635.575,80.9238,0,0.000885,0,0
0:5:36.636,636.105,80.9927,0,0.000885,0,0
0:5:37.132,637.221,81.1306,0,0.000885,0,0
0:5:37.628,637.75,81.1996,0,0.000885,0,0
0:5:38.124,638.805,81.3375,0,0.000885,0,0
0:5:38.622,640.215,81.5167,0,0.000885,0,0
0:5:39.127,640.86,81.5995,0,0.000885,0,0
0:5:39.624,641.856,81.7236,0,0.000885,0,0
0:5:40.129,643.03,81.8752,0,0.000885,0,0
0:5:40.636,644.031,81.9993,0,0.000885,0,0
0:5:41.139,644.97,82.1166,0,0.000885,0,0
0:5:41.637,645.908,82.2407,0,0.000885,0,0
0:5:42.136,646.963,82.3717,0,0.000885,0,0
0:5:42.630,647.492,82.4406,0,0.000885,0,0
0:5:43.127,648.782,82.6061,0,0.000885,0,0
0:5:43.622,649.841,82.7371,0,0.000885,0,0
0:5:44.130,650.544,82.8267,0,0.000885,0,0
0:5:44.626,651.718,82.9784,0,0.000885,0,0
0:5:45.126,653.012,83.1439,0,0.000885,0,0
0:5:45.633,653.951,83.2611,0,0.000885,0,0
0:5:46.136,654.538,83.3369,0,0.000885,0,0
0:5:46.637,655.712,83.4886,0,0.000885,0,0
0:5:47.133,656.651,83.6058,0,0.000885,0,0
0:5:47.630,657.469,83.7092,0,0.000885,0,0
0:5:48.127,658.47,83.8402,0,0.000885,0,0
0:5:48.633,659.409,83.9575,0,0.000885,0,0
0:5:49.129,660.525,84.1022,0,0.000885,0,0
0:5:49.626,661.931,84.2815,0,0.000885,0,0
0:5:50.134,662.99,84.4125,0,0.000885,0,0
0:5:50.640,663.813,84.5159,0,0.000885,0,0
0:5:51.143,664.337,84.5849,0,0.000885,0,0
0:5:51.646,665.103,84.6814,0,0.000885,0,0
0:5:52.142,666.628,84.8745,0,0.000885,0,0
0:5:52.638,667.509,84.9917,0,0.000885,0,0
0:5:53.134,668.857,85.164,0,0.000885,0,0
0:5:53.629,669.386,85.2261,0,0.000885,0,0
0:5:54.125,669.916,85.295,0,0.000885,0,0
0:5:54.630,671.499,85.495,0,0.000885,0,0
0:5:55.127,672.438,85.6191,0,0.000885,0,0
0:5:55.633,673.261,85.7225,0,0.000885,0,0
0:5:56.138,674.435,85.8742,0,0.000885,0,0
0:5:56.643,675.258,85.9776,0,0.000885,0,0
0:5:57.141,676.374,86.1155,0,0.000885,0,0
0:5:57.637,677.371,86.2465,0,0.000885,0,0
0:5:58.134,678.487,86.3844,0,0.000885,0,0
0:5:58.630,679.19,86.474,0,0.000885,0,0
0:5:59.126,680.658,86.6671,0,0.000885,0,0
0:5:59.630,681.539,86.7774,0,0.000885,0,0
0:6:0.127,682.593,86.9084,0,0.000885,0,0
0:6:0.634,683.18,86.9843,0,0.000885,0,0
0:6:1.137,683.825,87.067,0,0.000885,0,0
0:6:1.641,685.293,87.2532,0,0.000885,0,0
0:6:2.137,686.41,87.3979,0,0.000885,0,0
0:6:2.634,687.055,87.4807,0,0.000885,0,0
0:6:3.129,688.171,87.6186,0,0.000885,0,0
0:6:3.627,689.288,87.7634,0,0.000885,0,0
0:6:4.132,689.755,87.8254,0,0.000885,0,0
0:6:4.628,691.222,88.0116,0,0.000885,0,0
0:6:5.135,691.81,88.0874,0,0.000885,0,0
0:6:5.639,692.69,88.1977,0,0.000885,0,0
0:6:6.143,694.216,88.3908,0,0.000885,0,0
0:6:6.640,694.861,88.4735,0,0.000885,0,0
0:6:7.135,695.8,88.5907,0,0.000885,0,0
0:6:7.632,696.858,88.7286,0,0.000885,0,0
0:6:8.128,697.797,88.8458,0,0.000885,0,0
0:6:8.625,699.381,89.0458,0,0.000885,0,0
0:6:9.128,699.794,89.1009,0,0.000885,0,0
0:6:9.626,700.791,89.2251,0,0.000885,0,0
0:6:10.129,701.907,89.3698,0,0.000885,0,0
0:6:10.635,702.61,89.4595,0,0.000885,0,0
0:6:11.137,703.669,89.5905,0,0.000885,0,0
0:6:11.636,704.959,89.756,0,0.000885,0,0
0:6:12.132,705.782,89.8594,0,0.000885,0,0
0:6:12.628,706.898,90.0042,0,0.000885,0,0
0:6:13.125,708.068,90.1558,0,0.000885,0,0
0:6:13.633,709.127,90.2868,0,0.000885,0,0
0:6:14.130,709.242,90.3006,0,0.000885,0,0
0:6:14.626,710.652,90.4799,0,0.000885,0,0
0:6:15.133,711.827,90.6316,0,0.000885,0,0
0:6:15.641,712.592,90.7281,0,0.000885,0,0
0:6:16.143,713.468,90.8384,0,0.000885,0,0
0:6:16.646,714.469,90.9694,0,0.000885,0,0
0:6:17.141,715.465,91.0935,0,0.000885,0,0
0:6:17.638,716.524,91.2314,0,0.000885,0,0
0:6:18.135,717.698,91.3831,0,0.000885,0,0
0:6:18.631,718.165,91.4383,0,0.000885,0,0
0:6:19.137,719.398,91.5969,0,0.000885,0,0
0:6:19.633,720.923,91.7899,0,0.000885,0,0
0:6:20.129,721.101,91.8106,0,0.000885,0,0
0:6:20.633,722.16,91.9485,0,0.000885,0,0
0:6:21.138,723.214,92.0795,0,0.000885,0,0
0:6:21.642,724.74,92.2794,0,0.000885,0,0
0:6:22.140,725.621,92.3897,0,0.000885,0,0
0:6:22.636,726.444,92.4932,0,0.000885,0,0
0:6:23.131,727.266,92.5966,0,0.000885,0,0
0:6:23.627,728.321,92.7345,0,0.000885,0,0
0:6:24.134,729.437,92.8724,0,0.000885,0,0
0:6:24.629,730.376,92.9965,0,0.000885,0,0
0:6:25.136,731.666,93.162,0,0.000885,0,0
0:6:25.638,731.901,93.1895,0,0.000885,0,0
0:6:26.142,733.547,93.3964,0,0.000885,0,0
0:6:26.638,734.424,93.5067,0,0.000885,0,0
0:6:27.134,735.189,93.6101,0,0.000885,0,0
0:6:27.631,736.421,93.7618,0,0.000885,0,0
0:6:28.127,737.595,93.9135,0,0.000885,0,0
0:6:28.632,738.004,93.9686,0,0.000885,0,0
0:6:29.128,739.121,94.1065,0,0.000885,0,0
0:6:29.636,740.122,94.2375,0,0.000885,0,0
0:6:30.137,741.292,94.3823,0,0.000885,0,0
0:6:30.644,741.941,94.4651,0,0.000885,0,0
0:6:31.147,742.88,94.5892,0,0.000885,0,0
0:6:31.648,744.054,94.734,0,0.000885,0,0
0:6:32.145,745.402,94.9063,0,0.000885,0,0
0:6:32.641,745.753,94.9546,0,0.000885,0,0
0:6:33.138,746.985,95.1063,0,0.000885,0,0
0:6:33.634,747.341,95.1545,0,0.000885,0,0
0:6:34.139,748.983,95.3614,0,0.000885,0,0
0:6:34.635,750.099,95.5062,0,0.000885,0,0
0:6:35.130,750.802,95.5958,0,0.000885,0,0
0:6:35.636,751.861,95.7268,0,0.000885,0,0
0:6:36.142,752.679,95.8371,0,0.000885,0,0
0:6:36.645,753.853,95.9819,0,0.000885,0,0
0:6:37.141,754.912,96.1198,0,0.000885,0,0
0:6:37.637,756.086,96.2646,0,0.000885,0,0
0:6:38.132,756.438,96.3129,0,0.000885,0,0
0:6:38.628,757.728,96.4783,0,0.000885,0,0
0:6:39.133,759.196,96.6645,0,0.000885,0,0
0:6:39.628,760.37,96.8162,0,0.000885,0,0
0:6:40.136,760.957,96.8851,0,0.000885,0,0
0:6:40.641,761.838,97.0023,0,0.000885,0,0
0:6:41.144,762.897,97.1333,0,0.000885,0,0
0:6:41.642,764.009,97.2781,0,0.000885,0,0
0:6:42.138,764.48,97.3333,0,0.000885,0,0
0:6:42.634,765.655,97.485,0,0.000885,0,0
0:6:43.129,766.242,97.5608,0,0.000885,0,0
0:6:43.623,766.945,97.6504,0,0.000885,0,0
0:6:44.121,768.764,97.8849,0,0.000885,0,0
0:6:44.617,769.645,97.9952,0,0.000885,0,0
0:6:45.119,770.41,98.0917,0,0.000885,0,0
0:6:45.625,771.642,98.2503,0,0.000885,0,0
0:6:46.129,772.932,98.4158,0,0.000885,0,0
0:6:46.637,774.106,98.5606,0,0.000885,0,0
0:6:47.134,774.578,98.6226,0,0.000885,0,0
0:6:47.630,775.458,98.7329,0,0.000885,0,0
0:6:48.138,776.335,98.8432,0,0.000885,0,0
0:6:48.634,777.336,98.9742,0,0.000885,0,0
0:6:49.129,778.096,99.0708,0,0.000885,0,0
0:6:49.635,779.449,99.2431,0,0.000885,0,0
0:6:50.133,780.445,99.3672,0,0.000885,0,0
0:6:50.639,781.09,99.45,0,0.000885,0,0
0:6:51.141,782.972,99.6913,0,0.000885,0,0
0:6:51.645,784.084,99.8361,0,0.000885,0,0
0:6:52.139,784.497,99.8843,0,0.000885,0,0
0:6:52.638,785.609,100.029,0,0.000885,0,0
0:6:53.133,786.552,100.146,0,0.000885,0,0
0:6:53.638,787.371,100.25,0,0.000885,0,0
0:6:54.133,788.078,100.339,0,0.000885,0,0
0:6:54.640,789.252,100.491,0,0.000885,0,0
0:6:55.134,789.426,100.512,0,0.000885,0,0
0:6:55.640,791.13,100.732,0,0.000885,0,0
0:6:56.144,792.126,100.857,0,0.000885,0,0
0:6:56.647,793.42,101.022,0,0.000885,0,0
0:6:57.144,794.123,101.112,0,0.000885,0,0
0:6:57.641,795.12,101.236,0,0.000885,0,0
0:6:58.136,796.472,101.408,0,0.000885,0,0
0:6:58.630,796.939,101.47,0,0.000885,0,0
0:6:59.124,798.171,101.629,0,0.000885,0,0
0:6:59.621,799.466,101.794,0,0.000885,0,0
0:7:0.130,800.404,101.911,0,0.000885,0,0
0:7:0.633,801.049,101.994,0,0.000885,0,0
0:7:1.136,801.93,102.104,0,0.000885,0,0
0:7:1.633,802.633,102.194,0,0.000885,0,0
0:7:2.138,803.985,102.366,0,0.000885,0,0
0:7:2.634,804.688,102.456,0,0.000885,0,0
0:7:3.131,805.862,102.608,0,0.000885,0,0
0:7:3.637,806.627,102.704,0,0.000885,0,0
0:7:4.135,807.917,102.87,0,0.000885,0,0
0:7:4.630,808.976,103.001,0,0.000885,0,0
0:7:5.126,809.679,103.09,0,0.000885,0,0
0:7:5.636,810.795,103.235,0,0.000885,0,0
0:7:6.138,811.969,103.38,0,0.000885,0,0
0:7:6.640,812.379,103.435,0,0.000885,0,0
0:7:7.138,813.495,103.58,0,0.000885,0,0
0:7:7.634,814.607,103.718,0,0.000885,0,0
0:7:8.140,816.253,103.932,0,0.000885,0,0
0:7:8.637,816.72,103.987,0,0.000885,0,0
0:7:9.133,817.895,104.138,0,0.000885,0,0
0:7:9.639,819.011,104.276,0,0.000885,0,0
0:7:10.135,819.42,104.331,0,0.000885,0,0
0:7:10.641,820.83,104.511,0,0.000885,0,0
0:7:11.146,822.005,104.662,0,0.000885,0,0
0:7:11.648,822.476,104.718,0,0.000885,0,0
0:7:12.143,823.53,104.855,0,0.000885,0,0
0:7:12.641,824.763,105.014,0,0.000885,0,0
0:7:13.135,825.47,105.104,0,0.000885,0,0
0:7:13.633,826.173,105.193,0,0.000885,0,0
0:7:14.126,827.525,105.366,0,0.000885,0,0
0:7:14.635,828.695,105.51,0,0.000885,0,0
0:7:15.141,829.344,105.593,0,0.000885,0,0
0:7:15.645,830.808,105.779,0,0.000885,0,0
0:7:16.148,831.395,105.855,0,0.000885,0,0
0:7:16.645,832.338,105.979,0,0.000885,0,0
0:7:17.141,833.334,106.103,0,0.000885,0,0
0:7:17.636,834.273,106.221,0,0.000885,0,0
0:7:18.131,835.683,106.4,0,0.000885,0,0
0:7:18.637,836.15,106.462,0,0.000885,0,0
0:7:19.135,837.324,106.614,0,0.000885,0,0
0:7:19.641,838.441,106.752,0,0.000885,0,0
0:7:20.145,839.379,106.876,0,0.000885,0,0
0:7:20.649,839.909,106.938,0,0.000885,0,0
0:7:21.152,841.141,107.096,0,0.000885,0,0
0:7:21.649,842.551,107.276,0,0.000885,0,0
0:7:22.147,843.196,107.358,0,0.000885,0,0
0:7:22.642,844.192,107.489,0,0.000885,0,0
0:7:23.139,845.015,107.593,0,0.000885,0,0
0:7:23.635,846.19,107.737,0,0.000885,0,0
0:7:24.128,847.244,107.875,0,0.000885,0,0
0:7:24.637,848.654,108.055,0,0.000885,0,0
0:7:25.141,849.005,108.096,0,0.000885,0,0
0:7:25.647,850.006,108.227,0,0.000885,0,0
0:7:26.150,851.354,108.399,0,0.000885,0,0
0:7:26.649,852.057,108.489,0,0.000885,0,0
0:7:27.144,852.644,108.565,0,0.000885,0,0
0:7:27.643,853.996,108.737,0,0.000885,0,0
0:7:28.138,854.699,108.827,0,0.000885,0,0
0:7:28.636,856.345,109.034,0,0.000885,0,0
0:7:29.129,856.874,109.103,0,0.000885,0,0
0:7:29.638,857.693,109.206,0,0.000885,0,0
0:7:30.138,858.694,109.33,0,0.000885,0,0
0:7:30.644,860.099,109.509,0,0.000885,0,0
0:7:31.147,861.216,109.654,0,0.000885,0,0
0:7:31.647,861.919,109.744,0,0.000885,0,0
0:7:32.143,862.799,109.854,0,0.000885,0,0
0:7:32.640,864.209,110.033,0,0.000885,0,0
0:7:33.136,864.619,110.089,0,0.000885,0,0
0:7:33.641,865.793,110.233,0,0.000885,0,0
0:7:34.139,866.674,110.351,0,0.000885,0,0
0:7:34.635,867.381,110.44,0,0.000885,0,0
0:7:35.145,868.142,110.537,0,0.000885,0,0
0:7:35.650,869.961,110.764,0,0.000885,0,0
0:7:36.154,870.726,110.861,0,0.000885,0,0
0:7:36.655,871.9,111.012,0,0.000885,0,0
0:7:37.153,872.719,111.116,0,0.000885,0,0
0:7:37.650,874.249,111.316,0,0.000885,0,0
0:7:38.146,874.6,111.357,0,0.000885,0,0
0:7:38.643,875.712,111.502,0,0.000885,0,0
0:7:39.139,876.535,111.605,0,0.000885,0,0
0:7:39.635,877.065,111.674,0,0.000885,0,0
0:7:40.141,878.297,111.826,0,0.000885,0,0
0:7:40.647,879.413,111.971,0,0.000885,0,0
0:7:41.150,880.761,112.143,0,0.000885,0,0
0:7:41.654,881.411,112.226,0,0.000885,0,0
0:7:42.151,882.874,112.412,0,0.000885,0,0
0:7:42.648,883.639,112.509,0,0.000885,0,0
0:7:43.144,884.636,112.633,0,0.000885,0,0
0:7:43.640,885.694,112.771,0,0.000885,0,0
0:7:44.135,886.455,112.867,0,0.000885,0,0
0:7:44.641,887.749,113.033,0,0.000885,0,0
0:7:45.146,888.274,113.102,0,0.000885,0,0
0:7:45.650,889.511,113.253,0,0.000885,0,0
0:7:46.151,890.449,113.377,0,0.000885,0,0
0:7:46.649,891.268,113.481,0,0.000885,0,0
0:7:47.144,892.562,113.646,0,0.000885,0,0
0:7:47.641,893.617,113.777,0,0.000885,0,0
0:7:48.137,894.44,113.881,0,0.000885,0,0
0:7:48.630,895.142,113.97,0,0.000885,0,0
0:7:49.139,896.673,114.17,0,0.000885,0,0
0:7:49.635,897.197,114.232,0,0.000885,0,0
0:7:50.140,898.136,114.356,0,0.000885,0,0
0:7:50.646,899.252,114.494,0,0.000885,0,0
0:7:51.149,900.133,114.612,0,0.000885,0,0
0:7:51.647,901.13,114.736,0,0.000885,0,0
0:7:52.144,902.246,114.88,0,0.000885,0,0
0:7:52.640,903.069,114.984,0,0.000885,0,0
0:7:53.136,903.892,115.087,0,0.000885,0,0
0:7:53.643,905.24,115.26,0,0.000885,0,0
0:7:54.139,906.063,115.363,0,0.000885,0,0
0:7:54.636,906.708,115.446,0,0.000885,0,0
0:7:55.143,908.763,115.708,0,0.000885,0,0
0:7:55.649,908.999,115.735,0,0.000885,0,0
0:7:56.152,909.586,115.811,0,0.000885,0,0
0:7:56.656,910.876,115.977,0,0.000885,0,0
0:7:57.152,912.05,116.128,0,0.000885,0,0
0:7:57.649,913.046,116.253,0,0.000885,0,0
0:7:58.143,913.869,116.356,0,0.000885,0,0
0:7:58.641,914.808,116.48,0,0.000885,0,0
0:7:59.146,916.098,116.639,0,0.000885,0,0
0:7:59.642,916.512,116.694,0,0.000885,0,0
0:8:0.145,917.802,116.859,0,0.000885,0,0
0:8:0.653,919.092,117.025,0,0.000885,0,0
0:8:1.156,919.799,117.114,0,0.000885,0,0
0:8:1.660,920.328,117.176,0,0.000885,0,0
0:8:2.156,921.912,117.383,0,0.000885,0,0
0:8:2.651,922.205,117.418,0,0.000885,0,0
0:8:3.147,923.38,117.569,0,0.000885,0,0
0:8:3.642,924.785,117.749,0,0.000885,0,0
0:8:4.138,925.372,117.825,0,0.000885,0,0
0:8:4.644,926.489,117.962,0,0.000885,0,0
0:8:5.150,927.312,118.066,0,0.000885,0,0
0:8:5.655,928.366,118.204,0,0.000885,0,0
0:8:6.157,929.54,118.355,0,0.000885,0,0
0:8:6.652,930.421,118.466,0,0.000885,0,0
0:8:7.150,932.009,118.666,0,0.000885,0,0
0:8:7.646,932.77,118.762,0,0.000885,0,0
0:8:8.143,934.002,118.921,0,0.000885,0,0
0:8:8.639,934.825,119.024,0,0.000885,0,0
0:8:9.146,935.999,119.176,0,0.000885,0,0
0:8:9.642,936.466,119.238,0,0.000885,0,0
0:8:10.141,937.289,119.341,0,0.000885,0,0
0:8:10.648,938.348,119.472,0,0.000885,0,0
0:8:11.150,939.344,119.603,0,0.000885,0,0
0:8:11.653,941.048,119.817,0,0.000885,0,0
0:8:12.149,941.577,119.886,0,0.000885,0,0
0:8:12.645,942.632,120.017,0,0.000885,0,0
0:8:13.140,943.454,120.127,0,0.000885,0,0
0:8:13.646,944.629,120.272,0,0.000885,0,0
0:8:14.143,945.274,120.355,0,0.000885,0,0
0:8:14.640,946.212,120.472,0,0.000885,0,0
0:8:15.146,947.093,120.589,0,0.000885,0,0
0:8:15.652,948.325,120.748,0,0.000885,0,0
0:8:16.154,949.09,120.844,0,0.000885,0,0
0:8:16.659,950.087,120.969,0,0.000885,0,0
0:8:17.156,951.145,121.106,0,0.000885,0,0
0:8:17.652,952.493,121.272,0,0.000885,0,0
0:8:18.147,953.49,121.403,0,0.000885,0,0
0:8:18.644,954.49,121.527,0,0.000885,0,0
0:8:19.139,955.135,121.61,0,0.000885,0,0
0:8:19.631,955.78,121.692,0,0.000885,0,0
0:8:20.143,957.07,121.858,0,0.000885,0,0
0:8:20.647,957.715,121.941,0,0.000885,0,0
0:8:21.150,958.596,122.051,0,0.000885,0,0
0:8:21.654,959.771,122.203,0,0.000885,0,0
0:8:22.152,961.532,122.423,0,0.000885,0,0
0:8:22.648,961.946,122.478,0,0.000885,0,0
0:8:23.144,962.706,122.575,0,0.000885,0,0
0:8:23.649,964.116,122.754,0,0.000885,0,0
0:8:24.145,964.939,122.858,0,0.000885,0,0
0:8:24.640,966.051,123.002,0,0.000885,0,0
0:8:25.139,967.226,123.154,0,0.000885,0,0
0:8:25.644,967.697,123.209,0,0.000885,0,0
0:8:26.148,969.165,123.395,0,0.000885,0,0
0:8:26.651,969.752,123.471,0,0.000885,0,0
0:8:27.148,970.927,123.623,0,0.000885,0,0
0:8:27.642,971.514,123.699,0,0.000885,0,0
0:8:28.140,972.746,123.851,0,0.000885,0,0
0:8:28.634,973.742,123.982,0,0.000885,0,0
0:8:29.142,975.21,124.168,0,0.000885,0,0
0:8:29.647,976.091,124.278,0,0.000885,0,0
0:8:30.153,976.972,124.395,0,0.000885,0,0
0:8:30.657,977.853,124.506,0,0.000885,0,0
0:8:31.160,978.733,124.616,0,0.000885,0,0
0:8:31.656,979.788,124.754,0,0.000885,0,0
0:8:32.152,980.846,124.885,0,0.000885,0,0
0:8:32.649,981.491,124.967,0,0.000885,0,0
0:8:33.145,982.781,125.133,0,0.000885,0,0
0:8:33.641,983.72,125.25,0,0.000885,0,0
0:8:34.135,984.191,125.312,0,0.000885,0,0
0:8:34.645,985.659,125.498,0,0.000885,0,0
0:8:35.150,986.598,125.616,0,0.000885,0,0
0:8:35.654,987.772,125.767,0,0.000885,0,0
0:8:36.155,988.826,125.898,0,0.000885,0,0
0:8:36.653,989.591,126.002,0,0.000885,0,0
0:8:37.149,990.53,126.119,0,0.000885,0,0
0:8:37.646,991.175,126.202,0,0.000885,0,0
0:8:38.142,992.234,126.333,0,0.000885,0,0
0:8:38.637,992.879,126.415,0,0.000885,0,0
0:8:39.144,991.175,126.202,0,0.000885,0,0
0:8:39.640,992.994,126.429,0,0.000885,0,0
0:8:40.143,995.694,126.774,0,0.000885,0,0
0:8:40.650,997.807,127.043,0,0.000885,0,0
0:8:41.152,998.63,127.146,0,0.000885,0,0
0:8:41.651,1000.69,127.408,0,0.000885,0,0
0:8:42.148,1001.57,127.525,0,0.000885,0,0
0:8:42.644,1002.33,127.622,0,0.000885,0,0
0:8:43.140,1002.91,127.698,0,0.000885,0,0
0:8:43.647,1004.03,127.836,0,0.000885,0,0
0:8:44.143,1004.32,127.877,0,0.000885,0,0
0:8:44.648,1005.44,128.015,0,0.000885,0,0
0:8:45.146,1006.61,128.167,0,0.000885,0,0
0:8:45.653,1007.61,128.291,0,0.000885,0,0
0:8:46.156,1008.73,128.436,0,0.000885,0,0
0:8:46.658,1009.08,128.477,0,0.000885,0,0
0:8:47.155,1009.72,128.56,0,0.000885,0,0
0:8:47.650,1010.49,128.656,0,0.000885,0,0
0:8:48.146,1011.78,128.822,0,0.000885,0,0
0:8:48.643,1013.3,129.015,0,0.000885,0,0
0:8:49.137,1013.83,129.084,0,0.000885,0,0
0:8:49.646,1015.24,129.263,0,0.000885,0,0
0:8:50.150,1016,129.359,0,0.000885,0,0
0:8:50.655,1016.89,129.477,0,0.000885,0,0
0:8:51.160,1018.12,129.628,0,0.000885,0,0
0:8:51.664,1019.29,129.78,0,0.000885,0,0
0:8:52.161,1019.94,129.863,0,0.000885,0,0
0:8:52.658,1021,129.994,0,0.000885,0,0
0:8:53.152,1022.23,130.152,0,0.000885,0,0
0:8:53.648,1022.87,130.235,0,0.000885,0,0
0:8:54.145,1023.81,130.359,0,0.000885,0,0
0:8:54.639,1024.75,130.476,0,0.000885,0,0
0:8:55.146,1025.46,130.566,0,0.000885,0,0
0:8:55.649,1026.57,130.704,0,0.000885,0,0
0:8:56.152,1028.04,130.897,0,0.000885,0,0
0:8:56.647,1029.04,131.021,0,0.000885,0,0
0:8:57.142,1029.74,131.111,0,0.000885,0,0
0:8:57.648,1030.68,131.228,0,0.000885,0,0
0:8:58.145,1031.74,131.366,0,0.000885,0,0
0:8:58.651,1032.79,131.497,0,0.000885,0,0
0:8:59.148,1034.02,131.655,0,0.000885,0,0
0:8:59.644,1034.97,131.773,0,0.000885,0,0
0:9:0.144,1035.79,131.883,0,0.000885,0,0
0:9:0.651,1036.43,131.966,0,0.000885,0,0
0:9:1.154,1037.96,132.159,0,0.000885,0,0
0:9:1.655,1038.84,132.269,0,0.000885,0,0
0:9:2.151,1039.25,132.324,0,0.000885,0,0
0:9:2.647,1040.48,132.476,0,0.000885,0,0
0:9:3.145,1041.36,132.593,0,0.000885,0,0
0:9:3.639,1042.3,132.71,0,0.000885,0,0
0:9:4.135,1043.66,132.883,0,0.000885,0,0
0:9:4.632,1044.77,133.027,0,0.000885,0,0
0:9:5.136,1045.12,133.069,0,0.000885,0,0
0:9:5.645,1046.88,133.296,0,0.000885,0,0
0:9:6.146,1047.76,133.407,0,0.000885,0,0
0:9:6.651,1049.06,133.572,0,0.000885,0,0
0:9:7.146,1049.52,133.627,0,0.000885,0,0
0:9:7.644,1050.52,133.758,0,0.000885,0,0
0:9:8.148,1051.28,133.855,0,0.000885,0,0
0:9:8.646,1051.93,133.938,0,0.000885,0,0
0:9:9.150,1052.69,134.034,0,0.000885,0,0
0:9:9.647,1053.87,134.186,0,0.000885,0,0
0:9:10.140,1054.39,134.248,0,0.000885,0,0
0:9:10.648,1055.8,134.427,0,0.000885,0,0
0:9:11.154,1057.45,134.641,0,0.000885,0,0
0:9:11.656,1058.56,134.779,0,0.000885,0,0
0:9:12.151,1059.44,134.889,0,0.000885,0,0
0:9:12.648,1060.85,135.075,0,0.000885,0,0
0:9:13.140,1061.62,135.172,0,0.000885,0,0
0:9:13.637,1062.38,135.268,0,0.000885,0,0
0:9:14.145,1063.08,135.358,0,0.000885,0,0
0:9:14.650,1064.37,135.523,0,0.000885,0,0
0:9:15.155,1065.26,135.634,0,0.000885,0,0
0:9:15.661,1066.02,135.73,0,0.000885,0,0
0:9:16.164,1067.37,135.903,0,0.000885,0,0
0:9:16.661,1068.13,135.999,0,0.000885,0,0
0:9:17.158,1068.84,136.089,0,0.000885,0,0
0:9:17.654,1070.13,136.254,0,0.000885,0,0
0:9:18.150,1070.6,136.309,0,0.000885,0,0
0:9:18.646,1071.12,136.378,0,0.000885,0,0
0:9:19.141,1072.24,136.523,0,0.000885,0,0
0:9:19.639,1073.82,136.723,0,0.000885,0,0
0:9:20.136,1074.59,136.82,0,0.000885,0,0
0:9:20.642,1076.23,137.033,0,0.000885,0,0
0:9:21.148,1077.64,137.213,0,0.000885,0,0
0:9:21.650,1078.64,137.337,0,0.000885,0,0
0:9:22.145,1078.28,137.288,0,0.000885,0,0
0:9:22.640,1079.34,137.426,0,0.000885,0,0
0:9:23.137,1080.16,137.53,0,0.000885,0,0
0:9:23.645,1081.4,137.688,0,0.000885,0,0
0:9:24.149,1082.34,137.806,0,0.000885,0,0
0:9:24.646,1083.68,137.978,0,0.000885,0,0
0:9:25.139,1084.8,138.123,0,0.000885,0,0
0:9:25.646,1085.39,138.199,0,0.000885,0,0
0:9:26.149,1086.68,138.357,0,0.000885,0,0
0:9:26.653,1087.91,138.516,0,0.000885,0,0
0:9:27.149,1088.09,138.536,0,0.000885,0,0
0:9:27.647,1089.67,138.743,0,0.000885,0,0
0:9:28.140,1091.2,138.936,0,0.000885,0,0
0:9:28.637,1092.2,139.06,0,0.000885,0,0
0:9:29.143,1092.9,139.15,0,0.000885,0,0
0:9:29.649,1094.61,139.371,0,0.000885,0,0
0:9:30.154,1094.84,139.398,0,0.000885,0,0
0:9:30.658,1095.49,139.481,0,0.000885,0,0
0:9:31.161,1097.25,139.708,0,0.000885,0,0
0:9:31.657,1097.66,139.757,0,0.000885,0,0
0:9:32.153,1098.48,139.86,0,0.000885,0,0
0:9:32.649,1099.59,140.005,0,0.000885,0,0
0:9:33.147,1100.89,140.17,0,0.000885,0,0
0:9:33.651,1101,140.184,0,0.000885,0,0
0:9:34.148,1103,140.439,0,0.000885,0,0
0:9:34.642,1103.53,140.508,0,0.000885,0,0
0:9:35.146,1104.35,140.612,0,0.000885,0,0
0:9:35.653,1105.64,140.777,0,0.000885,0,0
0:9:36.155,1106.58,140.894,0,0.000885,0,0
0:9:36.654,1106.58,140.894,0,0.000885,0,0
0:9:37.151,1107.87,141.06,0,0.000885,0,0
0:9:37.647,1106.29,140.86,0,0.000885,0,0
0:9:38.152,1100.71,140.15,0,0.000885,0,0
0:9:38.648,1002.27,127.615,0,0.000885,0,0
0:9:38.676,1002.27,127.615,0,0.000885,0,0