File: DataFile2021-06-29_054116.csv
Test ID:,Date Tested:,Time:,Test Type:,Diameter Avg. (mm):,Cyl. Corr. Factor:,Height (mm):,Age (days):,Weight (kN):,Break Type:,Ramp Rate (MPa/s):,Load at Break (kN):,Stress at Break (MPa):
12,6/29/2021,05:41,Cylinder,100,1,200,0,3.6,3,0.22,281.82,35.88
Sample Time,Load (kN),Stress (MPa),Long. Strain,Trans. Strain,Chan1 Deflection (mm),Chan2 Deflection (mm)
0:0:17.893,6.33427,0.806687,0,0.000885,0,0
0:0:18.093,10.0886,1.28242,0,0.000885,0,0
0:0:18.291,14.1364,1.79953,0,0.000885,0,0
0:0:18.499,13.7228,1.74437,0,0.000885,0,0
0:0:18.701,12.7264,1.62027,0,0.000885,0,0
0:0:18.917,12.1392,1.54443,0,0.000885,0,0
0:0:19.117,11.9657,1.52374,0,0.000885,0,0
0:0:19.314,11.4364,1.45479,0,0.000885,0,0
0:0:19.512,11.6143,1.47548,0,0.000885,0,0
0:0:19.714,11.4364,1.45479,0,0.000885,0,0
0:0:19.908,11.2006,1.42721,0,0.000885,0,0
0:0:20.109,11.2629,1.43411,0,0.000885,0,0
0:0:20.307,11.1428,1.42032,0,0.000885,0,0
0:0:20.513,11.085,1.41343,0,0.000885,0,0
0:0:20.714,11.085,1.41343,0,0.000885,0,0
0:0:20.910,10.9693,1.39964,0,0.000885,0,0
0:0:21.110,11.4364,1.45479,0,0.000885,0,0
0:0:21.309,11.2006,1.42721,0,0.000885,0,0
0:0:21.513,11.3207,1.441,0,0.000885,0,0
0:0:21.714,12.0235,1.53064,0,0.000885,0,0
0:0:21.911,12.5529,1.59958,0,0.000885,0,0
0:0:22.110,12.7842,1.62716,0,0.000885,0,0
0:0:22.310,13.7228,1.74437,0,0.000885,0,0
0:0:22.513,13.785,1.75816,0,0.000885,0,0
0:0:22.714,14.3099,1.82022,0,0.000885,0,0
0:0:22.913,14.3099,1.82022,0,0.000885,0,0
0:0:23.110,15.0127,1.90985,0,0.000885,0,0
0:0:23.312,15.3063,1.95122,0,0.000885,0,0
0:0:23.514,15.7778,2.00637,0,0.000885,0,0
0:0:23.717,15.9513,2.03395,0,0.000885,0,0
0:0:23.920,16.5385,2.1029,0,0.000885,0,0
0:0:24.122,16.7164,2.13048,0,0.000885,0,0
0:0:24.323,17.4771,2.22701,0,0.000885,0,0
0:0:24.524,17.9486,2.28216,0,0.000885,0,0
0:0:24.727,18.6514,2.3718,0,0.000885,0,0
0:0:24.928,19.0028,2.42006,0,0.000885,0,0
0:0:25.123,19.2386,2.44764,0,0.000885,0,0
0:0:25.326,20.1771,2.57174,0,0.000885,0,0
0:0:25.523,20.5285,2.61311,0,0.000885,0,0
0:0:25.721,20.4707,2.60622,0,0.000885,0,0
0:0:25.923,21.0534,2.68206,0,0.000885,0,0
0:0:26.119,21.7607,2.77169,0,0.000885,0,0
0:0:26.321,22.1699,2.81996,0,0.000885,0,0
0:0:26.519,22.4635,2.86132,0,0.000885,0,0
0:0:26.717,22.7571,2.8958,0,0.000885,0,0
0:0:26.919,23.6378,3.00611,0,0.000885,0,0
0:0:27.115,23.7535,3.0268,0,0.000885,0,0
0:0:27.315,23.8113,3.03369,0,0.000885,0,0
0:0:27.513,24.0471,3.06127,0,0.000885,0,0
0:0:27.710,24.2828,3.08885,0,0.000885,0,0
0:0:27.912,24.7499,3.1509,0,0.000885,0,0
0:0:28.109,24.87,3.16469,0,0.000885,0,0
0:0:28.310,25.1591,3.20606,0,0.000885,0,0
0:0:28.512,26.2178,3.33706,0,0.000885,0,0
0:0:28.717,26.3335,3.35085,0,0.000885,0,0
0:0:28.919,26.9785,3.43359,0,0.000885,0,0
0:0:29.122,27.1564,3.45427,0,0.000885,0,0
0:0:29.324,27.5078,3.50254,0,0.000885,0,0
0:0:29.525,27.8592,3.54391,0,0.000885,0,0
0:0:29.727,28.3886,3.61285,0,0.000885,0,0
0:0:29.929,28.5042,3.62664,0,0.000885,0,0
0:0:30.127,29.0914,3.70248,0,0.000885,0,0
0:0:30.327,29.7364,3.78522,0,0.000885,0,0
0:0:30.529,30.2034,3.84727,0,0.000885,0,0
0:0:30.724,30.6749,3.90243,0,0.000885,0,0
0:0:30.924,31.1998,3.97138,0,0.000885,0,0
0:0:31.122,31.0842,3.95759,0,0.000885,0,0
0:0:31.321,31.787,4.04722,0,0.000885,0,0
0:0:31.524,32.4943,4.13685,0,0.000885,0,0
0:0:31.718,32.6677,4.15754,0,0.000885,0,0
0:0:31.919,33.1971,4.22649,0,0.000885,0,0
0:0:32.119,33.3706,4.24717,0,0.000885,0,0
0:0:32.316,33.9577,4.32301,0,0.000885,0,0
0:0:32.517,33.8421,4.30922,0,0.000885,0,0
0:0:32.714,34.1935,4.35059,0,0.000885,0,0
0:0:32.913,34.2513,4.36438,0,0.000885,0,0
0:0:33.115,34.6605,4.41264,0,0.000885,0,0
0:0:33.318,35.1899,4.48159,0,0.000885,0,0
0:0:33.522,36.0706,4.59191,0,0.000885,0,0
0:0:33.724,36.1285,4.5988,0,0.000885,0,0
0:0:33.924,37.067,4.72291,0,0.000885,0,0
0:0:34.127,37.4763,4.77117,0,0.000885,0,0
0:0:34.327,37.4184,4.76428,0,0.000885,0,0
0:0:34.530,37.89,4.82633,0,0.000885,0,0
0:0:34.729,38.0634,4.84701,0,0.000885,0,0
0:0:34.927,39.1799,4.9918,0,0.000885,0,0
0:0:35.130,39.1799,4.9918,0,0.000885,0,0
0:0:35.325,39.4112,5.01938,0,0.000885,0,0
0:0:35.525,39.647,5.04696,0,0.000885,0,0
0:0:35.727,40.1763,5.11591,0,0.000885,0,0
0:0:35.922,40.4121,5.14349,0,0.000885,0,0
0:0:36.124,40.937,5.21244,0,0.000885,0,0
0:0:36.320,41.1149,5.23312,0,0.000885,0,0
0:0:36.518,40.8792,5.20554,0,0.000885,0,0
0:0:36.721,41.7021,5.30896,0,0.000885,0,0
0:0:36.917,42.4627,5.40549,0,0.000885,0,0
0:0:37.118,42.6407,5.42617,0,0.000885,0,0
0:0:37.318,43.4591,5.53649,0,0.000885,0,0
0:0:37.514,44.0463,5.60544,0,0.000885,0,0
0:0:37.716,44.8069,5.70196,0,0.000885,0,0
0:0:37.912,44.9849,5.72954,0,0.000885,0,0
0:0:38.112,45.2784,5.76402,0,0.000885,0,0
0:0:38.314,45.3363,5.77091,0,0.000885,0,0
0:0:38.518,45.6877,5.81918,0,0.000885,0,0
0:0:38.721,46.217,5.88123,0,0.000885,0,0
0:0:38.923,46.3905,5.90881,0,0.000885,0,0
0:0:39.125,46.8042,5.95707,0,0.000885,0,0
0:0:39.327,47.3914,6.03291,0,0.000885,0,0
0:0:39.529,47.6849,6.07428,0,0.000885,0,0
0:0:39.730,47.7428,6.08118,0,0.000885,0,0
0:0:39.928,48.3299,6.15012,0,0.000885,0,0
0:0:40.127,48.9749,6.23286,0,0.000885,0,0
0:0:40.329,48.9126,6.22597,0,0.000885,0,0
0:0:40.524,49.2062,6.26733,0,0.000885,0,0
0:0:40.725,49.6199,6.3156,0,0.000885,0,0
0:0:40.925,50.0291,6.37076,0,0.000885,0,0
0:0:41.122,50.732,6.46039,0,0.000885,0,0
0:0:41.324,51.377,6.54312,0,0.000885,0,0
0:0:41.520,51.7284,6.58449,0,0.000885,0,0
0:0:41.720,51.9641,6.61897,0,0.000885,0,0
0:0:41.920,52.7248,6.71549,0,0.000885,0,0
0:0:42.116,52.7248,6.71549,0,0.000885,0,0
0:0:42.319,53.0806,6.75686,0,0.000885,0,0
0:0:42.515,53.3119,6.79134,0,0.000885,0,0
0:0:42.713,53.6055,6.82581,0,0.000885,0,0
0:0:42.916,54.4284,6.92923,0,0.000885,0,0
0:0:43.112,54.6642,6.95681,0,0.000885,0,0
0:0:43.313,55.2469,7.03265,0,0.000885,0,0
0:0:43.514,55.5405,7.07402,0,0.000885,0,0
0:0:43.718,56.3634,7.17744,0,0.000885,0,0
0:0:43.921,56.5369,7.19813,0,0.000885,0,0
0:0:44.124,57.0662,7.26707,0,0.000885,0,0
0:0:44.326,57.1863,7.28086,0,0.000885,0,0
0:0:44.527,57.6534,7.34292,0,0.000885,0,0
0:0:44.728,57.7691,7.35671,0,0.000885,0,0
0:0:44.930,58.3562,7.43255,0,0.000885,0,0
0:0:45.127,58.2406,7.41876,0,0.000885,0,0
0:0:45.327,59.0012,7.51529,0,0.000885,0,0
0:0:45.526,59.3526,7.55665,0,0.000885,0,0
0:0:45.722,59.6462,7.59113,0,0.000885,0,0
0:0:45.925,59.9398,7.6325,0,0.000885,0,0
0:0:46.123,60.7049,7.72902,0,0.000885,0,0
0:0:46.322,60.9985,7.7635,0,0.000885,0,0
0:0:46.524,61.2876,7.80487,0,0.000885,0,0
0:0:46.718,61.7591,7.86002,0,0.000885,0,0
0:0:46.920,62.4619,7.94966,0,0.000885,0,0
0:0:47.119,62.7555,7.99102,0,0.000885,0,0
0:0:47.317,62.6977,7.98413,0,0.000885,0,0
0:0:47.519,63.227,8.05308,0,0.000885,0,0
0:0:47.713,63.4583,8.08066,0,0.000885,0,0
0:0:47.916,64.0455,8.1565,0,0.000885,0,0
0:0:48.114,64.2234,8.17718,0,0.000885,0,0
0:0:48.313,64.8684,8.25992,0,0.000885,0,0
0:0:48.516,65.2198,8.30129,0,0.000885,0,0
0:0:48.718,65.5134,8.34266,0,0.000885,0,0
0:0:48.922,65.9805,8.39781,0,0.000885,0,0
0:0:49.125,66.7456,8.50124,0,0.000885,0,0
0:0:49.327,66.9769,8.52881,0,0.000885,0,0
0:0:49.529,67.3906,8.57708,0,0.000885,0,0
0:0:49.729,67.3906,8.57708,0,0.000885,0,0
0:0:49.932,68.3291,8.70118,0,0.000885,0,0
0:0:50.132,68.387,8.70808,0,0.000885,0,0
0:0:50.328,69.1476,8.80461,0,0.000885,0,0
0:0:50.530,69.2677,8.81839,0,0.000885,0,0
0:0:50.728,69.7348,8.88045,0,0.000885,0,0
0:0:50.927,70.144,8.92871,0,0.000885,0,0
0:0:51.129,70.3798,8.96318,0,0.000885,0,0
0:0:51.323,70.9091,9.02524,0,0.000885,0,0
0:0:51.524,71.3762,9.08729,0,0.000885,0,0
0:0:51.724,72.0212,9.17003,0,0.000885,0,0
0:0:51.920,72.1413,9.18382,0,0.000885,0,0
0:0:52.122,71.7898,9.14245,0,0.000885,0,0
0:0:52.317,72.4348,9.22519,0,0.000885,0,0
0:0:52.517,72.6083,9.24587,0,0.000885,0,0
0:0:52.719,73.0798,9.30792,0,0.000885,0,0
0:0:52.914,73.7248,9.38376,0,0.000885,0,0
0:0:53.117,74.1341,9.43892,0,0.000885,0,0
0:0:53.320,74.7791,9.52166,0,0.000885,0,0
0:0:53.524,75.3084,9.59061,0,0.000885,0,0
0:0:53.725,75.424,9.6044,0,0.000885,0,0
0:0:53.927,75.602,9.62508,0,0.000885,0,0
0:0:54.129,76.069,9.68713,0,0.000885,0,0
0:0:54.330,76.247,9.70782,0,0.000885,0,0
0:0:54.532,77.4791,9.8664,0,0.000885,0,0
0:0:54.733,77.537,9.87329,0,0.000885,0,0
0:0:54.930,78.1241,9.94913,0,0.000885,0,0
0:0:55.131,78.5912,10.0043,0,0.000885,0,0
0:0:55.328,78.5912,10.0043,0,0.000885,0,0
0:0:55.526,79.0627,10.0663,0,0.000885,0,0
0:0:55.728,79.4141,10.1077,0,0.000885,0,0
0:0:55.924,80.1747,10.2111,0,0.000885,0,0
0:0:56.125,80.2326,10.218,0,0.000885,0,0
0:0:56.324,80.7619,10.2801,0,0.000885,0,0
0:0:56.520,81.229,10.3421,0,0.000885,0,0
0:0:56.723,81.6427,10.3973,0,0.000885,0,0
0:0:56.919,81.0555,10.3215,0,0.000885,0,0
0:0:57.119,82.0519,10.4456,0,0.000885,0,0
0:0:57.320,82.6969,10.5283,0,0.000885,0,0
0:0:57.514,83.7511,10.6662,0,0.000885,0,0
0:0:57.716,83.5776,10.6386,0,0.000885,0,0
0:0:57.914,83.6355,10.6455,0,0.000885,0,0
0:0:58.113,83.8712,10.68,0,0.000885,0,0
0:0:58.315,84.0447,10.7007,0,0.000885,0,0
0:0:58.518,84.752,10.7903,0,0.000885,0,0
0:0:58.722,85.219,10.8523,0,0.000885,0,0
0:0:58.923,85.219,10.8523,0,0.000885,0,0
0:0:59.125,86.3934,10.9971,0,0.000885,0,0
0:0:59.327,86.5668,11.0247,0,0.000885,0,0
0:0:59.528,87.154,11.0937,0,0.000885,0,0
0:0:59.730,87.799,11.1764,0,0.000885,0,0
0:0:59.929,88.0926,11.2178,0,0.000885,0,0
0:1:0.126,87.8568,11.1833,0,0.000885,0,0
0:1:0.329,88.8577,11.3143,0,0.000885,0,0
0:1:0.525,88.5641,11.2729,0,0.000885,0,0
0:1:0.724,89.089,11.3419,0,0.000885,0,0
0:1:0.925,89.6761,11.4177,0,0.000885,0,0
0:1:1.120,89.6183,11.4108,0,0.000885,0,0
0:1:1.323,90.379,11.5073,0,0.000885,0,0
0:1:1.521,90.9661,11.5832,0,0.000885,0,0
0:1:1.719,91.4376,11.6452,0,0.000885,0,0
0:1:1.921,91.4955,11.6521,0,0.000885,0,0
0:1:2.116,91.7891,11.6866,0,0.000885,0,0
0:1:2.318,92.4919,11.7762,0,0.000885,0,0
0:1:2.517,92.8433,11.8245,0,0.000885,0,0
0:1:2.713,93.4883,11.9004,0,0.000885,0,0
0:1:2.915,93.6662,11.9279,0,0.000885,0,0
0:1:3.112,93.6662,11.9279,0,0.000885,0,0
0:1:3.312,94.3112,12.0107,0,0.000885,0,0
0:1:3.513,94.6626,12.052,0,0.000885,0,0
0:1:3.717,94.7783,12.0658,0,0.000885,0,0
0:1:3.919,95.3654,12.1417,0,0.000885,0,0
0:1:4.122,95.6012,12.1692,0,0.000885,0,0
0:1:4.323,96.5976,12.3002,0,0.000885,0,0
0:1:4.524,96.8912,12.3347,0,0.000885,0,0
0:1:4.725,96.949,12.3416,0,0.000885,0,0
0:1:4.927,97.4205,12.4037,0,0.000885,0,0
0:1:5.124,98.2968,12.514,0,0.000885,0,0
0:1:5.325,98.5904,12.5554,0,0.000885,0,0
0:1:5.527,98.884,12.5898,0,0.000885,0,0
0:1:5.721,99.3555,12.6519,0,0.000885,0,0
0:1:5.923,99.4711,12.6657,0,0.000885,0,0
0:1:6.122,99.7647,12.7001,0,0.000885,0,0
0:1:6.320,100.352,12.776,0,0.000885,0,0
0:1:6.522,100.468,12.7898,0,0.000885,0,0
0:1:6.718,100.997,12.8587,0,0.000885,0,0
0:1:6.918,101.406,12.9139,0,0.000885,0,0
0:1:7.119,101.815,12.9621,0,0.000885,0,0
0:1:7.314,101.815,12.9621,0,0.000885,0,0
0:1:7.515,102.638,13.0656,0,0.000885,0,0
0:1:7.712,102.816,13.0931,0,0.000885,0,0
0:1:7.920,103.048,13.1207,0,0.000885,0,0
0:1:8.122,103.577,13.1897,0,0.000885,0,0
0:1:8.326,104.164,13.2655,0,0.000885,0,0
0:1:8.528,104.689,13.3276,0,0.000885,0,0
0:1:8.731,104.751,13.3345,0,0.000885,0,0
0:1:8.933,105.276,13.4034,0,0.000885,0,0
0:1:9.134,106.157,13.5137,0,0.000885,0,0
0:1:9.335,106.157,13.5137,0,0.000885,0,0
0:1:9.539,106.272,13.5344,0,0.000885,0,0
0:1:9.738,106.802,13.5965,0,0.000885,0,0
0:1:9.934,106.922,13.6103,0,0.000885,0,0
0:1:10.137,107.683,13.7137,0,0.000885,0,0
0:1:10.331,107.683,13.7137,0,0.000885,0,0
0:1:10.531,108.737,13.8447,0,0.000885,0,0
0:1:10.732,109.088,13.8929,0,0.000885,0,0
0:1:10.928,109.675,13.9619,0,0.000885,0,0
0:1:11.129,109.618,13.955,0,0.000885,0,0
0:1:11.326,110.556,14.0791,0,0.000885,0,0
0:1:11.526,110.614,14.086,0,0.000885,0,0
0:1:11.727,111.085,14.1411,0,0.000885,0,0
0:1:11.922,111.317,14.1756,0,0.000885,0,0
0:1:12.124,112.197,14.2859,0,0.000885,0,0
0:1:12.321,112.082,14.2721,0,0.000885,0,0
0:1:12.520,112.491,14.3204,0,0.000885,0,0
0:1:12.722,112.669,14.348,0,0.000885,0,0
0:1:12.918,112.607,14.3411,0,0.000885,0,0
0:1:13.119,113.487,14.4514,0,0.000885,0,0
0:1:13.321,113.545,14.4583,0,0.000885,0,0
0:1:13.525,114.546,14.5824,0,0.000885,0,0
0:1:13.728,114.72,14.61,0,0.000885,0,0
0:1:13.928,115.191,14.6651,0,0.000885,0,0
0:1:14.131,116.067,14.7755,0,0.000885,0,0
0:1:14.332,115.952,14.7617,0,0.000885,0,0
0:1:14.533,116.712,14.8582,0,0.000885,0,0
0:1:14.734,117.126,14.9134,0,0.000885,0,0
0:1:14.932,117.126,14.9134,0,0.000885,0,0
0:1:15.131,117.535,14.9685,0,0.000885,0,0
0:1:15.332,117.713,14.9892,0,0.000885,0,0
0:1:15.526,118.416,15.0788,0,0.000885,0,0
0:1:15.728,118.065,15.0306,0,0.000885,0,0
0:1:15.927,119.528,15.2167,0,0.000885,0,0
0:1:16.124,119.764,15.2512,0,0.000885,0,0
0:1:16.327,120.351,15.3202,0,0.000885,0,0
0:1:16.521,119.88,15.265,0,0.000885,0,0
0:1:16.722,120.293,15.3133,0,0.000885,0,0
0:1:16.922,120.818,15.3822,0,0.000885,0,0
0:1:17.119,121.347,15.4512,0,0.000885,0,0
0:1:17.321,121.819,15.5132,0,0.000885,0,0
0:1:17.517,121.992,15.5339,0,0.000885,0,0
0:1:17.716,122.637,15.6166,0,0.000885,0,0
0:1:17.917,123.282,15.6994,0,0.000885,0,0
0:1:18.109,123.282,15.6994,0,0.000885,0,0
0:1:18.314,124.866,15.8993,0,0.000885,0,0
0:1:18.516,124.221,15.8166,0,0.000885,0,0
0:1:18.720,124.457,15.8442,0,0.000885,0,0
0:1:18.923,125.217,15.9407,0,0.000885,0,0
0:1:19.125,126.04,16.051,0,0.000885,0,0
0:1:19.326,125.395,15.9683,0,0.000885,0,0
0:1:19.527,126.507,16.1062,0,0.000885,0,0
0:1:19.729,126.392,16.0924,0,0.000885,0,0
0:1:19.931,126.628,16.1199,0,0.000885,0,0
0:1:20.127,127.037,16.1751,0,0.000885,0,0
0:1:20.328,127.508,16.2372,0,0.000885,0,0
0:1:20.527,128.505,16.3613,0,0.000885,0,0
0:1:20.723,128.442,16.3544,0,0.000885,0,0
0:1:20.925,128.972,16.4233,0,0.000885,0,0
0:1:21.122,129.265,16.4578,0,0.000885,0,0
0:1:21.321,129.381,16.4716,0,0.000885,0,0
0:1:21.522,130.262,16.5888,0,0.000885,0,0
0:1:21.717,130.907,16.6646,0,0.000885,0,0
0:1:21.918,130.44,16.6095,0,0.000885,0,0
0:1:22.117,130.965,16.6784,0,0.000885,0,0
0:1:22.316,131.552,16.7474,0,0.000885,0,0
0:1:22.517,131.903,16.7956,0,0.000885,0,0
0:1:22.710,131.965,16.8025,0,0.000885,0,0
0:1:22.915,133.607,17.0094,0,0.000885,0,0
0:1:23.122,133.135,16.9542,0,0.000885,0,0
0:1:23.319,133.487,16.9956,0,0.000885,0,0
0:1:23.521,133.607,17.0094,0,0.000885,0,0
0:1:23.724,135.07,17.1955,0,0.000885,0,0
0:1:23.926,135.364,17.2369,0,0.000885,0,0
0:1:24.130,135.893,17.3058,0,0.000885,0,0
0:1:24.331,135.07,17.1955,0,0.000885,0,0
0:1:24.532,136.071,17.3265,0,0.000885,0,0
0:1:24.733,136.187,17.3403,0,0.000885,0,0
0:1:24.935,136.947,17.4368,0,0.000885,0,0
0:1:25.136,136.774,17.4162,0,0.000885,0,0
0:1:25.330,137.183,17.4644,0,0.000885,0,0
0:1:25.532,138.237,17.6023,0,0.000885,0,0
0:1:25.731,138.945,17.6919,0,0.000885,0,0
0:1:25.928,138.709,17.6575,0,0.000885,0,0
0:1:26.130,139.06,17.7057,0,0.000885,0,0
0:1:26.325,139.527,17.7678,0,0.000885,0,0
0:1:26.526,140.177,17.8505,0,0.000885,0,0
0:1:26.726,140.644,17.9057,0,0.000885,0,0
0:1:26.922,140.115,17.8367,0,0.000885,0,0
0:1:27.125,141.525,18.016,0,0.000885,0,0
0:1:27.320,141.289,17.9884,0,0.000885,0,0
0:1:27.520,141.582,18.0298,0,0.000885,0,0
0:1:27.720,142.637,18.1608,0,0.000885,0,0
0:1:27.917,143.166,18.2297,0,0.000885,0,0
0:1:28.119,142.815,18.1815,0,0.000885,0,0
0:1:28.321,143.282,18.2435,0,0.000885,0,0
0:1:28.525,144.278,18.3676,0,0.000885,0,0
0:1:28.727,144.928,18.4504,0,0.000885,0,0
0:1:28.929,144.572,18.409,0,0.000885,0,0
0:1:29.130,144.75,18.4297,0,0.000885,0,0
0:1:29.332,144.75,18.4297,0,0.000885,0,0
0:1:29.533,145.982,18.5883,0,0.000885,0,0
0:1:29.735,146.217,18.6158,0,0.000885,0,0
0:1:29.930,146.685,18.6779,0,0.000885,0,0
0:1:30.132,147.094,18.7262,0,0.000885,0,0
0:1:30.329,147.801,18.8158,0,0.000885,0,0
0:1:30.528,147.214,18.7468,0,0.000885,0,0
0:1:30.730,147.859,18.8227,0,0.000885,0,0
0:1:30.925,148.62,18.9261,0,0.000885,0,0
0:1:31.126,148.504,18.9054,0,0.000885,0,0
0:1:31.325,148.855,18.9537,0,0.000885,0,0
0:1:31.521,149.794,19.0709,0,0.000885,0,0
0:1:31.723,150.323,19.1398,0,0.000885,0,0
0:1:31.920,150.675,19.1812,0,0.000885,0,0
0:1:32.121,150.79,19.2019,0,0.000885,0,0
0:1:32.321,151.026,19.2295,0,0.000885,0,0
0:1:32.516,151.613,19.3053,0,0.000885,0,0
0:1:32.718,152.61,19.4294,0,0.000885,0,0
0:1:32.917,153.019,19.4846,0,0.000885,0,0
0:1:33.116,152.725,19.4432,0,0.000885,0,0
0:1:33.317,153.134,19.4984,0,0.000885,0,0
0:1:33.522,153.722,19.5742,0,0.000885,0,0
0:1:33.723,154.78,19.7052,0,0.000885,0,0
0:1:33.924,154.309,19.6501,0,0.000885,0,0
0:1:34.126,154.78,19.7052,0,0.000885,0,0
0:1:34.328,155.247,19.7673,0,0.000885,0,0
0:1:34.530,155.777,19.8362,0,0.000885,0,0
0:1:34.732,155.95,19.8569,0,0.000885,0,0
0:1:34.929,156.422,19.919,0,0.000885,0,0
0:1:35.127,156.364,19.9121,0,0.000885,0,0
0:1:35.329,157.067,20.0017,0,0.000885,0,0
0:1:35.523,157.476,20.05,0,0.000885,0,0
0:1:35.724,157.596,20.0637,0,0.000885,0,0
0:1:35.922,158.299,20.1534,0,0.000885,0,0
0:1:36.121,158.179,20.1396,0,0.000885,0,0
0:1:36.323,159.002,20.243,0,0.000885,0,0
0:1:36.518,159.295,20.2844,0,0.000885,0,0
0:1:36.719,159.647,20.3257,0,0.000885,0,0
0:1:36.917,160.527,20.4361,0,0.000885,0,0
0:1:37.124,161.052,20.505,0,0.000885,0,0
0:1:37.324,160.763,20.4705,0,0.000885,0,0
0:1:37.520,161.697,20.5877,0,0.000885,0,0
0:1:37.721,162.169,20.6498,0,0.000885,0,0
0:1:37.920,162.169,20.6498,0,0.000885,0,0
0:1:38.117,162.347,20.6705,0,0.000885,0,0
0:1:38.319,163.343,20.7946,0,0.000885,0,0
0:1:38.521,163.281,20.7877,0,0.000885,0,0
0:1:38.724,163.81,20.8566,0,0.000885,0,0
0:1:38.927,164.397,20.9325,0,0.000885,0,0
0:1:39.129,165.158,21.029,0,0.000885,0,0
0:1:39.331,164.749,20.9739,0,0.000885,0,0
0:1:39.532,165.687,21.098,0,0.000885,0,0
0:1:39.734,166.51,21.2014,0,0.000885,0,0
0:1:39.934,166.742,21.229,0,0.000885,0,0
0:1:40.130,166.217,21.16,0,0.000885,0,0
0:1:40.332,167.68,21.3531,0,0.000885,0,0
0:1:40.529,168.094,21.4013,0,0.000885,0,0
0:1:40.728,167.213,21.291,0,0.000885,0,0
0:1:40.929,167.858,21.3737,0,0.000885,0,0
0:1:41.124,168.619,21.4703,0,0.000885,0,0
0:1:41.327,168.97,21.5116,0,0.000885,0,0
0:1:41.524,169.032,21.5185,0,0.000885,0,0
0:1:41.723,169.615,21.5944,0,0.000885,0,0
0:1:41.924,170.087,21.6564,0,0.000885,0,0
0:1:42.119,170.674,21.7323,0,0.000885,0,0
0:1:42.321,170.732,21.7392,0,0.000885,0,0
0:1:42.520,171.199,21.8012,0,0.000885,0,0
0:1:42.718,171.728,21.8633,0,0.000885,0,0
0:1:42.920,172.609,21.9805,0,0.000885,0,0
0:1:43.123,172.257,21.9322,0,0.000885,0,0
0:1:43.324,172.902,22.015,0,0.000885,0,0
0:1:43.526,173.605,22.1046,0,0.000885,0,0
0:1:43.728,173.663,22.1115,0,0.000885,0,0
0:1:43.931,174.014,22.1597,0,0.000885,0,0
0:1:44.134,174.544,22.2218,0,0.000885,0,0
0:1:44.337,174.659,22.2356,0,0.000885,0,0
0:1:44.538,175.131,22.2976,0,0.000885,0,0
0:1:44.740,175.66,22.3666,0,0.000885,0,0
0:1:44.942,176.305,22.4493,0,0.000885,0,0
0:1:45.138,176.185,22.4355,0,0.000885,0,0
0:1:45.340,177.066,22.5459,0,0.000885,0,0
0:1:45.538,177.595,22.6148,0,0.000885,0,0
0:1:45.734,177.359,22.5803,0,0.000885,0,0
0:1:45.937,177.711,22.6286,0,0.000885,0,0
0:1:46.132,178.24,22.6906,0,0.000885,0,0
0:1:46.332,178.414,22.7182,0,0.000885,0,0
0:1:46.532,179.001,22.7941,0,0.000885,0,0
0:1:46.728,179.882,22.9044,0,0.000885,0,0
0:1:46.929,179.294,22.8285,0,0.000885,0,0
0:1:47.127,180.117,22.932,0,0.000885,0,0
0:1:47.326,181.172,23.0699,0,0.000885,0,0
0:1:47.527,181.932,23.1664,0,0.000885,0,0
0:1:47.721,181.639,23.125,0,0.000885,0,0
0:1:47.923,181.581,23.1181,0,0.000885,0,0
0:1:48.121,183.222,23.3319,0,0.000885,0,0
0:1:48.320,183.458,23.3594,0,0.000885,0,0
0:1:48.522,182.813,23.2767,0,0.000885,0,0
0:1:48.723,182.991,23.2974,0,0.000885,0,0
0:1:48.928,183.809,23.4008,0,0.000885,0,0
0:1:49.129,184.397,23.4766,0,0.000885,0,0
0:1:49.331,184.103,23.4422,0,0.000885,0,0
0:1:49.531,184.806,23.5318,0,0.000885,0,0
0:1:49.733,186.096,23.6973,0,0.000885,0,0
0:1:49.935,185.451,23.6145,0,0.000885,0,0
0:1:50.133,185.807,23.6559,0,0.000885,0,0
0:1:50.332,187.034,23.8145,0,0.000885,0,0
0:1:50.533,187.212,23.8352,0,0.000885,0,0
0:1:50.727,186.861,23.7938,0,0.000885,0,0
0:1:50.929,187.506,23.8765,0,0.000885,0,0
0:1:51.129,188.502,24.0007,0,0.000885,0,0
0:1:51.327,188.56,24.0075,0,0.000885,0,0
0:1:51.528,188.151,23.9593,0,0.000885,0,0
0:1:51.723,189.263,24.0972,0,0.000885,0,0
0:1:51.924,190.028,24.1937,0,0.000885,0,0
0:1:52.124,190.731,24.2833,0,0.000885,0,0
0:1:52.321,190.846,24.2971,0,0.000885,0,0
0:1:52.523,191.376,24.3661,0,0.000885,0,0
0:1:52.719,191.847,24.4281,0,0.000885,0,0
0:1:52.919,192.141,24.4626,0,0.000885,0,0
0:1:53.118,191.669,24.4074,0,0.000885,0,0
0:1:53.316,192.55,24.5178,0,0.000885,0,0
0:1:53.518,193.08,24.5867,0,0.000885,0,0
0:1:53.717,193.017,24.5729,0,0.000885,0,0
0:1:53.920,193.195,24.6005,0,0.000885,0,0
0:1:54.122,194.192,24.7246,0,0.000885,0,0
0:1:54.321,194.837,24.8073,0,0.000885,0,0
0:1:54.522,194.543,24.7729,0,0.000885,0,0
0:1:54.722,195.072,24.8349,0,0.000885,0,0
0:1:54.921,195.953,24.9521,0,0.000885,0,0
0:1:55.120,195.833,24.9314,0,0.000885,0,0
0:1:55.325,196.127,24.9728,0,0.000885,0,0
0:1:55.526,196.42,25.0073,0,0.000885,0,0
0:1:55.721,196.772,25.0555,0,0.000885,0,0
0:1:55.919,197.537,25.1521,0,0.000885,0,0
0:1:56.119,197.243,25.1107,0,0.000885,0,0
0:1:56.322,197.888,25.1934,0,0.000885,0,0
0:1:56.523,198.884,25.3244,0,0.000885,0,0
0:1:56.719,199.529,25.4072,0,0.000885,0,0
0:1:56.917,199.881,25.4485,0,0.000885,0,0
0:1:57.113,200.29,25.5037,0,0.000885,0,0
0:1:57.318,200.468,25.5244,0,0.000885,0,0
0:1:57.518,200.935,25.5864,0,0.000885,0,0
0:1:57.717,201.642,25.6761,0,0.000885,0,0
0:1:57.923,202.167,25.7381,0,0.000885,0,0
0:1:58.124,202.109,25.7312,0,0.000885,0,0
0:1:58.325,202.99,25.8484,0,0.000885,0,0
0:1:58.527,202.519,25.7864,0,0.000885,0,0
0:1:58.727,203.164,25.8691,0,0.000885,0,0
0:1:58.928,203.515,25.9105,0,0.000885,0,0
0:1:59.127,203.284,25.8829,0,0.000885,0,0
0:1:59.327,203.693,25.9381,0,0.000885,0,0
0:1:59.529,204.747,26.0691,0,0.000885,0,0
0:1:59.727,205.161,26.1242,0,0.000885,0,0
0:1:59.922,204.867,26.0829,0,0.000885,0,0
0:2:0.122,205.628,26.1794,0,0.000885,0,0
0:2:0.317,206.393,26.2759,0,0.000885,0,0
0:2:0.514,206.86,26.338,0,0.000885,0,0
0:2:0.724,206.976,26.3518,0,0.000885,0,0
0:2:0.919,207.212,26.3862,0,0.000885,0,0
0:2:1.120,208.092,26.4966,0,0.000885,0,0
0:2:1.324,208.386,26.531,0,0.000885,0,0
0:2:1.523,208.386,26.531,0,0.000885,0,0
0:2:1.722,209.031,26.6138,0,0.000885,0,0
0:2:1.917,209.382,26.662,0,0.000885,0,0
0:2:2.119,209.849,26.7172,0,0.000885,0,0
0:2:2.323,210.085,26.7517,0,0.000885,0,0
0:2:2.522,210.966,26.862,0,0.000885,0,0
0:2:2.722,210.85,26.8482,0,0.000885,0,0
0:2:2.925,211.669,26.9516,0,0.000885,0,0
0:2:3.125,211.553,26.9378,0,0.000885,0,0
0:2:3.326,211.669,26.9516,0,0.000885,0,0
0:2:3.528,212.14,27.0137,0,0.000885,0,0
0:2:3.730,213.079,27.1309,0,0.000885,0,0
0:2:3.929,213.955,27.2412,0,0.000885,0,0
0:2:4.130,213.43,27.1722,0,0.000885,0,0
0:2:4.331,214.133,27.2619,0,0.000885,0,0
0:2:4.530,214.956,27.3722,0,0.000885,0,0
0:2:4.730,215.129,27.3929,0,0.000885,0,0
0:2:4.925,215.072,27.386,0,0.000885,0,0
0:2:5.124,215.659,27.4618,0,0.000885,0,0
0:2:5.322,216.246,27.5308,0,0.000885,0,0
0:2:5.517,216.419,27.5583,0,0.000885,0,0
0:2:5.718,216.597,27.579,0,0.000885,0,0
0:2:5.922,216.833,27.6066,0,0.000885,0,0
0:2:6.121,217.358,27.6756,0,0.000885,0,0
0:2:6.321,218.354,27.7997,0,0.000885,0,0
0:2:6.523,218.181,27.779,0,0.000885,0,0
0:2:6.724,218.826,27.8617,0,0.000885,0,0
0:2:6.920,219.586,27.9582,0,0.000885,0,0
0:2:7.127,219.938,28.0065,0,0.000885,0,0
0:2:7.327,219.764,27.9789,0,0.000885,0,0
0:2:7.520,220.467,28.0686,0,0.000885,0,0
0:2:7.720,220.997,28.1375,0,0.000885,0,0
0:2:7.925,220.467,28.0686,0,0.000885,0,0
0:2:8.123,221.521,28.2065,0,0.000885,0,0
0:2:8.324,222.518,28.3306,0,0.000885,0,0
0:2:8.524,223.167,28.4133,0,0.000885,0,0
0:2:8.726,222.58,28.3375,0,0.000885,0,0
0:2:8.926,223.047,28.3995,0,0.000885,0,0
0:2:9.127,224.101,28.5305,0,0.000885,0,0
0:2:9.326,224.337,28.565,0,0.000885,0,0
0:2:9.527,223.87,28.5029,0,0.000885,0,0
0:2:9.727,224.751,28.6132,0,0.000885,0,0
0:2:9.924,225.218,28.6753,0,0.000885,0,0
0:2:10.120,224.809,28.6201,0,0.000885,0,0
0:2:10.319,225.511,28.7098,0,0.000885,0,0
0:2:10.526,226.041,28.7787,0,0.000885,0,0
0:2:10.723,226.45,28.8339,0,0.000885,0,0
0:2:10.923,227.211,28.9304,0,0.000885,0,0
0:2:11.126,226.801,28.8752,0,0.000885,0,0
0:2:11.326,227.624,28.9787,0,0.000885,0,0
0:2:11.523,228.269,29.0614,0,0.000885,0,0
0:2:11.719,228.443,29.089,0,0.000885,0,0
0:2:11.919,229.439,29.2131,0,0.000885,0,0
0:2:12.122,229.146,29.1786,0,0.000885,0,0
0:2:12.322,229.439,29.2131,0,0.000885,0,0
0:2:12.521,230.556,29.3579,0,0.000885,0,0
0:2:12.725,230.849,29.3924,0,0.000885,0,0
0:2:12.925,230.671,29.3717,0,0.000885,0,0
0:2:13.120,231.437,29.4682,0,0.000885,0,0
0:2:13.318,231.668,29.4958,0,0.000885,0,0
0:2:13.515,231.788,29.5096,0,0.000885,0,0
0:2:13.715,232.727,29.6337,0,0.000885,0,0
0:2:13.920,232.958,29.6612,0,0.000885,0,0
0:2:14.121,233.251,29.6957,0,0.000885,0,0
0:2:14.322,234.074,29.806,0,0.000885,0,0
0:2:14.523,233.959,29.7854,0,0.000885,0,0
0:2:14.721,234.426,29.8474,0,0.000885,0,0
0:2:14.923,235.716,30.0129,0,0.000885,0,0
0:2:15.121,236.009,30.0474,0,0.000885,0,0
0:2:15.324,235.422,29.9784,0,0.000885,0,0
0:2:15.524,235.894,30.0336,0,0.000885,0,0
0:2:15.719,236.712,30.137,0,0.000885,0,0
0:2:15.919,237.241,30.2059,0,0.000885,0,0
0:2:16.125,237.006,30.1784,0,0.000885,0,0
0:2:16.320,237.299,30.2128,0,0.000885,0,0
0:2:16.521,238.002,30.3025,0,0.000885,0,0
0:2:16.726,237.944,30.2956,0,0.000885,0,0
0:2:16.923,238.941,30.4197,0,0.000885,0,0
0:2:17.122,238.647,30.3852,0,0.000885,0,0
0:2:17.325,239.412,30.4817,0,0.000885,0,0
0:2:17.525,239.879,30.5438,0,0.000885,0,0
0:2:17.722,240.115,30.5714,0,0.000885,0,0
0:2:17.920,240.996,30.6817,0,0.000885,0,0
0:2:18.121,241.641,30.7644,0,0.000885,0,0
0:2:18.321,241.641,30.7644,0,0.000885,0,0
0:2:18.523,242.344,30.854,0,0.000885,0,0
0:2:18.725,242.166,30.8334,0,0.000885,0,0
0:2:18.923,242.459,30.8678,0,0.000885,0,0
0:2:19.124,243.282,30.9781,0,0.000885,0,0
0:2:19.323,243.985,31.0678,0,0.000885,0,0
0:2:19.523,243.985,31.0678,0,0.000885,0,0
0:2:19.722,244.688,31.1574,0,0.000885,0,0
0:2:19.926,244.336,31.1091,0,0.000885,0,0
0:2:20.127,244.866,31.1781,0,0.000885,0,0
0:2:20.323,245.804,31.2953,0,0.000885,0,0
0:2:20.521,246.04,31.3298,0,0.000885,0,0
0:2:20.721,246.098,31.3367,0,0.000885,0,0
0:2:20.925,246.921,31.4401,0,0.000885,0,0
0:2:21.126,246.801,31.4263,0,0.000885,0,0
0:2:21.320,247.566,31.5228,0,0.000885,0,0
0:2:21.527,248.211,31.6056,0,0.000885,0,0
0:2:21.726,248.211,31.6056,0,0.000885,0,0
0:2:21.921,248.326,31.6194,0,0.000885,0,0
0:2:22.121,248.736,31.6676,0,0.000885,0,0
0:2:22.327,249.323,31.7435,0,0.000885,0,0
0:2:22.523,250.204,31.8538,0,0.000885,0,0
0:2:22.723,250.088,31.84,0,0.000885,0,0
0:2:22.926,250.088,31.84,0,0.000885,0,0
0:2:23.127,251.316,31.9986,0,0.000885,0,0
0:2:23.327,251.142,31.9779,0,0.000885,0,0
0:2:23.529,251.961,32.0813,0,0.000885,0,0
0:2:23.731,252.139,32.102,0,0.000885,0,0
0:2:23.930,252.668,32.1709,0,0.000885,0,0
0:2:24.131,253.193,32.2399,0,0.000885,0,0
0:2:24.331,253.78,32.3157,0,0.000885,0,0
0:2:24.530,253.429,32.2675,0,0.000885,0,0
0:2:24.732,254.483,32.4054,0,0.000885,0,0
0:2:24.926,254.425,32.3916,0,0.000885,0,0
0:2:25.123,254.425,32.3916,0,0.000885,0,0
0:2:25.324,255.364,32.5157,0,0.000885,0,0
0:2:25.527,255.599,32.5433,0,0.000885,0,0
0:2:25.727,256.129,32.6122,0,0.000885,0,0
0:2:25.924,256.596,32.6674,0,0.000885,0,0
0:2:26.121,257.067,32.7294,0,0.000885,0,0
0:2:26.321,257.298,32.757,0,0.000885,0,0
0:2:26.525,257.476,32.7846,0,0.000885,0,0
0:2:26.724,258.295,32.888,0,0.000885,0,0
0:2:26.922,258.709,32.9363,0,0.000885,0,0
0:2:27.125,259.06,32.9845,0,0.000885,0,0
0:2:27.326,259.763,33.0742,0,0.000885,0,0
0:2:27.521,259.176,32.9983,0,0.000885,0,0
0:2:27.719,260.056,33.1086,0,0.000885,0,0
0:2:27.917,260.234,33.1362,0,0.000885,0,0
0:2:28.121,260.114,33.1155,0,0.000885,0,0
0:2:28.322,261.231,33.2603,0,0.000885,0,0
0:2:28.523,261.462,33.2879,0,0.000885,0,0
0:2:28.724,261.698,33.3224,0,0.000885,0,0
0:2:28.926,262.343,33.4051,0,0.000885,0,0
0:2:29.126,262.227,33.3844,0,0.000885,0,0
0:2:29.328,263.517,33.5499,0,0.000885,0,0
0:2:29.525,263.046,33.4947,0,0.000885,0,0
0:2:29.727,264.571,33.6878,0,0.000885,0,0
0:2:29.927,264.046,33.6188,0,0.000885,0,0
0:2:30.120,265.216,33.7705,0,0.000885,0,0
0:2:30.319,264.629,33.6947,0,0.000885,0,0
0:2:30.528,265.51,33.805,0,0.000885,0,0
0:2:30.723,265.861,33.8533,0,0.000885,0,0
0:2:30.924,266.448,33.9222,0,0.000885,0,0
0:2:31.127,266.626,33.9498,0,0.000885,0,0
0:2:31.325,266.92,33.9843,0,0.000885,0,0
0:2:31.524,267.445,34.0532,0,0.000885,0,0
0:2:31.728,267.681,34.0808,0,0.000885,0,0
0:2:31.929,268.383,34.1704,0,0.000885,0,0
0:2:32.125,268.441,34.1773,0,0.000885,0,0
0:2:32.321,268.797,34.2256,0,0.000885,0,0
0:2:32.522,269.149,34.2669,0,0.000885,0,0
0:2:32.725,269.322,34.2945,0,0.000885,0,0
0:2:32.926,270.261,34.4117,0,0.000885,0,0
0:2:33.122,269.851,34.3566,0,0.000885,0,0
0:2:33.327,270.732,34.4738,0,0.000885,0,0
0:2:33.528,270.848,34.4876,0,0.000885,0,0
0:2:33.728,271.199,34.5289,0,0.000885,0,0
0:2:33.930,271.729,34.5979,0,0.000885,0,0
0:2:34.132,271.902,34.6186,0,0.000885,0,0
0:2:34.331,272.547,34.7013,0,0.000885,0,0
0:2:34.532,272.961,34.7565,0,0.000885,0,0
0:2:34.733,273.37,34.8047,0,0.000885,0,0
0:2:34.933,274.193,34.9082,0,0.000885,0,0
0:2:35.133,274.486,34.9495,0,0.000885,0,0
0:2:35.327,274.308,34.9288,0,0.000885,0,0
0:2:35.527,274.486,34.9495,0,0.000885,0,0
0:2:35.722,275.656,35.1012,0,0.000885,0,0
0:2:35.921,276.008,35.1426,0,0.000885,0,0
0:2:36.121,276.07,35.1495,0,0.000885,0,0
0:2:36.324,276.128,35.1564,0,0.000885,0,0
0:2:36.524,276.715,35.2322,0,0.000885,0,0
0:2:36.720,276.946,35.2598,0,0.000885,0,0
0:2:36.916,277.476,35.3287,0,0.000885,0,0
0:2:37.117,277.711,35.3563,0,0.000885,0,0
0:2:37.321,278.356,35.4391,0,0.000885,0,0
0:2:37.520,278.299,35.4322,0,0.000885,0,0
0:2:37.716,278.881,35.508,0,0.000885,0,0
0:2:37.923,279.175,35.5425,0,0.000885,0,0
0:2:38.125,279.762,35.6183,0,0.000885,0,0
0:2:38.325,279.882,35.6321,0,0.000885,0,0
0:2:38.528,280.171,35.6735,0,0.000885,0,0
0:2:38.730,280.407,35.7011,0,0.000885,0,0
0:2:38.931,280.465,35.7079,0,0.000885,0,0
0:2:39.131,280.879,35.7631,0,0.000885,0,0
0:2:39.331,280.994,35.7769,0,0.000885,0,0
0:2:39.530,280.879,35.7631,0,0.000885,0,0
0:2:39.731,280.879,35.7631,0,0.000885,0,0
0:2:39.923,281.23,35.8045,0,0.000885,0,0
0:2:40.124,280.936,35.77,0,0.000885,0,0
0:2:40.321,281.403,35.8321,0,0.000885,0,0
0:2:40.526,281.581,35.8527,0,0.000885,0,0
0:2:40.725,281.523,35.8458,0,0.000885,0,0
0:2:40.928,281.697,35.8665,0,0.000885,0,0
0:2:41.128,282.048,35.9148,0,0.000885,0,0
0:2:41.327,281.875,35.8872,0,0.000885,0,0
0:2:41.521,281.346,35.8252,0,0.000885,0,0
0:2:41.721,281.052,35.7838,0,0.000885,0,0
0:2:41.915,280.821,35.7562,0,0.000885,0,0
0:2:42.111,280.527,35.7148,0,0.000885,0,0
0:2:42.311,280.056,35.6597,0,0.000885,0,0
0:2:42.514,279.704,35.6114,0,0.000885,0,0
0:2:42.713,278.823,35.5011,0,0.000885,0,0
0:2:42.921,278.236,35.4253,0,0.000885,0,0
0:2:43.115,277.36,35.3149,0,0.000885,0,0
0:2:43.314,276.186,35.1633,0,0.000885,0,0
0:2:43.514,273.486,34.8185,0,0.000885,0,0
0:2:43.716,271.671,34.591,0,0.000885,0,0
0:2:43.917,267.151,34.0118,0,0.000885,0,0
0:2:44.116,265.568,33.8119,0,0.000885,0,0
0:2:44.317,260.937,33.2258,0,0.000885,0,0
0:2:44.516,258.709,32.9363,0,0.000885,0,0
0:2:44.716,255.835,32.5708,0,0.000885,0,0
0:2:44.915,249.149,31.7228,0,0.000885,0,0
0:2:45.108,245.862,31.3022,0,0.000885,0,0
0:2:45.308,238.122,30.3162,0,0.000885,0,0
0:2:45.505,233.136,29.6819,0,0.000885,0,0
0:2:45.710,222.932,28.3857,0,0.000885,0,0
0:2:45.910,217.064,27.6342,0,0.000885,0,0
0:2:46.104,204.516,26.0415,0,0.000885,0,0
0:2:46.303,198.649,25.29,0,0.000885,0,0
0:2:46.335,198.649,25.29,0,0.000885,0,0