File: DataFile2021-06-06_060510.csv
Test ID:,Date Tested:,Time:,Test Type:,Diameter Avg. (mm):,Cyl. Corr. Factor:,Height (mm):,Age (days):,Weight (kN):,Break Type:,Ramp Rate (MPa/s):,Load at Break (kN):,Stress at Break (MPa):
12,6/6/2021,06:05,Cylinder,150,1,300,0,13.39,3,0.24,695.21,39.34
Sample Time,Load (kN),Stress (MPa),Long. Strain,Trans. Strain,Chan1 Deflection (mm),Chan2 Deflection (mm)
0:0:21.274,6.21861,0.351633,0,0.000885,0,0
0:0:21.474,15.9513,0.903213,0,0.000885,0,0
0:0:21.680,17.5349,0.992845,0,0.000885,0,0
0:0:21.880,17.1835,0.972161,0,0.000885,0,0
0:0:22.079,16.6586,0.944582,0,0.000885,0,0
0:0:22.285,16.365,0.923897,0,0.000885,0,0
0:0:22.486,15.9513,0.903213,0,0.000885,0,0
0:0:22.681,15.72,0.889424,0,0.000885,0,0
0:0:22.882,15.3063,0.868739,0,0.000885,0,0
0:0:23.080,14.8393,0.84116,0,0.000885,0,0
0:0:23.278,15.6577,0.889424,0,0.000885,0,0
0:0:23.478,15.4843,0.875634,0,0.000885,0,0
0:0:23.681,16.1871,0.917003,0,0.000885,0,0
0:0:23.883,16.0714,0.910108,0,0.000885,0,0
0:0:24.080,16.365,0.923897,0,0.000885,0,0
0:0:24.274,16.6586,0.944582,0,0.000885,0,0
0:0:24.478,17.5349,0.992845,0,0.000885,0,0
0:0:24.682,17.8863,1.01353,0,0.000885,0,0
0:0:24.884,18.7092,1.06179,0,0.000885,0,0
0:0:25.084,19.5321,1.10316,0,0.000885,0,0
0:0:25.280,22.2856,1.26174,0,0.000885,0,0
0:0:25.482,22.6993,1.28242,0,0.000885,0,0
0:0:25.679,24.2828,1.37206,0,0.000885,0,0
0:0:25.879,25.1013,1.42032,0,0.000885,0,0
0:0:26.079,26.9206,1.52374,0,0.000885,0,0
0:0:26.273,27.5078,1.55822,0,0.000885,0,0
0:0:26.474,28.1528,1.59269,0,0.000885,0,0
0:0:26.680,29.5006,1.66853,0,0.000885,0,0
0:0:26.884,30.2657,1.7099,0,0.000885,0,0
0:0:27.088,31.3778,1.77885,0,0.000885,0,0
0:0:27.290,32.432,1.83401,0,0.000885,0,0
0:0:27.492,33.8999,1.91674,0,0.000885,0,0
0:0:27.691,34.0156,1.92364,0,0.000885,0,0
0:0:27.895,35.3678,1.99948,0,0.000885,0,0
0:0:28.097,35.5991,2.01327,0,0.000885,0,0
0:0:28.296,36.6578,2.07532,0,0.000885,0,0
0:0:28.498,37.3028,2.1098,0,0.000885,0,0
0:0:28.693,38.4148,2.17185,0,0.000885,0,0
0:0:28.894,38.8864,2.19943,0,0.000885,0,0
0:0:29.094,40.2342,2.27527,0,0.000885,0,0
0:0:29.290,40.4121,2.28906,0,0.000885,0,0
0:0:29.492,41.6398,2.35801,0,0.000885,0,0
0:0:29.688,42.0535,2.37869,0,0.000885,0,0
0:0:29.889,43.4013,2.45453,0,0.000885,0,0
0:0:30.089,44.1619,2.4959,0,0.000885,0,0
0:0:30.285,45.5142,2.57864,0,0.000885,0,0
0:0:30.488,45.6877,2.58553,0,0.000885,0,0
0:0:30.684,47.0355,2.66138,0,0.000885,0,0
0:0:30.884,47.3291,2.67517,0,0.000885,0,0
0:0:31.085,48.6813,2.7579,0,0.000885,0,0
0:0:31.281,49.2062,2.78548,0,0.000885,0,0
0:0:31.484,50.6163,2.86132,0,0.000885,0,0
0:0:31.686,51.6127,2.92338,0,0.000885,0,0
0:0:31.890,52.9027,2.99232,0,0.000885,0,0
0:0:32.093,53.3698,3.0199,0,0.000885,0,0
0:0:32.296,54.5441,3.08885,0,0.000885,0,0
0:0:32.497,54.9533,3.10954,0,0.000885,0,0
0:0:32.699,56.2478,3.18538,0,0.000885,0,0
0:0:32.901,57.1863,3.23364,0,0.000885,0,0
0:0:33.102,57.5377,3.25433,0,0.000885,0,0
0:0:33.299,58.5341,3.30948,0,0.000885,0,0
0:0:33.498,59.3526,3.35775,0,0.000885,0,0
0:0:33.700,59.8241,3.38533,0,0.000885,0,0
0:0:33.895,60.527,3.42669,0,0.000885,0,0
0:0:34.098,61.8169,3.49564,0,0.000885,0,0
0:0:34.294,62.6399,3.54391,0,0.000885,0,0
0:0:34.493,63.872,3.61285,0,0.000885,0,0
0:0:34.695,64.1033,3.62664,0,0.000885,0,0
0:0:34.893,65.2198,3.6887,0,0.000885,0,0
0:0:35.093,66.1584,3.74385,0,0.000885,0,0
0:0:35.292,67.5062,3.8197,0,0.000885,0,0
0:0:35.488,67.8576,3.84038,0,0.000885,0,0
0:0:35.690,69.3255,3.92312,0,0.000885,0,0
0:0:35.888,69.5613,3.93691,0,0.000885,0,0
0:0:36.087,70.9091,4.01275,0,0.000885,0,0
0:0:36.287,71.3762,4.04033,0,0.000885,0,0
0:0:36.483,72.0834,4.0817,0,0.000885,0,0
0:0:36.686,72.9597,4.12996,0,0.000885,0,0
0:0:36.887,73.7248,4.17133,0,0.000885,0,0
0:0:37.091,74.8947,4.24028,0,0.000885,0,0
0:0:37.293,75.7176,4.28164,0,0.000885,0,0
0:0:37.496,77.0654,4.36438,0,0.000885,0,0
0:0:37.698,78.3554,4.43333,0,0.000885,0,0
0:0:37.900,78.7691,4.45401,0,0.000885,0,0
0:0:38.101,79.294,4.48849,0,0.000885,0,0
0:0:38.305,80.2326,4.54365,0,0.000885,0,0
0:0:38.499,81.229,4.5988,0,0.000885,0,0
0:0:38.701,82.3455,4.66086,0,0.000885,0,0
0:0:38.901,82.6969,4.68154,0,0.000885,0,0
0:0:39.100,84.4584,4.77807,0,0.000885,0,0
0:0:39.301,85.1612,4.81944,0,0.000885,0,0
0:0:39.497,86.042,4.8677,0,0.000885,0,0
0:0:39.697,86.3934,4.88838,0,0.000885,0,0
0:0:39.898,87.5054,4.95044,0,0.000885,0,0
0:0:40.094,88.0926,4.98491,0,0.000885,0,0
0:0:40.296,89.1468,5.04696,0,0.000885,0,0
0:0:40.493,89.7918,5.08144,0,0.000885,0,0
0:0:40.692,91.2597,5.16417,0,0.000885,0,0
0:0:40.893,91.8469,5.19865,0,0.000885,0,0
0:0:41.089,93.3148,5.28138,0,0.000885,0,0
0:0:41.291,93.6084,5.29517,0,0.000885,0,0
0:0:41.490,94.4847,5.34344,0,0.000885,0,0
0:0:41.688,95.1919,5.38481,0,0.000885,0,0
0:0:41.890,95.659,5.41238,0,0.000885,0,0
0:0:42.093,97.0068,5.48823,0,0.000885,0,0
0:0:42.297,98.0032,5.54338,0,0.000885,0,0
0:0:42.500,99.2932,5.61923,0,0.000885,0,0
0:0:42.701,99.8804,5.6537,0,0.000885,0,0
0:0:42.905,100.877,5.70886,0,0.000885,0,0
0:0:43.105,101.406,5.73644,0,0.000885,0,0
0:0:43.308,102.58,5.80539,0,0.000885,0,0
0:0:43.508,103.225,5.83986,0,0.000885,0,0
0:0:43.704,104.867,5.93639,0,0.000885,0,0
0:0:43.907,105.338,5.96397,0,0.000885,0,0
0:0:44.103,106.45,6.02602,0,0.000885,0,0
0:0:44.304,106.628,6.03291,0,0.000885,0,0
0:0:44.504,107.211,6.06739,0,0.000885,0,0
0:0:44.698,107.918,6.10875,0,0.000885,0,0
0:0:44.901,109.618,6.20528,0,0.000885,0,0
0:0:45.099,110.32,6.23976,0,0.000885,0,0
0:0:45.298,111.788,6.32249,0,0.000885,0,0
0:0:45.500,112.14,6.34318,0,0.000885,0,0
0:0:45.696,113.136,6.40523,0,0.000885,0,0
0:0:45.896,113.781,6.4397,0,0.000885,0,0
0:0:46.096,115.485,6.53623,0,0.000885,0,0
0:0:46.293,115.716,6.55002,0,0.000885,0,0
0:0:46.496,116.833,6.61207,0,0.000885,0,0
0:0:46.699,117.651,6.66034,0,0.000885,0,0
0:0:46.904,118.71,6.71549,0,0.000885,0,0
0:0:47.106,119.177,6.74307,0,0.000885,0,0
0:0:47.308,120.235,6.80513,0,0.000885,0,0
0:0:47.510,120.938,6.84649,0,0.000885,0,0
0:0:47.712,121.877,6.89476,0,0.000885,0,0
0:0:47.914,122.873,6.94992,0,0.000885,0,0
0:0:48.114,123.167,6.9706,0,0.000885,0,0
0:0:48.309,124.693,7.05334,0,0.000885,0,0
0:0:48.511,125.631,7.10849,0,0.000885,0,0
0:0:48.710,126.628,7.16365,0,0.000885,0,0
0:0:48.909,127.273,7.20502,0,0.000885,0,0
0:0:49.110,128.385,7.26707,0,0.000885,0,0
0:0:49.305,128.972,7.30155,0,0.000885,0,0
0:0:49.506,130.382,7.37739,0,0.000885,0,0
0:0:49.707,130.965,7.41186,0,0.000885,0,0
0:0:49.905,131.965,7.46702,0,0.000885,0,0
0:0:50.106,132.548,7.5015,0,0.000885,0,0
0:0:50.301,133.607,7.56355,0,0.000885,0,0
0:0:50.501,134.367,7.60492,0,0.000885,0,0
0:0:50.701,135.542,7.66697,0,0.000885,0,0
0:0:50.898,136.071,7.70144,0,0.000885,0,0
0:0:51.100,137.125,7.7566,0,0.000885,0,0
0:0:51.295,137.655,7.79108,0,0.000885,0,0
0:0:51.496,138.3,7.82555,0,0.000885,0,0
0:0:51.698,139.118,7.87381,0,0.000885,0,0
0:0:51.901,140.057,7.92897,0,0.000885,0,0
0:0:52.104,141.64,8.0186,0,0.000885,0,0
0:0:52.306,142.227,8.04618,0,0.000885,0,0
0:0:52.509,143.517,8.12202,0,0.000885,0,0
0:0:52.711,143.811,8.13581,0,0.000885,0,0
0:0:52.912,145.573,8.23923,0,0.000885,0,0
0:0:53.113,146.097,8.26681,0,0.000885,0,0
0:0:53.313,147.507,8.34955,0,0.000885,0,0
0:0:53.511,148.032,8.37713,0,0.000885,0,0
0:0:53.712,149.091,8.43918,0,0.000885,0,0
0:0:53.908,149.794,8.47366,0,0.000885,0,0
0:0:54.109,150.732,8.52881,0,0.000885,0,0
0:0:54.308,151.377,8.56329,0,0.000885,0,0
0:0:54.504,152.138,8.61155,0,0.000885,0,0
0:0:54.707,152.961,8.65292,0,0.000885,0,0
0:0:54.905,154.015,8.71497,0,0.000885,0,0
0:0:55.104,154.429,8.73566,0,0.000885,0,0
0:0:55.305,155.777,8.81839,0,0.000885,0,0
0:0:55.499,156.302,8.84597,0,0.000885,0,0
0:0:55.701,157.418,8.90803,0,0.000885,0,0
0:0:55.900,158.179,8.94939,0,0.000885,0,0
0:0:56.097,158.708,8.98387,0,0.000885,0,0
0:0:56.299,159.882,9.04592,0,0.000885,0,0
0:0:56.494,160.407,9.0804,0,0.000885,0,0
0:0:56.696,161.933,9.16313,0,0.000885,0,0
0:0:56.898,162.52,9.19761,0,0.000885,0,0
0:0:57.101,163.637,9.25966,0,0.000885,0,0
0:0:57.305,164.34,9.30103,0,0.000885,0,0
0:0:57.507,165.394,9.35619,0,0.000885,0,0
0:0:57.708,165.923,9.39066,0,0.000885,0,0
0:0:57.910,167.449,9.4734,0,0.000885,0,0
0:0:58.112,167.974,9.50787,0,0.000885,0,0
0:0:58.315,169.032,9.56303,0,0.000885,0,0
0:0:58.511,169.615,9.5975,0,0.000885,0,0
0:0:58.711,171.083,9.68024,0,0.000885,0,0
0:0:58.911,171.786,9.72161,0,0.000885,0,0
0:0:59.109,172.845,9.78366,0,0.000885,0,0
0:0:59.310,173.721,9.83192,0,0.000885,0,0
0:0:59.508,174.722,9.88708,0,0.000885,0,0
0:0:59.705,175.131,9.90777,0,0.000885,0,0
0:0:59.907,176.185,9.96982,0,0.000885,0,0
0:1:0.102,176.657,9.9974,0,0.000885,0,0
0:1:0.305,177.889,10.0663,0,0.000885,0,0
0:1:0.504,178.472,10.1008,0,0.000885,0,0
0:1:0.701,179.646,10.1629,0,0.000885,0,0
0:1:0.902,180.469,10.2111,0,0.000885,0,0
0:1:1.098,181.229,10.2525,0,0.000885,0,0
0:1:1.300,182.226,10.3146,0,0.000885,0,0
0:1:1.497,182.933,10.349,0,0.000885,0,0
0:1:1.694,184.045,10.418,0,0.000885,0,0
0:1:1.897,184.575,10.4456,0,0.000885,0,0
0:1:2.101,185.807,10.5145,0,0.000885,0,0
0:1:2.302,186.683,10.5628,0,0.000885,0,0
0:1:2.507,187.915,10.6317,0,0.000885,0,0
0:1:2.709,188.093,10.6455,0,0.000885,0,0
0:1:2.912,189.205,10.7076,0,0.000885,0,0
0:1:3.111,189.85,10.742,0,0.000885,0,0
0:1:3.313,191.024,10.811,0,0.000885,0,0
0:1:3.515,191.554,10.8386,0,0.000885,0,0
0:1:3.712,192.55,10.8937,0,0.000885,0,0
0:1:3.912,193.369,10.942,0,0.000885,0,0
0:1:4.109,194.485,11.004,0,0.000885,0,0
0:1:4.307,195.188,11.0454,0,0.000885,0,0
0:1:4.507,196.892,11.1419,0,0.000885,0,0
0:1:4.700,197.181,11.1557,0,0.000885,0,0
0:1:4.901,198.591,11.2385,0,0.000885,0,0
0:1:5.097,199.351,11.2798,0,0.000885,0,0
0:1:5.295,199.881,11.3143,0,0.000885,0,0
0:1:5.495,200.704,11.3557,0,0.000885,0,0
0:1:5.688,201.349,11.397,0,0.000885,0,0
0:1:5.889,202.581,11.466,0,0.000885,0,0
0:1:6.086,203.106,11.4936,0,0.000885,0,0
0:1:6.282,204.28,11.5625,0,0.000885,0,0
0:1:6.481,204.867,11.5901,0,0.000885,0,0
0:1:6.683,206.157,11.6659,0,0.000885,0,0
0:1:6.885,206.918,11.7073,0,0.000885,0,0
0:1:7.087,207.914,11.7625,0,0.000885,0,0
0:1:7.287,208.622,11.8038,0,0.000885,0,0
0:1:7.489,209.618,11.859,0,0.000885,0,0
0:1:7.688,210.027,11.8866,0,0.000885,0,0
0:1:7.889,211.433,11.9624,0,0.000885,0,0
0:1:8.089,212.082,12.0038,0,0.000885,0,0
0:1:8.284,212.959,12.052,0,0.000885,0,0
0:1:8.484,213.252,12.0658,0,0.000885,0,0
0:1:8.690,214.542,12.1417,0,0.000885,0,0
0:1:8.890,215.249,12.183,0,0.000885,0,0
0:1:9.087,216.246,12.2382,0,0.000885,0,0
0:1:9.283,217.416,12.3002,0,0.000885,0,0
0:1:9.484,218.181,12.3485,0,0.000885,0,0
0:1:9.689,219.235,12.4037,0,0.000885,0,0
0:1:9.888,219.88,12.445,0,0.000885,0,0
0:1:10.086,221.054,12.5071,0,0.000885,0,0
0:1:10.289,221.464,12.5347,0,0.000885,0,0
0:1:10.490,222.638,12.5967,0,0.000885,0,0
0:1:10.686,223.341,12.6381,0,0.000885,0,0
0:1:10.885,224.751,12.7208,0,0.000885,0,0
0:1:11.085,225.102,12.7415,0,0.000885,0,0
0:1:11.288,226.156,12.7967,0,0.000885,0,0
0:1:11.489,226.859,12.838,0,0.000885,0,0
0:1:11.689,227.976,12.9001,0,0.000885,0,0
0:1:11.891,228.501,12.9277,0,0.000885,0,0
0:1:12.092,229.733,13.0035,0,0.000885,0,0
0:1:12.293,230.32,13.0311,0,0.000885,0,0
0:1:12.494,232.019,13.1276,0,0.000885,0,0
0:1:12.693,232.433,13.1552,0,0.000885,0,0
0:1:12.894,233.665,13.2241,0,0.000885,0,0
0:1:13.095,234.604,13.2724,0,0.000885,0,0
0:1:13.289,235.658,13.3345,0,0.000885,0,0
0:1:13.489,236.303,13.3689,0,0.000885,0,0
0:1:13.685,236.948,13.4103,0,0.000885,0,0
0:1:13.880,237.709,13.4517,0,0.000885,0,0
0:1:14.083,237.944,13.4655,0,0.000885,0,0
0:1:14.276,239.586,13.5551,0,0.000885,0,0
0:1:14.476,239.821,13.5689,0,0.000885,0,0
0:1:14.673,241.054,13.6378,0,0.000885,0,0
0:1:14.877,241.814,13.6861,0,0.000885,0,0
0:1:15.078,243.046,13.755,0,0.000885,0,0
0:1:15.286,243.398,13.7757,0,0.000885,0,0
0:1:15.485,244.866,13.8585,0,0.000885,0,0
0:1:15.683,245.395,13.886,0,0.000885,0,0
0:1:15.875,246.801,13.9688,0,0.000885,0,0
0:1:16.076,247.094,13.9826,0,0.000885,0,0
0:1:16.285,248.5,14.0653,0,0.000885,0,0
0:1:16.492,249.323,14.1067,0,0.000885,0,0
0:1:16.693,249.968,14.148,0,0.000885,0,0
0:1:16.896,250.555,14.1756,0,0.000885,0,0
0:1:17.097,251.961,14.2584,0,0.000885,0,0
0:1:17.298,252.841,14.3066,0,0.000885,0,0
0:1:17.499,253.544,14.348,0,0.000885,0,0
0:1:17.700,254.483,14.4031,0,0.000885,0,0
0:1:17.901,255.599,14.4652,0,0.000885,0,0
0:1:18.102,255.835,14.479,0,0.000885,0,0
0:1:18.298,257.476,14.5686,0,0.000885,0,0
0:1:18.497,258.179,14.61,0,0.000885,0,0
0:1:18.696,258.709,14.6376,0,0.000885,0,0
0:1:18.889,259.469,14.6858,0,0.000885,0,0
0:1:19.091,260.35,14.7341,0,0.000885,0,0
0:1:19.286,261.462,14.7961,0,0.000885,0,0
0:1:19.484,262.401,14.8513,0,0.000885,0,0
0:1:19.685,263.691,14.9203,0,0.000885,0,0
0:1:19.887,264.336,14.9616,0,0.000885,0,0
0:1:20.088,265.274,15.0099,0,0.000885,0,0
0:1:20.285,265.63,15.0306,0,0.000885,0,0
0:1:20.492,267.036,15.1133,0,0.000885,0,0
0:1:20.692,267.445,15.134,0,0.000885,0,0
0:1:20.886,268.383,15.1892,0,0.000885,0,0
0:1:21.086,268.971,15.2236,0,0.000885,0,0
0:1:21.292,270.381,15.2995,0,0.000885,0,0
0:1:21.489,271.084,15.3408,0,0.000885,0,0
0:1:21.690,271.844,15.3822,0,0.000885,0,0
0:1:21.892,272.609,15.4236,0,0.000885,0,0
0:1:22.095,273.721,15.4925,0,0.000885,0,0
0:1:22.296,274.486,15.5339,0,0.000885,0,0
0:1:22.496,276.008,15.6166,0,0.000885,0,0
0:1:22.696,276.421,15.6442,0,0.000885,0,0
0:1:22.897,278.063,15.7338,0,0.000885,0,0
0:1:23.098,278.708,15.7683,0,0.000885,0,0
0:1:23.295,279.059,15.789,0,0.000885,0,0
0:1:23.491,279.94,15.8442,0,0.000885,0,0
0:1:23.693,280.701,15.8855,0,0.000885,0,0
0:1:23.888,282.404,15.982,0,0.000885,0,0
0:1:24.086,282.871,16.0096,0,0.000885,0,0
0:1:24.285,283.752,16.0579,0,0.000885,0,0
0:1:24.490,284.277,16.0855,0,0.000885,0,0
0:1:24.690,285.861,16.1751,0,0.000885,0,0
0:1:24.887,286.096,16.1889,0,0.000885,0,0
0:1:25.085,287.213,16.2509,0,0.000885,0,0
0:1:25.284,287.858,16.2923,0,0.000885,0,0
0:1:25.488,288.97,16.3544,0,0.000885,0,0
0:1:25.689,289.263,16.3682,0,0.000885,0,0
0:1:25.886,290.967,16.4647,0,0.000885,0,0
0:1:26.092,291.612,16.4992,0,0.000885,0,0
0:1:26.292,292.608,16.5612,0,0.000885,0,0
0:1:26.485,293.018,16.5819,0,0.000885,0,0
0:1:26.687,294.423,16.6577,0,0.000885,0,0
0:1:26.887,294.837,16.6853,0,0.000885,0,0
0:1:27.091,296.007,16.7474,0,0.000885,0,0
0:1:27.292,296.714,16.7887,0,0.000885,0,0
0:1:27.493,297.239,16.8232,0,0.000885,0,0
0:1:27.694,298.471,16.8922,0,0.000885,0,0
0:1:27.893,298.823,16.9128,0,0.000885,0,0
0:1:28.094,300.175,16.9887,0,0.000885,0,0
0:1:28.294,300.878,17.0232,0,0.000885,0,0
0:1:28.489,302.403,17.1128,0,0.000885,0,0
0:1:28.689,303.048,17.1473,0,0.000885,0,0
0:1:28.887,303.867,17.1955,0,0.000885,0,0
0:1:29.081,304.338,17.2231,0,0.000885,0,0
0:1:29.285,306.095,17.3196,0,0.000885,0,0
0:1:29.488,306.567,17.3472,0,0.000885,0,0
0:1:29.686,308.386,17.4506,0,0.000885,0,0
0:1:29.886,308.618,17.4644,0,0.000885,0,0
0:1:30.078,309.205,17.4989,0,0.000885,0,0
0:1:30.280,309.792,17.5334,0,0.000885,0,0
0:1:30.487,310.966,17.5954,0,0.000885,0,0
0:1:30.686,311.727,17.6368,0,0.000885,0,0
0:1:30.884,313.075,17.7195,0,0.000885,0,0
0:1:31.090,313.253,17.7264,0,0.000885,0,0
0:1:31.291,314.427,17.7954,0,0.000885,0,0
0:1:31.485,315.423,17.8505,0,0.000885,0,0
0:1:31.693,316.887,17.9333,0,0.000885,0,0
0:1:31.894,317.71,17.9815,0,0.000885,0,0
0:1:32.097,318.355,18.016,0,0.000885,0,0
0:1:32.299,319.115,18.0574,0,0.000885,0,0
0:1:32.500,319.645,18.0849,0,0.000885,0,0
0:1:32.701,321.055,18.1677,0,0.000885,0,0
0:1:32.901,321.406,18.1884,0,0.000885,0,0
0:1:33.101,321.993,18.2228,0,0.000885,0,0
0:1:33.302,323.105,18.2849,0,0.000885,0,0
0:1:33.498,324.395,18.3538,0,0.000885,0,0
0:1:33.696,325.098,18.3952,0,0.000885,0,0
0:1:33.897,326.273,18.4642,0,0.000885,0,0
0:1:34.090,326.566,18.4779,0,0.000885,0,0
0:1:34.290,327.914,18.5538,0,0.000885,0,0
0:1:34.489,328.559,18.5952,0,0.000885,0,0
0:1:34.684,329.262,18.6296,0,0.000885,0,0
0:1:34.885,329.733,18.6572,0,0.000885,0,0
0:1:35.090,331.375,18.7537,0,0.000885,0,0
0:1:35.288,332.02,18.7882,0,0.000885,0,0
0:1:35.488,333.723,18.8847,0,0.000885,0,0
0:1:35.693,334.013,18.8985,0,0.000885,0,0
0:1:35.894,335.013,18.9606,0,0.000885,0,0
0:1:36.088,335.658,18.9951,0,0.000885,0,0
0:1:36.286,336.01,19.0157,0,0.000885,0,0
0:1:36.487,337.415,19.0916,0,0.000885,0,0
0:1:36.690,338.18,19.1398,0,0.000885,0,0
0:1:36.891,339.644,19.2226,0,0.000885,0,0
0:1:37.091,340.347,19.2571,0,0.000885,0,0
0:1:37.293,341.463,19.326,0,0.000885,0,0
0:1:37.492,342.166,19.3605,0,0.000885,0,0
0:1:37.693,343.634,19.4432,0,0.000885,0,0
0:1:37.894,344.101,19.4708,0,0.000885,0,0
0:1:38.090,344.808,19.5122,0,0.000885,0,0
0:1:38.286,345.453,19.5466,0,0.000885,0,0
0:1:38.487,346.272,19.5949,0,0.000885,0,0
0:1:38.691,346.743,19.6225,0,0.000885,0,0
0:1:38.891,348.385,19.7121,0,0.000885,0,0
0:1:39.088,348.972,19.7466,0,0.000885,0,0
0:1:39.282,349.617,19.7811,0,0.000885,0,0
0:1:39.481,350.493,19.8362,0,0.000885,0,0
0:1:39.690,351.961,19.919,0,0.000885,0,0
0:1:39.890,352.49,19.9465,0,0.000885,0,0
0:1:40.088,353.487,20.0017,0,0.000885,0,0
0:1:40.291,353.896,20.0293,0,0.000885,0,0
0:1:40.492,355.48,20.1189,0,0.000885,0,0
0:1:40.687,356.125,20.1534,0,0.000885,0,0
0:1:40.895,356.948,20.2016,0,0.000885,0,0
0:1:41.095,358.002,20.2568,0,0.000885,0,0
0:1:41.288,358.705,20.2982,0,0.000885,0,0
0:1:41.488,359.585,20.3464,0,0.000885,0,0
0:1:41.689,360.057,20.374,0,0.000885,0,0
0:1:41.892,361.053,20.4292,0,0.000885,0,0
0:1:42.093,361.756,20.4705,0,0.000885,0,0
0:1:42.294,362.637,20.5188,0,0.000885,0,0
0:1:42.494,363.455,20.5671,0,0.000885,0,0
0:1:42.695,364.865,20.6498,0,0.000885,0,0
0:1:42.894,365.453,20.6774,0,0.000885,0,0
0:1:43.096,367.21,20.7808,0,0.000885,0,0
0:1:43.291,368.148,20.836,0,0.000885,0,0
0:1:43.489,368.851,20.8704,0,0.000885,0,0
0:1:43.688,369.207,20.8911,0,0.000885,0,0
0:1:43.882,370.906,20.9876,0,0.000885,0,0
0:1:44.082,371.257,21.0083,0,0.000885,0,0
0:1:44.291,372.196,21.0635,0,0.000885,0,0
0:1:44.488,372.663,21.0911,0,0.000885,0,0
0:1:44.689,373.837,21.1531,0,0.000885,0,0
0:1:44.893,374.309,21.1807,0,0.000885,0,0
0:1:45.094,375.83,21.2703,0,0.000885,0,0
0:1:45.289,376.653,21.3117,0,0.000885,0,0
0:1:45.485,376.769,21.3186,0,0.000885,0,0
0:1:45.686,377.65,21.3737,0,0.000885,0,0
0:1:45.889,378.237,21.4013,0,0.000885,0,0
0:1:46.089,379.936,21.4979,0,0.000885,0,0
0:1:46.288,380.581,21.5392,0,0.000885,0,0
0:1:46.491,381.52,21.5875,0,0.000885,0,0
0:1:46.692,382.285,21.6357,0,0.000885,0,0
0:1:46.893,383.81,21.7185,0,0.000885,0,0
0:1:47.094,384.687,21.7667,0,0.000885,0,0
0:1:47.297,385.332,21.8081,0,0.000885,0,0
0:1:47.497,385.861,21.8357,0,0.000885,0,0
0:1:47.698,386.915,21.8977,0,0.000885,0,0
0:1:47.898,387.854,21.946,0,0.000885,0,0
0:1:48.099,389.38,22.0356,0,0.000885,0,0
0:1:48.300,389.615,22.0494,0,0.000885,0,0
0:1:48.494,390.847,22.1184,0,0.000885,0,0
0:1:48.695,391.844,22.1735,0,0.000885,0,0
0:1:48.891,392.84,22.2287,0,0.000885,0,0
0:1:49.088,393.485,22.2701,0,0.000885,0,0
0:1:49.289,394.366,22.3183,0,0.000885,0,0
0:1:49.492,394.953,22.3528,0,0.000885,0,0
0:1:49.692,395.892,22.4011,0,0.000885,0,0
0:1:49.890,396.595,22.4424,0,0.000885,0,0
0:1:50.082,397.591,22.4976,0,0.000885,0,0
0:1:50.283,398.356,22.539,0,0.000885,0,0
0:1:50.492,398.823,22.5665,0,0.000885,0,0
0:1:50.688,399.704,22.6217,0,0.000885,0,0
0:1:50.888,400.7,22.6769,0,0.000885,0,0
0:1:51.091,401.932,22.7458,0,0.000885,0,0
0:1:51.290,402.048,22.7527,0,0.000885,0,0
0:1:51.489,403.983,22.863,0,0.000885,0,0
0:1:51.683,404.455,22.8906,0,0.000885,0,0
0:1:51.883,405.802,22.9664,0,0.000885,0,0
0:1:52.087,406.447,23.0009,0,0.000885,0,0
0:1:52.290,407.035,23.0354,0,0.000885,0,0
0:1:52.491,407.737,23.0699,0,0.000885,0,0
0:1:52.691,409.441,23.1664,0,0.000885,0,0
0:1:52.891,410.086,23.2078,0,0.000885,0,0
0:1:53.091,411.14,23.2629,0,0.000885,0,0
0:1:53.291,411.67,23.2974,0,0.000885,0,0
0:1:53.491,412.96,23.3663,0,0.000885,0,0
0:1:53.684,413.427,23.3939,0,0.000885,0,0
0:1:53.887,414.774,23.4698,0,0.000885,0,0
0:1:54.091,415.655,23.518,0,0.000885,0,0
0:1:54.289,416.594,23.5732,0,0.000885,0,0
0:1:54.488,417.123,23.6076,0,0.000885,0,0
0:1:54.693,417.826,23.6421,0,0.000885,0,0
0:1:54.893,419,23.7111,0,0.000885,0,0
0:1:55.089,419.467,23.7386,0,0.000885,0,0
0:1:55.284,420.757,23.8076,0,0.000885,0,0
0:1:55.483,421.344,23.8421,0,0.000885,0,0
0:1:55.690,421.932,23.8765,0,0.000885,0,0
0:1:55.891,423.048,23.9386,0,0.000885,0,0
0:1:56.088,423.982,23.9938,0,0.000885,0,0
0:1:56.293,424.569,24.0282,0,0.000885,0,0
0:1:56.494,425.566,24.0834,0,0.000885,0,0
0:1:56.695,426.331,24.1248,0,0.000885,0,0
0:1:56.898,427.443,24.1868,0,0.000885,0,0
0:1:57.100,428.382,24.242,0,0.000885,0,0
0:1:57.301,429.32,24.2971,0,0.000885,0,0
0:1:57.500,429.907,24.3247,0,0.000885,0,0
0:1:57.701,430.966,24.3868,0,0.000885,0,0
0:1:57.902,431.727,24.4281,0,0.000885,0,0
0:1:58.101,433.426,24.5247,0,0.000885,0,0
0:1:58.295,434.191,24.5729,0,0.000885,0,0
0:1:58.495,435.245,24.6281,0,0.000885,0,0
0:1:58.692,435.654,24.6557,0,0.000885,0,0
0:1:58.890,437.238,24.7453,0,0.000885,0,0
0:1:59.091,437.709,24.766,0,0.000885,0,0
0:1:59.293,438.528,24.8142,0,0.000885,0,0
0:1:59.494,438.884,24.8349,0,0.000885,0,0
0:1:59.690,439.818,24.8901,0,0.000885,0,0
0:1:59.888,440.819,24.9452,0,0.000885,0,0
0:2:0.089,441.05,24.959,0,0.000885,0,0
0:2:0.292,442.696,25.0487,0,0.000885,0,0
0:2:0.491,443.572,25.1038,0,0.000885,0,0
0:2:0.689,444.217,25.1383,0,0.000885,0,0
0:2:0.883,444.924,25.1797,0,0.000885,0,0
0:2:1.084,445.743,25.221,0,0.000885,0,0
0:2:1.290,446.388,25.2624,0,0.000885,0,0
0:2:1.489,448.385,25.3727,0,0.000885,0,0
0:2:1.689,449.03,25.4072,0,0.000885,0,0
0:2:1.892,450.258,25.4761,0,0.000885,0,0
0:2:2.093,450.378,25.483,0,0.000885,0,0
0:2:2.295,451.726,25.5658,0,0.000885,0,0
0:2:2.496,452.371,25.6002,0,0.000885,0,0
0:2:2.695,452.958,25.6347,0,0.000885,0,0
0:2:2.896,454.012,25.6899,0,0.000885,0,0
0:2:3.097,455.009,25.745,0,0.000885,0,0
0:2:3.295,455.596,25.7795,0,0.000885,0,0
0:2:3.491,456.886,25.8553,0,0.000885,0,0
0:2:3.692,457.709,25.9036,0,0.000885,0,0
0:2:3.895,458.883,25.9657,0,0.000885,0,0
0:2:4.094,459.408,26.0001,0,0.000885,0,0
0:2:4.294,460.173,26.0415,0,0.000885,0,0
0:2:4.488,460.76,26.076,0,0.000885,0,0
0:2:4.688,461.699,26.1242,0,0.000885,0,0
0:2:4.893,462.926,26.1932,0,0.000885,0,0
0:2:5.091,463.514,26.2277,0,0.000885,0,0
0:2:5.290,464.572,26.2897,0,0.000885,0,0
0:2:5.493,464.924,26.3104,0,0.000885,0,0
0:2:5.694,466.507,26.4,0,0.000885,0,0
0:2:5.890,467.152,26.4345,0,0.000885,0,0
0:2:6.097,468.206,26.4966,0,0.000885,0,0
0:2:6.297,468.616,26.5172,0,0.000885,0,0
0:2:6.492,470.435,26.6207,0,0.000885,0,0
0:2:6.691,471.022,26.6551,0,0.000885,0,0
0:2:6.891,472.721,26.7517,0,0.000885,0,0
0:2:7.094,472.842,26.7586,0,0.000885,0,0
0:2:7.295,473.66,26.8068,0,0.000885,0,0
0:2:7.497,473.954,26.8206,0,0.000885,0,0
0:2:7.698,475.657,26.9171,0,0.000885,0,0
0:2:7.897,476.36,26.9585,0,0.000885,0,0
0:2:8.098,477.766,27.0343,0,0.000885,0,0
0:2:8.298,478.295,27.0688,0,0.000885,0,0
0:2:8.494,479.056,27.1102,0,0.000885,0,0
0:2:8.692,479.763,27.1516,0,0.000885,0,0
0:2:8.891,480.466,27.186,0,0.000885,0,0
0:2:9.094,481.52,27.2481,0,0.000885,0,0
0:2:9.294,481.871,27.2688,0,0.000885,0,0
0:2:9.493,482.752,27.317,0,0.000885,0,0
0:2:9.688,483.926,27.386,0,0.000885,0,0
0:2:9.890,485.159,27.4549,0,0.000885,0,0
0:2:10.093,485.861,27.4963,0,0.000885,0,0
0:2:10.291,487.036,27.5583,0,0.000885,0,0
0:2:10.491,487.619,27.5928,0,0.000885,0,0
0:2:10.683,488.384,27.6342,0,0.000885,0,0
0:2:10.884,488.851,27.6618,0,0.000885,0,0
0:2:11.081,490.203,27.7376,0,0.000885,0,0
0:2:11.277,490.612,27.7652,0,0.000885,0,0
0:2:11.479,492.138,27.8479,0,0.000885,0,0
0:2:11.680,492.489,27.8686,0,0.000885,0,0
0:2:11.881,493.953,27.9513,0,0.000885,0,0
0:2:12.083,494.54,27.9858,0,0.000885,0,0
0:2:12.284,496.181,28.0755,0,0.000885,0,0
0:2:12.484,496.826,28.1168,0,0.000885,0,0
0:2:12.684,498.179,28.1927,0,0.000885,0,0
0:2:12.884,498.588,28.2133,0,0.000885,0,0
0:2:13.094,499.993,28.2961,0,0.000885,0,0
0:2:13.290,500.287,28.3099,0,0.000885,0,0
0:2:13.491,500.759,28.3375,0,0.000885,0,0
0:2:13.695,501.697,28.3926,0,0.000885,0,0
0:2:13.895,502.578,28.4409,0,0.000885,0,0
0:2:14.092,503.339,28.4822,0,0.000885,0,0
0:2:14.297,503.926,28.5167,0,0.000885,0,0
0:2:14.498,505.158,28.5857,0,0.000885,0,0
0:2:14.693,505.918,28.627,0,0.000885,0,0
0:2:14.892,507.502,28.7167,0,0.000885,0,0
0:2:15.092,508.441,28.7718,0,0.000885,0,0
0:2:15.296,508.792,28.7925,0,0.000885,0,0
0:2:15.495,509.143,28.8132,0,0.000885,0,0
0:2:15.692,510.847,28.9097,0,0.000885,0,0
0:2:15.889,511.55,28.9511,0,0.000885,0,0
0:2:16.090,512.546,29.0062,0,0.000885,0,0
0:2:16.293,512.898,29.0269,0,0.000885,0,0
0:2:16.494,514.014,29.089,0,0.000885,0,0
0:2:16.694,514.13,29.0959,0,0.000885,0,0
0:2:16.897,515.771,29.1855,0,0.000885,0,0
0:2:17.099,516.358,29.22,0,0.000885,0,0
0:2:17.300,518,29.3096,0,0.000885,0,0
0:2:17.501,518.645,29.351,0,0.000885,0,0
0:2:17.701,520.171,29.4337,0,0.000885,0,0
0:2:17.902,520.58,29.4613,0,0.000885,0,0
0:2:18.104,521.403,29.5027,0,0.000885,0,0
0:2:18.298,521.99,29.5371,0,0.000885,0,0
0:2:18.496,523.338,29.613,0,0.000885,0,0
0:2:18.695,523.925,29.6475,0,0.000885,0,0
0:2:18.890,524.921,29.7026,0,0.000885,0,0
0:2:19.090,525.451,29.7371,0,0.000885,0,0
0:2:19.296,526.211,29.7785,0,0.000885,0,0
0:2:19.494,527.501,29.8474,0,0.000885,0,0
0:2:19.694,528.266,29.8957,0,0.000885,0,0
0:2:19.897,529.436,29.9577,0,0.000885,0,0
0:2:20.097,530.201,30.006,0,0.000885,0,0
0:2:20.295,531.843,30.0956,0,0.000885,0,0
0:2:20.491,532.194,30.1163,0,0.000885,0,0
0:2:20.692,532.781,30.1508,0,0.000885,0,0
0:2:20.896,533.72,30.199,0,0.000885,0,0
0:2:21.095,534.481,30.2473,0,0.000885,0,0
0:2:21.294,534.894,30.268,0,0.000885,0,0
0:2:21.497,536.064,30.3369,0,0.000885,0,0
0:2:21.697,536.709,30.3714,0,0.000885,0,0
0:2:21.899,537.999,30.4472,0,0.000885,0,0
0:2:22.102,538.644,30.4817,0,0.000885,0,0
0:2:22.302,540.228,30.5714,0,0.000885,0,0
0:2:22.504,540.641,30.592,0,0.000885,0,0
0:2:22.705,542.047,30.6748,0,0.000885,0,0
0:2:22.904,542.576,30.7024,0,0.000885,0,0
0:2:23.106,543.337,30.7437,0,0.000885,0,0
0:2:23.306,544.04,30.7851,0,0.000885,0,0
0:2:23.499,545.392,30.8609,0,0.000885,0,0
0:2:23.699,545.917,30.8954,0,0.000885,0,0
0:2:23.896,546.855,30.9437,0,0.000885,0,0
0:2:24.092,548.088,31.0126,0,0.000885,0,0
0:2:24.293,548.675,31.0471,0,0.000885,0,0
0:2:24.497,549.44,31.0885,0,0.000885,0,0
0:2:24.696,550.085,31.1298,0,0.000885,0,0
0:2:24.895,551.375,31.1988,0,0.000885,0,0
0:2:25.098,552.02,31.2401,0,0.000885,0,0
0:2:25.299,553.483,31.3229,0,0.000885,0,0
0:2:25.495,553.835,31.3436,0,0.000885,0,0
0:2:25.693,555.067,31.4125,0,0.000885,0,0
0:2:25.893,556.005,31.4608,0,0.000885,0,0
0:2:26.095,556.886,31.5159,0,0.000885,0,0
0:2:26.297,557.295,31.5366,0,0.000885,0,0
0:2:26.493,558.292,31.5918,0,0.000885,0,0
0:2:26.691,558.648,31.6125,0,0.000885,0,0
0:2:26.892,560.289,31.709,0,0.000885,0,0
0:2:27.094,560.934,31.7435,0,0.000885,0,0
0:2:27.296,561.815,31.7917,0,0.000885,0,0
0:2:27.497,562.633,31.84,0,0.000885,0,0
0:2:27.697,564.159,31.9227,0,0.000885,0,0
0:2:27.898,564.626,31.9503,0,0.000885,0,0
0:2:28.098,564.92,31.971,0,0.000885,0,0
0:2:28.299,566.152,32.0399,0,0.000885,0,0
0:2:28.496,567.033,32.0882,0,0.000885,0,0
0:2:28.693,568.674,32.1778,0,0.000885,0,0
0:2:28.893,569.261,32.2123,0,0.000885,0,0
0:2:29.098,569.906,32.2468,0,0.000885,0,0
0:2:29.296,570.551,32.2881,0,0.000885,0,0
0:2:29.495,572.077,32.3709,0,0.000885,0,0
0:2:29.690,572.486,32.3985,0,0.000885,0,0
0:2:29.892,573.483,32.4536,0,0.000885,0,0
0:2:30.097,574.19,32.495,0,0.000885,0,0
0:2:30.295,574.835,32.5295,0,0.000885,0,0
0:2:30.495,575.302,32.557,0,0.000885,0,0
0:2:30.687,576.943,32.6467,0,0.000885,0,0
0:2:30.890,577.766,32.6949,0,0.000885,0,0
0:2:31.097,578.82,32.757,0,0.000885,0,0
0:2:31.292,579.114,32.7708,0,0.000885,0,0
0:2:31.493,580.23,32.8328,0,0.000885,0,0
0:2:31.694,580.818,32.8673,0,0.000885,0,0
0:2:31.896,582.575,32.9638,0,0.000885,0,0
0:2:32.098,583.046,32.9914,0,0.000885,0,0
0:2:32.299,584.1,33.0535,0,0.000885,0,0
0:2:32.500,584.861,33.0948,0,0.000885,0,0
0:2:32.699,586.213,33.1707,0,0.000885,0,0
0:2:32.900,586.738,33.2052,0,0.000885,0,0
0:2:33.101,587.152,33.2258,0,0.000885,0,0
0:2:33.294,588.735,33.3155,0,0.000885,0,0
0:2:33.495,589.203,33.343,0,0.000885,0,0
0:2:33.691,590.55,33.4189,0,0.000885,0,0
0:2:33.888,591.08,33.4465,0,0.000885,0,0
0:2:34.092,592.254,33.5154,0,0.000885,0,0
0:2:34.295,592.663,33.5361,0,0.000885,0,0
0:2:34.497,594.131,33.6188,0,0.000885,0,0
0:2:34.695,594.661,33.6533,0,0.000885,0,0
0:2:34.891,596.013,33.7292,0,0.000885,0,0
0:2:35.093,596.6,33.7636,0,0.000885,0,0
0:2:35.298,597.481,33.8119,0,0.000885,0,0
0:2:35.498,597.654,33.8188,0,0.000885,0,0
0:2:35.698,598.944,33.8946,0,0.000885,0,0
0:2:35.894,599.767,33.9429,0,0.000885,0,0
0:2:36.095,600.884,34.0049,0,0.000885,0,0
0:2:36.292,601.471,34.0394,0,0.000885,0,0
0:2:36.500,602.761,34.1084,0,0.000885,0,0
0:2:36.702,603.526,34.1497,0,0.000885,0,0
0:2:36.906,604.344,34.198,0,0.000885,0,0
0:2:37.108,605.052,34.2394,0,0.000885,0,0
0:2:37.311,606.577,34.3221,0,0.000885,0,0
0:2:37.512,606.929,34.3428,0,0.000885,0,0
0:2:37.714,608.103,34.4117,0,0.000885,0,0
0:2:37.916,608.748,34.4462,0,0.000885,0,0
0:2:38.117,610.1,34.522,0,0.000885,0,0
0:2:38.316,610.919,34.5703,0,0.000885,0,0
0:2:38.513,611.92,34.6255,0,0.000885,0,0
0:2:38.715,612.449,34.6599,0,0.000885,0,0
0:2:38.908,612.858,34.6806,0,0.000885,0,0
0:2:39.110,614.442,34.7703,0,0.000885,0,0
0:2:39.309,614.855,34.7909,0,0.000885,0,0
0:2:39.503,615.91,34.853,0,0.000885,0,0
0:2:39.706,616.612,34.8944,0,0.000885,0,0
0:2:39.901,617.849,34.9633,0,0.000885,0,0
0:2:40.101,618.436,34.9978,0,0.000885,0,0
0:2:40.302,619.375,35.0461,0,0.000885,0,0
0:2:40.497,619.9,35.0805,0,0.000885,0,0
0:2:40.699,620.901,35.1357,0,0.000885,0,0
0:2:40.894,621.603,35.1771,0,0.000885,0,0
0:2:41.094,622.836,35.246,0,0.000885,0,0
0:2:41.295,623.543,35.2874,0,0.000885,0,0
0:2:41.488,624.891,35.3632,0,0.000885,0,0
0:2:41.692,625.3,35.3839,0,0.000885,0,0
0:2:41.894,626.181,35.4322,0,0.000885,0,0
0:2:42.098,627.181,35.4942,0,0.000885,0,0
0:2:42.301,627.591,35.5149,0,0.000885,0,0
0:2:42.502,628.943,35.5907,0,0.000885,0,0
0:2:42.704,629.761,35.639,0,0.000885,0,0
0:2:42.903,631.056,35.7079,0,0.000885,0,0
0:2:43.106,631.581,35.7424,0,0.000885,0,0
0:2:43.308,632.933,35.8183,0,0.000885,0,0
0:2:43.502,633.284,35.8389,0,0.000885,0,0
0:2:43.705,634.574,35.9079,0,0.000885,0,0
0:2:43.902,634.988,35.9355,0,0.000885,0,0
0:2:44.099,635.984,35.9906,0,0.000885,0,0
0:2:44.301,636.807,36.0389,0,0.000885,0,0
0:2:44.496,638.04,36.1078,0,0.000885,0,0
0:2:44.696,638.097,36.1078,0,0.000885,0,0
0:2:44.897,639.507,36.1906,0,0.000885,0,0
0:2:45.100,639.979,36.2182,0,0.000885,0,0
0:2:45.302,641.385,36.294,0,0.000885,0,0
0:2:45.500,642.092,36.3354,0,0.000885,0,0
0:2:45.698,643.204,36.3974,0,0.000885,0,0
0:2:45.899,643.618,36.4181,0,0.000885,0,0
0:2:46.095,644.498,36.4733,0,0.000885,0,0
0:2:46.295,645.731,36.5422,0,0.000885,0,0
0:2:46.493,646.14,36.5629,0,0.000885,0,0
0:2:46.689,647.55,36.6456,0,0.000885,0,0
0:2:46.892,648.137,36.6801,0,0.000885,0,0
0:2:47.094,649.249,36.7422,0,0.000885,0,0
0:2:47.298,649.778,36.7697,0,0.000885,0,0
0:2:47.500,651.131,36.8456,0,0.000885,0,0
0:2:47.700,651.891,36.887,0,0.000885,0,0
0:2:47.903,653.244,36.9628,0,0.000885,0,0
0:2:48.103,652.95,36.949,0,0.000885,0,0
0:2:48.306,654.24,37.0248,0,0.000885,0,0
0:2:48.506,655.063,37.0662,0,0.000885,0,0
0:2:48.700,656.117,37.1283,0,0.000885,0,0
0:2:48.901,657.118,37.1834,0,0.000885,0,0
0:2:49.099,657.705,37.2179,0,0.000885,0,0
0:2:49.297,658.702,37.2731,0,0.000885,0,0
0:2:49.498,659.818,37.3351,0,0.000885,0,0
0:2:49.692,660.347,37.3696,0,0.000885,0,0
0:2:49.894,662.104,37.4661,0,0.000885,0,0
0:2:50.101,662.692,37.5006,0,0.000885,0,0
0:2:50.299,663.399,37.542,0,0.000885,0,0
0:2:50.500,664.102,37.5833,0,0.000885,0,0
0:2:50.694,665.392,37.6523,0,0.000885,0,0
0:2:50.896,665.748,37.673,0,0.000885,0,0
0:2:51.094,666.041,37.6867,0,0.000885,0,0
0:2:51.300,667.389,37.7695,0,0.000885,0,0
0:2:51.502,668.915,37.8522,0,0.000885,0,0
0:2:51.706,669.266,37.8729,0,0.000885,0,0
0:2:51.910,670.267,37.9281,0,0.000885,0,0
0:2:52.111,670.618,37.9487,0,0.000885,0,0
0:2:52.313,672.144,38.0384,0,0.000885,0,0
0:2:52.513,673.203,38.0935,0,0.000885,0,0
0:2:52.715,673.492,38.1142,0,0.000885,0,0
0:2:52.917,674.608,38.1763,0,0.000885,0,0
0:2:53.116,675.547,38.2314,0,0.000885,0,0
0:2:53.313,676.37,38.2728,0,0.000885,0,0
0:2:53.514,676.606,38.2866,0,0.000885,0,0
0:2:53.711,677.722,38.3486,0,0.000885,0,0
0:2:53.910,678.896,38.4176,0,0.000885,0,0
0:2:54.111,680.009,38.4796,0,0.000885,0,0
0:2:54.306,680.244,38.4934,0,0.000885,0,0
0:2:54.508,681.597,38.5693,0,0.000885,0,0
0:2:54.702,682.006,38.5969,0,0.000885,0,0
0:2:54.903,683.416,38.6727,0,0.000885,0,0
0:2:55.102,683.532,38.6796,0,0.000885,0,0
0:2:55.298,684.999,38.7623,0,0.000885,0,0
0:2:55.500,685.409,38.783,0,0.000885,0,0
0:2:55.696,686.467,38.8451,0,0.000885,0,0
0:2:55.895,686.819,38.8657,0,0.000885,0,0
0:2:56.095,686.877,38.8726,0,0.000885,0,0
0:2:56.300,688.344,38.9554,0,0.000885,0,0
0:2:56.502,688.989,38.9899,0,0.000885,0,0
0:2:56.703,689.755,39.0312,0,0.000885,0,0
0:2:56.908,690.4,39.0657,0,0.000885,0,0
0:2:57.111,691.396,39.1277,0,0.000885,0,0
0:2:57.312,692.277,39.176,0,0.000885,0,0
0:2:57.513,693.215,39.2312,0,0.000885,0,0
0:2:57.714,693.042,39.2174,0,0.000885,0,0
0:2:57.916,694.216,39.2863,0,0.000885,0,0
0:2:58.117,694.741,39.3139,0,0.000885,0,0
0:2:58.313,695.27,39.3415,0,0.000885,0,0
0:2:58.514,695.27,39.3415,0,0.000885,0,0
0:2:58.711,695.564,39.3622,0,0.000885,0,0
0:2:58.909,695.213,39.3415,0,0.000885,0,0
0:2:59.109,694.683,39.3139,0,0.000885,0,0
0:2:59.301,694.096,39.2794,0,0.000885,0,0
0:2:59.502,691.867,39.1484,0,0.000885,0,0
0:2:59.702,690.987,39.1002,0,0.000885,0,0
0:2:59.898,686.997,38.8726,0,0.000885,0,0
0:3:0.099,683.941,38.7003,0,0.000885,0,0
0:3:0.293,673.492,38.1142,0,0.000885,0,0
0:3:0.491,666.508,37.7143,0,0.000885,0,0
0:3:0.693,658.937,37.2868,0,0.000885,0,0
0:3:0.897,644.498,36.4733,0,0.000885,0,0
0:3:1.098,637.043,36.0458,0,0.000885,0,0
0:3:1.294,620.487,35.115,0,0.000885,0,0
0:3:1.489,612.68,34.6737,0,0.000885,0,0
0:3:1.690,597.418,33.805,0,0.000885,0,0
0:3:1.895,590.377,33.4051,0,0.000885,0,0
0:3:2.095,574.599,32.5157,0,0.000885,0,0
0:3:2.295,566.094,32.033,0,0.000885,0,0
0:3:2.496,547.856,30.9988,0,0.000885,0,0
0:3:2.696,536.651,30.3714,0,0.000885,0,0
0:3:2.895,505.625,28.6132,0,0.000885,0,0
0:3:3.096,490.025,27.7307,0,0.000885,0,0
0:3:3.127,490.025,27.7307,0,0.000885,0,0