File: DataFile2021-06-30_062203.csv
Test ID:,Date Tested:,Time:,Test Type:,Diameter Avg. (mm):,Cyl. Corr. Factor:,Height (mm):,Age (days):,Weight (kN):,Break Type:,Ramp Rate (MPa/s):,Load at Break (kN):,Stress at Break (MPa):
12,6/30/2021,06:22,Cylinder,100,1,200,0,3.6,3,0.25,507.85,64.66
Sample Time,Load (kN),Stress (MPa),Long. Strain,Trans. Strain,Chan1 Deflection (mm),Chan2 Deflection (mm)
0:0:4.911,5.45352,0.69637,0,0.000885,0,0
0:0:5.207,5.7471,0.730844,0,0.000885,0,0
0:0:5.506,6.27644,0.799792,0,0.000885,0,0
0:0:5.806,6.68568,0.848055,0,0.000885,0,0
0:0:6.100,7.33067,0.930792,0,0.000885,0,0
0:0:6.403,7.56642,0.965266,0,0.000885,0,0
0:0:6.698,8.09576,1.02732,0,0.000885,0,0
0:0:6.998,8.3849,1.06869,0,0.000885,0,0
0:0:7.297,9.67933,1.23416,0,0.000885,0,0
0:0:7.592,10.0307,1.27553,0,0.000885,0,0
0:0:7.895,10.9693,1.39964,0,0.000885,0,0
0:0:8.190,11.2629,1.43411,0,0.000885,0,0
0:0:8.488,11.4364,1.45479,0,0.000885,0,0
0:0:8.787,12.2593,1.55822,0,0.000885,0,0
0:0:9.084,13.5493,1.72369,0,0.000885,0,0
0:0:9.385,13.1979,1.68232,0,0.000885,0,0
0:0:9.678,14.0163,1.78574,0,0.000885,0,0
0:0:9.979,14.0742,1.79264,0,0.000885,0,0
0:0:10.280,15.1907,1.93743,0,0.000885,0,0
0:0:10.581,16.1293,2.05464,0,0.000885,0,0
0:0:10.887,16.1293,2.05464,0,0.000885,0,0
0:0:11.190,17.01,2.16495,0,0.000885,0,0
0:0:11.493,17.9486,2.28216,0,0.000885,0,0
0:0:11.795,18.3578,2.33732,0,0.000885,0,0
0:0:12.094,18.7092,2.38559,0,0.000885,0,0
0:0:12.393,19.5321,2.48901,0,0.000885,0,0
0:0:12.688,19.8836,2.53038,0,0.000885,0,0
0:0:12.991,20.88,2.66138,0,0.000885,0,0
0:0:13.286,21.5249,2.73722,0,0.000885,0,0
0:0:13.588,21.7607,2.77169,0,0.000885,0,0
0:0:13.885,22.4635,2.86132,0,0.000885,0,0
0:0:14.182,23.4599,2.98543,0,0.000885,0,0
0:0:14.483,23.9893,3.05438,0,0.000885,0,0
0:0:14.778,24.5141,3.12333,0,0.000885,0,0
0:0:15.081,24.7499,3.1509,0,0.000885,0,0
0:0:15.387,25.3371,3.22675,0,0.000885,0,0
0:0:15.691,26.4536,3.36464,0,0.000885,0,0
0:0:15.994,26.5692,3.38533,0,0.000885,0,0
0:0:16.296,27.5656,3.50943,0,0.000885,0,0
0:0:16.599,27.7436,3.53012,0,0.000885,0,0
0:0:16.896,28.4464,3.61975,0,0.000885,0,0
0:0:17.196,29.0335,3.69559,0,0.000885,0,0
0:0:17.493,28.9134,3.6818,0,0.000885,0,0
0:0:17.791,29.1492,3.70938,0,0.000885,0,0
0:0:18.091,29.5584,3.76454,0,0.000885,0,0
0:0:18.386,30.497,3.88175,0,0.000885,0,0
0:0:18.689,31.7292,4.04033,0,0.000885,0,0
0:0:18.984,32.3742,4.12306,0,0.000885,0,0
0:0:19.283,32.8457,4.18512,0,0.000885,0,0
0:0:19.582,33.5485,4.27475,0,0.000885,0,0
0:0:19.879,34.9541,4.45401,0,0.000885,0,0
0:0:20.181,35.1899,4.48159,0,0.000885,0,0
0:0:20.487,36.3064,4.61949,0,0.000885,0,0
0:0:20.789,36.8313,4.68843,0,0.000885,0,0
0:0:21.093,37.6542,4.79186,0,0.000885,0,0
0:0:21.396,38.7663,4.93665,0,0.000885,0,0
0:0:21.698,39.1799,4.9918,0,0.000885,0,0
0:0:21.995,39.7048,5.05386,0,0.000885,0,0
0:0:22.297,40.6434,5.17796,0,0.000885,0,0
0:0:22.592,40.8213,5.19865,0,0.000885,0,0
0:0:22.890,41.7021,5.30896,0,0.000885,0,0
0:0:23.190,41.7599,5.31586,0,0.000885,0,0
0:0:23.485,42.4049,5.39859,0,0.000885,0,0
0:0:23.788,42.8141,5.45375,0,0.000885,0,0
0:0:24.084,43.4013,5.5227,0,0.000885,0,0
0:0:24.385,43.7527,5.57096,0,0.000885,0,0
0:0:24.681,43.8684,5.58475,0,0.000885,0,0
0:0:24.980,44.8692,5.71575,0,0.000885,0,0
0:0:25.281,45.2206,5.75712,0,0.000885,0,0
0:0:25.585,45.4519,5.7847,0,0.000885,0,0
0:0:25.890,46.0391,5.86054,0,0.000885,0,0
0:0:26.193,46.5684,5.92949,0,0.000885,0,0
0:0:26.494,47.6849,6.07428,0,0.000885,0,0
0:0:26.798,48.2098,6.13633,0,0.000885,0,0
0:0:27.094,48.797,6.21218,0,0.000885,0,0
0:0:27.397,49.0327,6.23976,0,0.000885,0,0
0:0:27.691,49.5576,6.3087,0,0.000885,0,0
0:0:27.992,50.4384,6.41902,0,0.000885,0,0
0:0:28.291,50.6741,6.45349,0,0.000885,0,0
0:0:28.587,51.6127,6.5707,0,0.000885,0,0
0:0:28.888,52.1421,6.63965,0,0.000885,0,0
0:0:29.184,52.8449,6.72928,0,0.000885,0,0
0:0:29.487,53.5477,6.81891,0,0.000885,0,0
0:0:29.782,53.8991,6.86028,0,0.000885,0,0
0:0:30.080,54.2505,6.90855,0,0.000885,0,0
0:0:30.381,55.0734,7.01197,0,0.000885,0,0
0:0:30.683,55.4827,7.06713,0,0.000885,0,0
0:0:30.989,56.5992,7.20502,0,0.000885,0,0
0:0:31.292,57.1241,7.27397,0,0.000885,0,0
0:0:31.595,57.5377,7.32913,0,0.000885,0,0
0:0:31.897,57.7691,7.35671,0,0.000885,0,0
0:0:32.195,58.4763,7.44634,0,0.000885,0,0
0:0:32.494,59.1213,7.52907,0,0.000885,0,0
0:0:32.791,59.7663,7.61181,0,0.000885,0,0
0:0:33.093,59.882,7.6256,0,0.000885,0,0
0:0:33.390,61.0563,7.77039,0,0.000885,0,0
0:0:33.690,61.7591,7.86002,0,0.000885,0,0
0:0:33.988,61.8748,7.88071,0,0.000885,0,0
0:0:34.283,62.8133,7.99792,0,0.000885,0,0
0:0:34.585,63.4583,8.08066,0,0.000885,0,0
0:0:34.880,64.1656,8.17029,0,0.000885,0,0
0:0:35.183,64.2813,8.18408,0,0.000885,0,0
0:0:35.489,64.6327,8.23234,0,0.000885,0,0
0:0:35.793,65.0419,8.2806,0,0.000885,0,0
0:0:36.095,65.9805,8.39781,0,0.000885,0,0
0:0:36.398,66.452,8.45987,0,0.000885,0,0
0:0:36.701,67.6841,8.61845,0,0.000885,0,0
0:0:36.997,68.3291,8.70118,0,0.000885,0,0
0:0:37.295,68.7384,8.74945,0,0.000885,0,0
0:0:37.594,69.5613,8.85976,0,0.000885,0,0
0:0:37.890,69.7926,8.88734,0,0.000885,0,0
0:0:38.192,70.3219,8.95629,0,0.000885,0,0
0:0:38.486,70.789,9.01145,0,0.000885,0,0
0:0:38.789,71.3762,9.08729,0,0.000885,0,0
0:0:39.085,72.3726,9.21829,0,0.000885,0,0
0:0:39.384,73.4891,9.35619,0,0.000885,0,0
0:0:39.685,73.5469,9.36308,0,0.000885,0,0
0:0:39.981,74.312,9.45961,0,0.000885,0,0
0:0:40.284,74.7212,9.51477,0,0.000885,0,0
0:0:40.589,75.3662,9.5975,0,0.000885,0,0
0:0:40.893,75.9534,9.67334,0,0.000885,0,0
0:0:41.194,76.5984,9.75608,0,0.000885,0,0
0:0:41.497,77.0654,9.81124,0,0.000885,0,0
0:0:41.800,77.6526,9.88708,0,0.000885,0,0
0:0:42.095,78.1241,9.94913,0,0.000885,0,0
0:0:42.396,78.7068,10.025,0,0.000885,0,0
0:0:42.694,79.1205,10.0732,0,0.000885,0,0
0:0:42.990,79.6454,10.1422,0,0.000885,0,0
0:0:43.292,80.1169,10.1973,0,0.000885,0,0
0:0:43.586,80.9977,10.3146,0,0.000885,0,0
0:0:43.889,81.7005,10.4042,0,0.000885,0,0
0:0:44.184,81.8161,10.418,0,0.000885,0,0
0:0:44.483,82.3455,10.4869,0,0.000885,0,0
0:0:44.782,83.2262,10.5972,0,0.000885,0,0
0:0:45.079,83.929,10.6869,0,0.000885,0,0
0:0:45.381,84.2226,10.7213,0,0.000885,0,0
0:0:45.687,85.3347,10.8661,0,0.000885,0,0
0:0:45.991,85.9797,10.9489,0,0.000885,0,0
0:0:46.294,86.6247,11.0316,0,0.000885,0,0
0:0:46.594,86.6247,11.0316,0,0.000885,0,0
0:0:46.898,87.6255,11.1557,0,0.000885,0,0
0:0:47.193,88.1504,11.2247,0,0.000885,0,0
0:0:47.496,88.7954,11.3074,0,0.000885,0,0
0:0:47.790,89.5027,11.397,0,0.000885,0,0
0:0:48.090,89.9697,11.4522,0,0.000885,0,0
0:0:48.388,90.2633,11.4936,0,0.000885,0,0
0:0:48.686,91.3754,11.6315,0,0.000885,0,0
0:0:48.987,91.7312,11.6797,0,0.000885,0,0
0:0:49.283,92.1405,11.7349,0,0.000885,0,0
0:0:49.586,92.7855,11.8107,0,0.000885,0,0
0:0:49.882,93.3148,11.8797,0,0.000885,0,0
0:0:50.186,94.3112,12.0107,0,0.000885,0,0
0:0:50.490,94.8984,12.0796,0,0.000885,0,0
0:0:50.794,95.4232,12.1486,0,0.000885,0,0
0:0:51.096,95.9526,12.2175,0,0.000885,0,0
0:0:51.398,96.7132,12.314,0,0.000885,0,0
0:0:51.699,97.4783,12.4106,0,0.000885,0,0
0:0:51.999,98.1811,12.5002,0,0.000885,0,0
0:0:52.294,98.5326,12.5485,0,0.000885,0,0
0:0:52.596,99.1197,12.6174,0,0.000885,0,0
0:0:52.891,99.8804,12.7139,0,0.000885,0,0
0:0:53.193,100,12.7346,0,0.000885,0,0
0:0:53.489,100.703,12.8242,0,0.000885,0,0
0:0:53.789,101.113,12.8725,0,0.000885,0,0
0:0:54.088,101.406,12.9139,0,0.000885,0,0
0:0:54.384,101.878,12.969,0,0.000885,0,0
0:0:54.686,102.816,13.0931,0,0.000885,0,0
0:0:54.981,103.461,13.1759,0,0.000885,0,0
0:0:55.284,103.87,13.2241,0,0.000885,0,0
0:0:55.590,104.337,13.2862,0,0.000885,0,0
0:0:55.893,105.16,13.3896,0,0.000885,0,0
0:0:56.197,105.805,13.4724,0,0.000885,0,0
0:0:56.499,106.45,13.5551,0,0.000885,0,0
0:0:56.800,107.567,13.693,0,0.000885,0,0
0:0:57.098,107.683,13.7137,0,0.000885,0,0
0:0:57.397,108.27,13.7826,0,0.000885,0,0
0:0:57.697,108.795,13.8516,0,0.000885,0,0
0:0:57.992,109.15,13.8998,0,0.000885,0,0
0:0:58.295,109.382,13.9274,0,0.000885,0,0
0:0:58.589,110.205,14.0308,0,0.000885,0,0
0:0:58.890,111.085,14.1411,0,0.000885,0,0
0:0:59.188,111.201,14.1618,0,0.000885,0,0
0:0:59.485,112.024,14.2653,0,0.000885,0,0
0:0:59.787,112.842,14.3687,0,0.000885,0,0
0:1:0.083,113.43,14.4445,0,0.000885,0,0
0:1:0.386,114.132,14.5341,0,0.000885,0,0
0:1:0.691,114.662,14.5962,0,0.000885,0,0
0:1:0.995,115.365,14.6858,0,0.000885,0,0
0:1:1.298,115.836,14.7479,0,0.000885,0,0
0:1:1.601,117.126,14.9134,0,0.000885,0,0
0:1:1.903,117.126,14.9134,0,0.000885,0,0
0:1:2.198,117.535,14.9685,0,0.000885,0,0
0:1:2.500,118.18,15.0444,0,0.000885,0,0
0:1:2.797,118.825,15.1271,0,0.000885,0,0
0:1:3.093,119.355,15.196,0,0.000885,0,0
0:1:3.394,119.88,15.265,0,0.000885,0,0
0:1:3.689,120.235,15.3064,0,0.000885,0,0
0:1:3.991,121.347,15.4512,0,0.000885,0,0
0:1:4.287,121.699,15.4925,0,0.000885,0,0
0:1:4.587,122.402,15.5822,0,0.000885,0,0
0:1:4.886,122.695,15.6235,0,0.000885,0,0
0:1:5.181,123.46,15.72,0,0.000885,0,0
0:1:5.483,124.048,15.7959,0,0.000885,0,0
0:1:5.788,124.866,15.8993,0,0.000885,0,0
0:1:6.093,125.338,15.9614,0,0.000885,0,0
0:1:6.396,125.569,15.9889,0,0.000885,0,0
0:1:6.699,126.685,16.1268,0,0.000885,0,0
0:1:7.003,127.273,16.2027,0,0.000885,0,0
0:1:7.298,127.682,16.2578,0,0.000885,0,0
0:1:7.600,128.091,16.3061,0,0.000885,0,0
0:1:7.899,129.092,16.4371,0,0.000885,0,0
0:1:8.197,129.852,16.5336,0,0.000885,0,0
0:1:8.497,130.146,16.5681,0,0.000885,0,0
0:1:8.792,130.613,16.6302,0,0.000885,0,0
0:1:9.094,130.907,16.6646,0,0.000885,0,0
0:1:9.389,131.903,16.7956,0,0.000885,0,0
0:1:9.689,132.197,16.8301,0,0.000885,0,0
0:1:9.989,132.61,16.8853,0,0.000885,0,0
0:1:10.292,133.371,16.9818,0,0.000885,0,0
0:1:10.597,133.607,17.0094,0,0.000885,0,0
0:1:10.899,134.488,17.1266,0,0.000885,0,0
0:1:11.202,134.955,17.1817,0,0.000885,0,0
0:1:11.505,136.187,17.3403,0,0.000885,0,0
0:1:11.803,136.245,17.3472,0,0.000885,0,0
0:1:12.103,136.774,17.4162,0,0.000885,0,0
0:1:12.398,137.712,17.5334,0,0.000885,0,0
0:1:12.700,138.473,17.6299,0,0.000885,0,0
0:1:12.996,138.593,17.6437,0,0.000885,0,0
0:1:13.297,139.59,17.7747,0,0.000885,0,0
0:1:13.594,140.057,17.8298,0,0.000885,0,0
0:1:13.891,140.702,17.9126,0,0.000885,0,0
0:1:14.192,140.88,17.9402,0,0.000885,0,0
0:1:14.487,141.173,17.9746,0,0.000885,0,0
0:1:14.790,142.695,18.1677,0,0.000885,0,0
0:1:15.086,142.815,18.1815,0,0.000885,0,0
0:1:15.390,143.695,18.2987,0,0.000885,0,0
0:1:15.695,144.34,18.3745,0,0.000885,0,0
0:1:15.999,144.985,18.4573,0,0.000885,0,0
0:1:16.302,145.688,18.5469,0,0.000885,0,0
0:1:16.603,145.688,18.5469,0,0.000885,0,0
0:1:16.903,146.742,18.6848,0,0.000885,0,0
0:1:17.201,146.569,18.6641,0,0.000885,0,0
0:1:17.500,147.859,18.8227,0,0.000885,0,0
0:1:17.799,147.917,18.8365,0,0.000885,0,0
0:1:18.095,148.797,18.9468,0,0.000885,0,0
0:1:18.397,148.855,18.9537,0,0.000885,0,0
0:1:18.694,149.558,19.0433,0,0.000885,0,0
0:1:18.992,150.381,19.1467,0,0.000885,0,0
0:1:19.294,151.026,19.2295,0,0.000885,0,0
0:1:19.589,152.022,19.3536,0,0.000885,0,0
0:1:19.891,152.374,19.4018,0,0.000885,0,0
0:1:20.187,152.667,19.4363,0,0.000885,0,0
0:1:20.489,153.842,19.588,0,0.000885,0,0
0:1:20.794,153.779,19.5811,0,0.000885,0,0
0:1:21.098,154.718,19.6983,0,0.000885,0,0
0:1:21.401,154.78,19.7052,0,0.000885,0,0
0:1:21.703,155.95,19.8569,0,0.000885,0,0
0:1:22.003,156.364,19.9121,0,0.000885,0,0
0:1:22.303,157.182,20.0155,0,0.000885,0,0
0:1:22.600,158.179,20.1396,0,0.000885,0,0
0:1:22.901,158.886,20.2292,0,0.000885,0,0
0:1:23.197,158.944,20.2361,0,0.000885,0,0
0:1:23.497,159.94,20.3671,0,0.000885,0,0
0:1:23.796,160.114,20.3878,0,0.000885,0,0
0:1:24.091,160.176,20.3947,0,0.000885,0,0
0:1:24.392,161.172,20.5188,0,0.000885,0,0
0:1:24.688,161.582,20.574,0,0.000885,0,0
0:1:24.990,161.697,20.5877,0,0.000885,0,0
0:1:25.286,162.814,20.7325,0,0.000885,0,0
0:1:25.590,163.223,20.7808,0,0.000885,0,0
0:1:25.895,164.046,20.8842,0,0.000885,0,0
0:1:26.198,164.864,20.9945,0,0.000885,0,0
0:1:26.500,164.807,20.9807,0,0.000885,0,0
0:1:26.803,165.923,21.1255,0,0.000885,0,0
0:1:27.103,166.568,21.2083,0,0.000885,0,0
0:1:27.404,167.507,21.3255,0,0.000885,0,0
0:1:27.697,167.858,21.3737,0,0.000885,0,0
0:1:28.000,168.387,21.4427,0,0.000885,0,0
0:1:28.296,168.739,21.4841,0,0.000885,0,0
0:1:28.595,170.087,21.6564,0,0.000885,0,0
0:1:28.894,169.971,21.6426,0,0.000885,0,0
0:1:29.191,171.083,21.7805,0,0.000885,0,0
0:1:29.492,171.199,21.8012,0,0.000885,0,0
0:1:29.786,171.319,21.815,0,0.000885,0,0
0:1:30.088,172.667,21.9874,0,0.000885,0,0
0:1:30.386,173.432,22.0839,0,0.000885,0,0
0:1:30.689,173.018,22.0287,0,0.000885,0,0
0:1:30.995,173.899,22.1391,0,0.000885,0,0
0:1:31.299,174.953,22.277,0,0.000885,0,0
0:1:31.601,175.131,22.2976,0,0.000885,0,0
0:1:31.904,175.718,22.3735,0,0.000885,0,0
0:1:32.202,176.421,22.4631,0,0.000885,0,0
0:1:32.503,176.657,22.4907,0,0.000885,0,0
0:1:32.799,177.475,22.5941,0,0.000885,0,0
0:1:33.100,177.769,22.6355,0,0.000885,0,0
0:1:33.399,179.179,22.8148,0,0.000885,0,0
0:1:33.696,178.885,22.7734,0,0.000885,0,0
0:1:33.996,180.349,22.9595,0,0.000885,0,0
0:1:34.292,180.469,22.9802,0,0.000885,0,0
0:1:34.594,181.287,23.0836,0,0.000885,0,0
0:1:34.889,181.345,23.0905,0,0.000885,0,0
0:1:35.192,182.577,23.2491,0,0.000885,0,0
0:1:35.497,183.222,23.3319,0,0.000885,0,0
0:1:35.801,183.809,23.4008,0,0.000885,0,0
0:1:36.102,184.161,23.4491,0,0.000885,0,0
0:1:36.405,185.162,23.5732,0,0.000885,0,0
0:1:36.708,185.162,23.5732,0,0.000885,0,0
0:1:37.005,185.807,23.6559,0,0.000885,0,0
0:1:37.299,186.158,23.7042,0,0.000885,0,0
0:1:37.601,187.328,23.849,0,0.000885,0,0
0:1:37.895,187.154,23.8283,0,0.000885,0,0
0:1:38.197,188.151,23.9593,0,0.000885,0,0
0:1:38.493,189.383,24.111,0,0.000885,0,0
0:1:38.791,189.147,24.0834,0,0.000885,0,0
0:1:39.091,190.086,24.2006,0,0.000885,0,0
0:1:39.386,190.322,24.2351,0,0.000885,0,0
0:1:39.688,190.846,24.2971,0,0.000885,0,0
0:1:39.984,191.434,24.373,0,0.000885,0,0
0:1:40.288,192.199,24.4695,0,0.000885,0,0
0:1:40.592,193.137,24.5936,0,0.000885,0,0
0:1:40.893,193.956,24.697,0,0.000885,0,0
0:1:41.192,193.84,24.6832,0,0.000885,0,0
0:1:41.493,194.779,24.8004,0,0.000885,0,0
0:1:41.790,195.188,24.8556,0,0.000885,0,0
0:1:42.088,195.539,24.897,0,0.000885,0,0
0:1:42.381,196.656,25.0418,0,0.000885,0,0
0:1:42.678,196.829,25.0624,0,0.000885,0,0
0:1:42.984,198.239,25.2417,0,0.000885,0,0
0:1:43.279,198.182,25.2348,0,0.000885,0,0
0:1:43.574,198.707,25.2969,0,0.000885,0,0
0:1:43.870,199.645,25.421,0,0.000885,0,0
0:1:44.168,200.41,25.5175,0,0.000885,0,0
0:1:44.461,200.41,25.5175,0,0.000885,0,0
0:1:44.760,201.407,25.6416,0,0.000885,0,0
0:1:45.055,201.931,25.7105,0,0.000885,0,0
0:1:45.355,202.639,25.8002,0,0.000885,0,0
0:1:45.658,202.639,25.8002,0,0.000885,0,0
0:1:45.959,203.226,25.876,0,0.000885,0,0
0:1:46.260,204.102,25.9863,0,0.000885,0,0
0:1:46.560,204.516,26.0415,0,0.000885,0,0
0:1:46.857,205.219,26.1311,0,0.000885,0,0
0:1:47.154,205.392,26.1518,0,0.000885,0,0
0:1:47.449,206.157,26.2483,0,0.000885,0,0
0:1:47.747,206.331,26.269,0,0.000885,0,0
0:1:48.040,207.447,26.4138,0,0.000885,0,0
0:1:48.340,208.15,26.5034,0,0.000885,0,0
0:1:48.632,208.679,26.5724,0,0.000885,0,0
0:1:48.931,209.324,26.6551,0,0.000885,0,0
0:1:49.227,210.205,26.7654,0,0.000885,0,0
0:1:49.523,210.027,26.7448,0,0.000885,0,0
0:1:49.821,211.081,26.8758,0,0.000885,0,0
0:1:50.112,211.904,26.9792,0,0.000885,0,0
0:1:50.412,211.669,26.9516,0,0.000885,0,0
0:1:50.714,212.492,27.055,0,0.000885,0,0
0:1:51.015,212.665,27.0757,0,0.000885,0,0
0:1:51.317,213.897,27.2343,0,0.000885,0,0
0:1:51.617,214.894,27.3584,0,0.000885,0,0
0:1:51.918,215.072,27.386,0,0.000885,0,0
0:1:52.212,215.832,27.4825,0,0.000885,0,0
0:1:52.512,216.126,27.517,0,0.000885,0,0
0:1:52.807,216.833,27.6066,0,0.000885,0,0
0:1:53.100,217.478,27.6893,0,0.000885,0,0
0:1:53.399,217.945,27.7514,0,0.000885,0,0
0:1:53.693,218.941,27.8755,0,0.000885,0,0
0:1:53.993,219.351,27.9307,0,0.000885,0,0
0:1:54.285,220.174,28.0341,0,0.000885,0,0
0:1:54.585,220.231,28.041,0,0.000885,0,0
0:1:54.877,221.17,28.1582,0,0.000885,0,0
0:1:55.178,221.521,28.2065,0,0.000885,0,0
0:1:55.484,222.109,28.2823,0,0.000885,0,0
0:1:55.783,222.874,28.3788,0,0.000885,0,0
0:1:56.083,223.634,28.4753,0,0.000885,0,0
0:1:56.384,223.634,28.4753,0,0.000885,0,0
0:1:56.679,225.04,28.6546,0,0.000885,0,0
0:1:56.975,225.334,28.6891,0,0.000885,0,0
0:1:57.280,226.041,28.7787,0,0.000885,0,0
0:1:57.578,226.156,28.7925,0,0.000885,0,0
0:1:57.873,226.979,28.9028,0,0.000885,0,0
0:1:58.172,227.624,28.9787,0,0.000885,0,0
0:1:58.464,227.918,29.02,0,0.000885,0,0
0:1:58.763,228.679,29.1166,0,0.000885,0,0
0:1:59.059,228.679,29.1166,0,0.000885,0,0
0:1:59.353,229.791,29.2613,0,0.000885,0,0
0:1:59.653,230.204,29.3096,0,0.000885,0,0
0:1:59.946,230.378,29.3303,0,0.000885,0,0
0:2:0.247,230.849,29.3924,0,0.000885,0,0
0:2:0.551,232.197,29.5647,0,0.000885,0,0
0:2:0.852,231.668,29.4958,0,0.000885,0,0
0:2:1.153,233.371,29.7164,0,0.000885,0,0
0:2:1.452,233.959,29.7854,0,0.000885,0,0
0:2:1.752,234.661,29.875,0,0.000885,0,0
0:2:2.047,235.422,29.9784,0,0.000885,0,0
0:2:2.342,235.186,29.9439,0,0.000885,0,0
0:2:2.639,236.303,30.0887,0,0.000885,0,0
0:2:2.933,237.357,30.2197,0,0.000885,0,0
0:2:3.233,237.651,30.2611,0,0.000885,0,0
0:2:3.526,238.767,30.399,0,0.000885,0,0
0:2:3.824,238.589,30.3783,0,0.000885,0,0
0:2:4.121,239.061,30.4404,0,0.000885,0,0
0:2:4.416,239.528,30.4955,0,0.000885,0,0
0:2:4.714,240.173,30.5782,0,0.000885,0,0
0:2:5.008,240.938,30.6748,0,0.000885,0,0
0:2:5.309,240.76,30.6541,0,0.000885,0,0
0:2:5.611,241.876,30.7989,0,0.000885,0,0
0:2:5.914,243.166,30.9575,0,0.000885,0,0
0:2:6.215,242.579,30.8885,0,0.000885,0,0
0:2:6.514,243.754,31.0333,0,0.000885,0,0
0:2:6.814,244.105,31.0816,0,0.000885,0,0
0:2:7.104,245.511,31.2608,0,0.000885,0,0
0:2:7.405,245.862,31.3022,0,0.000885,0,0
0:2:7.699,246.04,31.3298,0,0.000885,0,0
0:2:7.995,246.743,31.4194,0,0.000885,0,0
0:2:8.291,247.566,31.5228,0,0.000885,0,0
0:2:8.585,247.797,31.5504,0,0.000885,0,0
0:2:8.894,248.562,31.6469,0,0.000885,0,0
0:2:9.185,249.674,31.7917,0,0.000885,0,0
0:2:9.484,249.149,31.7228,0,0.000885,0,0
0:2:9.789,250.319,31.8745,0,0.000885,0,0
0:2:10.089,251.142,31.9779,0,0.000885,0,0
0:2:10.393,251.903,32.0744,0,0.000885,0,0
0:2:10.694,251.961,32.0813,0,0.000885,0,0
0:2:10.993,252.316,32.1227,0,0.000885,0,0
0:2:11.294,253.429,32.2675,0,0.000885,0,0
0:2:11.592,254.309,32.3778,0,0.000885,0,0
0:2:11.887,254.074,32.3502,0,0.000885,0,0
0:2:12.191,255.012,32.4674,0,0.000885,0,0
0:2:12.491,255.715,32.557,0,0.000885,0,0
0:2:12.781,255.657,32.5501,0,0.000885,0,0
0:2:13.080,256.653,32.6811,0,0.000885,0,0
0:2:13.375,257.476,32.7846,0,0.000885,0,0
0:2:13.672,258.121,32.8673,0,0.000885,0,0
0:2:13.979,258.651,32.9294,0,0.000885,0,0
0:2:14.292,258.882,32.9638,0,0.000885,0,0
0:2:14.591,259.411,33.0259,0,0.000885,0,0
0:2:14.886,260.292,33.1431,0,0.000885,0,0
0:2:15.185,261.168,33.2534,0,0.000885,0,0
0:2:15.489,260.817,33.2052,0,0.000885,0,0
0:2:15.790,261.698,33.3224,0,0.000885,0,0
0:2:16.091,262.694,33.4465,0,0.000885,0,0
0:2:16.390,263.281,33.5223,0,0.000885,0,0
0:2:16.688,263.811,33.5913,0,0.000885,0,0
0:2:16.982,264.22,33.6395,0,0.000885,0,0
0:2:17.278,264.749,33.7085,0,0.000885,0,0
0:2:17.588,265.63,33.8188,0,0.000885,0,0
0:2:17.889,266.448,33.9222,0,0.000885,0,0
0:2:18.190,266.391,33.9153,0,0.000885,0,0
0:2:18.480,267.623,34.0739,0,0.000885,0,0
0:2:18.778,268.268,34.1566,0,0.000885,0,0
0:2:19.074,268.619,34.2049,0,0.000885,0,0
0:2:19.370,269.616,34.329,0,0.000885,0,0
0:2:19.667,269.442,34.3083,0,0.000885,0,0
0:2:19.961,270.906,34.4945,0,0.000885,0,0
0:2:20.261,271.084,34.5152,0,0.000885,0,0
0:2:20.565,272.08,34.6393,0,0.000885,0,0
0:2:20.864,271.671,34.591,0,0.000885,0,0
0:2:21.165,272.609,34.7082,0,0.000885,0,0
0:2:21.465,273.134,34.7772,0,0.000885,0,0
0:2:21.766,273.721,34.853,0,0.000885,0,0
0:2:22.077,274.486,34.9495,0,0.000885,0,0
0:2:22.376,274.366,34.9357,0,0.000885,0,0
0:2:22.671,275.247,35.0461,0,0.000885,0,0
0:2:22.986,276.595,35.2184,0,0.000885,0,0
0:2:23.287,276.421,35.1977,0,0.000885,0,0
0:2:23.589,276.831,35.246,0,0.000885,0,0
0:2:23.885,277.827,35.377,0,0.000885,0,0
0:2:24.192,278.063,35.4046,0,0.000885,0,0
0:2:24.487,278.823,35.5011,0,0.000885,0,0
0:2:24.786,279.704,35.6114,0,0.000885,0,0
0:2:25.090,280.291,35.6873,0,0.000885,0,0
0:2:25.391,281.172,35.7976,0,0.000885,0,0
0:2:25.695,281.581,35.8527,0,0.000885,0,0
0:2:25.996,281.933,35.8941,0,0.000885,0,0
0:2:26.296,282.929,36.0251,0,0.000885,0,0
0:2:26.596,283.574,36.1078,0,0.000885,0,0
0:2:26.895,283.632,36.1147,0,0.000885,0,0
0:2:27.191,284.748,36.2526,0,0.000885,0,0
0:2:27.495,284.633,36.2388,0,0.000885,0,0
0:2:27.794,285.687,36.3767,0,0.000885,0,0
0:2:28.086,286.39,36.4664,0,0.000885,0,0
0:2:28.394,286.568,36.4871,0,0.000885,0,0
0:2:28.691,286.977,36.5422,0,0.000885,0,0
0:2:28.994,287.916,36.6594,0,0.000885,0,0
0:2:29.293,287.858,36.6525,0,0.000885,0,0
0:2:29.587,289.206,36.8249,0,0.000885,0,0
0:2:29.889,289.441,36.8525,0,0.000885,0,0
0:2:30.192,290.438,36.9766,0,0.000885,0,0
0:2:30.494,290.611,37.0042,0,0.000885,0,0
0:2:30.794,291.906,37.1696,0,0.000885,0,0
0:2:31.094,292.137,37.1972,0,0.000885,0,0
0:2:31.395,293.311,37.3489,0,0.000885,0,0
0:2:31.688,293.076,37.3144,0,0.000885,0,0
0:2:31.994,293.898,37.4178,0,0.000885,0,0
0:2:32.292,294.486,37.4937,0,0.000885,0,0
0:2:32.594,294.837,37.542,0,0.000885,0,0
0:2:32.893,295.482,37.6247,0,0.000885,0,0
0:2:33.188,296.185,37.7143,0,0.000885,0,0
0:2:33.494,297.301,37.8522,0,0.000885,0,0
0:2:33.789,296.945,37.8108,0,0.000885,0,0
0:2:34.094,298.413,37.997,0,0.000885,0,0
0:2:34.394,297.946,37.935,0,0.000885,0,0
0:2:34.683,298.649,38.0246,0,0.000885,0,0
0:2:34.983,299.058,38.0797,0,0.000885,0,0
0:2:35.289,300.526,38.2659,0,0.000885,0,0
0:2:35.591,300.82,38.3004,0,0.000885,0,0
0:2:35.890,300.936,38.3142,0,0.000885,0,0
0:2:36.189,301.758,38.4176,0,0.000885,0,0
0:2:36.490,303.048,38.5831,0,0.000885,0,0
0:2:36.794,303.342,38.6244,0,0.000885,0,0
0:2:37.091,303.987,38.7072,0,0.000885,0,0
0:2:37.390,304.338,38.7485,0,0.000885,0,0
0:2:37.692,305.277,38.8657,0,0.000885,0,0
0:2:37.992,305.508,38.9002,0,0.000885,0,0
0:2:38.296,305.922,38.9485,0,0.000885,0,0
0:2:38.593,306.74,39.0588,0,0.000885,0,0
0:2:38.890,307.154,39.1071,0,0.000885,0,0
0:2:39.194,307.328,39.1277,0,0.000885,0,0
0:2:39.495,308.324,39.2587,0,0.000885,0,0
0:2:39.785,309.031,39.3484,0,0.000885,0,0
0:2:40.089,309.734,39.438,0,0.000885,0,0
0:2:40.392,310.673,39.5552,0,0.000885,0,0
0:2:40.693,310.731,39.5621,0,0.000885,0,0
0:2:40.994,311.26,39.6311,0,0.000885,0,0
0:2:41.295,312.136,39.7414,0,0.000885,0,0
0:2:41.593,312.43,39.7827,0,0.000885,0,0
0:2:41.889,312.843,39.831,0,0.000885,0,0
0:2:42.193,313.488,39.9137,0,0.000885,0,0
0:2:42.494,314.191,40.0034,0,0.000885,0,0
0:2:42.784,314.485,40.0448,0,0.000885,0,0
0:2:43.094,315.539,40.1758,0,0.000885,0,0
0:2:43.390,316.011,40.2378,0,0.000885,0,0
0:2:43.696,316.713,40.3274,0,0.000885,0,0
0:2:43.994,316.949,40.355,0,0.000885,0,0
0:2:44.288,317.652,40.4446,0,0.000885,0,0
0:2:44.589,319,40.617,0,0.000885,0,0
0:2:44.892,319.823,40.7204,0,0.000885,0,0
0:2:45.192,319.938,40.7342,0,0.000885,0,0
0:2:45.494,320.348,40.7894,0,0.000885,0,0
0:2:45.796,320.819,40.8445,0,0.000885,0,0
0:2:46.097,321.638,40.9549,0,0.000885,0,0
0:2:46.397,322.345,41.0445,0,0.000885,0,0
0:2:46.695,322.754,41.0928,0,0.000885,0,0
0:2:46.991,323.163,41.1479,0,0.000885,0,0
0:2:47.295,324.222,41.2789,0,0.000885,0,0
0:2:47.595,324.747,41.3479,0,0.000885,0,0
0:2:47.897,325.218,41.4099,0,0.000885,0,0
0:2:48.197,325.392,41.4306,0,0.000885,0,0
0:2:48.491,325.628,41.4582,0,0.000885,0,0
0:2:48.796,326.566,41.5823,0,0.000885,0,0
0:2:49.095,327.678,41.7202,0,0.000885,0,0
0:2:49.396,328.208,41.7891,0,0.000885,0,0
0:2:49.698,328.443,41.8167,0,0.000885,0,0
0:2:49.991,328.795,41.865,0,0.000885,0,0
0:2:50.294,329.849,41.996,0,0.000885,0,0
0:2:50.596,330.672,42.0994,0,0.000885,0,0
0:2:50.898,331.081,42.1545,0,0.000885,0,0
0:2:51.196,331.61,42.2235,0,0.000885,0,0
0:2:51.498,332.429,42.3269,0,0.000885,0,0
0:2:51.796,333.136,42.4165,0,0.000885,0,0
0:2:52.092,333.603,42.4786,0,0.000885,0,0
0:2:52.397,333.955,42.52,0,0.000885,0,0
0:2:52.696,334.484,42.5889,0,0.000885,0,0
0:2:52.990,335.365,42.6992,0,0.000885,0,0
0:2:53.291,335.832,42.7613,0,0.000885,0,0
0:2:53.592,336.303,42.8164,0,0.000885,0,0
0:2:53.889,337.006,42.9061,0,0.000885,0,0
0:2:54.185,337.825,43.0164,0,0.000885,0,0
0:2:54.490,337.945,43.0302,0,0.000885,0,0
0:2:54.798,338.412,43.0853,0,0.000885,0,0
0:2:55.092,339.35,43.2094,0,0.000885,0,0
0:2:55.393,339.938,43.2853,0,0.000885,0,0
0:2:55.696,340.467,43.3473,0,0.000885,0,0
0:2:55.997,341.285,43.4508,0,0.000885,0,0
0:2:56.298,341.815,43.5197,0,0.000885,0,0
0:2:56.598,341.873,43.5266,0,0.000885,0,0
0:2:56.898,342.989,43.6714,0,0.000885,0,0
0:2:57.192,343.34,43.7128,0,0.000885,0,0
0:2:57.491,343.928,43.7886,0,0.000885,0,0
0:2:57.797,344.515,43.8644,0,0.000885,0,0
0:2:58.091,344.982,43.9265,0,0.000885,0,0
0:2:58.390,346.45,44.1127,0,0.000885,0,0
0:2:58.694,346.392,44.1058,0,0.000885,0,0
0:2:58.993,346.859,44.1609,0,0.000885,0,0
0:2:59.297,347.62,44.2574,0,0.000885,0,0
0:2:59.594,348.149,44.3264,0,0.000885,0,0
0:2:59.891,348.5,44.3747,0,0.000885,0,0
0:3:0.193,349.145,44.4574,0,0.000885,0,0
0:3:0.494,349.617,44.5126,0,0.000885,0,0
0:3:0.795,349.968,44.5608,0,0.000885,0,0
0:3:1.096,350.965,44.6849,0,0.000885,0,0
0:3:1.395,351.61,44.7677,0,0.000885,0,0
0:3:1.690,352.019,44.8228,0,0.000885,0,0
0:3:1.998,352.019,44.8228,0,0.000885,0,0
0:3:2.291,353.309,44.9883,0,0.000885,0,0
0:3:2.592,354.016,45.0779,0,0.000885,0,0
0:3:2.895,354.016,45.0779,0,0.000885,0,0
0:3:3.191,354.247,45.1055,0,0.000885,0,0
0:3:3.497,355.013,45.202,0,0.000885,0,0
0:3:3.792,355.715,45.2917,0,0.000885,0,0
0:3:4.093,357.241,45.4847,0,0.000885,0,0
0:3:4.394,357.766,45.5537,0,0.000885,0,0
0:3:4.693,358.589,45.6571,0,0.000885,0,0
0:3:4.987,358.647,45.664,0,0.000885,0,0
0:3:5.290,359.643,45.7881,0,0.000885,0,0
0:3:5.594,359.763,45.8088,0,0.000885,0,0
0:3:5.894,360.644,45.9191,0,0.000885,0,0
0:3:6.194,361.578,46.0363,0,0.000885,0,0
0:3:6.494,361.462,46.0225,0,0.000885,0,0
0:3:6.790,362.165,46.1121,0,0.000885,0,0
0:3:7.098,362.752,46.188,0,0.000885,0,0
0:3:7.391,363.455,46.2776,0,0.000885,0,0
0:3:7.690,364.1,46.3603,0,0.000885,0,0
0:3:7.994,364.394,46.3948,0,0.000885,0,0
0:3:8.291,364.687,46.4362,0,0.000885,0,0
0:3:8.596,365.92,46.5879,0,0.000885,0,0
0:3:8.891,366.743,46.6982,0,0.000885,0,0
0:3:9.191,367.036,46.7327,0,0.000885,0,0
0:3:9.493,367.561,46.8016,0,0.000885,0,0
0:3:9.792,368.206,46.8843,0,0.000885,0,0
0:3:10.096,369.087,46.9947,0,0.000885,0,0
0:3:10.397,369.496,47.0429,0,0.000885,0,0
0:3:10.701,369.967,47.105,0,0.000885,0,0
0:3:11.001,370.555,47.1808,0,0.000885,0,0
0:3:11.302,370.848,47.2153,0,0.000885,0,0
0:3:11.602,371.08,47.2498,0,0.000885,0,0
0:3:11.901,372.138,47.3808,0,0.000885,0,0
0:3:12.196,372.432,47.4221,0,0.000885,0,0
0:3:12.492,373.313,47.5325,0,0.000885,0,0
0:3:12.800,373.602,47.5669,0,0.000885,0,0
0:3:13.092,374.189,47.6428,0,0.000885,0,0
0:3:13.393,375.305,47.7876,0,0.000885,0,0
0:3:13.687,375.83,47.8496,0,0.000885,0,0
0:3:13.994,376.36,47.9186,0,0.000885,0,0
0:3:14.291,376.417,47.9255,0,0.000885,0,0
0:3:14.595,376.889,47.9875,0,0.000885,0,0
0:3:14.894,378.295,48.1668,0,0.000885,0,0
0:3:15.198,378.766,48.2288,0,0.000885,0,0
0:3:15.498,378.997,48.2564,0,0.000885,0,0
0:3:15.799,379.469,48.3185,0,0.000885,0,0
0:3:16.099,380.114,48.3943,0,0.000885,0,0
0:3:16.400,381.168,48.5322,0,0.000885,0,0
0:3:16.694,381.991,48.6356,0,0.000885,0,0
0:3:16.993,382.342,48.6839,0,0.000885,0,0
0:3:17.296,382.636,48.7184,0,0.000885,0,0
0:3:17.594,383.223,48.7942,0,0.000885,0,0
0:3:17.892,383.69,48.8563,0,0.000885,0,0
0:3:18.194,384.335,48.9321,0,0.000885,0,0
0:3:18.494,385.158,49.0424,0,0.000885,0,0
0:3:18.797,386.212,49.1734,0,0.000885,0,0
0:3:19.096,386.27,49.1803,0,0.000885,0,0
0:3:19.399,387.093,49.2837,0,0.000885,0,0
0:3:19.697,387.916,49.394,0,0.000885,0,0
0:3:19.994,387.974,49.4009,0,0.000885,0,0
0:3:20.295,388.735,49.4975,0,0.000885,0,0
0:3:20.599,389.5,49.594,0,0.000885,0,0
0:3:20.898,389.673,49.6147,0,0.000885,0,0
0:3:21.200,390.732,49.7526,0,0.000885,0,0
0:3:21.499,390.732,49.7526,0,0.000885,0,0
0:3:21.795,391.666,49.8698,0,0.000885,0,0
0:3:22.094,392.547,49.9801,0,0.000885,0,0
0:3:22.396,393.018,50.0421,0,0.000885,0,0
0:3:22.695,393.312,50.0766,0,0.000885,0,0
0:3:23.001,393.605,50.118,0,0.000885,0,0
0:3:23.296,394.717,50.2559,0,0.000885,0,0
0:3:23.595,395.069,50.3041,0,0.000885,0,0
0:3:23.897,395.714,50.3869,0,0.000885,0,0
0:3:24.198,396.479,50.4834,0,0.000885,0,0
0:3:24.500,397.533,50.6144,0,0.000885,0,0
0:3:24.797,398,50.6765,0,0.000885,0,0
0:3:25.095,397.885,50.6627,0,0.000885,0,0
0:3:25.396,398.178,50.6972,0,0.000885,0,0
0:3:25.701,398.823,50.7799,0,0.000885,0,0
0:3:26.002,399.526,50.8695,0,0.000885,0,0
0:3:26.302,400.349,50.9729,0,0.000885,0,0
0:3:26.602,400.878,51.0419,0,0.000885,0,0
0:3:26.897,401.523,51.1246,0,0.000885,0,0
0:3:27.196,401.932,51.1729,0,0.000885,0,0
0:3:27.499,402.52,51.2487,0,0.000885,0,0
0:3:27.800,403.516,51.3797,0,0.000885,0,0
0:3:28.092,404.334,51.4832,0,0.000885,0,0
0:3:28.401,404.806,51.5383,0,0.000885,0,0
0:3:28.698,405.393,51.6142,0,0.000885,0,0
0:3:29.000,405.745,51.6624,0,0.000885,0,0
0:3:29.300,406.39,51.7452,0,0.000885,0,0
0:3:29.594,406.977,51.821,0,0.000885,0,0
0:3:29.893,407.795,51.9244,0,0.000885,0,0
0:3:30.197,407.973,51.9451,0,0.000885,0,0
0:3:30.497,408.676,52.0347,0,0.000885,0,0
0:3:30.801,409.085,52.0899,0,0.000885,0,0
0:3:31.101,409.557,52.145,0,0.000885,0,0
0:3:31.403,410.611,52.2829,0,0.000885,0,0
0:3:31.703,411.376,52.3795,0,0.000885,0,0
0:3:31.999,411.549,52.4002,0,0.000885,0,0
0:3:32.297,412.315,52.4967,0,0.000885,0,0
0:3:32.600,413.075,52.5932,0,0.000885,0,0
0:3:32.900,413.427,52.6415,0,0.000885,0,0
0:3:33.190,413.956,52.7035,0,0.000885,0,0
0:3:33.493,414.601,52.7863,0,0.000885,0,0
0:3:33.796,415.068,52.8483,0,0.000885,0,0
0:3:34.102,415.54,52.9104,0,0.000885,0,0
0:3:34.400,416.42,53.0207,0,0.000885,0,0
0:3:34.695,417.532,53.1586,0,0.000885,0,0
0:3:34.994,417.826,53.1999,0,0.000885,0,0
0:3:35.296,418.119,53.2344,0,0.000885,0,0
0:3:35.599,419.116,53.3654,0,0.000885,0,0
0:3:35.899,419.409,53.3999,0,0.000885,0,0
0:3:36.199,419.881,53.4619,0,0.000885,0,0
0:3:36.499,420.406,53.5309,0,0.000885,0,0
0:3:36.802,420.757,53.5723,0,0.000885,0,0
0:3:37.102,421.932,53.7239,0,0.000885,0,0
0:3:37.396,422.341,53.7722,0,0.000885,0,0
0:3:37.694,422.461,53.786,0,0.000885,0,0
0:3:37.989,423.106,53.8687,0,0.000885,0,0
0:3:38.295,423.809,53.9584,0,0.000885,0,0
0:3:38.593,424.454,54.0411,0,0.000885,0,0
0:3:38.896,424.983,54.1101,0,0.000885,0,0
0:3:39.194,425.392,54.1652,0,0.000885,0,0
0:3:39.500,426.037,54.248,0,0.000885,0,0
0:3:39.795,426.74,54.3376,0,0.000885,0,0
0:3:40.095,427.149,54.3858,0,0.000885,0,0
0:3:40.396,427.563,54.441,0,0.000885,0,0
0:3:40.699,428.444,54.5513,0,0.000885,0,0
0:3:40.999,428.733,54.5858,0,0.000885,0,0
0:3:41.299,430.259,54.7857,0,0.000885,0,0
0:3:41.599,430.259,54.7857,0,0.000885,0,0
0:3:41.894,431.433,54.9305,0,0.000885,0,0
0:3:42.194,431.962,54.9995,0,0.000885,0,0
0:3:42.495,432.256,55.034,0,0.000885,0,0
0:3:42.802,432.839,55.1098,0,0.000885,0,0
0:3:43.100,433.426,55.1856,0,0.000885,0,0
0:3:43.394,433.955,55.2546,0,0.000885,0,0
0:3:43.691,434.422,55.3097,0,0.000885,0,0
0:3:43.996,435.009,55.3856,0,0.000885,0,0
0:3:44.296,435.717,55.4752,0,0.000885,0,0
0:3:44.599,436.126,55.5304,0,0.000885,0,0
0:3:44.894,436.535,55.5786,0,0.000885,0,0
0:3:45.191,437.18,55.6614,0,0.000885,0,0
0:3:45.492,437.825,55.7441,0,0.000885,0,0
0:3:45.798,437.358,55.689,0,0.000885,0,0
0:3:46.096,436.713,55.6062,0,0.000885,0,0
0:3:46.395,436.299,55.5511,0,0.000885,0,0
0:3:46.694,436.829,55.62,0,0.000885,0,0
0:3:46.998,437.532,55.7096,0,0.000885,0,0
0:3:47.295,436.242,55.5442,0,0.000885,0,0
0:3:47.597,437.358,55.689,0,0.000885,0,0
0:3:47.897,438.528,55.8337,0,0.000885,0,0
0:3:48.201,440.405,56.0751,0,0.000885,0,0
0:3:48.498,441.286,56.1854,0,0.000885,0,0
0:3:48.795,442.634,56.3577,0,0.000885,0,0
0:3:49.097,444.102,56.5439,0,0.000885,0,0
0:3:49.397,445.156,56.6818,0,0.000885,0,0
0:3:49.700,441.695,56.2405,0,0.000885,0,0
0:3:50.001,440.525,56.0889,0,0.000885,0,0
0:3:50.302,441.17,56.1716,0,0.000885,0,0
0:3:50.604,443.75,56.5025,0,0.000885,0,0
0:3:50.902,445.627,56.737,0,0.000885,0,0
0:3:51.201,446.975,56.9093,0,0.000885,0,0
0:3:51.502,448.559,57.1093,0,0.000885,0,0
0:3:51.796,449.733,57.261,0,0.000885,0,0
0:3:52.092,451.962,57.5436,0,0.000885,0,0
0:3:52.389,452.9,57.6677,0,0.000885,0,0
0:3:52.696,454.19,57.8263,0,0.000885,0,0
0:3:52.992,455.538,57.9987,0,0.000885,0,0
0:3:53.298,456.419,58.1159,0,0.000885,0,0
0:3:53.595,457.531,58.2538,0,0.000885,0,0
0:3:53.902,458.296,58.3503,0,0.000885,0,0
0:3:54.196,459.056,58.4469,0,0.000885,0,0
0:3:54.496,459.822,58.5434,0,0.000885,0,0
0:3:54.799,460.404,58.6192,0,0.000885,0,0
0:3:55.100,460.818,58.6744,0,0.000885,0,0
0:3:55.403,455.48,57.9918,0,0.000885,0,0
0:3:55.704,453.781,57.7781,0,0.000885,0,0
0:3:56.004,455.009,57.9366,0,0.000885,0,0
0:3:56.304,456.477,58.1228,0,0.000885,0,0
0:3:56.602,458.354,58.3572,0,0.000885,0,0
0:3:56.896,459.644,58.5227,0,0.000885,0,0
0:3:57.203,460.818,58.6744,0,0.000885,0,0
0:3:57.500,462.695,58.9088,0,0.000885,0,0
0:3:57.803,463.634,59.0329,0,0.000885,0,0
0:3:58.104,464.746,59.1708,0,0.000885,0,0
0:3:58.398,465.569,59.2811,0,0.000885,0,0
0:3:58.703,466.214,59.357,0,0.000885,0,0
0:3:59.001,467.913,59.5776,0,0.000885,0,0
0:3:59.305,468.558,59.6603,0,0.000885,0,0
0:3:59.604,469.087,59.7293,0,0.000885,0,0
0:3:59.897,469.554,59.7844,0,0.000885,0,0
0:4:0.197,469.381,59.7638,0,0.000885,0,0
0:4:0.499,470.729,59.9361,0,0.000885,0,0
0:4:0.801,471.08,59.9775,0,0.000885,0,0
0:4:1.103,471.374,60.0189,0,0.000885,0,0
0:4:1.401,472.019,60.1016,0,0.000885,0,0
0:4:1.699,472.019,60.1016,0,0.000885,0,0
0:4:1.993,472.606,60.1774,0,0.000885,0,0
0:4:2.289,473.429,60.2809,0,0.000885,0,0
0:4:2.588,473.544,60.2947,0,0.000885,0,0
0:4:2.902,473.602,60.3015,0,0.000885,0,0
0:4:3.199,473.896,60.336,0,0.000885,0,0
0:4:3.497,474.247,60.3843,0,0.000885,0,0
0:4:3.800,474.305,60.3912,0,0.000885,0,0
0:4:4.099,474.834,60.4601,0,0.000885,0,0
0:4:4.402,475.421,60.5291,0,0.000885,0,0
0:4:4.702,475.657,60.5635,0,0.000885,0,0
0:4:5.005,476.302,60.6463,0,0.000885,0,0
0:4:5.306,476.711,60.6945,0,0.000885,0,0
0:4:5.610,477.299,60.7704,0,0.000885,0,0
0:4:5.911,477.65,60.8187,0,0.000885,0,0
0:4:6.212,478.469,60.9221,0,0.000885,0,0
0:4:6.511,478.998,60.991,0,0.000885,0,0
0:4:6.809,479.936,61.1082,0,0.000885,0,0
0:4:7.105,480.052,61.122,0,0.000885,0,0
0:4:7.399,480.817,61.2185,0,0.000885,0,0
0:4:7.700,481.871,61.3564,0,0.000885,0,0
0:4:8.001,481.814,61.3496,0,0.000885,0,0
0:4:8.297,482.574,61.4461,0,0.000885,0,0
0:4:8.604,483.281,61.5357,0,0.000885,0,0
0:4:8.899,484.22,61.6529,0,0.000885,0,0
0:4:9.199,484.687,61.715,0,0.000885,0,0
0:4:9.500,484.514,61.6874,0,0.000885,0,0
0:4:9.799,484.981,61.7494,0,0.000885,0,0
0:4:10.103,485.096,61.7632,0,0.000885,0,0
0:4:10.405,485.568,61.8253,0,0.000885,0,0
0:4:10.709,485.919,61.8667,0,0.000885,0,0
0:4:11.009,486.622,61.9563,0,0.000885,0,0
0:4:11.310,486.974,62.0046,0,0.000885,0,0
0:4:11.611,487.151,62.0252,0,0.000885,0,0
0:4:11.906,488.499,62.1976,0,0.000885,0,0
0:4:12.204,488.619,62.2114,0,0.000885,0,0
0:4:12.497,489.967,62.3838,0,0.000885,0,0
0:4:12.806,490.261,62.4251,0,0.000885,0,0
0:4:13.100,490.141,62.4044,0,0.000885,0,0
0:4:13.405,490.319,62.432,0,0.000885,0,0
0:4:13.703,490.319,62.432,0,0.000885,0,0
0:4:14.006,491.609,62.5906,0,0.000885,0,0
0:4:14.307,492.196,62.6664,0,0.000885,0,0
0:4:14.599,492.431,62.7009,0,0.000885,0,0
0:4:14.906,493.014,62.7699,0,0.000885,0,0
0:4:15.203,493.721,62.8595,0,0.000885,0,0
0:4:15.505,495.305,63.0663,0,0.000885,0,0
0:4:15.809,496.244,63.1836,0,0.000885,0,0
0:4:16.109,496.826,63.2594,0,0.000885,0,0
0:4:16.411,497.471,63.3421,0,0.000885,0,0
0:4:16.711,499.055,63.5421,0,0.000885,0,0
0:4:17.004,499.584,63.611,0,0.000885,0,0
0:4:17.305,500.229,63.6938,0,0.000885,0,0
0:4:17.599,499.411,63.5835,0,0.000885,0,0
0:4:17.895,499.055,63.5421,0,0.000885,0,0
0:4:18.200,500.465,63.7213,0,0.000885,0,0
0:4:18.506,501.288,63.8248,0,0.000885,0,0
0:4:18.803,500.874,63.7765,0,0.000885,0,0
0:4:19.095,498.294,63.4456,0,0.000885,0,0
0:4:19.394,498.646,63.4869,0,0.000885,0,0
0:4:19.700,500.407,63.7145,0,0.000885,0,0
0:4:19.999,501.519,63.8523,0,0.000885,0,0
0:4:20.304,502.694,64.004,0,0.000885,0,0
0:4:20.604,503.984,64.1695,0,0.000885,0,0
0:4:20.905,505.216,64.3281,0,0.000885,0,0
0:4:21.205,506.39,64.4729,0,0.000885,0,0
0:4:21.501,507.329,64.597,0,0.000885,0,0
0:4:21.799,508.089,64.6935,0,0.000885,0,0
0:4:22.101,502.458,63.9765,0,0.000885,0,0
0:4:22.400,449.906,57.2816,0,0.000885,0,0
0:4:22.702,444.569,56.606,0,0.000885,0,0
0:4:23.001,444.862,56.6404,0,0.000885,0,0
0:4:23.304,445.743,56.7507,0,0.000885,0,0
0:4:23.601,446.859,56.8955,0,0.000885,0,0
0:4:23.909,447.447,56.9714,0,0.000885,0,0
0:4:24.199,447.972,57.0403,0,0.000885,0,0
0:4:24.499,439.644,55.9785,0,0.000885,0,0
0:4:24.801,383.632,48.8425,0,0.000885,0,0
0:4:25.102,381.288,48.546,0,0.000885,0,0
0:4:25.404,381.168,48.5322,0,0.000885,0,0
0:4:25.704,381.582,48.5874,0,0.000885,0,0
0:4:26.004,381.64,48.5942,0,0.000885,0,0
0:4:26.302,378.121,48.1461,0,0.000885,0,0
0:4:26.434,370.497,47.1739,0,0.000885,0,0