File: DataFile2021-06-09_072844.csv
Test ID:,Date Tested:,Time:,Test Type:,Diameter Avg. (mm):,Cyl. Corr. Factor:,Height (mm):,Age (days):,Weight (kN):,Break Type:,Ramp Rate (MPa/s):,Load at Break (kN):,Stress at Break (MPa):
12,6/9/2021,07:28,Cylinder,100,1,200,0,3.6,3,0.25,675.49,86.01
Sample Time,Load (kN),Stress (MPa),Long. Strain,Trans. Strain,Chan1 Deflection (mm),Chan2 Deflection (mm)
0:0:11.841,6.86361,0.875634,0,0.000885,0,0
0:0:12.142,9.14999,1.16521,0,0.000885,0,0
0:0:12.439,9.61706,1.22727,0,0.000885,0,0
0:0:12.737,9.03434,1.15142,0,0.000885,0,0
0:0:13.035,8.91424,1.13763,0,0.000885,0,0
0:0:13.330,8.74076,1.11006,0,0.000885,0,0
0:0:13.630,8.62065,1.09627,0,0.000885,0,0
0:0:13.925,8.79858,1.11695,0,0.000885,0,0
0:0:14.223,8.85641,1.13074,0,0.000885,0,0
0:0:14.521,9.20782,1.17211,0,0.000885,0,0
0:0:14.816,9.73716,1.24106,0,0.000885,0,0
0:0:15.118,10.7336,1.36516,0,0.000885,0,0
0:0:15.421,11.085,1.41343,0,0.000885,0,0
0:0:15.723,13.0778,1.66853,0,0.000885,0,0
0:0:16.019,12.8465,1.63406,0,0.000885,0,0
0:0:16.318,13.1979,1.68232,0,0.000885,0,0
0:0:16.617,14.1943,1.80643,0,0.000885,0,0
0:0:16.910,15.1328,1.92364,0,0.000885,0,0
0:0:17.214,14.9549,1.90295,0,0.000885,0,0
0:0:17.518,16.1871,2.06153,0,0.000885,0,0
0:0:17.822,16.6586,2.12359,0,0.000885,0,0
0:0:18.125,17.5349,2.2339,0,0.000885,0,0
0:0:18.427,17.4771,2.22701,0,0.000885,0,0
0:0:18.730,18.4735,2.35111,0,0.000885,0,0
0:0:19.025,19.2386,2.44764,0,0.000885,0,0
0:0:19.328,19.412,2.47522,0,0.000885,0,0
0:0:19.623,20.5285,2.61311,0,0.000885,0,0
0:0:19.922,21.347,2.71653,0,0.000885,0,0
0:0:20.222,21.6406,2.7579,0,0.000885,0,0
0:0:20.517,22.1699,2.81996,0,0.000885,0,0
0:0:20.819,23.0507,2.93717,0,0.000885,0,0
0:0:21.115,24.0471,3.06127,0,0.000885,0,0
0:0:21.416,24.5764,3.13022,0,0.000885,0,0
0:0:21.724,25.0435,3.18538,0,0.000885,0,0
0:0:22.019,26.0977,3.32327,0,0.000885,0,0
0:0:22.323,26.4536,3.36464,0,0.000885,0,0
0:0:22.628,26.6271,3.39222,0,0.000885,0,0
0:0:22.931,27.3877,3.48875,0,0.000885,0,0
0:0:23.233,27.7436,3.53012,0,0.000885,0,0
0:0:23.535,28.2106,3.59217,0,0.000885,0,0
0:0:23.839,28.562,3.63354,0,0.000885,0,0
0:0:24.132,28.7978,3.66801,0,0.000885,0,0
0:0:24.433,29.5584,3.76454,0,0.000885,0,0
0:0:24.731,30.1456,3.84038,0,0.000885,0,0
0:0:25.030,31.0842,3.95759,0,0.000885,0,0
0:0:25.328,31.6135,4.02654,0,0.000885,0,0
0:0:25.624,32.3163,4.11617,0,0.000885,0,0
0:0:25.925,33.0191,4.2058,0,0.000885,0,0
0:0:26.218,33.3706,4.24717,0,0.000885,0,0
0:0:26.521,34.4871,4.39196,0,0.000885,0,0
0:0:26.817,34.8385,4.43333,0,0.000885,0,0
0:0:27.121,35.4256,4.50917,0,0.000885,0,0
0:0:27.427,35.8927,4.57122,0,0.000885,0,0
0:0:27.729,36.6,4.66086,0,0.000885,0,0
0:0:28.032,37.1827,4.7367,0,0.000885,0,0
0:0:28.334,38.0634,4.84701,0,0.000885,0,0
0:0:28.634,38.0634,4.84701,0,0.000885,0,0
0:0:28.933,38.6506,4.92286,0,0.000885,0,0
0:0:29.229,39.647,5.04696,0,0.000885,0,0
0:0:29.529,39.7671,5.06075,0,0.000885,0,0
0:0:29.824,40.6434,5.17796,0,0.000885,0,0
0:0:30.127,40.8792,5.20554,0,0.000885,0,0
0:0:30.424,41.6398,5.30207,0,0.000885,0,0
0:0:30.721,42.4627,5.40549,0,0.000885,0,0
0:0:31.022,42.9921,5.47444,0,0.000885,0,0
0:0:31.317,43.9306,5.59165,0,0.000885,0,0
0:0:31.619,44.282,5.63991,0,0.000885,0,0
0:0:31.925,44.5756,5.67439,0,0.000885,0,0
0:0:32.230,45.0427,5.73644,0,0.000885,0,0
0:0:32.535,45.8656,5.83986,0,0.000885,0,0
0:0:32.839,46.3905,5.90881,0,0.000885,0,0
0:0:33.140,46.9198,5.97086,0,0.000885,0,0
0:0:33.444,47.4492,6.03981,0,0.000885,0,0
0:0:33.741,47.9741,6.10875,0,0.000885,0,0
0:0:34.040,48.5612,6.1846,0,0.000885,0,0
0:0:34.337,49.5576,6.3087,0,0.000885,0,0
0:0:34.639,50.2026,6.39144,0,0.000885,0,0
0:0:34.933,50.2026,6.39144,0,0.000885,0,0
0:0:35.234,51.2613,6.52934,0,0.000885,0,0
0:0:35.531,51.6705,6.5776,0,0.000885,0,0
0:0:35.826,52.0798,6.63276,0,0.000885,0,0
0:0:36.129,52.8449,6.72928,0,0.000885,0,0
0:0:36.423,53.8991,6.86028,0,0.000885,0,0
0:0:36.725,54.077,6.88786,0,0.000885,0,0
0:0:37.022,54.6019,6.94992,0,0.000885,0,0
0:0:37.325,54.8377,6.98439,0,0.000885,0,0
0:0:37.631,56.012,7.12918,0,0.000885,0,0
0:0:37.934,56.4791,7.19123,0,0.000885,0,0
0:0:38.237,57.2442,7.28776,0,0.000885,0,0
0:0:38.538,57.6534,7.34292,0,0.000885,0,0
0:0:38.839,58.8277,7.48771,0,0.000885,0,0
0:0:39.138,58.7699,7.48081,0,0.000885,0,0
0:0:39.433,59.5884,7.58423,0,0.000885,0,0
0:0:39.734,59.8241,7.61871,0,0.000885,0,0
0:0:40.031,60.4113,7.69455,0,0.000885,0,0
0:0:40.331,61.2298,7.79797,0,0.000885,0,0
0:0:40.630,61.937,7.8876,0,0.000885,0,0
0:0:40.924,62.582,7.97034,0,0.000885,0,0
0:0:41.228,63.0491,8.0255,0,0.000885,0,0
0:0:41.523,63.5206,8.08755,0,0.000885,0,0
0:0:41.822,64.1033,8.16339,0,0.000885,0,0
0:0:42.121,64.8106,8.25302,0,0.000885,0,0
0:0:42.425,65.2777,8.30818,0,0.000885,0,0
0:0:42.731,65.807,8.37713,0,0.000885,0,0
0:0:43.033,66.3319,8.44608,0,0.000885,0,0
0:0:43.335,66.6255,8.48055,0,0.000885,0,0
0:0:43.639,67.5062,8.59776,0,0.000885,0,0
0:0:43.938,68.1512,8.6805,0,0.000885,0,0
0:0:44.239,68.6805,8.74255,0,0.000885,0,0
0:0:44.533,69.3255,8.82529,0,0.000885,0,0
0:0:44.836,70.0284,8.91492,0,0.000885,0,0
0:0:45.133,70.3798,8.96318,0,0.000885,0,0
0:0:45.431,71.2605,9.0735,0,0.000885,0,0
0:0:45.731,71.9055,9.15624,0,0.000885,0,0
0:0:46.026,72.5505,9.23897,0,0.000885,0,0
0:0:46.329,73.3111,9.3355,0,0.000885,0,0
0:0:46.624,73.4312,9.34929,0,0.000885,0,0
0:0:46.924,73.7248,9.38376,0,0.000885,0,0
0:0:47.223,74.5433,9.49408,0,0.000885,0,0
0:0:47.529,75.1883,9.57682,0,0.000885,0,0
0:0:47.832,75.3662,9.5975,0,0.000885,0,0
0:0:48.136,76.3626,9.72161,0,0.000885,0,0
0:0:48.439,76.714,9.76987,0,0.000885,0,0
0:0:48.741,77.4168,9.8595,0,0.000885,0,0
0:0:49.039,78.1819,9.95603,0,0.000885,0,0
0:0:49.340,78.8848,10.0457,0,0.000885,0,0
0:0:49.635,79.5298,10.1284,0,0.000885,0,0
0:0:49.936,80.1169,10.1973,0,0.000885,0,0
0:0:50.235,80.7041,10.2732,0,0.000885,0,0
0:0:50.530,81.1711,10.3352,0,0.000885,0,0
0:0:50.833,81.4647,10.3697,0,0.000885,0,0
0:0:51.128,82.1097,10.4525,0,0.000885,0,0
0:0:51.430,82.9326,10.5559,0,0.000885,0,0
0:0:51.727,83.2841,10.6041,0,0.000885,0,0
0:0:52.023,83.5198,10.6317,0,0.000885,0,0
0:0:52.325,84.2805,10.7282,0,0.000885,0,0
0:0:52.631,85.5126,10.8868,0,0.000885,0,0
0:0:52.934,86.1576,10.9696,0,0.000885,0,0
0:0:53.237,86.6247,11.0316,0,0.000885,0,0
0:0:53.539,87.0384,11.0799,0,0.000885,0,0
0:0:53.843,88.0348,11.2109,0,0.000885,0,0
0:0:54.140,88.3862,11.2522,0,0.000885,0,0
0:0:54.442,89.0312,11.335,0,0.000885,0,0
0:0:54.738,89.1468,11.3488,0,0.000885,0,0
0:0:55.035,89.3247,11.3763,0,0.000885,0,0
0:0:55.336,90.4412,11.5142,0,0.000885,0,0
0:0:55.632,91.5533,11.659,0,0.000885,0,0
0:0:55.934,91.7891,11.6866,0,0.000885,0,0
0:0:56.229,92.0248,11.7142,0,0.000885,0,0
0:0:56.530,92.9011,11.8314,0,0.000885,0,0
0:0:56.828,93.724,11.9348,0,0.000885,0,0
0:0:57.123,93.9598,11.9624,0,0.000885,0,0
0:0:57.424,94.3112,12.0107,0,0.000885,0,0
0:0:57.729,94.8984,12.0796,0,0.000885,0,0
0:0:58.034,95.8948,12.2106,0,0.000885,0,0
0:0:58.338,96.4819,12.2865,0,0.000885,0,0
0:0:58.639,97.3582,12.3968,0,0.000885,0,0
0:0:58.941,98.0032,12.4795,0,0.000885,0,0
0:0:59.238,98.7105,12.5691,0,0.000885,0,0
0:0:59.539,99.0619,12.6105,0,0.000885,0,0
0:0:59.835,99.6491,12.6864,0,0.000885,0,0
0:1:0.133,100.116,12.7484,0,0.000885,0,0
0:1:0.433,100.703,12.8242,0,0.000885,0,0
0:1:0.729,100.819,12.838,0,0.000885,0,0
0:1:1.031,101.522,12.9277,0,0.000885,0,0
0:1:1.325,102.287,13.0242,0,0.000885,0,0
0:1:1.627,102.523,13.0518,0,0.000885,0,0
0:1:1.924,103.168,13.1345,0,0.000885,0,0
0:1:2.229,104.4,13.2931,0,0.000885,0,0
0:1:2.533,104.689,13.3276,0,0.000885,0,0
0:1:2.837,105.748,13.4655,0,0.000885,0,0
0:1:3.138,106.335,13.5413,0,0.000885,0,0
0:1:3.440,106.393,13.5482,0,0.000885,0,0
0:1:3.738,106.922,13.6103,0,0.000885,0,0
0:1:4.037,107.389,13.6723,0,0.000885,0,0
0:1:4.332,108.385,13.8033,0,0.000885,0,0
0:1:4.635,108.795,13.8516,0,0.000885,0,0
0:1:4.931,109.266,13.9136,0,0.000885,0,0
0:1:5.232,109.853,13.9895,0,0.000885,0,0
0:1:5.529,111.023,14.1343,0,0.000885,0,0
0:1:5.825,111.143,14.148,0,0.000885,0,0
0:1:6.126,111.673,14.217,0,0.000885,0,0
0:1:6.422,112.549,14.3273,0,0.000885,0,0
0:1:6.723,113.194,14.41,0,0.000885,0,0
0:1:7.020,113.545,14.4583,0,0.000885,0,0
0:1:7.324,114.253,14.5479,0,0.000885,0,0
0:1:7.628,114.31,14.5548,0,0.000885,0,0
0:1:7.933,115.307,14.6789,0,0.000885,0,0
0:1:8.234,115.836,14.7479,0,0.000885,0,0
0:1:8.535,116.067,14.7755,0,0.000885,0,0
0:1:8.836,116.89,14.8858,0,0.000885,0,0
0:1:9.134,118.18,15.0444,0,0.000885,0,0
0:1:9.433,118.532,15.0926,0,0.000885,0,0
0:1:9.734,118.883,15.134,0,0.000885,0,0
0:1:10.029,118.768,15.1202,0,0.000885,0,0
0:1:10.330,119.119,15.1685,0,0.000885,0,0
0:1:10.627,120.409,15.3339,0,0.000885,0,0
0:1:10.925,121.463,15.4649,0,0.000885,0,0
0:1:11.224,122.05,15.5408,0,0.000885,0,0
0:1:11.520,122.344,15.5753,0,0.000885,0,0
0:1:11.822,122.873,15.6442,0,0.000885,0,0
0:1:12.127,123.87,15.7683,0,0.000885,0,0
0:1:12.431,124.221,15.8166,0,0.000885,0,0
0:1:12.734,124.399,15.8373,0,0.000885,0,0
0:1:13.039,125.217,15.9407,0,0.000885,0,0
0:1:13.342,125.805,16.0165,0,0.000885,0,0
0:1:13.644,125.925,16.0303,0,0.000885,0,0
0:1:13.945,126.743,16.1406,0,0.000885,0,0
0:1:14.241,127.682,16.2578,0,0.000885,0,0
0:1:14.541,128.442,16.3544,0,0.000885,0,0
0:1:14.842,128.442,16.3544,0,0.000885,0,0
0:1:15.136,129.323,16.4647,0,0.000885,0,0
0:1:15.439,130.026,16.5543,0,0.000885,0,0
0:1:15.734,130.733,16.6439,0,0.000885,0,0
0:1:16.035,131.258,16.7129,0,0.000885,0,0
0:1:16.332,131.845,16.7887,0,0.000885,0,0
0:1:16.631,132.548,16.8784,0,0.000885,0,0
0:1:16.932,133.077,16.9473,0,0.000885,0,0
0:1:17.224,133.135,16.9542,0,0.000885,0,0
0:1:17.529,134.545,17.1335,0,0.000885,0,0
0:1:17.832,134.194,17.0852,0,0.000885,0,0
0:1:18.136,135.133,17.2024,0,0.000885,0,0
0:1:18.439,135.6,17.2645,0,0.000885,0,0
0:1:18.741,136.596,17.3955,0,0.000885,0,0
0:1:19.044,137.01,17.4437,0,0.000885,0,0
0:1:19.339,137.944,17.5609,0,0.000885,0,0
0:1:19.639,138.767,17.6713,0,0.000885,0,0
0:1:19.937,138.531,17.6368,0,0.000885,0,0
0:1:20.234,139.763,17.7954,0,0.000885,0,0
0:1:20.535,139.883,17.8092,0,0.000885,0,0
0:1:20.830,140.235,17.8574,0,0.000885,0,0
0:1:21.132,140.702,17.9126,0,0.000885,0,0
0:1:21.428,141.64,18.0367,0,0.000885,0,0
0:1:21.725,142.757,18.1746,0,0.000885,0,0
0:1:22.025,143.282,18.2435,0,0.000885,0,0
0:1:22.330,143.695,18.2987,0,0.000885,0,0
0:1:22.634,144.162,18.3538,0,0.000885,0,0
0:1:22.937,145.217,18.4917,0,0.000885,0,0
0:1:23.240,145.337,18.5055,0,0.000885,0,0
0:1:23.543,145.452,18.5193,0,0.000885,0,0
0:1:23.838,146.275,18.6227,0,0.000885,0,0
0:1:24.140,146.742,18.6848,0,0.000885,0,0
0:1:24.436,147.801,18.8158,0,0.000885,0,0
0:1:24.738,148.21,18.871,0,0.000885,0,0
0:1:25.034,148.62,18.9261,0,0.000885,0,0
0:1:25.333,149.794,19.0709,0,0.000885,0,0
0:1:25.632,150.203,19.1261,0,0.000885,0,0
0:1:25.925,150.732,19.195,0,0.000885,0,0
0:1:26.229,151.2,19.2502,0,0.000885,0,0
0:1:26.524,151.907,19.3398,0,0.000885,0,0
0:1:26.823,152.552,19.4225,0,0.000885,0,0
0:1:27.131,153.134,19.4984,0,0.000885,0,0
0:1:27.434,153.606,19.5604,0,0.000885,0,0
0:1:27.738,154.251,19.6432,0,0.000885,0,0
0:1:28.041,154.718,19.6983,0,0.000885,0,0
0:1:28.343,155.541,19.8017,0,0.000885,0,0
0:1:28.647,156.128,19.8776,0,0.000885,0,0
0:1:28.945,156.302,19.8983,0,0.000885,0,0
0:1:29.244,157.125,20.0086,0,0.000885,0,0
0:1:29.541,157.534,20.0568,0,0.000885,0,0
0:1:29.844,158.65,20.2016,0,0.000885,0,0
0:1:30.139,158.592,20.1947,0,0.000885,0,0
0:1:30.439,159.295,20.2844,0,0.000885,0,0
0:1:30.738,159.647,20.3257,0,0.000885,0,0
0:1:31.033,160.585,20.443,0,0.000885,0,0
0:1:31.335,161.346,20.5464,0,0.000885,0,0
0:1:31.629,161.466,20.5602,0,0.000885,0,0
0:1:31.932,162.053,20.636,0,0.000885,0,0
0:1:32.228,162.929,20.7463,0,0.000885,0,0
0:1:32.532,163.868,20.8635,0,0.000885,0,0
0:1:32.836,164.397,20.9325,0,0.000885,0,0
0:1:33.140,164.691,20.967,0,0.000885,0,0
0:1:33.443,165.336,21.0497,0,0.000885,0,0
0:1:33.744,166.217,21.16,0,0.000885,0,0
0:1:34.046,166.862,21.2427,0,0.000885,0,0
0:1:34.345,167.213,21.291,0,0.000885,0,0
0:1:34.642,167.8,21.3669,0,0.000885,0,0
0:1:34.944,167.974,21.3875,0,0.000885,0,0
0:1:35.237,168.503,21.4565,0,0.000885,0,0
0:1:35.538,169.499,21.5806,0,0.000885,0,0
0:1:35.838,169.615,21.5944,0,0.000885,0,0
0:1:36.134,170.616,21.7254,0,0.000885,0,0
0:1:36.435,171.261,21.8081,0,0.000885,0,0
0:1:36.730,172.079,21.9115,0,0.000885,0,0
0:1:37.033,172.667,21.9874,0,0.000885,0,0
0:1:37.338,173.018,22.0287,0,0.000885,0,0
0:1:37.641,173.432,22.0839,0,0.000885,0,0
0:1:37.944,174.544,22.2218,0,0.000885,0,0
0:1:38.245,174.659,22.2356,0,0.000885,0,0
0:1:38.548,175.425,22.339,0,0.000885,0,0
0:1:38.842,175.949,22.4011,0,0.000885,0,0
0:1:39.144,176.83,22.5183,0,0.000885,0,0
0:1:39.442,177.417,22.5872,0,0.000885,0,0
0:1:39.738,177.533,22.601,0,0.000885,0,0
0:1:40.039,178.062,22.67,0,0.000885,0,0
0:1:40.336,178.707,22.7527,0,0.000885,0,0
0:1:40.638,179.472,22.8492,0,0.000885,0,0
0:1:40.933,180.175,22.9389,0,0.000885,0,0
0:1:41.233,181.056,23.0492,0,0.000885,0,0
0:1:41.532,181.345,23.0905,0,0.000885,0,0
0:1:41.826,182.168,23.194,0,0.000885,0,0
0:1:42.128,182.052,23.1802,0,0.000885,0,0
0:1:42.433,183.049,23.3043,0,0.000885,0,0
0:1:42.737,183.752,23.3939,0,0.000885,0,0
0:1:43.039,183.93,23.4215,0,0.000885,0,0
0:1:43.341,184.748,23.5249,0,0.000885,0,0
0:1:43.643,185.687,23.6421,0,0.000885,0,0
0:1:43.941,185.864,23.6628,0,0.000885,0,0
0:1:44.243,186.509,23.7455,0,0.000885,0,0
0:1:44.538,186.625,23.7593,0,0.000885,0,0
0:1:44.837,187.622,23.8903,0,0.000885,0,0
0:1:45.135,188.209,23.9662,0,0.000885,0,0
0:1:45.433,188.796,24.0351,0,0.000885,0,0
0:1:45.734,189.499,24.1248,0,0.000885,0,0
0:1:46.028,189.734,24.1592,0,0.000885,0,0
0:1:46.331,190.322,24.2351,0,0.000885,0,0
0:1:46.626,191.14,24.3385,0,0.000885,0,0
0:1:46.924,191.963,24.4419,0,0.000885,0,0
0:1:47.234,192.257,24.4764,0,0.000885,0,0
0:1:47.535,192.902,24.5591,0,0.000885,0,0
0:1:47.837,193.489,24.635,0,0.000885,0,0
0:1:48.138,193.956,24.697,0,0.000885,0,0
0:1:48.438,194.837,24.8073,0,0.000885,0,0
0:1:48.740,195.13,24.8418,0,0.000885,0,0
0:1:49.034,195.891,24.9452,0,0.000885,0,0
0:1:49.334,196.949,25.0762,0,0.000885,0,0
0:1:49.625,197.243,25.1107,0,0.000885,0,0
0:1:49.924,197.71,25.1728,0,0.000885,0,0
0:1:50.229,198.239,25.2417,0,0.000885,0,0
0:1:50.524,199.351,25.3796,0,0.000885,0,0
0:1:50.823,199.294,25.3727,0,0.000885,0,0
0:1:51.126,199.996,25.4623,0,0.000885,0,0
0:1:51.426,200.819,25.5658,0,0.000885,0,0
0:1:51.730,201.522,25.6554,0,0.000885,0,0
0:1:52.029,202.225,25.745,0,0.000885,0,0
0:1:52.320,202.225,25.745,0,0.000885,0,0
0:1:52.624,202.639,25.8002,0,0.000885,0,0
0:1:52.928,203.399,25.8967,0,0.000885,0,0
0:1:53.229,204.28,26.007,0,0.000885,0,0
0:1:53.528,205.041,26.1036,0,0.000885,0,0
0:1:53.829,205.334,26.1449,0,0.000885,0,0
0:1:54.125,205.686,26.1863,0,0.000885,0,0
0:1:54.434,206.744,26.3242,0,0.000885,0,0
0:1:54.725,207.389,26.4069,0,0.000885,0,0
0:1:55.026,208.034,26.4897,0,0.000885,0,0
0:1:55.329,208.092,26.4966,0,0.000885,0,0
0:1:55.626,209.031,26.6138,0,0.000885,0,0
0:1:55.919,209.56,26.6827,0,0.000885,0,0
0:1:56.216,210.143,26.7586,0,0.000885,0,0
0:1:56.528,210.379,26.7861,0,0.000885,0,0
0:1:56.829,211.024,26.8689,0,0.000885,0,0
0:1:57.130,211.904,26.9792,0,0.000885,0,0
0:1:57.432,212.492,27.055,0,0.000885,0,0
0:1:57.735,213.016,27.124,0,0.000885,0,0
0:1:58.034,213.137,27.1378,0,0.000885,0,0
0:1:58.335,213.604,27.1998,0,0.000885,0,0
0:1:58.635,214.662,27.3308,0,0.000885,0,0
0:1:58.928,215.307,27.4136,0,0.000885,0,0
0:1:59.226,216.01,27.5032,0,0.000885,0,0
0:1:59.520,216.361,27.5515,0,0.000885,0,0
0:1:59.826,216.891,27.6135,0,0.000885,0,0
0:2:0.126,217.536,27.6962,0,0.000885,0,0
0:2:0.429,218.941,27.8755,0,0.000885,0,0
0:2:0.729,218.999,27.8824,0,0.000885,0,0
0:2:1.032,219.471,27.9445,0,0.000885,0,0
0:2:1.329,220,28.0134,0,0.000885,0,0
0:2:1.629,220.997,28.1375,0,0.000885,0,0
0:2:1.930,221.112,28.1513,0,0.000885,0,0
0:2:2.229,221.521,28.2065,0,0.000885,0,0
0:2:2.532,222.229,28.2961,0,0.000885,0,0
0:2:2.832,223.283,28.4271,0,0.000885,0,0
0:2:3.134,223.812,28.496,0,0.000885,0,0
0:2:3.433,224.101,28.5305,0,0.000885,0,0
0:2:3.734,224.924,28.6408,0,0.000885,0,0
0:2:4.026,225.569,28.7236,0,0.000885,0,0
0:2:4.326,226.334,28.8201,0,0.000885,0,0
0:2:4.631,226.45,28.8339,0,0.000885,0,0
0:2:4.928,227.504,28.9649,0,0.000885,0,0
0:2:5.224,227.856,29.0131,0,0.000885,0,0
0:2:5.529,228.327,29.0683,0,0.000885,0,0
0:2:5.829,229.675,29.2407,0,0.000885,0,0
0:2:6.119,229.617,29.2338,0,0.000885,0,0
0:2:6.429,230.498,29.351,0,0.000885,0,0
0:2:6.725,230.849,29.3924,0,0.000885,0,0
0:2:7.030,230.965,29.4061,0,0.000885,0,0
0:2:7.328,231.61,29.4889,0,0.000885,0,0
0:2:7.630,232.549,29.6061,0,0.000885,0,0
0:2:7.931,232.9,29.6544,0,0.000885,0,0
0:2:8.232,233.545,29.7371,0,0.000885,0,0
0:2:8.532,234.19,29.8198,0,0.000885,0,0
0:2:8.834,235.129,29.937,0,0.000885,0,0
0:2:9.126,235.774,30.0198,0,0.000885,0,0
0:2:9.428,236.419,30.1025,0,0.000885,0,0
0:2:9.730,236.948,30.1715,0,0.000885,0,0
0:2:10.026,236.948,30.1715,0,0.000885,0,0
0:2:10.333,237.357,30.2197,0,0.000885,0,0
0:2:10.637,238.002,30.3025,0,0.000885,0,0
0:2:10.936,238.474,30.3645,0,0.000885,0,0
0:2:11.229,239.586,30.5024,0,0.000885,0,0
0:2:11.529,240.231,30.5851,0,0.000885,0,0
0:2:11.832,240.996,30.6817,0,0.000885,0,0
0:2:12.133,241.111,30.7024,0,0.000885,0,0
0:2:12.436,241.992,30.8127,0,0.000885,0,0
0:2:12.738,242.521,30.8816,0,0.000885,0,0
0:2:13.038,243.398,30.9919,0,0.000885,0,0
0:2:13.339,243.576,31.0126,0,0.000885,0,0
0:2:13.636,243.985,31.0678,0,0.000885,0,0
0:2:13.932,244.866,31.1781,0,0.000885,0,0
0:2:14.226,244.924,31.185,0,0.000885,0,0
0:2:14.522,245.862,31.3022,0,0.000885,0,0
0:2:14.827,246.214,31.3505,0,0.000885,0,0
0:2:15.127,246.507,31.3849,0,0.000885,0,0
0:2:15.431,246.801,31.4263,0,0.000885,0,0
0:2:15.725,246.391,31.3711,0,0.000885,0,0
0:2:16.032,247.036,31.4539,0,0.000885,0,0
0:2:16.335,247.388,31.4953,0,0.000885,0,0
0:2:16.635,248.384,31.6263,0,0.000885,0,0
0:2:16.928,249.438,31.7573,0,0.000885,0,0
0:2:17.229,250.497,31.8951,0,0.000885,0,0
0:2:17.532,251.316,31.9986,0,0.000885,0,0
0:2:17.833,251.961,32.0813,0,0.000885,0,0
0:2:18.134,253.193,32.2399,0,0.000885,0,0
0:2:18.435,254.545,32.4123,0,0.000885,0,0
0:2:18.734,254.834,32.4467,0,0.000885,0,0
0:2:19.029,255.541,32.5364,0,0.000885,0,0
0:2:19.335,256.186,32.6191,0,0.000885,0,0
0:2:19.633,256.653,32.6811,0,0.000885,0,0
0:2:19.926,257.534,32.7915,0,0.000885,0,0
0:2:20.222,257.534,32.7915,0,0.000885,0,0
0:2:20.529,258.179,32.8742,0,0.000885,0,0
0:2:20.837,258.709,32.9363,0,0.000885,0,0
0:2:21.131,259.821,33.081,0,0.000885,0,0
0:2:21.428,260.292,33.1431,0,0.000885,0,0
0:2:21.735,260.817,33.2052,0,0.000885,0,0
0:2:22.028,261.524,33.2948,0,0.000885,0,0
0:2:22.329,261.876,33.343,0,0.000885,0,0
0:2:22.631,262.579,33.4327,0,0.000885,0,0
0:2:22.932,262.636,33.4396,0,0.000885,0,0
0:2:23.233,263.224,33.5154,0,0.000885,0,0
0:2:23.534,263.926,33.605,0,0.000885,0,0
0:2:23.834,264.691,33.7016,0,0.000885,0,0
0:2:24.136,264.923,33.7292,0,0.000885,0,0
0:2:24.434,265.336,33.7843,0,0.000885,0,0
0:2:24.730,265.919,33.8602,0,0.000885,0,0
0:2:25.026,266.742,33.9636,0,0.000885,0,0
0:2:25.322,266.8,33.9705,0,0.000885,0,0
0:2:25.628,267.329,34.0394,0,0.000885,0,0
0:2:25.929,267.859,34.1015,0,0.000885,0,0
0:2:26.231,268.971,34.2463,0,0.000885,0,0
0:2:26.529,269.264,34.2807,0,0.000885,0,0
0:2:26.836,269.794,34.3497,0,0.000885,0,0
0:2:27.130,270.261,34.4117,0,0.000885,0,0
0:2:27.430,271.141,34.522,0,0.000885,0,0
0:2:27.733,272.022,34.6324,0,0.000885,0,0
0:2:28.035,272.725,34.722,0,0.000885,0,0
0:2:28.333,272.547,34.7013,0,0.000885,0,0
0:2:28.634,273.076,34.7703,0,0.000885,0,0
0:2:28.934,273.486,34.8185,0,0.000885,0,0
0:2:29.229,274.486,34.9495,0,0.000885,0,0
0:2:29.528,274.838,34.9909,0,0.000885,0,0
0:2:29.832,274.896,34.9978,0,0.000885,0,0
0:2:30.128,275.421,35.0667,0,0.000885,0,0
0:2:30.435,276.421,35.1977,0,0.000885,0,0
0:2:30.728,276.773,35.2391,0,0.000885,0,0
0:2:31.028,277.591,35.3425,0,0.000885,0,0
0:2:31.331,278.766,35.4942,0,0.000885,0,0
0:2:31.630,279.059,35.5287,0,0.000885,0,0
0:2:31.935,280.056,35.6597,0,0.000885,0,0
0:2:32.235,281.052,35.7838,0,0.000885,0,0
0:2:32.538,281.991,35.901,0,0.000885,0,0
0:2:32.839,282.987,36.032,0,0.000885,0,0
0:2:33.140,283.458,36.0941,0,0.000885,0,0
0:2:33.440,284.219,36.1906,0,0.000885,0,0
0:2:33.737,284.633,36.2388,0,0.000885,0,0
0:2:34.034,285.158,36.3078,0,0.000885,0,0
0:2:34.329,285.451,36.3423,0,0.000885,0,0
0:2:34.629,286.39,36.4664,0,0.000885,0,0
0:2:34.930,286.626,36.494,0,0.000885,0,0
0:2:35.231,286.977,36.5422,0,0.000885,0,0
0:2:35.534,287.271,36.5767,0,0.000885,0,0
0:2:35.830,287.564,36.6112,0,0.000885,0,0
0:2:36.138,288.676,36.756,0,0.000885,0,0
0:2:36.432,289.206,36.8249,0,0.000885,0,0
0:2:36.732,289.908,36.9145,0,0.000885,0,0
0:2:37.033,289.793,36.9007,0,0.000885,0,0
0:2:37.336,290.731,37.018,0,0.000885,0,0
0:2:37.637,291.198,37.08,0,0.000885,0,0
0:2:37.939,292.195,37.2041,0,0.000885,0,0
0:2:38.238,291.963,37.1765,0,0.000885,0,0
0:2:38.538,292.315,37.2179,0,0.000885,0,0
0:2:38.838,293.196,37.3282,0,0.000885,0,0
0:2:39.131,293.547,37.3765,0,0.000885,0,0
0:2:39.429,294.308,37.473,0,0.000885,0,0
0:2:39.737,294.895,37.5488,0,0.000885,0,0
0:2:40.031,296.478,37.7488,0,0.000885,0,0
0:2:40.329,296.656,37.7695,0,0.000885,0,0
0:2:40.632,297.181,37.8384,0,0.000885,0,0
0:2:40.930,297.653,37.9005,0,0.000885,0,0
0:2:41.237,298.649,38.0246,0,0.000885,0,0
0:2:41.531,299.761,38.1694,0,0.000885,0,0
0:2:41.831,300.055,38.2039,0,0.000885,0,0
0:2:42.132,301.171,38.3486,0,0.000885,0,0
0:2:42.433,300.993,38.3211,0,0.000885,0,0
0:2:42.735,300.878,38.3073,0,0.000885,0,0
0:2:43.036,301.523,38.39,0,0.000885,0,0
0:2:43.337,302.341,38.4934,0,0.000885,0,0
0:2:43.637,302.871,38.5624,0,0.000885,0,0
0:2:43.936,303.048,38.5831,0,0.000885,0,0
0:2:44.230,304.338,38.7485,0,0.000885,0,0
0:2:44.536,305.099,38.8451,0,0.000885,0,0
0:2:44.835,305.744,38.9278,0,0.000885,0,0
0:2:45.130,306.683,39.045,0,0.000885,0,0
0:2:45.438,307.034,39.0933,0,0.000885,0,0
0:2:45.730,307.506,39.1553,0,0.000885,0,0
0:2:46.030,308.675,39.3001,0,0.000885,0,0
0:2:46.333,308.969,39.3415,0,0.000885,0,0
0:2:46.631,309.263,39.376,0,0.000885,0,0
0:2:46.937,309.97,39.4656,0,0.000885,0,0
0:2:47.239,309.97,39.4656,0,0.000885,0,0
0:2:47.540,311.318,39.638,0,0.000885,0,0
0:2:47.842,311.611,39.6724,0,0.000885,0,0
0:2:48.141,313.368,39.9,0,0.000885,0,0
0:2:48.443,314.013,39.9827,0,0.000885,0,0
0:2:48.738,314.721,40.0723,0,0.000885,0,0
0:2:49.035,315.01,40.1068,0,0.000885,0,0
0:2:49.331,315.597,40.1826,0,0.000885,0,0
0:2:49.630,316.478,40.293,0,0.000885,0,0
0:2:49.934,317.825,40.4653,0,0.000885,0,0
0:2:50.231,318.177,40.5136,0,0.000885,0,0
0:2:50.538,318.591,40.5619,0,0.000885,0,0
0:2:50.832,319.471,40.6791,0,0.000885,0,0
0:2:51.131,318.355,40.5343,0,0.000885,0,0
0:2:51.434,317.946,40.4791,0,0.000885,0,0
0:2:51.731,318.764,40.5894,0,0.000885,0,0
0:2:52.035,319.409,40.6653,0,0.000885,0,0
0:2:52.338,320.405,40.7963,0,0.000885,0,0
0:2:52.640,320.819,40.8445,0,0.000885,0,0
0:2:52.941,321.464,40.9273,0,0.000885,0,0
0:2:53.241,322.283,41.0376,0,0.000885,0,0
0:2:53.541,323.283,41.1617,0,0.000885,0,0
0:2:53.839,323.928,41.2444,0,0.000885,0,0
0:2:54.135,324.747,41.3479,0,0.000885,0,0
0:2:54.431,325.45,41.4375,0,0.000885,0,0
0:2:54.726,324.631,41.3341,0,0.000885,0,0
0:2:55.032,324.689,41.341,0,0.000885,0,0
0:2:55.338,325.334,41.4237,0,0.000885,0,0
0:2:55.636,326.33,41.5478,0,0.000885,0,0
0:2:55.930,326.975,41.6305,0,0.000885,0,0
0:2:56.237,327.327,41.6788,0,0.000885,0,0
0:2:56.532,329.088,41.8994,0,0.000885,0,0
0:2:56.832,329.969,42.0098,0,0.000885,0,0
0:2:57.135,330.378,42.0649,0,0.000885,0,0
0:2:57.436,331.49,42.2097,0,0.000885,0,0
0:2:57.739,331.784,42.2442,0,0.000885,0,0
0:2:58.040,332.607,42.3476,0,0.000885,0,0
0:2:58.340,333.31,42.4372,0,0.000885,0,0
0:2:58.640,334.19,42.5475,0,0.000885,0,0
0:2:58.937,334.19,42.5475,0,0.000885,0,0
0:2:59.233,334.893,42.6372,0,0.000885,0,0
0:2:59.538,335.245,42.6854,0,0.000885,0,0
0:2:59.837,335.365,42.6992,0,0.000885,0,0
0:3:0.140,336.01,42.782,0,0.000885,0,0
0:3:0.439,336.419,42.8371,0,0.000885,0,0
0:3:0.734,337.242,42.9405,0,0.000885,0,0
0:3:1.039,336.828,42.8854,0,0.000885,0,0
0:3:1.336,337.709,42.9957,0,0.000885,0,0
0:3:1.631,338.59,43.1129,0,0.000885,0,0
0:3:1.930,338.999,43.1612,0,0.000885,0,0
0:3:2.233,339.644,43.2439,0,0.000885,0,0
0:3:2.534,340.467,43.3473,0,0.000885,0,0
0:3:2.838,340.703,43.3818,0,0.000885,0,0
0:3:3.138,341.699,43.5059,0,0.000885,0,0
0:3:3.438,342.46,43.6024,0,0.000885,0,0
0:3:3.737,342.869,43.6576,0,0.000885,0,0
0:3:4.038,342.753,43.6438,0,0.000885,0,0
0:3:4.331,343.514,43.7403,0,0.000885,0,0
0:3:4.637,344.808,43.8989,0,0.000885,0,0
0:3:4.934,345.453,43.9817,0,0.000885,0,0
0:3:5.237,344.808,43.8989,0,0.000885,0,0
0:3:5.536,346.272,44.092,0,0.000885,0,0
0:3:5.827,346.975,44.1816,0,0.000885,0,0
0:3:6.137,347.798,44.285,0,0.000885,0,0
0:3:6.434,347.62,44.2574,0,0.000885,0,0
0:3:6.736,348.385,44.3609,0,0.000885,0,0
0:3:7.036,349.265,44.4712,0,0.000885,0,0
0:3:7.338,350.026,44.5677,0,0.000885,0,0
0:3:7.640,350.142,44.5815,0,0.000885,0,0
0:3:7.940,351.023,44.6918,0,0.000885,0,0
0:3:8.238,351.316,44.7332,0,0.000885,0,0
0:3:8.539,351.725,44.7814,0,0.000885,0,0
0:3:8.833,352.197,44.8435,0,0.000885,0,0
0:3:9.133,353.429,45.0021,0,0.000885,0,0
0:3:9.439,353.545,45.0159,0,0.000885,0,0
0:3:9.734,354.483,45.1331,0,0.000885,0,0
0:3:10.032,355.186,45.2227,0,0.000885,0,0
0:3:10.335,355.893,45.3123,0,0.000885,0,0
0:3:10.634,355.951,45.3192,0,0.000885,0,0
0:3:10.938,357.005,45.4571,0,0.000885,0,0
0:3:11.234,357.65,45.5399,0,0.000885,0,0
0:3:11.533,358.18,45.6019,0,0.000885,0,0
0:3:11.834,358.06,45.5881,0,0.000885,0,0
0:3:12.135,359.292,45.7467,0,0.000885,0,0
0:3:12.436,359.35,45.7536,0,0.000885,0,0
0:3:12.738,360.173,45.857,0,0.000885,0,0
0:3:13.039,361.111,45.9811,0,0.000885,0,0
0:3:13.338,361.347,46.0087,0,0.000885,0,0
0:3:13.639,362.517,46.1604,0,0.000885,0,0
0:3:13.933,363.104,46.2293,0,0.000885,0,0
0:3:14.240,363.518,46.2845,0,0.000885,0,0
0:3:14.536,364.278,46.381,0,0.000885,0,0
0:3:14.839,364.687,46.4362,0,0.000885,0,0
0:3:15.139,365.568,46.5465,0,0.000885,0,0
0:3:15.433,365.684,46.5603,0,0.000885,0,0
0:3:15.732,366.391,46.6499,0,0.000885,0,0
0:3:16.035,366.8,46.7051,0,0.000885,0,0
0:3:16.329,367.797,46.8292,0,0.000885,0,0
0:3:16.627,367.797,46.8292,0,0.000885,0,0
0:3:16.942,368.62,46.9326,0,0.000885,0,0
0:3:17.242,369.145,47.0016,0,0.000885,0,0
0:3:17.545,369.852,47.0912,0,0.000885,0,0
0:3:17.846,370.083,47.1188,0,0.000885,0,0
0:3:18.146,371.022,47.2429,0,0.000885,0,0
0:3:18.447,372.138,47.3808,0,0.000885,0,0
0:3:18.746,372.018,47.367,0,0.000885,0,0
0:3:19.041,372.841,47.4704,0,0.000885,0,0
0:3:19.337,373.313,47.5325,0,0.000885,0,0
0:3:19.634,373.428,47.5462,0,0.000885,0,0
0:3:19.926,374.482,47.6841,0,0.000885,0,0
0:3:20.226,375.07,47.7531,0,0.000885,0,0
0:3:20.530,375.541,47.8151,0,0.000885,0,0
0:3:20.840,376.186,47.8979,0,0.000885,0,0
0:3:21.138,377.65,48.084,0,0.000885,0,0
0:3:21.441,377.592,48.0771,0,0.000885,0,0
0:3:21.740,378.001,48.1254,0,0.000885,0,0
0:3:22.032,378.646,48.2081,0,0.000885,0,0
0:3:22.334,378.766,48.2288,0,0.000885,0,0
0:3:22.636,379.82,48.3598,0,0.000885,0,0
0:3:22.938,379.998,48.3805,0,0.000885,0,0
0:3:23.239,380.643,48.4632,0,0.000885,0,0
0:3:23.537,380.701,48.4701,0,0.000885,0,0
0:3:23.838,382.342,48.6839,0,0.000885,0,0
0:3:24.132,383.103,48.7804,0,0.000885,0,0
0:3:24.439,383.165,48.7873,0,0.000885,0,0
0:3:24.735,384.104,48.9045,0,0.000885,0,0
0:3:25.039,384.455,48.9528,0,0.000885,0,0
0:3:25.340,384.865,49.001,0,0.000885,0,0
0:3:25.629,385.981,49.1458,0,0.000885,0,0
0:3:25.927,385.625,49.0976,0,0.000885,0,0
0:3:26.235,386.684,49.2355,0,0.000885,0,0
0:3:26.529,386.8,49.2493,0,0.000885,0,0
0:3:26.837,388.267,49.4354,0,0.000885,0,0
0:3:27.129,388.383,49.4492,0,0.000885,0,0
0:3:27.429,388.97,49.525,0,0.000885,0,0
0:3:27.735,389.851,49.6354,0,0.000885,0,0
0:3:28.035,390.318,49.6974,0,0.000885,0,0
0:3:28.337,391.315,49.8215,0,0.000885,0,0
0:3:28.637,391.435,49.8422,0,0.000885,0,0
0:3:28.937,392.315,49.9525,0,0.000885,0,0
0:3:29.227,392.604,49.987,0,0.000885,0,0
0:3:29.526,393.249,50.0697,0,0.000885,0,0
0:3:29.835,394.072,50.1731,0,0.000885,0,0
0:3:30.138,394.482,50.2283,0,0.000885,0,0
0:3:30.436,395.069,50.3041,0,0.000885,0,0
0:3:30.730,395.892,50.4076,0,0.000885,0,0
0:3:31.038,396.537,50.4903,0,0.000885,0,0
0:3:31.334,396.71,50.511,0,0.000885,0,0
0:3:31.629,397.533,50.6144,0,0.000885,0,0
0:3:31.927,397.355,50.5937,0,0.000885,0,0
0:3:32.242,398.356,50.7178,0,0.000885,0,0
0:3:32.541,399.001,50.8006,0,0.000885,0,0
0:3:32.845,399.646,50.8833,0,0.000885,0,0
0:3:33.147,400.585,51.0005,0,0.000885,0,0
0:3:33.446,400.758,51.0281,0,0.000885,0,0
0:3:33.746,401.523,51.1246,0,0.000885,0,0
0:3:34.046,401.754,51.1522,0,0.000885,0,0
0:3:34.341,402.813,51.2901,0,0.000885,0,0
0:3:34.638,403.222,51.3384,0,0.000885,0,0
0:3:34.935,403.925,51.428,0,0.000885,0,0
0:3:35.237,404.334,51.4832,0,0.000885,0,0
0:3:35.537,404.748,51.5314,0,0.000885,0,0
0:3:35.829,405.451,51.621,0,0.000885,0,0
0:3:36.140,406.447,51.752,0,0.000885,0,0
0:3:36.434,407.092,51.8348,0,0.000885,0,0
0:3:36.740,407.328,51.8624,0,0.000885,0,0
0:3:37.037,408.147,51.9658,0,0.000885,0,0
0:3:37.340,408.502,52.014,0,0.000885,0,0
0:3:37.641,409.499,52.1382,0,0.000885,0,0
0:3:37.942,409.499,52.1382,0,0.000885,0,0
0:3:38.242,410.669,52.2898,0,0.000885,0,0
0:3:38.542,410.731,52.2967,0,0.000885,0,0
0:3:38.836,411.376,52.3795,0,0.000885,0,0
0:3:39.138,411.843,52.4346,0,0.000885,0,0
0:3:39.440,412.608,52.5381,0,0.000885,0,0
0:3:39.737,413.133,52.6001,0,0.000885,0,0
0:3:40.043,413.484,52.6484,0,0.000885,0,0
0:3:40.338,414.601,52.7863,0,0.000885,0,0
0:3:40.636,414.952,52.8345,0,0.000885,0,0
0:3:40.940,415.775,52.9379,0,0.000885,0,0
0:3:41.240,415.833,52.9448,0,0.000885,0,0
0:3:41.531,417.359,53.1379,0,0.000885,0,0
0:3:41.839,417.648,53.1793,0,0.000885,0,0
0:3:42.137,418.235,53.2482,0,0.000885,0,0
0:3:42.438,418.707,53.3103,0,0.000885,0,0
0:3:42.740,418.707,53.3103,0,0.000885,0,0
0:3:43.041,419.997,53.4757,0,0.000885,0,0
0:3:43.341,420.348,53.5171,0,0.000885,0,0
0:3:43.640,420.815,53.5792,0,0.000885,0,0
0:3:43.935,421.932,53.7239,0,0.000885,0,0
0:3:44.231,421.989,53.7308,0,0.000885,0,0
0:3:44.525,422.812,53.8343,0,0.000885,0,0
0:3:44.824,422.755,53.8274,0,0.000885,0,0
0:3:45.129,423.515,53.9239,0,0.000885,0,0
0:3:45.436,424.454,54.0411,0,0.000885,0,0
0:3:45.743,425.157,54.1307,0,0.000885,0,0
0:3:46.036,425.628,54.1928,0,0.000885,0,0
0:3:46.336,426.504,54.3031,0,0.000885,0,0
0:3:46.640,426.976,54.3652,0,0.000885,0,0
0:3:46.938,427.505,54.4341,0,0.000885,0,0
0:3:47.230,428.208,54.5237,0,0.000885,0,0
0:3:47.531,428.266,54.5306,0,0.000885,0,0
0:3:47.835,429.32,54.6616,0,0.000885,0,0
0:3:48.137,429.498,54.6823,0,0.000885,0,0
0:3:48.437,430.143,54.7651,0,0.000885,0,0
0:3:48.736,430.966,54.8754,0,0.000885,0,0
0:3:49.035,431.549,54.9443,0,0.000885,0,0
0:3:49.341,432.256,55.034,0,0.000885,0,0
0:3:49.635,432.723,55.096,0,0.000885,0,0
0:3:49.936,433.132,55.1512,0,0.000885,0,0
0:3:50.236,434.013,55.2615,0,0.000885,0,0
0:3:50.536,435.067,55.3925,0,0.000885,0,0
0:3:50.841,435.245,55.4201,0,0.000885,0,0
0:3:51.136,435.303,55.427,0,0.000885,0,0
0:3:51.433,436.944,55.6338,0,0.000885,0,0
0:3:51.738,436.771,55.6131,0,0.000885,0,0
0:3:52.038,437.825,55.7441,0,0.000885,0,0
0:3:52.339,438.119,55.7855,0,0.000885,0,0
0:3:52.642,439.173,55.9165,0,0.000885,0,0
0:3:52.940,438.884,55.882,0,0.000885,0,0
0:3:53.241,439.644,55.9785,0,0.000885,0,0
0:3:53.541,440.111,56.0337,0,0.000885,0,0
0:3:53.833,440.467,56.082,0,0.000885,0,0
0:3:54.132,441.637,56.2336,0,0.000885,0,0
0:3:54.439,442.167,56.2957,0,0.000885,0,0
0:3:54.732,442.812,56.3784,0,0.000885,0,0
0:3:55.030,443.221,56.4336,0,0.000885,0,0
0:3:55.344,443.986,56.5301,0,0.000885,0,0
0:3:55.644,444.217,56.5577,0,0.000885,0,0
0:3:55.939,444.804,56.6335,0,0.000885,0,0
0:3:56.236,445.449,56.7163,0,0.000885,0,0
0:3:56.529,446.037,56.7921,0,0.000885,0,0
0:3:56.836,446.917,56.9024,0,0.000885,0,0
0:3:57.133,447.62,56.9921,0,0.000885,0,0
0:3:57.439,448.323,57.0817,0,0.000885,0,0
0:3:57.739,448.91,57.1575,0,0.000885,0,0
0:3:58.040,449.613,57.2472,0,0.000885,0,0
0:3:58.341,450.2,57.323,0,0.000885,0,0
0:3:58.642,450.903,57.4126,0,0.000885,0,0
0:3:58.943,451.023,57.4264,0,0.000885,0,0
0:3:59.244,451.317,57.4609,0,0.000885,0,0
0:3:59.537,452.077,57.5574,0,0.000885,0,0
0:3:59.833,452.9,57.6677,0,0.000885,0,0
0:4:0.129,453.309,57.716,0,0.000885,0,0
0:4:0.436,453.897,57.7919,0,0.000885,0,0
0:4:0.733,454.657,57.8884,0,0.000885,0,0
0:4:1.036,455.129,57.9504,0,0.000885,0,0
0:4:1.337,455.654,58.0125,0,0.000885,0,0
0:4:1.628,456.067,58.0676,0,0.000885,0,0
0:4:1.937,456.477,58.1228,0,0.000885,0,0
0:4:2.231,457.006,58.1849,0,0.000885,0,0
0:4:2.533,457.766,58.2814,0,0.000885,0,0
0:4:2.837,458.705,58.4055,0,0.000885,0,0
0:4:3.139,459.408,58.4951,0,0.000885,0,0
0:4:3.438,459.879,58.5503,0,0.000885,0,0
0:4:3.739,460.231,58.5985,0,0.000885,0,0
0:4:4.032,460.582,58.6399,0,0.000885,0,0
0:4:4.331,461.872,58.8054,0,0.000885,0,0
0:4:4.637,462.402,58.8743,0,0.000885,0,0
0:4:4.932,462.517,58.8881,0,0.000885,0,0
0:4:5.239,463.398,58.9984,0,0.000885,0,0
0:4:5.534,463.985,59.0743,0,0.000885,0,0
0:4:5.831,464.394,59.1294,0,0.000885,0,0
0:4:6.134,464.572,59.1501,0,0.000885,0,0
0:4:6.434,465.804,59.3087,0,0.000885,0,0
0:4:6.728,466.387,59.3845,0,0.000885,0,0
0:4:7.037,467.094,59.4742,0,0.000885,0,0
0:4:7.344,467.446,59.5155,0,0.000885,0,0
0:4:7.643,468.264,59.619,0,0.000885,0,0
0:4:7.947,468.851,59.6948,0,0.000885,0,0
0:4:8.248,469.087,59.7293,0,0.000885,0,0
0:4:8.548,469.906,59.8327,0,0.000885,0,0
0:4:8.849,470.141,59.8603,0,0.000885,0,0
0:4:9.144,471.316,60.012,0,0.000885,0,0
0:4:9.443,471.783,60.0671,0,0.000885,0,0
0:4:9.734,471.961,60.0947,0,0.000885,0,0
0:4:10.034,472.899,60.2119,0,0.000885,0,0
0:4:10.338,472.957,60.2188,0,0.000885,0,0
0:4:10.633,473.896,60.336,0,0.000885,0,0
0:4:10.931,474.541,60.4188,0,0.000885,0,0
0:4:11.246,475.364,60.5222,0,0.000885,0,0
0:4:11.544,475.421,60.5291,0,0.000885,0,0
0:4:11.838,476.302,60.6463,0,0.000885,0,0
0:4:12.140,477.005,60.7359,0,0.000885,0,0
0:4:12.443,477.534,60.798,0,0.000885,0,0
0:4:12.744,478.117,60.8738,0,0.000885,0,0
0:4:13.044,478.646,60.9428,0,0.000885,0,0
0:4:13.344,479.701,61.0807,0,0.000885,0,0
0:4:13.643,479.994,61.1151,0,0.000885,0,0
0:4:13.935,480.933,61.2323,0,0.000885,0,0
0:4:14.233,480.875,61.2254,0,0.000885,0,0
0:4:14.539,482.049,61.3771,0,0.000885,0,0
0:4:14.843,482.223,61.3978,0,0.000885,0,0
0:4:15.143,482.81,61.4737,0,0.000885,0,0
0:4:15.434,482.868,61.4806,0,0.000885,0,0
0:4:15.733,483.691,61.584,0,0.000885,0,0
0:4:16.039,484.571,61.6943,0,0.000885,0,0
0:4:16.334,484.981,61.7494,0,0.000885,0,0
0:4:16.632,485.804,61.8529,0,0.000885,0,0
0:4:16.945,486.213,61.908,0,0.000885,0,0
0:4:17.247,487.094,62.0183,0,0.000885,0,0
0:4:17.549,487.854,62.1149,0,0.000885,0,0
0:4:17.852,488.206,62.1631,0,0.000885,0,0
0:4:18.151,489.029,62.2666,0,0.000885,0,0
0:4:18.453,489.496,62.3217,0,0.000885,0,0
0:4:18.752,489.847,62.37,0,0.000885,0,0
0:4:19.045,490.319,62.432,0,0.000885,0,0
0:4:19.346,490.786,62.4872,0,0.000885,0,0
0:4:19.639,491.199,62.5423,0,0.000885,0,0
0:4:19.934,492.018,62.6458,0,0.000885,0,0
0:4:20.242,492.899,62.7561,0,0.000885,0,0
0:4:20.535,493.37,62.8181,0,0.000885,0,0
0:4:20.834,493.601,62.8457,0,0.000885,0,0
0:4:21.139,494.366,62.9422,0,0.000885,0,0
0:4:21.436,495.011,63.025,0,0.000885,0,0
0:4:21.744,496.181,63.1767,0,0.000885,0,0
0:4:22.039,496.475,63.2111,0,0.000885,0,0
0:4:22.335,496.889,63.2663,0,0.000885,0,0
0:4:22.636,497.356,63.3283,0,0.000885,0,0
0:4:22.940,498.058,63.418,0,0.000885,0,0
0:4:23.239,498.53,63.4731,0,0.000885,0,0
0:4:23.539,499.233,63.5628,0,0.000885,0,0
0:4:23.840,499.936,63.6524,0,0.000885,0,0
0:4:24.143,500.581,63.7351,0,0.000885,0,0
0:4:24.443,501.168,63.811,0,0.000885,0,0
0:4:24.735,501.288,63.8248,0,0.000885,0,0
0:4:25.033,501.755,63.8868,0,0.000885,0,0
0:4:25.340,502.809,64.0178,0,0.000885,0,0
0:4:25.634,503.339,64.0868,0,0.000885,0,0
0:4:25.932,503.69,64.135,0,0.000885,0,0
0:4:26.234,504.628,64.2522,0,0.000885,0,0
0:4:26.533,504.922,64.2867,0,0.000885,0,0
0:4:26.827,505.509,64.3626,0,0.000885,0,0
0:4:27.129,506.39,64.4729,0,0.000885,0,0
0:4:27.430,506.857,64.5349,0,0.000885,0,0
0:4:27.732,507.208,64.5832,0,0.000885,0,0
0:4:28.031,507.796,64.6521,0,0.000885,0,0
0:4:28.331,508.676,64.7693,0,0.000885,0,0
0:4:28.630,509.557,64.8797,0,0.000885,0,0
0:4:28.934,510.082,64.9486,0,0.000885,0,0
0:4:29.231,510.376,64.9831,0,0.000885,0,0
0:4:29.527,510.905,65.052,0,0.000885,0,0
0:4:29.831,511.608,65.1417,0,0.000885,0,0
0:4:30.131,512.604,65.2658,0,0.000885,0,0
0:4:30.446,512.84,65.3002,0,0.000885,0,0
0:4:30.742,513.721,65.4106,0,0.000885,0,0
0:4:31.049,514.601,65.5209,0,0.000885,0,0
0:4:31.344,515.011,65.576,0,0.000885,0,0
0:4:31.644,515.184,65.5967,0,0.000885,0,0
0:4:31.946,515.949,65.6932,0,0.000885,0,0
0:4:32.246,515.949,65.6932,0,0.000885,0,0
0:4:32.549,517.061,65.8311,0,0.000885,0,0
0:4:32.850,517.413,65.8794,0,0.000885,0,0
0:4:33.150,517.942,65.9484,0,0.000885,0,0
0:4:33.449,518.471,66.0104,0,0.000885,0,0
0:4:33.751,519.526,66.1483,0,0.000885,0,0
0:4:34.045,519.877,66.1897,0,0.000885,0,0
0:4:34.344,520.349,66.2517,0,0.000885,0,0
0:4:34.640,521.051,66.3414,0,0.000885,0,0
0:4:34.944,521.754,66.431,0,0.000885,0,0
0:4:35.242,522.928,66.5827,0,0.000885,0,0
0:4:35.533,523.222,66.6171,0,0.000885,0,0
0:4:35.832,523.516,66.6585,0,0.000885,0,0
0:4:36.137,523.689,66.6792,0,0.000885,0,0
0:4:36.444,524.748,66.8102,0,0.000885,0,0
0:4:36.743,525.273,66.8791,0,0.000885,0,0
0:4:37.045,526.153,66.9895,0,0.000885,0,0
0:4:37.346,526.798,67.0722,0,0.000885,0,0
0:4:37.647,526.976,67.0998,0,0.000885,0,0
0:4:37.949,528.088,67.2377,0,0.000885,0,0
0:4:38.250,528.088,67.2377,0,0.000885,0,0
0:4:38.548,528.854,67.3342,0,0.000885,0,0
0:4:38.849,529.672,67.4376,0,0.000885,0,0
0:4:39.142,530.201,67.5066,0,0.000885,0,0
0:4:39.442,530.611,67.5617,0,0.000885,0,0
0:4:39.746,530.668,67.5686,0,0.000885,0,0
0:4:40.042,532.021,67.741,0,0.000885,0,0
0:4:40.337,532.136,67.7548,0,0.000885,0,0
0:4:40.632,533.017,67.8651,0,0.000885,0,0
0:4:40.931,533.484,67.9271,0,0.000885,0,0
0:4:41.233,534.013,67.9892,0,0.000885,0,0
0:4:41.531,534.307,68.0306,0,0.000885,0,0
0:4:41.837,534.832,68.0995,0,0.000885,0,0
0:4:42.142,535.77,68.2167,0,0.000885,0,0
0:4:42.442,536.358,68.2926,0,0.000885,0,0
0:4:42.743,536.771,68.3408,0,0.000885,0,0
0:4:43.046,537.532,68.4374,0,0.000885,0,0
0:4:43.346,539.058,68.6373,0,0.000885,0,0
0:4:43.647,538.88,68.6097,0,0.000885,0,0
0:4:43.947,539.231,68.658,0,0.000885,0,0
0:4:44.250,539.818,68.7338,0,0.000885,0,0
0:4:44.550,540.348,68.7959,0,0.000885,0,0
0:4:44.845,541.166,68.9062,0,0.000885,0,0
0:4:45.144,541.989,69.0096,0,0.000885,0,0
0:4:45.450,542.518,69.0786,0,0.000885,0,0
0:4:45.744,542.692,69.0993,0,0.000885,0,0
0:4:46.044,543.631,69.2165,0,0.000885,0,0
0:4:46.334,544.218,69.2923,0,0.000885,0,0
0:4:46.634,544.747,69.3613,0,0.000885,0,0
0:4:46.928,545.334,69.4371,0,0.000885,0,0
0:4:47.230,545.801,69.4923,0,0.000885,0,0
0:4:47.534,546.74,69.6164,0,0.000885,0,0
0:4:47.835,547.211,69.6715,0,0.000885,0,0
0:4:48.134,548.145,69.7956,0,0.000885,0,0
0:4:48.433,548.266,69.8094,0,0.000885,0,0
0:4:48.743,548.617,69.8508,0,0.000885,0,0
0:4:49.049,549.498,69.9611,0,0.000885,0,0
0:4:49.343,549.849,70.0094,0,0.000885,0,0
0:4:49.642,550.258,70.0645,0,0.000885,0,0
0:4:49.933,551.081,70.1679,0,0.000885,0,0
0:4:50.233,551.668,70.2438,0,0.000885,0,0
0:4:50.548,552.313,70.3196,0,0.000885,0,0
0:4:50.844,552.723,70.3748,0,0.000885,0,0
0:4:51.142,553.546,70.4782,0,0.000885,0,0
0:4:51.435,554.07,70.5472,0,0.000885,0,0
0:4:51.734,554.951,70.6575,0,0.000885,0,0
0:4:52.048,555.303,70.7057,0,0.000885,0,0
0:4:52.347,555.774,70.7609,0,0.000885,0,0
0:4:52.650,556.357,70.8367,0,0.000885,0,0
0:4:52.953,556.593,70.8643,0,0.000885,0,0
0:4:53.253,557.589,70.9953,0,0.000885,0,0
0:4:53.554,558.234,71.0781,0,0.000885,0,0
0:4:53.854,559.115,71.1884,0,0.000885,0,0
0:4:54.148,559.586,71.2504,0,0.000885,0,0
0:4:54.446,560.111,71.3125,0,0.000885,0,0
0:4:54.744,560.463,71.3607,0,0.000885,0,0
0:4:55.046,561.228,71.4573,0,0.000885,0,0
0:4:55.346,561.873,71.54,0,0.000885,0,0
0:4:55.650,562.34,71.6021,0,0.000885,0,0
0:4:55.947,562.691,71.6434,0,0.000885,0,0
0:4:56.242,562.985,71.6848,0,0.000885,0,0
0:4:56.548,563.63,71.7606,0,0.000885,0,0
0:4:56.845,564.395,71.8641,0,0.000885,0,0
0:4:57.137,565.449,71.9951,0,0.000885,0,0
0:4:57.437,565.858,72.0502,0,0.000885,0,0
0:4:57.743,566.623,72.1467,0,0.000885,0,0
0:4:58.043,566.859,72.1743,0,0.000885,0,0
0:4:58.344,567.504,72.2571,0,0.000885,0,0
0:4:58.644,567.856,72.2984,0,0.000885,0,0
0:4:58.945,568.732,72.4156,0,0.000885,0,0
0:4:59.247,569.555,72.5191,0,0.000885,0,0
0:4:59.545,570.026,72.5811,0,0.000885,0,0
0:4:59.842,570.2,72.6018,0,0.000885,0,0
0:5:0.146,570.903,72.6914,0,0.000885,0,0
0:5:0.445,571.432,72.7604,0,0.000885,0,0
0:5:0.748,572.606,72.9052,0,0.000885,0,0
0:5:1.048,572.78,72.9258,0,0.000885,0,0
0:5:1.350,573.603,73.0362,0,0.000885,0,0
0:5:1.647,573.896,73.0706,0,0.000885,0,0
0:5:1.946,574.657,73.1672,0,0.000885,0,0
0:5:2.247,575.186,73.2361,0,0.000885,0,0
0:5:2.550,575.422,73.2637,0,0.000885,0,0
0:5:2.851,576.125,73.3533,0,0.000885,0,0
0:5:3.150,576.943,73.4567,0,0.000885,0,0
0:5:3.450,577.179,73.4912,0,0.000885,0,0
0:5:3.745,578.118,73.6084,0,0.000885,0,0
0:5:4.040,578.705,73.6843,0,0.000885,0,0
0:5:4.346,579.35,73.767,0,0.000885,0,0
0:5:4.645,579.528,73.7877,0,0.000885,0,0
0:5:4.937,580.288,73.8842,0,0.000885,0,0
0:5:5.234,580.462,73.9049,0,0.000885,0,0
0:5:5.530,581.694,74.0635,0,0.000885,0,0
0:5:5.833,581.756,74.0704,0,0.000885,0,0
0:5:6.132,582.633,74.1807,0,0.000885,0,0
0:5:6.437,583.278,74.2634,0,0.000885,0,0
0:5:6.746,584.336,74.4013,0,0.000885,0,0
0:5:7.051,585.448,74.5392,0,0.000885,0,0
0:5:7.350,585.39,74.5323,0,0.000885,0,0
0:5:7.653,585.862,74.5944,0,0.000885,0,0
0:5:7.953,586.387,74.6633,0,0.000885,0,0
0:5:8.255,587.325,74.7805,0,0.000885,0,0
0:5:8.556,587.855,74.8495,0,0.000885,0,0
0:5:8.852,588.322,74.9046,0,0.000885,0,0
0:5:9.149,588.967,74.9874,0,0.000885,0,0
0:5:9.443,589.496,75.0563,0,0.000885,0,0
0:5:9.743,590.435,75.1735,0,0.000885,0,0
0:5:10.035,591.022,75.2494,0,0.000885,0,0
0:5:10.335,591.845,75.3528,0,0.000885,0,0
0:5:10.633,592.312,75.4149,0,0.000885,0,0
0:5:10.938,592.605,75.4562,0,0.000885,0,0
0:5:11.238,593.313,75.5459,0,0.000885,0,0
0:5:11.544,593.895,75.6148,0,0.000885,0,0
0:5:11.845,594.367,75.6769,0,0.000885,0,0
0:5:12.138,595.19,75.7803,0,0.000885,0,0
0:5:12.444,595.657,75.8423,0,0.000885,0,0
0:5:12.748,596.071,75.8906,0,0.000885,0,0
0:5:13.051,596.244,75.9182,0,0.000885,0,0
0:5:13.352,597.183,76.0354,0,0.000885,0,0
0:5:13.654,598.006,76.1388,0,0.000885,0,0
0:5:13.954,598.651,76.2215,0,0.000885,0,0
0:5:14.251,598.535,76.2078,0,0.000885,0,0
0:5:14.548,599.416,76.3181,0,0.000885,0,0
0:5:14.847,599.945,76.387,0,0.000885,0,0
0:5:15.150,600.532,76.4629,0,0.000885,0,0
0:5:15.451,601.119,76.5387,0,0.000885,0,0
0:5:15.747,601.822,76.6283,0,0.000885,0,0
0:5:16.044,602.467,76.7111,0,0.000885,0,0
0:5:16.341,603.054,76.78,0,0.000885,0,0
0:5:16.636,603.17,76.8007,0,0.000885,0,0
0:5:16.937,604.407,76.9524,0,0.000885,0,0
0:5:17.252,604.7,76.9938,0,0.000885,0,0
0:5:17.555,605.581,77.1041,0,0.000885,0,0
0:5:17.859,605.99,77.1592,0,0.000885,0,0
0:5:18.163,606.929,77.2764,0,0.000885,0,0
0:5:18.463,607.222,77.3109,0,0.000885,0,0
0:5:18.766,607.632,77.3661,0,0.000885,0,0
0:5:19.066,607.867,77.3937,0,0.000885,0,0
0:5:19.362,608.69,77.504,0,0.000885,0,0
0:5:19.659,609.98,77.6625,0,0.000885,0,0
0:5:19.958,609.922,77.6557,0,0.000885,0,0
0:5:20.253,610.51,77.7315,0,0.000885,0,0
0:5:20.554,611.39,77.8418,0,0.000885,0,0
0:5:20.847,612.213,77.9521,0,0.000885,0,0
0:5:21.147,612.093,77.9314,0,0.000885,0,0
0:5:21.442,613.21,78.0762,0,0.000885,0,0
0:5:21.751,613.797,78.1521,0,0.000885,0,0
0:5:22.049,614.62,78.2555,0,0.000885,0,0
0:5:22.351,614.206,78.2003,0,0.000885,0,0
0:5:22.654,615.438,78.3589,0,0.000885,0,0
0:5:22.958,615.616,78.3796,0,0.000885,0,0
0:5:23.257,615.794,78.4072,0,0.000885,0,0
0:5:23.559,616.555,78.5037,0,0.000885,0,0
0:5:23.855,616.319,78.4692,0,0.000885,0,0
0:5:24.156,616.906,78.5451,0,0.000885,0,0
0:5:24.451,617.907,78.6761,0,0.000885,0,0
0:5:24.750,619.139,78.8278,0,0.000885,0,0
0:5:25.047,619.784,78.9105,0,0.000885,0,0
0:5:25.342,620.607,79.0208,0,0.000885,0,0
0:5:25.643,621.194,79.0898,0,0.000885,0,0
0:5:25.936,622.191,79.2208,0,0.000885,0,0
0:5:26.237,620.723,79.0346,0,0.000885,0,0
0:5:26.541,620.429,78.9932,0,0.000885,0,0
0:5:26.838,620.723,79.0346,0,0.000885,0,0
0:5:27.136,621.839,79.1725,0,0.000885,0,0
0:5:27.437,622.893,79.3104,0,0.000885,0,0
0:5:27.742,624.246,79.4828,0,0.000885,0,0
0:5:28.046,625.536,79.6482,0,0.000885,0,0
0:5:28.347,626.181,79.731,0,0.000885,0,0
0:5:28.649,628.12,79.9723,0,0.000885,0,0
0:5:28.946,628.356,80.0068,0,0.000885,0,0
0:5:29.245,625.714,79.6689,0,0.000885,0,0
0:5:29.538,626.007,79.7034,0,0.000885,0,0
0:5:29.839,627.181,79.8551,0,0.000885,0,0
0:5:30.132,628.587,80.0343,0,0.000885,0,0
0:5:30.433,630.642,80.2963,0,0.000885,0,0
0:5:30.730,631.465,80.3998,0,0.000885,0,0
0:5:31.036,632.582,80.5446,0,0.000885,0,0
0:5:31.337,633.342,80.6411,0,0.000885,0,0
0:5:31.642,634.223,80.7514,0,0.000885,0,0
0:5:31.943,635.162,80.8686,0,0.000885,0,0
0:5:32.237,635.455,80.91,0,0.000885,0,0
0:5:32.541,635.224,80.8755,0,0.000885,0,0
0:5:32.843,636.807,81.0823,0,0.000885,0,0
0:5:33.148,636.865,81.0892,0,0.000885,0,0
0:5:33.449,637.63,81.1858,0,0.000885,0,0
0:5:33.749,638.217,81.2616,0,0.000885,0,0
0:5:34.048,638.511,81.2961,0,0.000885,0,0
0:5:34.348,640.037,81.4891,0,0.000885,0,0
0:5:34.652,639.681,81.4478,0,0.000885,0,0
0:5:34.953,640.152,81.5098,0,0.000885,0,0
0:5:35.246,640.918,81.6063,0,0.000885,0,0
0:5:35.546,642.208,81.7649,0,0.000885,0,0
0:5:35.842,642.737,81.8339,0,0.000885,0,0
0:5:36.150,642.853,81.8477,0,0.000885,0,0
0:5:36.449,643.146,81.889,0,0.000885,0,0
0:5:36.740,642.795,81.8408,0,0.000885,0,0
0:5:37.044,643.733,81.9649,0,0.000885,0,0
0:5:37.350,644.205,82.02,0,0.000885,0,0
0:5:37.652,644.85,82.1028,0,0.000885,0,0
0:5:37.954,645.259,82.1579,0,0.000885,0,0
0:5:38.257,645.788,82.2269,0,0.000885,0,0
0:5:38.558,646.082,82.2613,0,0.000885,0,0
0:5:38.852,646.549,82.3234,0,0.000885,0,0
0:5:39.153,646.669,82.3372,0,0.000885,0,0
0:5:39.448,647.372,82.4268,0,0.000885,0,0
0:5:39.744,649.018,82.6337,0,0.000885,0,0
0:5:40.053,649.133,82.6475,0,0.000885,0,0
0:5:40.349,649.605,82.7095,0,0.000885,0,0
0:5:40.651,651.068,82.8957,0,0.000885,0,0
0:5:40.943,650.895,82.875,0,0.000885,0,0
0:5:41.243,651.304,82.9301,0,0.000885,0,0
0:5:41.551,652.363,83.0611,0,0.000885,0,0
0:5:41.844,652.363,83.0611,0,0.000885,0,0
0:5:42.144,653.653,83.2266,0,0.000885,0,0
0:5:42.450,654.591,83.3438,0,0.000885,0,0
0:5:42.752,654.298,83.3094,0,0.000885,0,0
0:5:43.054,655.708,83.4886,0,0.000885,0,0
0:5:43.355,655.708,83.4886,0,0.000885,0,0
0:5:43.657,656.646,83.6058,0,0.000885,0,0
0:5:43.952,656.824,83.6265,0,0.000885,0,0
0:5:44.255,657.763,83.7506,0,0.000885,0,0
0:5:44.550,658.35,83.8265,0,0.000885,0,0
0:5:44.847,658.702,83.8678,0,0.000885,0,0
0:5:45.144,659.934,84.0264,0,0.000885,0,0
0:5:45.451,660.405,84.0885,0,0.000885,0,0
0:5:45.752,660.169,84.054,0,0.000885,0,0
0:5:46.047,661.166,84.185,0,0.000885,0,0
0:5:46.342,660.992,84.1574,0,0.000885,0,0
0:5:46.642,662.282,84.3229,0,0.000885,0,0
0:5:46.947,662.87,84.3987,0,0.000885,0,0
0:5:47.249,663.63,84.4953,0,0.000885,0,0
0:5:47.552,663.986,84.5435,0,0.000885,0,0
0:5:47.855,664.28,84.578,0,0.000885,0,0
0:5:48.156,663.986,84.5435,0,0.000885,0,0
0:5:48.458,662.749,84.3849,0,0.000885,0,0
0:5:48.758,662.518,84.3574,0,0.000885,0,0
0:5:49.052,662.692,84.378,0,0.000885,0,0
0:5:49.353,663.75,84.509,0,0.000885,0,0
0:5:49.648,664.453,84.5987,0,0.000885,0,0
0:5:49.945,665.098,84.6814,0,0.000885,0,0
0:5:50.242,665.921,84.7848,0,0.000885,0,0
0:5:50.550,666.917,84.9158,0,0.000885,0,0
0:5:50.850,667.976,85.0468,0,0.000885,0,0
0:5:51.142,668.328,85.0951,0,0.000885,0,0
0:5:51.443,668.27,85.0882,0,0.000885,0,0
0:5:51.740,667.74,85.0193,0,0.000885,0,0
0:5:52.036,668.621,85.1296,0,0.000885,0,0
0:5:52.336,670.383,85.3571,0,0.000885,0,0
0:5:52.640,671.085,85.4467,0,0.000885,0,0
0:5:52.943,672.731,85.6536,0,0.000885,0,0
0:5:53.245,673.492,85.7501,0,0.000885,0,0
0:5:53.549,674.493,85.8811,0,0.000885,0,0
0:5:53.852,674.786,85.9156,0,0.000885,0,0
0:5:54.156,674.608,85.8949,0,0.000885,0,0
0:5:54.457,674.96,85.9363,0,0.000885,0,0
0:5:54.751,675.489,86.0052,0,0.000885,0,0
0:5:55.051,667.095,84.9365,0,0.000885,0,0
0:5:55.357,665.218,84.6952,0,0.000885,0,0
0:5:55.653,664.044,84.5504,0,0.000885,0,0
0:5:55.951,664.453,84.5987,0,0.000885,0,0
0:5:56.243,659.876,84.0195,0,0.000885,0,0
0:5:56.544,652.599,83.0887,0,0.000885,0,0
0:5:56.849,643.733,81.9649,0,0.000885,0,0
0:5:57.151,614.793,78.2762,0,0.000885,0,0
0:5:57.454,606.635,77.242,0,0.000885,0,0
0:5:57.723,588.5,74.9322,0,0.000885,0,0