File: DataFile2021-07-28_090041.csv
Test ID:,Date Tested:,Time:,Test Type:,Diameter Avg. (mm):,Cyl. Corr. Factor:,Height (mm):,Age (days):,Weight (kN):,Break Type:,Ramp Rate (MPa/s):,Load at Break (kN):,Stress at Break (MPa):
12,7/28/2021,09:00,Cylinder,150,1,300,0,13.69,3,0.35,2187.44,123.78
Sample Time,Load (kN),Stress (MPa),Long. Strain,Trans. Strain,Chan1 Deflection (mm),Chan2 Deflection (mm)
0:0:8.333,7.3885,0.42058,0,0.000885,0,0
0:0:8.639,11.0271,0.620528,0,0.000885,0,0
0:0:8.940,11.2006,0.634318,0,0.000885,0,0
0:0:9.233,11.3207,0.641212,0,0.000885,0,0
0:0:9.534,11.6143,0.655002,0,0.000885,0,0
0:0:9.830,12.2015,0.689476,0,0.000885,0,0
0:0:10.139,15.5999,0.882529,0,0.000885,0,0
0:0:10.440,17.3614,0.979056,0,0.000885,0,0
0:0:10.734,18.8249,1.06869,0,0.000885,0,0
0:0:11.037,20.8221,1.179,0,0.000885,0,0
0:0:11.341,22.637,1.28242,0,0.000885,0,0
0:0:11.653,24.9857,1.41343,0,0.000885,0,0
0:0:11.952,26.5692,1.50306,0,0.000885,0,0
0:0:12.249,28.2106,1.59958,0,0.000885,0,0
0:0:12.550,30.2657,1.7099,0,0.000885,0,0
0:0:12.842,32.3742,1.83401,0,0.000885,0,0
0:0:13.144,35.0742,1.98569,0,0.000885,0,0
0:0:13.441,37.067,2.09601,0,0.000885,0,0
0:0:13.743,39.2956,2.22701,0,0.000885,0,0
0:0:14.053,41.6398,2.35801,0,0.000885,0,0
0:0:14.355,44.5178,2.51659,0,0.000885,0,0
0:0:14.659,46.1592,2.61311,0,0.000885,0,0
0:0:14.960,47.8584,2.70964,0,0.000885,0,0
0:0:15.263,49.442,2.79927,0,0.000885,0,0
0:0:15.562,50.6163,2.86132,0,0.000885,0,0
0:0:15.857,52.6669,2.97854,0,0.000885,0,0
0:0:16.159,53.8413,3.04748,0,0.000885,0,0
0:0:16.456,55.4248,3.13711,0,0.000885,0,0
0:0:16.757,56.7727,3.21296,0,0.000885,0,0
0:0:17.054,58.414,3.30259,0,0.000885,0,0
0:0:17.353,61.1719,3.46117,0,0.000885,0,0
0:0:17.653,62.9913,3.56459,0,0.000885,0,0
0:0:17.948,64.6327,3.65422,0,0.000885,0,0
0:0:18.249,66.3942,3.75764,0,0.000885,0,0
0:0:18.555,69.032,3.90933,0,0.000885,0,0
0:0:18.858,70.144,3.97138,0,0.000885,0,0
0:0:19.163,72.1413,4.0817,0,0.000885,0,0
0:0:19.467,74.0184,4.18512,0,0.000885,0,0
0:0:19.770,76.3626,4.32301,0,0.000885,0,0
0:0:20.073,77.9462,4.41264,0,0.000885,0,0
0:0:20.372,79.8812,4.52296,0,0.000885,0,0
0:0:20.671,81.5226,4.61259,0,0.000885,0,0
0:0:20.968,83.3997,4.72291,0,0.000885,0,0
0:0:21.270,85.9797,4.8677,0,0.000885,0,0
0:0:21.565,87.7412,4.96423,0,0.000885,0,0
0:0:21.868,89.6183,5.07454,0,0.000885,0,0
0:0:22.164,91.2597,5.16417,0,0.000885,0,0
0:0:22.461,92.7276,5.24691,0,0.000885,0,0
0:0:22.761,95.1919,5.38481,0,0.000885,0,0
0:0:23.058,96.5976,5.46754,0,0.000885,0,0
0:0:23.360,97.8876,5.53649,0,0.000885,0,0
0:0:23.653,99.7647,5.64681,0,0.000885,0,0
0:0:23.956,101.233,5.72954,0,0.000885,0,0
0:0:24.260,103.755,5.87433,0,0.000885,0,0
0:0:24.564,105.748,5.98465,0,0.000885,0,0
0:0:24.868,107.505,6.08118,0,0.000885,0,0
0:0:25.169,109.44,6.19149,0,0.000885,0,0
0:0:25.472,111.962,6.33628,0,0.000885,0,0
0:0:25.768,113.665,6.43281,0,0.000885,0,0
0:0:26.069,115.307,6.52244,0,0.000885,0,0
0:0:26.367,116.775,6.60518,0,0.000885,0,0
0:0:26.664,119.003,6.73618,0,0.000885,0,0
0:0:26.967,120.587,6.82581,0,0.000885,0,0
0:0:27.262,122.402,6.92923,0,0.000885,0,0
0:0:27.563,124.279,7.03265,0,0.000885,0,0
0:0:27.859,125.453,7.1016,0,0.000885,0,0
0:0:28.158,128.385,7.26707,0,0.000885,0,0
0:0:28.459,130.026,7.35671,0,0.000885,0,0
0:0:28.762,131.845,7.46013,0,0.000885,0,0
0:0:29.068,133.487,7.55665,0,0.000885,0,0
0:0:29.370,135.715,7.68076,0,0.000885,0,0
0:0:29.673,137.535,7.78418,0,0.000885,0,0
0:0:29.975,139.412,7.8876,0,0.000885,0,0
0:0:30.272,141.231,7.99102,0,0.000885,0,0
0:0:30.572,142.872,8.08755,0,0.000885,0,0
0:0:30.868,145.217,8.21855,0,0.000885,0,0
0:0:31.169,147.214,8.32887,0,0.000885,0,0
0:0:31.469,149.029,8.43229,0,0.000885,0,0
0:0:31.766,150.323,8.50813,0,0.000885,0,0
0:0:32.065,151.787,8.59087,0,0.000885,0,0
0:0:32.361,154.015,8.71497,0,0.000885,0,0
0:0:32.663,155.719,8.8115,0,0.000885,0,0
0:0:32.958,157.418,8.90803,0,0.000885,0,0
0:0:33.258,159.18,9.00455,0,0.000885,0,0
0:0:33.557,161.172,9.12176,0,0.000885,0,0
0:0:33.861,163.459,9.25276,0,0.000885,0,0
0:0:34.165,164.927,9.3355,0,0.000885,0,0
0:0:34.468,166.92,9.44582,0,0.000885,0,0
0:0:34.770,168.094,9.51477,0,0.000885,0,0
0:0:35.074,170.554,9.65266,0,0.000885,0,0
0:0:35.371,172.493,9.76298,0,0.000885,0,0
0:0:35.671,174.192,9.8595,0,0.000885,0,0
0:0:35.968,176.243,9.97671,0,0.000885,0,0
0:0:36.270,178.765,10.1146,0,0.000885,0,0
0:0:36.565,180.175,10.1973,0,0.000885,0,0
0:0:36.866,182.052,10.3008,0,0.000885,0,0
0:0:37.163,183.93,10.4111,0,0.000885,0,0
0:0:37.460,185.393,10.4938,0,0.000885,0,0
0:0:37.760,187.915,10.6317,0,0.000885,0,0
0:0:38.058,189.734,10.7351,0,0.000885,0,0
0:0:38.359,191.496,10.8386,0,0.000885,0,0
0:0:38.654,193.08,10.9282,0,0.000885,0,0
0:0:38.955,194.543,11.0109,0,0.000885,0,0
0:0:39.257,197.243,11.1626,0,0.000885,0,0
0:0:39.559,199,11.2591,0,0.000885,0,0
0:0:39.859,200.468,11.3419,0,0.000885,0,0
0:0:40.160,201.874,11.4246,0,0.000885,0,0
0:0:40.458,203.809,11.5349,0,0.000885,0,0
0:0:40.755,205.686,11.6384,0,0.000885,0,0
0:0:41.050,207.447,11.7418,0,0.000885,0,0
0:0:41.350,209.089,11.8314,0,0.000885,0,0
0:0:41.651,210.85,11.9348,0,0.000885,0,0
0:0:41.952,212.727,12.0382,0,0.000885,0,0
0:0:42.256,215.129,12.1761,0,0.000885,0,0
0:0:42.553,217.006,12.2796,0,0.000885,0,0
0:0:42.849,218.59,12.3692,0,0.000885,0,0
0:0:43.154,220.525,12.4795,0,0.000885,0,0
0:0:43.454,223.047,12.6243,0,0.000885,0,0
0:0:43.743,224.337,12.6932,0,0.000885,0,0
0:0:44.045,226.041,12.7898,0,0.000885,0,0
0:0:44.347,227.74,12.8863,0,0.000885,0,0
0:0:44.651,229.733,13.0035,0,0.000885,0,0
0:0:44.952,232.255,13.1414,0,0.000885,0,0
0:0:45.252,233.896,13.2379,0,0.000885,0,0
0:0:45.552,235.716,13.3414,0,0.000885,0,0
0:0:45.855,237.419,13.4379,0,0.000885,0,0
0:0:46.152,239.999,13.5827,0,0.000885,0,0
0:0:46.459,241.111,13.6447,0,0.000885,0,0
0:0:46.753,242.753,13.7344,0,0.000885,0,0
0:0:47.053,244.866,13.8585,0,0.000885,0,0
0:0:47.344,246.271,13.9343,0,0.000885,0,0
0:0:47.644,248.856,14.0791,0,0.000885,0,0
0:0:47.951,250.377,14.1687,0,0.000885,0,0
0:0:48.244,252.196,14.2721,0,0.000885,0,0
0:0:48.554,254.016,14.3756,0,0.000885,0,0
0:0:48.857,256.302,14.5066,0,0.000885,0,0
0:0:49.159,257.943,14.5962,0,0.000885,0,0
0:0:49.460,259.527,14.6858,0,0.000885,0,0
0:0:49.760,261.289,14.7893,0,0.000885,0,0
0:0:50.060,263.108,14.8858,0,0.000885,0,0
0:0:50.356,265.452,15.0237,0,0.000885,0,0
0:0:50.656,266.742,15.0926,0,0.000885,0,0
0:0:50.958,268.735,15.2098,0,0.000885,0,0
0:0:51.256,270.381,15.2995,0,0.000885,0,0
0:0:51.552,272.138,15.4029,0,0.000885,0,0
0:0:51.847,274.602,15.5408,0,0.000885,0,0
0:0:52.145,276.243,15.6304,0,0.000885,0,0
0:0:52.438,278.356,15.7545,0,0.000885,0,0
0:0:52.739,280.113,15.851,0,0.000885,0,0
0:0:53.042,281.875,15.9476,0,0.000885,0,0
0:0:53.339,284.161,16.0786,0,0.000885,0,0
0:0:53.637,285.687,16.1682,0,0.000885,0,0
0:0:53.938,287.093,16.244,0,0.000885,0,0
0:0:54.240,288.854,16.3475,0,0.000885,0,0
0:0:54.542,291.612,16.4992,0,0.000885,0,0
0:0:54.842,293.076,16.5819,0,0.000885,0,0
0:0:55.142,294.953,16.6922,0,0.000885,0,0
0:0:55.439,295.949,16.7474,0,0.000885,0,0
0:0:55.738,297.768,16.8508,0,0.000885,0,0
0:0:56.041,300.526,17.0094,0,0.000885,0,0
0:0:56.338,302.461,17.1128,0,0.000885,0,0
0:0:56.643,304.454,17.23,0,0.000885,0,0
0:0:56.948,305.686,17.2989,0,0.000885,0,0
0:0:57.248,308.151,17.4368,0,0.000885,0,0
0:0:57.552,309.792,17.5334,0,0.000885,0,0
0:0:57.851,311.785,17.6437,0,0.000885,0,0
0:0:58.154,313.368,17.7333,0,0.000885,0,0
0:0:58.449,315.072,17.8298,0,0.000885,0,0
0:0:58.748,317.768,17.9815,0,0.000885,0,0
0:0:59.053,319.058,18.0574,0,0.000885,0,0
0:0:59.354,320.641,18.147,0,0.000885,0,0
0:0:59.654,322.46,18.2504,0,0.000885,0,0
0:0:59.955,324.573,18.3676,0,0.000885,0,0
0:1:0.254,326.451,18.4711,0,0.000885,0,0
0:1:0.547,328.15,18.5676,0,0.000885,0,0
0:1:0.847,329.849,18.6641,0,0.000885,0,0
0:1:1.154,330.845,18.7193,0,0.000885,0,0
0:1:1.449,333.488,18.871,0,0.000885,0,0
0:1:1.747,335.596,18.9882,0,0.000885,0,0
0:1:2.042,337.473,19.0985,0,0.000885,0,0
0:1:2.342,339.057,19.1881,0,0.000885,0,0
0:1:2.643,342.05,19.3536,0,0.000885,0,0
0:1:2.942,343.576,19.4432,0,0.000885,0,0
0:1:3.239,344.924,19.5191,0,0.000885,0,0
0:1:3.544,347.037,19.6363,0,0.000885,0,0
0:1:3.843,348.265,19.7052,0,0.000885,0,0
0:1:4.145,350.729,19.85,0,0.000885,0,0
0:1:4.447,352.49,19.9465,0,0.000885,0,0
0:1:4.747,354.31,20.05,0,0.000885,0,0
0:1:5.049,355.773,20.1327,0,0.000885,0,0
0:1:5.349,358.353,20.2775,0,0.000885,0,0
0:1:5.644,359.995,20.374,0,0.000885,0,0
0:1:5.942,361.934,20.4843,0,0.000885,0,0
0:1:6.236,363.397,20.5671,0,0.000885,0,0
0:1:6.535,365.275,20.6705,0,0.000885,0,0
0:1:6.841,367.33,20.7877,0,0.000885,0,0
0:1:7.135,369.145,20.8911,0,0.000885,0,0
0:1:7.435,371.08,21.0014,0,0.000885,0,0
0:1:7.748,372.899,21.1049,0,0.000885,0,0
0:1:8.046,374.189,21.1738,0,0.000885,0,0
0:1:8.343,376.711,21.3186,0,0.000885,0,0
0:1:8.637,378.237,21.4013,0,0.000885,0,0
0:1:8.938,380.35,21.5254,0,0.000885,0,0
0:1:9.242,381.875,21.6082,0,0.000885,0,0
0:1:9.544,384.455,21.753,0,0.000885,0,0
0:1:9.843,385.861,21.8357,0,0.000885,0,0
0:1:10.143,387.738,21.9391,0,0.000885,0,0
0:1:10.444,389.731,22.0563,0,0.000885,0,0
0:1:10.737,391.315,22.146,0,0.000885,0,0
0:1:11.038,393.192,22.2494,0,0.000885,0,0
0:1:11.342,395.011,22.3528,0,0.000885,0,0
0:1:11.638,396.359,22.4286,0,0.000885,0,0
0:1:11.937,398.294,22.539,0,0.000885,0,0
0:1:12.239,400.055,22.6355,0,0.000885,0,0
0:1:12.539,402.813,22.7941,0,0.000885,0,0
0:1:12.835,404.397,22.8837,0,0.000885,0,0
0:1:13.139,405.98,22.9733,0,0.000885,0,0
0:1:13.447,407.857,23.0768,0,0.000885,0,0
0:1:13.750,410.086,23.2078,0,0.000885,0,0
0:1:14.054,411.492,23.2836,0,0.000885,0,0
0:1:14.353,413.191,23.3801,0,0.000885,0,0
0:1:14.653,414.952,23.4835,0,0.000885,0,0
0:1:14.954,417.59,23.6283,0,0.000885,0,0
0:1:15.247,419.116,23.718,0,0.000885,0,0
0:1:15.547,421.051,23.8283,0,0.000885,0,0
0:1:15.850,422.87,23.9317,0,0.000885,0,0
0:1:16.148,424.632,24.0282,0,0.000885,0,0
0:1:16.455,427.327,24.1799,0,0.000885,0,0
0:1:16.748,428.853,24.2695,0,0.000885,0,0
0:1:17.048,430.788,24.3799,0,0.000885,0,0
0:1:17.353,432.136,24.4557,0,0.000885,0,0
0:1:17.650,433.897,24.5522,0,0.000885,0,0
0:1:17.946,436.006,24.6763,0,0.000885,0,0
0:1:18.242,437.767,24.7729,0,0.000885,0,0
0:1:18.540,439.76,24.8832,0,0.000885,0,0
0:1:18.843,441.344,24.9728,0,0.000885,0,0
0:1:19.144,443.514,25.0969,0,0.000885,0,0
0:1:19.446,445.098,25.1865,0,0.000885,0,0
0:1:19.745,446.859,25.29,0,0.000885,0,0
0:1:20.047,448.501,25.3796,0,0.000885,0,0
0:1:20.351,450.2,25.4761,0,0.000885,0,0
0:1:20.651,452.429,25.6002,0,0.000885,0,0
0:1:20.956,454.364,25.7105,0,0.000885,0,0
0:1:21.254,456.361,25.8278,0,0.000885,0,0
0:1:21.550,457.882,25.9105,0,0.000885,0,0
0:1:21.855,460.818,26.076,0,0.000885,0,0
0:1:22.151,461.988,26.1449,0,0.000885,0,0
0:1:22.445,463.927,26.2552,0,0.000885,0,0
0:1:22.744,465.449,26.338,0,0.000885,0,0
0:1:23.050,467.268,26.4414,0,0.000885,0,0
0:1:23.346,469.617,26.5724,0,0.000885,0,0
0:1:23.644,471.138,26.662,0,0.000885,0,0
0:1:23.949,473.015,26.7654,0,0.000885,0,0
0:1:24.249,474.541,26.8551,0,0.000885,0,0
0:1:24.551,476.596,26.9723,0,0.000885,0,0
0:1:24.850,478.531,27.0826,0,0.000885,0,0
0:1:25.151,480.23,27.1722,0,0.000885,0,0
0:1:25.446,481.929,27.2688,0,0.000885,0,0
0:1:25.745,483.749,27.3722,0,0.000885,0,0
0:1:26.051,486.035,27.5032,0,0.000885,0,0
0:1:26.345,487.97,27.6135,0,0.000885,0,0
0:1:26.655,489.847,27.7169,0,0.000885,0,0
0:1:26.946,491.431,27.8066,0,0.000885,0,0
0:1:27.246,493.25,27.91,0,0.000885,0,0
0:1:27.540,495.95,28.0617,0,0.000885,0,0
0:1:27.838,497.413,28.1513,0,0.000885,0,0
0:1:28.144,499.233,28.2478,0,0.000885,0,0
0:1:28.437,500.638,28.3306,0,0.000885,0,0
0:1:28.736,502.222,28.4202,0,0.000885,0,0
0:1:29.040,504.922,28.5719,0,0.000885,0,0
0:1:29.342,505.918,28.627,0,0.000885,0,0
0:1:29.642,507.911,28.7442,0,0.000885,0,0
0:1:29.942,509.206,28.8132,0,0.000885,0,0
0:1:30.244,511.786,28.958,0,0.000885,0,0
0:1:30.537,513.601,29.0614,0,0.000885,0,0
0:1:30.837,515.126,29.151,0,0.000885,0,0
0:1:31.141,517.297,29.2751,0,0.000885,0,0
0:1:31.446,518.881,29.3648,0,0.000885,0,0
0:1:31.755,521.638,29.5165,0,0.000885,0,0
0:1:32.048,523.338,29.613,0,0.000885,0,0
0:1:32.348,524.334,29.6681,0,0.000885,0,0
0:1:32.650,526.621,29.7991,0,0.000885,0,0
0:1:32.950,529.321,29.9508,0,0.000885,0,0
0:1:33.258,531.082,30.0542,0,0.000885,0,0
0:1:33.549,532.252,30.1163,0,0.000885,0,0
0:1:33.849,534.307,30.2335,0,0.000885,0,0
0:1:34.151,535.948,30.33,0,0.000885,0,0
0:1:34.453,538.413,30.4679,0,0.000885,0,0
0:1:34.755,539.818,30.5507,0,0.000885,0,0
0:1:35.057,540.993,30.6127,0,0.000885,0,0
0:1:35.357,542.87,30.723,0,0.000885,0,0
0:1:35.649,545.45,30.8678,0,0.000885,0,0
0:1:35.950,547.269,30.9712,0,0.000885,0,0
0:1:36.252,548.795,31.054,0,0.000885,0,0
0:1:36.550,550.788,31.1712,0,0.000885,0,0
0:1:36.857,552.545,31.2677,0,0.000885,0,0
0:1:37.151,554.715,31.3918,0,0.000885,0,0
0:1:37.451,556.241,31.4746,0,0.000885,0,0
0:1:37.753,558.47,31.6056,0,0.000885,0,0
0:1:38.051,559.996,31.6883,0,0.000885,0,0
0:1:38.348,562.34,31.8193,0,0.000885,0,0
0:1:38.651,564.275,31.9296,0,0.000885,0,0
0:1:38.952,565.743,32.0124,0,0.000885,0,0
0:1:39.256,567.678,32.1227,0,0.000885,0,0
0:1:39.557,569.203,32.2123,0,0.000885,0,0
0:1:39.859,571.374,32.3364,0,0.000885,0,0
0:1:40.160,573.193,32.4329,0,0.000885,0,0
0:1:40.459,574.777,32.5226,0,0.000885,0,0
0:1:40.753,575.947,32.5915,0,0.000885,0,0
0:1:41.052,578.82,32.757,0,0.000885,0,0
0:1:41.347,580.698,32.8604,0,0.000885,0,0
0:1:41.644,582.108,32.9432,0,0.000885,0,0
0:1:41.940,584.394,33.0673,0,0.000885,0,0
0:1:42.234,585.8,33.15,0,0.000885,0,0
0:1:42.535,587.677,33.2534,0,0.000885,0,0
0:1:42.829,589.674,33.3706,0,0.000885,0,0
0:1:43.129,591.258,33.4603,0,0.000885,0,0
0:1:43.426,593.428,33.5844,0,0.000885,0,0
0:1:43.728,595.012,33.674,0,0.000885,0,0
0:1:44.034,598.006,33.8395,0,0.000885,0,0
0:1:44.336,599.594,33.9291,0,0.000885,0,0
0:1:44.639,601.649,34.0463,0,0.000885,0,0
0:1:44.941,603.232,34.1359,0,0.000885,0,0
0:1:45.247,605.229,34.2463,0,0.000885,0,0
0:1:45.549,607.164,34.3566,0,0.000885,0,0
0:1:45.843,608.748,34.4462,0,0.000885,0,0
0:1:46.145,610.158,34.5289,0,0.000885,0,0
0:1:46.441,611.506,34.6048,0,0.000885,0,0
0:1:46.739,613.975,34.7427,0,0.000885,0,0
0:1:47.039,615.852,34.853,0,0.000885,0,0
0:1:47.343,617.493,34.9426,0,0.000885,0,0
0:1:47.644,619.023,35.0323,0,0.000885,0,0
0:1:47.940,620.429,35.1081,0,0.000885,0,0
0:1:48.239,623.365,35.2736,0,0.000885,0,0
0:1:48.539,624.891,35.3632,0,0.000885,0,0
0:1:48.843,627.124,35.4873,0,0.000885,0,0
0:1:49.147,628.592,35.5701,0,0.000885,0,0
0:1:49.448,631.229,35.7217,0,0.000885,0,0
0:1:49.751,632.466,35.7907,0,0.000885,0,0
0:1:50.052,634.459,35.901,0,0.000885,0,0
0:1:50.349,636.278,36.0044,0,0.000885,0,0
0:1:50.650,638.097,36.1078,0,0.000885,0,0
0:1:50.957,640.273,36.2319,0,0.000885,0,0
0:1:51.253,642.208,36.3423,0,0.000885,0,0
0:1:51.563,644.027,36.4457,0,0.000885,0,0
0:1:51.859,645.201,36.5077,0,0.000885,0,0
0:1:52.159,647.843,36.6594,0,0.000885,0,0
0:1:52.451,649.191,36.7353,0,0.000885,0,0
0:1:52.752,650.779,36.8249,0,0.000885,0,0
0:1:53.047,652.363,36.9145,0,0.000885,0,0
0:1:53.347,654.067,37.0111,0,0.000885,0,0
0:1:53.644,656.704,37.1627,0,0.000885,0,0
0:1:53.948,658.528,37.2662,0,0.000885,0,0
0:1:54.253,660.463,37.3765,0,0.000885,0,0
0:1:54.553,661.753,37.4454,0,0.000885,0,0
0:1:54.858,664.867,37.6247,0,0.000885,0,0
0:1:55.160,666.393,37.7074,0,0.000885,0,0
0:1:55.455,668.034,37.804,0,0.000885,0,0
0:1:55.754,669.738,37.9005,0,0.000885,0,0
0:1:56.049,671.793,38.0177,0,0.000885,0,0
0:1:56.351,673.906,38.1349,0,0.000885,0,0
0:1:56.648,675.08,38.2039,0,0.000885,0,0
0:1:56.946,676.899,38.3073,0,0.000885,0,0
0:1:57.243,678.541,38.3969,0,0.000885,0,0
0:1:57.548,680.071,38.4865,0,0.000885,0,0
0:1:57.851,682.593,38.6244,0,0.000885,0,0
0:1:58.145,684.706,38.7485,0,0.000885,0,0
0:1:58.446,686.289,38.8382,0,0.000885,0,0
0:1:58.743,687.584,38.9071,0,0.000885,0,0
0:1:59.045,690.164,39.0519,0,0.000885,0,0
0:1:59.350,691.925,39.1553,0,0.000885,0,0
0:1:59.651,693.687,39.2519,0,0.000885,0,0
0:1:59.952,694.977,39.3277,0,0.000885,0,0
0:2:0.252,696.858,39.4311,0,0.000885,0,0
0:2:0.550,699.79,39.6035,0,0.000885,0,0
0:2:0.850,701.026,39.6724,0,0.000885,0,0
0:2:1.167,703.197,39.7896,0,0.000885,0,0
0:2:1.467,705.132,39.9,0,0.000885,0,0
0:2:1.762,707.659,40.0448,0,0.000885,0,0
0:2:2.061,708.949,40.1206,0,0.000885,0,0
0:2:2.358,710.532,40.2102,0,0.000885,0,0
0:2:2.653,712.352,40.3136,0,0.000885,0,0
0:2:2.953,713.94,40.4033,0,0.000885,0,0
0:2:3.247,715.817,40.5067,0,0.000885,0,0
0:2:3.549,717.752,40.617,0,0.000885,0,0
0:2:3.854,719.162,40.6929,0,0.000885,0,0
0:2:4.159,721.333,40.817,0,0.000885,0,0
0:2:4.462,723.681,40.9549,0,0.000885,0,0
0:2:4.763,725.794,41.0721,0,0.000885,0,0
0:2:5.066,727.498,41.1686,0,0.000885,0,0
0:2:5.360,729.081,41.2582,0,0.000885,0,0
0:2:5.659,731.372,41.3892,0,0.000885,0,0
0:2:5.955,733.191,41.4926,0,0.000885,0,0
0:2:6.253,734.602,41.5685,0,0.000885,0,0
0:2:6.553,736.95,41.6995,0,0.000885,0,0
0:2:6.846,737.889,41.7547,0,0.000885,0,0
0:2:7.149,739.294,41.8374,0,0.000885,0,0
0:2:7.445,741.937,41.9822,0,0.000885,0,0
0:2:7.752,743.876,42.0925,0,0.000885,0,0
0:2:8.051,745.46,42.1821,0,0.000885,0,0
0:2:8.356,747.337,42.2924,0,0.000885,0,0
0:2:8.660,749.218,42.3959,0,0.000885,0,0
0:2:8.964,751.038,42.4993,0,0.000885,0,0
0:2:9.266,752.737,42.5958,0,0.000885,0,0
0:2:9.569,754.619,42.6992,0,0.000885,0,0
0:2:9.870,756.905,42.8302,0,0.000885,0,0
0:2:10.173,759.138,42.9612,0,0.000885,0,0
0:2:10.468,760.957,43.0647,0,0.000885,0,0
0:2:10.769,762.247,43.1336,0,0.000885,0,0
0:2:11.064,764.009,43.237,0,0.000885,0,0
0:2:11.364,767.002,43.4025,0,0.000885,0,0
0:2:11.663,768.47,43.4852,0,0.000885,0,0
0:2:11.955,769.88,43.568,0,0.000885,0,0
0:2:12.259,771.931,43.6852,0,0.000885,0,0
0:2:12.563,773.225,43.7541,0,0.000885,0,0
0:2:12.863,775.748,43.8989,0,0.000885,0,0
0:2:13.160,777.038,43.9748,0,0.000885,0,0
0:2:13.456,778.861,44.0713,0,0.000885,0,0
0:2:13.756,780.209,44.154,0,0.000885,0,0
0:2:14.063,782.967,44.3057,0,0.000885,0,0
0:2:14.366,784.493,44.3953,0,0.000885,0,0
0:2:14.668,786.374,44.4988,0,0.000885,0,0
0:2:14.969,788.487,44.616,0,0.000885,0,0
0:2:15.271,790.836,44.7539,0,0.000885,0,0
0:2:15.569,792.593,44.8504,0,0.000885,0,0
0:2:15.869,794.355,44.9538,0,0.000885,0,0
0:2:16.164,796.236,45.0572,0,0.000885,0,0
0:2:16.462,797.704,45.14,0,0.000885,0,0
0:2:16.762,799.817,45.2572,0,0.000885,0,0
0:2:17.056,801.574,45.3606,0,0.000885,0,0
0:2:17.356,803.104,45.4433,0,0.000885,0,0
0:2:17.662,804.803,45.5399,0,0.000885,0,0
0:2:17.964,806.623,45.6433,0,0.000885,0,0
0:2:18.259,809.207,45.795,0,0.000885,0,0
0:2:18.555,810.911,45.8915,0,0.000885,0,0
0:2:18.854,811.907,45.9467,0,0.000885,0,0
0:2:19.156,814.02,46.0639,0,0.000885,0,0
0:2:19.463,815.897,46.1673,0,0.000885,0,0
0:2:19.765,818.246,46.3052,0,0.000885,0,0
0:2:20.068,819.95,46.4017,0,0.000885,0,0
0:2:20.370,821.711,46.4982,0,0.000885,0,0
0:2:20.666,823.352,46.5948,0,0.000885,0,0
0:2:20.966,826.053,46.7465,0,0.000885,0,0
0:2:21.262,828.108,46.8637,0,0.000885,0,0
0:2:21.563,829.166,46.9188,0,0.000885,0,0
0:2:21.857,830.634,47.0016,0,0.000885,0,0
0:2:22.168,832.333,47.0981,0,0.000885,0,0
0:2:22.466,834.918,47.2498,0,0.000885,0,0
0:2:22.760,836.444,47.3325,0,0.000885,0,0
0:2:23.062,838.321,47.4359,0,0.000885,0,0
0:2:23.354,839.731,47.5187,0,0.000885,0,0
0:2:23.657,841.608,47.6221,0,0.000885,0,0
0:2:23.964,844.602,47.7945,0,0.000885,0,0
0:2:24.266,846.07,47.8772,0,0.000885,0,0
0:2:24.569,847.831,47.9806,0,0.000885,0,0
0:2:24.870,849.886,48.0909,0,0.000885,0,0
0:2:25.172,852.235,48.2288,0,0.000885,0,0
0:2:25.469,853.703,48.3116,0,0.000885,0,0
0:2:25.767,855.522,48.415,0,0.000885,0,0
0:2:26.064,856.928,48.4908,0,0.000885,0,0
0:2:26.370,859.276,48.6218,0,0.000885,0,0
0:2:26.670,860.686,48.7046,0,0.000885,0,0
0:2:26.964,862.27,48.7942,0,0.000885,0,0
0:2:27.266,863.68,48.8769,0,0.000885,0,0
0:2:27.563,866.087,49.0079,0,0.000885,0,0
0:2:27.857,868.551,49.1527,0,0.000885,0,0
0:2:28.157,870.255,49.2493,0,0.000885,0,0
0:2:28.463,872.367,49.3665,0,0.000885,0,0
0:2:28.765,873.893,49.4492,0,0.000885,0,0
0:2:29.069,875.183,49.525,0,0.000885,0,0
0:2:29.373,877.883,49.6767,0,0.000885,0,0
0:2:29.673,879,49.7388,0,0.000885,0,0
0:2:29.975,880.703,49.8353,0,0.000885,0,0
0:2:30.276,882.758,49.9525,0,0.000885,0,0
0:2:30.572,884.987,50.0766,0,0.000885,0,0
0:2:30.872,886.571,50.1731,0,0.000885,0,0
0:2:31.168,888.804,50.2973,0,0.000885,0,0
0:2:31.467,890.214,50.3731,0,0.000885,0,0
0:2:31.766,891.797,50.4627,0,0.000885,0,0
0:2:32.057,894.733,50.6282,0,0.000885,0,0
0:2:32.361,896.317,50.7178,0,0.000885,0,0
0:2:32.654,897.727,50.8006,0,0.000885,0,0
0:2:32.954,899.72,50.9109,0,0.000885,0,0
0:2:33.251,901.187,50.9936,0,0.000885,0,0
0:2:33.548,903.945,51.1522,0,0.000885,0,0
0:2:33.850,905.649,51.2487,0,0.000885,0,0
0:2:34.152,907.117,51.3315,0,0.000885,0,0
0:2:34.455,908.291,51.4004,0,0.000885,0,0
0:2:34.757,910.876,51.5452,0,0.000885,0,0
0:2:35.062,912.633,51.6417,0,0.000885,0,0
0:2:35.363,914.163,51.7314,0,0.000885,0,0
0:2:35.656,915.804,51.821,0,0.000885,0,0
0:2:35.958,917.272,51.9037,0,0.000885,0,0
0:2:36.253,919.914,52.0554,0,0.000885,0,0
0:2:36.552,921.734,52.1588,0,0.000885,0,0
0:2:36.849,923.962,52.2829,0,0.000885,0,0
0:2:37.156,925.724,52.3864,0,0.000885,0,0
0:2:37.455,927.076,52.4622,0,0.000885,0,0
0:2:37.749,929.598,52.607,0,0.000885,0,0
0:2:38.052,931.711,52.7242,0,0.000885,0,0
0:2:38.347,933.53,52.8276,0,0.000885,0,0
0:2:38.649,934.647,52.8897,0,0.000885,0,0
0:2:38.955,937.347,53.0414,0,0.000885,0,0
0:2:39.258,939.166,53.1448,0,0.000885,0,0
0:2:39.562,940.456,53.2206,0,0.000885,0,0
0:2:39.863,942.338,53.3241,0,0.000885,0,0
0:2:40.164,944.215,53.4344,0,0.000885,0,0
0:2:40.462,946.27,53.5447,0,0.000885,0,0
0:2:40.767,948.205,53.655,0,0.000885,0,0
0:2:41.067,949.967,53.7584,0,0.000885,0,0
0:2:41.359,951.261,53.8274,0,0.000885,0,0
0:2:41.662,953.725,53.9722,0,0.000885,0,0
0:2:41.957,955.131,54.048,0,0.000885,0,0
0:2:42.255,956.893,54.1514,0,0.000885,0,0
0:2:42.554,959.126,54.2755,0,0.000885,0,0
0:2:42.858,960.709,54.3652,0,0.000885,0,0
0:2:43.159,963.236,54.51,0,0.000885,0,0
0:2:43.465,964.877,54.5996,0,0.000885,0,0
0:2:43.768,966.461,54.6892,0,0.000885,0,0
0:2:44.072,968.107,54.7857,0,0.000885,0,0
0:2:44.374,970.749,54.9305,0,0.000885,0,0
0:2:44.677,971.981,54.9995,0,0.000885,0,0
0:2:44.979,973.564,55.0891,0,0.000885,0,0
0:2:45.278,975.62,55.2063,0,0.000885,0,0
0:2:45.576,977.261,55.3028,0,0.000885,0,0
0:2:45.873,979.961,55.4545,0,0.000885,0,0
0:2:46.173,982.016,55.5717,0,0.000885,0,0
0:2:46.468,983.604,55.6614,0,0.000885,0,0
0:2:46.768,985.01,55.7372,0,0.000885,0,0
0:2:47.063,986.478,55.82,0,0.000885,0,0
0:2:47.359,988.942,55.9647,0,0.000885,0,0
0:2:47.658,990.53,56.0544,0,0.000885,0,0
0:2:47.966,992.114,56.144,0,0.000885,0,0
0:2:48.264,994.284,56.2681,0,0.000885,0,0
0:2:48.559,996.339,56.3784,0,0.000885,0,0
0:2:48.860,998.043,56.475,0,0.000885,0,0
0:2:49.167,1000.1,56.5922,0,0.000885,0,0
0:2:49.470,1001.33,56.6611,0,0.000885,0,0
0:2:49.772,1002.91,56.7507,0,0.000885,0,0
0:2:50.074,1005.61,56.9093,0,0.000885,0,0
0:2:50.376,1007.55,57.0127,0,0.000885,0,0
0:2:50.671,1009.43,57.1231,0,0.000885,0,0
0:2:50.971,1010.9,57.2058,0,0.000885,0,0
0:2:51.268,1013.71,57.3644,0,0.000885,0,0
0:2:51.564,1015.42,57.4609,0,0.000885,0,0
0:2:51.863,1017.12,57.5574,0,0.000885,0,0
0:2:52.157,1018.29,57.6264,0,0.000885,0,0
0:2:52.457,1020.17,57.7298,0,0.000885,0,0
0:2:52.752,1022.29,57.847,0,0.000885,0,0
0:2:53.051,1023.93,57.9435,0,0.000885,0,0
0:2:53.349,1025.81,58.047,0,0.000885,0,0
0:2:53.645,1027.04,58.1159,0,0.000885,0,0
0:2:53.944,1028.62,58.2055,0,0.000885,0,0
0:2:54.248,1031.62,58.3779,0,0.000885,0,0
0:2:54.551,1033.73,58.4951,0,0.000885,0,0
0:2:54.853,1035.26,58.5848,0,0.000885,0,0
0:2:55.153,1036.96,58.6813,0,0.000885,0,0
0:2:55.455,1038.54,58.7709,0,0.000885,0,0
0:2:55.750,1041.07,58.9157,0,0.000885,0,0
0:2:56.052,1042.24,58.9778,0,0.000885,0,0
0:2:56.348,1044.24,59.095,0,0.000885,0,0
0:2:56.646,1045.76,59.1777,0,0.000885,0,0
0:2:56.946,1047.7,59.288,0,0.000885,0,0
0:2:57.249,1050.58,59.4535,0,0.000885,0,0
0:2:57.550,1052.1,59.5362,0,0.000885,0,0
0:2:57.864,1053.28,59.6052,0,0.000885,0,0
0:2:58.166,1055.92,59.75,0,0.000885,0,0
0:2:58.460,1057.62,59.8465,0,0.000885,0,0
0:2:58.765,1059.21,59.9361,0,0.000885,0,0
0:2:59.070,1060.38,60.0051,0,0.000885,0,0
0:2:59.372,1062.79,60.143,0,0.000885,0,0
0:2:59.673,1065.14,60.274,0,0.000885,0,0
0:2:59.974,1067.13,60.3843,0,0.000885,0,0
0:3:0.273,1068.66,60.4739,0,0.000885,0,0
0:3:0.571,1070.3,60.5635,0,0.000885,0,0
0:3:0.865,1072.36,60.6808,0,0.000885,0,0
0:3:1.166,1074.59,60.8118,0,0.000885,0,0
0:3:1.459,1076.17,60.9014,0,0.000885,0,0
0:3:1.759,1077.58,60.9772,0,0.000885,0,0
0:3:2.054,1079.34,61.0807,0,0.000885,0,0
0:3:2.353,1081.04,61.1772,0,0.000885,0,0
0:3:2.652,1083.51,61.3151,0,0.000885,0,0
0:3:2.947,1085.03,61.3978,0,0.000885,0,0
0:3:3.248,1086.44,61.4806,0,0.000885,0,0
0:3:3.553,1088.79,61.6116,0,0.000885,0,0
0:3:3.856,1091.2,61.7494,0,0.000885,0,0
0:3:4.161,1092.78,61.8391,0,0.000885,0,0
0:3:4.465,1094.72,61.9494,0,0.000885,0,0
0:3:4.765,1096.6,62.0528,0,0.000885,0,0
0:3:5.066,1097.95,62.1287,0,0.000885,0,0
0:3:5.374,1100.29,62.2666,0,0.000885,0,0
0:3:5.672,1101.88,62.3562,0,0.000885,0,0
0:3:5.969,1103.64,62.4527,0,0.000885,0,0
0:3:6.267,1105.34,62.5492,0,0.000885,0,0
0:3:6.560,1107.99,62.7009,0,0.000885,0,0
0:3:6.862,1109.69,62.7974,0,0.000885,0,0
0:3:7.158,1110.92,62.8664,0,0.000885,0,0
0:3:7.466,1112.68,62.9629,0,0.000885,0,0
0:3:7.765,1114.44,63.0663,0,0.000885,0,0
0:3:8.070,1117.08,63.2111,0,0.000885,0,0
0:3:8.370,1118.73,63.3077,0,0.000885,0,0
0:3:8.662,1120.37,63.3973,0,0.000885,0,0
0:3:8.967,1122.13,63.5007,0,0.000885,0,0
0:3:9.271,1125.01,63.6593,0,0.000885,0,0
0:3:9.575,1125.83,63.7076,0,0.000885,0,0
0:3:9.875,1127.77,63.8179,0,0.000885,0,0
0:3:10.177,1128.88,63.8799,0,0.000885,0,0
0:3:10.479,1132.11,64.0661,0,0.000885,0,0
0:3:10.774,1133.75,64.1557,0,0.000885,0,0
0:3:11.074,1135.34,64.2453,0,0.000885,0,0
0:3:11.371,1138.16,64.4039,0,0.000885,0,0
0:3:11.666,1139.45,64.4798,0,0.000885,0,0
0:3:11.965,1141.04,64.5694,0,0.000885,0,0
0:3:12.258,1143.26,64.6935,0,0.000885,0,0
0:3:12.558,1144.38,64.7556,0,0.000885,0,0
0:3:12.855,1146.32,64.8659,0,0.000885,0,0
0:3:13.152,1147.67,64.9417,0,0.000885,0,0
0:3:13.452,1150.54,65.1072,0,0.000885,0,0
0:3:13.754,1151.89,65.183,0,0.000885,0,0
0:3:14.058,1153.71,65.2865,0,0.000885,0,0
0:3:14.360,1155.59,65.3899,0,0.000885,0,0
0:3:14.662,1158.05,65.5347,0,0.000885,0,0
0:3:14.965,1159.87,65.6381,0,0.000885,0,0
0:3:15.260,1160.93,65.6932,0,0.000885,0,0
0:3:15.561,1162.69,65.7967,0,0.000885,0,0
0:3:15.855,1164.16,65.8794,0,0.000885,0,0
0:3:16.155,1166.92,66.0311,0,0.000885,0,0
0:3:16.463,1169.03,66.1552,0,0.000885,0,0
0:3:16.758,1170.91,66.2586,0,0.000885,0,0
0:3:17.058,1172.5,66.3482,0,0.000885,0,0
0:3:17.352,1173.97,66.431,0,0.000885,0,0
0:3:17.654,1176.84,66.5965,0,0.000885,0,0
0:3:17.950,1178.31,66.6792,0,0.000885,0,0
0:3:18.249,1179.83,66.7619,0,0.000885,0,0
0:3:18.547,1181.3,66.8447,0,0.000885,0,0
0:3:18.850,1183.12,66.9481,0,0.000885,0,0
0:3:19.153,1185.7,67.0998,0,0.000885,0,0
0:3:19.457,1187.52,67.2032,0,0.000885,0,0
0:3:19.757,1189.4,67.3066,0,0.000885,0,0
0:3:20.061,1190.87,67.3894,0,0.000885,0,0
0:3:20.357,1193.57,67.541,0,0.000885,0,0
0:3:20.659,1195.57,67.6583,0,0.000885,0,0
0:3:20.952,1197.09,67.741,0,0.000885,0,0
0:3:21.253,1198.32,67.8099,0,0.000885,0,0
0:3:21.549,1200.03,67.9065,0,0.000885,0,0
0:3:21.857,1202.49,68.0444,0,0.000885,0,0
0:3:22.167,1203.84,68.1202,0,0.000885,0,0
0:3:22.472,1205.43,68.2098,0,0.000885,0,0
0:3:22.774,1207.13,68.3064,0,0.000885,0,0
0:3:23.070,1210.01,68.4718,0,0.000885,0,0
0:3:23.369,1211.47,68.5546,0,0.000885,0,0
0:3:23.664,1212.71,68.6235,0,0.000885,0,0
0:3:23.969,1214.29,68.7132,0,0.000885,0,0
0:3:24.274,1217.28,68.8855,0,0.000885,0,0
0:3:24.577,1219.1,68.9889,0,0.000885,0,0
0:3:24.877,1220.92,69.0924,0,0.000885,0,0
0:3:25.181,1222.57,69.182,0,0.000885,0,0
0:3:25.478,1223.91,69.2578,0,0.000885,0,0
0:3:25.779,1227.14,69.444,0,0.000885,0,0
0:3:26.074,1229.2,69.5612,0,0.000885,0,0
0:3:26.376,1230.55,69.637,0,0.000885,0,0
0:3:26.671,1231.9,69.7129,0,0.000885,0,0
0:3:26.970,1232.78,69.7612,0,0.000885,0,0
0:3:27.270,1235.48,69.9128,0,0.000885,0,0
0:3:27.562,1236.83,69.9887,0,0.000885,0,0
0:3:27.865,1239.24,70.1266,0,0.000885,0,0
0:3:28.160,1240.94,70.2231,0,0.000885,0,0
0:3:28.460,1243.46,70.3679,0,0.000885,0,0
0:3:28.759,1245.46,70.4782,0,0.000885,0,0
0:3:29.061,1247.22,70.5816,0,0.000885,0,0
0:3:29.367,1248.45,70.6506,0,0.000885,0,0
0:3:29.669,1249.98,70.7333,0,0.000885,0,0
0:3:29.972,1252.21,70.8574,0,0.000885,0,0
0:3:30.274,1253.74,70.9471,0,0.000885,0,0
0:3:30.571,1256.03,71.0781,0,0.000885,0,0
0:3:30.872,1257.73,71.1746,0,0.000885,0,0
0:3:31.165,1260.07,71.3056,0,0.000885,0,0
0:3:31.469,1262.01,71.4159,0,0.000885,0,0
0:3:31.763,1263.6,71.5055,0,0.000885,0,0
0:3:32.061,1265.53,71.6158,0,0.000885,0,0
0:3:32.361,1267.36,71.7193,0,0.000885,0,0
0:3:32.664,1269.82,71.8572,0,0.000885,0,0
0:3:32.968,1270.87,71.9192,0,0.000885,0,0
0:3:33.262,1272.4,72.002,0,0.000885,0,0
0:3:33.559,1273.75,72.0778,0,0.000885,0,0
0:3:33.859,1275.57,72.1812,0,0.000885,0,0
0:3:34.163,1278.27,72.3329,0,0.000885,0,0
0:3:34.468,1280.27,72.4501,0,0.000885,0,0
0:3:34.771,1282.15,72.5535,0,0.000885,0,0
0:3:35.071,1284.2,72.6707,0,0.000885,0,0
0:3:35.375,1286.14,72.7811,0,0.000885,0,0
0:3:35.670,1287.78,72.8707,0,0.000885,0,0
0:3:35.972,1289.72,72.981,0,0.000885,0,0
0:3:36.276,1291.36,73.0775,0,0.000885,0,0
0:3:36.577,1293,73.1672,0,0.000885,0,0
0:3:36.875,1294.82,73.2706,0,0.000885,0,0
0:3:37.170,1296.82,73.3878,0,0.000885,0,0
0:3:37.470,1298.05,73.4567,0,0.000885,0,0
0:3:37.765,1299.99,73.5671,0,0.000885,0,0
0:3:38.064,1302.87,73.7256,0,0.000885,0,0
0:3:38.372,1304.92,73.8429,0,0.000885,0,0
0:3:38.670,1306.15,73.9118,0,0.000885,0,0
0:3:38.970,1307.56,73.9945,0,0.000885,0,0
0:3:39.274,1309.56,74.1049,0,0.000885,0,0
0:3:39.578,1311.55,74.2221,0,0.000885,0,0
0:3:39.881,1313.37,74.3186,0,0.000885,0,0
0:3:40.182,1315.31,74.4289,0,0.000885,0,0
0:3:40.486,1317.01,74.5254,0,0.000885,0,0
0:3:40.781,1319.19,74.6495,0,0.000885,0,0
0:3:41.083,1321.06,74.7599,0,0.000885,0,0
0:3:41.379,1322.88,74.8633,0,0.000885,0,0
0:3:41.678,1324.52,74.9529,0,0.000885,0,0
0:3:41.978,1326.05,75.0425,0,0.000885,0,0
0:3:42.272,1329.22,75.2218,0,0.000885,0,0
0:3:42.574,1330.69,75.3045,0,0.000885,0,0
0:3:42.870,1332.57,75.408,0,0.000885,0,0
0:3:43.169,1333.57,75.4631,0,0.000885,0,0
0:3:43.463,1335.8,75.5872,0,0.000885,0,0
0:3:43.769,1337.74,75.6975,0,0.000885,0,0
0:3:44.073,1339.32,75.7872,0,0.000885,0,0
0:3:44.376,1340.96,75.8837,0,0.000885,0,0
0:3:44.677,1342.84,75.9871,0,0.000885,0,0
0:3:44.981,1345.13,76.1181,0,0.000885,0,0
0:3:45.279,1346.95,76.2215,0,0.000885,0,0
0:3:45.579,1348.24,76.2974,0,0.000885,0,0
0:3:45.874,1349.71,76.3801,0,0.000885,0,0
0:3:46.175,1351.7,76.4904,0,0.000885,0,0
0:3:46.470,1354.93,76.6766,0,0.000885,0,0
0:3:46.766,1356.52,76.7662,0,0.000885,0,0
0:3:47.069,1358.4,76.8696,0,0.000885,0,0
0:3:47.361,1359.98,76.9593,0,0.000885,0,0
0:3:47.662,1361.21,77.0282,0,0.000885,0,0
0:3:47.958,1363.74,77.173,0,0.000885,0,0
0:3:48.258,1365.5,77.2695,0,0.000885,0,0
0:3:48.564,1367.09,77.3592,0,0.000885,0,0
0:3:48.870,1368.9,77.4626,0,0.000885,0,0
0:3:49.173,1371.78,77.6281,0,0.000885,0,0
0:3:49.476,1373.3,77.7108,0,0.000885,0,0
0:3:49.776,1374.42,77.7798,0,0.000885,0,0
0:3:50.080,1375.89,77.8625,0,0.000885,0,0
0:3:50.375,1377.89,77.9728,0,0.000885,0,0
0:3:50.677,1380.59,78.1245,0,0.000885,0,0
0:3:50.971,1382.28,78.221,0,0.000885,0,0
0:3:51.272,1383.99,78.3175,0,0.000885,0,0
0:3:51.570,1385.57,78.4072,0,0.000885,0,0
0:3:51.875,1387.86,78.5382,0,0.000885,0,0
0:3:52.176,1389.68,78.6416,0,0.000885,0,0
0:3:52.470,1391.44,78.7381,0,0.000885,0,0
0:3:52.771,1392.85,78.8209,0,0.000885,0,0
0:3:53.066,1394.38,78.9036,0,0.000885,0,0
0:3:53.365,1397.61,79.0898,0,0.000885,0,0
0:3:53.663,1399.01,79.1656,0,0.000885,0,0
0:3:53.967,1400.6,79.2552,0,0.000885,0,0
0:3:54.273,1402.48,79.3656,0,0.000885,0,0
0:3:54.574,1404.01,79.4483,0,0.000885,0,0
0:3:54.876,1407.29,79.6344,0,0.000885,0,0
0:3:55.178,1408.65,79.7103,0,0.000885,0,0
0:3:55.475,1410.17,79.7999,0,0.000885,0,0
0:3:55.775,1412.05,79.9033,0,0.000885,0,0
0:3:56.071,1414.16,80.0274,0,0.000885,0,0
0:3:56.378,1416.1,80.1378,0,0.000885,0,0
0:3:56.679,1417.63,80.2205,0,0.000885,0,0
0:3:56.973,1418.97,80.2963,0,0.000885,0,0
0:3:57.274,1420.38,80.3791,0,0.000885,0,0
0:3:57.572,1422.91,80.517,0,0.000885,0,0
0:3:57.871,1424.49,80.6066,0,0.000885,0,0
0:3:58.165,1426.31,80.71,0,0.000885,0,0
0:3:58.462,1428.43,80.8341,0,0.000885,0,0
0:3:58.763,1430.71,80.9651,0,0.000885,0,0
0:3:59.067,1432.36,81.0548,0,0.000885,0,0
0:3:59.373,1433.76,81.1375,0,0.000885,0,0
0:3:59.675,1435.53,81.234,0,0.000885,0,0
0:3:59.976,1437.76,81.3581,0,0.000885,0,0
0:4:0.280,1440.28,81.5029,0,0.000885,0,0
0:4:0.573,1441.69,81.5857,0,0.000885,0,0
0:4:0.875,1443.45,81.6822,0,0.000885,0,0
0:4:1.168,1445.33,81.7856,0,0.000885,0,0
0:4:1.468,1446.74,81.8683,0,0.000885,0,0
0:4:1.764,1449.26,82.0131,0,0.000885,0,0
0:4:2.063,1451.02,82.1097,0,0.000885,0,0
0:4:2.362,1452.49,82.1924,0,0.000885,0,0
0:4:2.656,1453.84,82.2682,0,0.000885,0,0
0:4:2.959,1456.89,82.4406,0,0.000885,0,0
0:4:3.255,1458.42,82.5302,0,0.000885,0,0
0:4:3.553,1460.18,82.6268,0,0.000885,0,0
0:4:3.851,1461.82,82.7233,0,0.000885,0,0
0:4:4.153,1463.35,82.806,0,0.000885,0,0
0:4:4.458,1465.93,82.9577,0,0.000885,0,0
0:4:4.761,1467.64,83.0542,0,0.000885,0,0
0:4:5.062,1469.04,83.1301,0,0.000885,0,0
0:4:5.365,1470.51,83.2128,0,0.000885,0,0
0:4:5.662,1473.56,83.3852,0,0.000885,0,0
0:4:5.963,1475.21,83.4817,0,0.000885,0,0
0:4:6.258,1476.68,83.5645,0,0.000885,0,0
0:4:6.558,1478.02,83.6403,0,0.000885,0,0
0:4:6.854,1479.73,83.7368,0,0.000885,0,0
0:4:7.154,1482.26,83.8816,0,0.000885,0,0
0:4:7.452,1484.26,83.9919,0,0.000885,0,0
0:4:7.746,1486.09,84.0954,0,0.000885,0,0
0:4:8.048,1487.74,84.1919,0,0.000885,0,0
0:4:8.344,1489.33,84.2815,0,0.000885,0,0
0:4:8.645,1492.15,84.4401,0,0.000885,0,0
0:4:8.951,1493.74,84.5297,0,0.000885,0,0
0:4:9.254,1495.39,84.6194,0,0.000885,0,0
0:4:9.555,1496.8,84.7021,0,0.000885,0,0
0:4:9.855,1498.75,84.8124,0,0.000885,0,0
0:4:10.157,1501.22,84.9503,0,0.000885,0,0
0:4:10.454,1502.58,85.0261,0,0.000885,0,0
0:4:10.772,1504.11,85.1158,0,0.000885,0,0
0:4:11.073,1505.99,85.2192,0,0.000885,0,0
0:4:11.366,1508.64,85.3709,0,0.000885,0,0
0:4:11.668,1509.58,85.426,0,0.000885,0,0
0:4:11.965,1511.64,85.5433,0,0.000885,0,0
0:4:12.273,1513.94,85.6743,0,0.000885,0,0
0:4:12.573,1516.3,85.8053,0,0.000885,0,0
0:4:12.866,1518.12,85.9087,0,0.000885,0,0
0:4:13.167,1520.06,86.019,0,0.000885,0,0
0:4:13.462,1521.48,86.0948,0,0.000885,0,0
0:4:13.764,1523.01,86.1845,0,0.000885,0,0
0:4:14.069,1525.36,86.3155,0,0.000885,0,0
0:4:14.373,1526.9,86.4051,0,0.000885,0,0
0:4:14.675,1528.43,86.4878,0,0.000885,0,0
0:4:14.975,1529.84,86.5706,0,0.000885,0,0
0:4:15.276,1532.37,86.7154,0,0.000885,0,0
0:4:15.576,1534.2,86.8188,0,0.000885,0,0
0:4:15.869,1535.9,86.9153,0,0.000885,0,0
0:4:16.172,1537.79,87.0187,0,0.000885,0,0
0:4:16.463,1539.61,87.1222,0,0.000885,0,0
0:4:16.764,1542.2,87.2738,0,0.000885,0,0
0:4:17.062,1544.03,87.3773,0,0.000885,0,0
0:4:17.358,1545.62,87.4669,0,0.000885,0,0
0:4:17.658,1547.09,87.5496,0,0.000885,0,0
0:4:17.954,1548.68,87.6393,0,0.000885,0,0
0:4:18.255,1551.33,87.784,0,0.000885,0,0
0:4:18.552,1553.1,87.8875,0,0.000885,0,0
0:4:18.853,1554.92,87.9909,0,0.000885,0,0
0:4:19.158,1556.04,88.0529,0,0.000885,0,0
0:4:19.460,1557.99,88.1633,0,0.000885,0,0
0:4:19.763,1560.28,88.2943,0,0.000885,0,0
0:4:20.064,1561.64,88.3701,0,0.000885,0,0
0:4:20.364,1563.35,88.4666,0,0.000885,0,0
0:4:20.662,1565.23,88.5769,0,0.000885,0,0
0:4:20.959,1567.41,88.6942,0,0.000885,0,0
0:4:21.260,1569.41,88.8114,0,0.000885,0,0
0:4:21.556,1571.59,88.9355,0,0.000885,0,0
0:4:21.854,1573.23,89.0251,0,0.000885,0,0
0:4:22.153,1574.65,89.1078,0,0.000885,0,0
0:4:22.449,1577.18,89.2526,0,0.000885,0,0
0:4:22.749,1578.89,89.3492,0,0.000885,0,0
0:4:23.046,1580.36,89.4319,0,0.000885,0,0
0:4:23.345,1582.25,89.5353,0,0.000885,0,0
0:4:23.643,1583.95,89.6318,0,0.000885,0,0
0:4:23.945,1586.36,89.7697,0,0.000885,0,0
0:4:24.249,1587.96,89.8594,0,0.000885,0,0
0:4:24.552,1589.9,89.9697,0,0.000885,0,0
0:4:24.853,1591.02,90.0317,0,0.000885,0,0
0:4:25.155,1594.08,90.2041,0,0.000885,0,0
0:4:25.462,1595.67,90.2937,0,0.000885,0,0
0:4:25.763,1597.49,90.3972,0,0.000885,0,0
0:4:26.065,1599.26,90.5006,0,0.000885,0,0
0:4:26.368,1601.8,90.6454,0,0.000885,0,0
0:4:26.677,1603.44,90.735,0,0.000885,0,0
0:4:26.971,1605.33,90.8453,0,0.000885,0,0
0:4:27.271,1606.86,90.9281,0,0.000885,0,0
0:4:27.566,1608.09,90.997,0,0.000885,0,0
0:4:27.868,1610.68,91.1487,0,0.000885,0,0
0:4:28.162,1612.57,91.2521,0,0.000885,0,0
0:4:28.461,1613.69,91.3142,0,0.000885,0,0
0:4:28.759,1615.39,91.4107,0,0.000885,0,0
0:4:29.062,1617.04,91.5072,0,0.000885,0,0
0:4:29.368,1619.58,91.652,0,0.000885,0,0
0:4:29.670,1621.34,91.7485,0,0.000885,0,0
0:4:29.975,1623.05,91.8451,0,0.000885,0,0
0:4:30.276,1624.7,91.9416,0,0.000885,0,0
0:4:30.575,1627.29,92.0864,0,0.000885,0,0
0:4:30.874,1629.35,92.2036,0,0.000885,0,0
0:4:31.168,1631.23,92.307,0,0.000885,0,0
0:4:31.468,1632.65,92.3897,0,0.000885,0,0
0:4:31.764,1634.06,92.4656,0,0.000885,0,0
0:4:32.063,1636.59,92.6104,0,0.000885,0,0
0:4:32.370,1638.18,92.7,0,0.000885,0,0
0:4:32.667,1639.65,92.7827,0,0.000885,0,0
0:4:32.968,1641.95,92.9137,0,0.000885,0,0
0:4:33.271,1644.25,93.0447,0,0.000885,0,0
0:4:33.571,1646.25,93.162,0,0.000885,0,0
0:4:33.868,1647.84,93.2516,0,0.000885,0,0
0:4:34.170,1649.25,93.3274,0,0.000885,0,0
0:4:34.478,1650.55,93.4033,0,0.000885,0,0
0:4:34.780,1653.44,93.5619,0,0.000885,0,0
0:4:35.083,1654.91,93.6515,0,0.000885,0,0
0:4:35.385,1656.85,93.7618,0,0.000885,0,0
0:4:35.681,1658.56,93.8583,0,0.000885,0,0
0:4:35.982,1660.79,93.9824,0,0.000885,0,0
0:4:36.278,1662.62,94.0859,0,0.000885,0,0
0:4:36.579,1664.15,94.1686,0,0.000885,0,0
0:4:36.871,1665.97,94.272,0,0.000885,0,0
0:4:37.182,1667.74,94.3754,0,0.000885,0,0
0:4:37.481,1670.39,94.5271,0,0.000885,0,0
0:4:37.777,1671.98,94.6168,0,0.000885,0,0
0:4:38.079,1673.04,94.6719,0,0.000885,0,0
0:4:38.370,1675.22,94.796,0,0.000885,0,0
0:4:38.675,1676.87,94.8925,0,0.000885,0,0
0:4:38.978,1679.23,95.0235,0,0.000885,0,0
0:4:39.282,1681.11,95.1339,0,0.000885,0,0
0:4:39.585,1682.7,95.2235,0,0.000885,0,0
0:4:39.886,1684.7,95.3338,0,0.000885,0,0
0:4:40.189,1687.35,95.4855,0,0.000885,0,0
0:4:40.484,1689.23,95.5889,0,0.000885,0,0
0:4:40.782,1690.65,95.6717,0,0.000885,0,0
0:4:41.080,1692.06,95.7544,0,0.000885,0,0
0:4:41.378,1693.53,95.8371,0,0.000885,0,0
0:4:41.678,1695.48,95.9474,0,0.000885,0,0
0:4:41.970,1697.18,96.044,0,0.000885,0,0
0:4:42.272,1699.13,96.1543,0,0.000885,0,0
0:4:42.568,1700.72,96.2439,0,0.000885,0,0
0:4:42.867,1702.78,96.3542,0,0.000885,0,0
0:4:43.167,1705.66,96.5197,0,0.000885,0,0
0:4:43.471,1707.2,96.6093,0,0.000885,0,0
0:4:43.772,1708.61,96.6852,0,0.000885,0,0
0:4:44.079,1709.9,96.761,0,0.000885,0,0
0:4:44.381,1712.14,96.8851,0,0.000885,0,0
0:4:44.684,1713.91,96.9886,0,0.000885,0,0
0:4:44.985,1715.97,97.1058,0,0.000885,0,0
0:4:45.287,1717.91,97.2161,0,0.000885,0,0
0:4:45.582,1720.5,97.3609,0,0.000885,0,0
0:4:45.883,1722.21,97.4574,0,0.000885,0,0
0:4:46.179,1723.74,97.547,0,0.000885,0,0
0:4:46.479,1725.45,97.6436,0,0.000885,0,0
0:4:46.776,1727.04,97.7332,0,0.000885,0,0
0:4:47.082,1729.81,97.8849,0,0.000885,0,0
0:4:47.383,1731.28,97.9676,0,0.000885,0,0
0:4:47.678,1732.69,98.0503,0,0.000885,0,0
0:4:47.977,1734.69,98.1607,0,0.000885,0,0
0:4:48.273,1735.99,98.2365,0,0.000885,0,0
0:4:48.570,1738.7,98.3882,0,0.000885,0,0
0:4:48.871,1740.34,98.4847,0,0.000885,0,0
0:4:49.176,1742.11,98.5812,0,0.000885,0,0
0:4:49.480,1743.82,98.6778,0,0.000885,0,0
0:4:49.782,1746.29,98.8226,0,0.000885,0,0
0:4:50.085,1748.24,98.9329,0,0.000885,0,0
0:4:50.386,1750.06,99.0363,0,0.000885,0,0
0:4:50.682,1751.89,99.1397,0,0.000885,0,0
0:4:50.984,1753.42,99.2225,0,0.000885,0,0
0:4:51.277,1755.77,99.3535,0,0.000885,0,0
0:4:51.577,1757.42,99.45,0,0.000885,0,0
0:4:51.872,1758.6,99.5189,0,0.000885,0,0
0:4:52.169,1760.54,99.6292,0,0.000885,0,0
0:4:52.469,1762.07,99.712,0,0.000885,0,0
0:4:52.764,1764.66,99.8568,0,0.000885,0,0
0:4:53.066,1766.08,99.9395,0,0.000885,0,0
0:4:53.359,1767.55,100.022,0,0.000885,0,0
0:4:53.662,1769.67,100.139,0,0.000885,0,0
0:4:53.967,1771.91,100.27,0,0.000885,0,0
0:4:54.271,1773.67,100.367,0,0.000885,0,0
0:4:54.571,1775.38,100.464,0,0.000885,0,0
0:4:54.873,1777.74,100.601,0,0.000885,0,0
0:4:55.173,1779.27,100.684,0,0.000885,0,0
0:4:55.470,1781.45,100.808,0,0.000885,0,0
0:4:55.766,1783.15,100.905,0,0.000885,0,0
0:4:56.065,1784.51,100.981,0,0.000885,0,0
0:4:56.361,1786.51,101.098,0,0.000885,0,0
0:4:56.661,1787.63,101.16,0,0.000885,0,0
0:4:56.956,1790.22,101.305,0,0.000885,0,0
0:4:57.256,1792.4,101.429,0,0.000885,0,0
0:4:57.552,1794.05,101.525,0,0.000885,0,0
0:4:57.849,1795.81,101.622,0,0.000885,0,0
0:4:58.150,1797.29,101.705,0,0.000885,0,0
0:4:58.445,1799.76,101.842,0,0.000885,0,0
0:4:58.747,1801.64,101.953,0,0.000885,0,0
0:4:59.052,1803.23,102.042,0,0.000885,0,0
0:4:59.353,1805.29,102.16,0,0.000885,0,0
0:4:59.655,1807.35,102.277,0,0.000885,0,0
0:4:59.957,1809.12,102.373,0,0.000885,0,0
0:5:0.259,1811,102.484,0,0.000885,0,0
0:5:0.555,1812.53,102.566,0,0.000885,0,0
0:5:0.862,1814.13,102.656,0,0.000885,0,0
0:5:1.171,1816.54,102.794,0,0.000885,0,0
0:5:1.467,1818.48,102.904,0,0.000885,0,0
0:5:1.768,1820.07,102.994,0,0.000885,0,0
0:5:2.061,1821.84,103.097,0,0.000885,0,0
0:5:2.362,1823.72,103.201,0,0.000885,0,0
0:5:2.660,1825.49,103.304,0,0.000885,0,0
0:5:2.958,1827.37,103.408,0,0.000885,0,0
0:5:3.257,1829.08,103.504,0,0.000885,0,0
0:5:3.561,1830.67,103.594,0,0.000885,0,0
0:5:3.864,1833.5,103.752,0,0.000885,0,0
0:5:4.166,1834.97,103.835,0,0.000885,0,0
0:5:4.471,1836.44,103.925,0,0.000885,0,0
0:5:4.771,1838.45,104.035,0,0.000885,0,0
0:5:5.073,1840.74,104.166,0,0.000885,0,0
0:5:5.374,1842.33,104.256,0,0.000885,0,0
0:5:5.669,1843.92,104.345,0,0.000885,0,0
0:5:5.970,1845.75,104.449,0,0.000885,0,0
0:5:6.265,1847.28,104.531,0,0.000885,0,0
0:5:6.563,1850.28,104.704,0,0.000885,0,0
0:5:6.864,1851.58,104.78,0,0.000885,0,0
0:5:7.178,1853.28,104.876,0,0.000885,0,0
0:5:7.479,1855.05,104.973,0,0.000885,0,0
0:5:7.785,1857.7,105.124,0,0.000885,0,0
0:5:8.082,1859.35,105.221,0,0.000885,0,0
0:5:8.381,1860.88,105.304,0,0.000885,0,0
0:5:8.675,1862.53,105.4,0,0.000885,0,0
0:5:8.979,1863.88,105.476,0,0.000885,0,0
0:5:9.283,1867.06,105.655,0,0.000885,0,0
0:5:9.586,1868.48,105.731,0,0.000885,0,0
0:5:9.888,1869.95,105.821,0,0.000885,0,0
0:5:10.190,1872.07,105.938,0,0.000885,0,0
0:5:10.492,1874.89,106.097,0,0.000885,0,0
0:5:10.785,1876.6,106.193,0,0.000885,0,0
0:5:11.087,1878.07,106.276,0,0.000885,0,0
0:5:11.381,1879.78,106.372,0,0.000885,0,0
0:5:11.680,1881.37,106.462,0,0.000885,0,0
0:5:11.975,1883.37,106.579,0,0.000885,0,0
0:5:12.274,1884.79,106.655,0,0.000885,0,0
0:5:12.573,1886.61,106.758,0,0.000885,0,0
0:5:12.867,1888.26,106.855,0,0.000885,0,0
0:5:13.169,1890.03,106.951,0,0.000885,0,0
0:5:13.475,1892.97,107.117,0,0.000885,0,0
0:5:13.779,1894.8,107.22,0,0.000885,0,0
0:5:14.085,1896.03,107.296,0,0.000885,0,0
0:5:14.385,1897.86,107.4,0,0.000885,0,0
0:5:14.688,1900.45,107.544,0,0.000885,0,0
0:5:14.990,1901.74,107.613,0,0.000885,0,0
0:5:15.289,1903.92,107.737,0,0.000885,0,0
0:5:15.587,1905.51,107.827,0,0.000885,0,0
0:5:15.881,1906.93,107.91,0,0.000885,0,0
0:5:16.184,1909.16,108.034,0,0.000885,0,0
0:5:16.475,1911.11,108.144,0,0.000885,0,0
0:5:16.778,1912.75,108.241,0,0.000885,0,0
0:5:17.071,1914.7,108.351,0,0.000885,0,0
0:5:17.371,1919.06,108.599,0,0.000885,0,0
0:5:17.672,1920.88,108.703,0,0.000885,0,0
0:5:17.965,1921.82,108.751,0,0.000885,0,0
0:5:18.264,1922.65,108.799,0,0.000885,0,0
0:5:18.559,1923.71,108.861,0,0.000885,0,0
0:5:18.861,1926.12,108.999,0,0.000885,0,0
0:5:19.165,1927.71,109.089,0,0.000885,0,0
0:5:19.469,1929.12,109.165,0,0.000885,0,0
0:5:19.771,1930.71,109.254,0,0.000885,0,0
0:5:20.072,1932.19,109.337,0,0.000885,0,0
0:5:20.372,1935.07,109.503,0,0.000885,0,0
0:5:20.670,1936.48,109.585,0,0.000885,0,0
0:5:20.967,1938.43,109.696,0,0.000885,0,0
0:5:21.265,1940.14,109.792,0,0.000885,0,0
0:5:21.562,1942.25,109.909,0,0.000885,0,0
0:5:21.864,1945.02,110.068,0,0.000885,0,0
0:5:22.176,1946.61,110.158,0,0.000885,0,0
0:5:22.475,1947.97,110.233,0,0.000885,0,0
0:5:22.773,1949.62,110.323,0,0.000885,0,0
0:5:23.071,1952.32,110.482,0,0.000885,0,0
0:5:23.370,1953.8,110.564,0,0.000885,0,0
0:5:23.666,1955.56,110.661,0,0.000885,0,0
0:5:23.969,1957.62,110.778,0,0.000885,0,0
0:5:24.274,1959.16,110.868,0,0.000885,0,0
0:5:24.576,1961.45,110.999,0,0.000885,0,0
0:5:24.880,1963.04,111.088,0,0.000885,0,0
0:5:25.181,1964.63,111.178,0,0.000885,0,0
0:5:25.484,1966.34,111.274,0,0.000885,0,0
0:5:25.776,1968.81,111.412,0,0.000885,0,0
0:5:26.076,1970.28,111.495,0,0.000885,0,0
0:5:26.374,1972.05,111.599,0,0.000885,0,0
0:5:26.669,1973.7,111.688,0,0.000885,0,0
0:5:26.971,1975.46,111.792,0,0.000885,0,0
0:5:27.266,1978.17,111.943,0,0.000885,0,0
0:5:27.566,1980,112.047,0,0.000885,0,0
0:5:27.862,1981.18,112.109,0,0.000885,0,0
0:5:28.170,1983.24,112.226,0,0.000885,0,0
0:5:28.481,1985.71,112.371,0,0.000885,0,0
0:5:28.783,1987.12,112.447,0,0.000885,0,0
0:5:29.088,1988.83,112.543,0,0.000885,0,0
0:5:29.389,1990.36,112.633,0,0.000885,0,0
0:5:29.692,1992.9,112.778,0,0.000885,0,0
0:5:29.994,1994.43,112.86,0,0.000885,0,0
0:5:30.290,1996.31,112.971,0,0.000885,0,0
0:5:30.591,1997.78,113.053,0,0.000885,0,0
0:5:30.885,1999.49,113.15,0,0.000885,0,0
0:5:31.187,2002.26,113.302,0,0.000885,0,0
0:5:31.484,2003.85,113.391,0,0.000885,0,0
0:5:31.780,2006.09,113.522,0,0.000885,0,0
0:5:32.076,2007.38,113.591,0,0.000885,0,0
0:5:32.373,2008.73,113.674,0,0.000885,0,0
0:5:32.674,2011.62,113.832,0,0.000885,0,0
0:5:32.969,2013.27,113.929,0,0.000885,0,0
0:5:33.269,2015.04,114.025,0,0.000885,0,0
0:5:33.566,2016.86,114.129,0,0.000885,0,0
0:5:33.869,2018.15,114.205,0,0.000885,0,0
0:5:34.174,2020.8,114.356,0,0.000885,0,0
0:5:34.477,2022.46,114.446,0,0.000885,0,0
0:5:34.778,2024.34,114.556,0,0.000885,0,0
0:5:35.083,2026.4,114.674,0,0.000885,0,0
0:5:35.380,2028.34,114.784,0,0.000885,0,0
0:5:35.690,2030.17,114.887,0,0.000885,0,0
0:5:35.983,2032.52,115.018,0,0.000885,0,0
0:5:36.285,2033.76,115.087,0,0.000885,0,0
0:5:36.578,2034.94,115.156,0,0.000885,0,0
0:5:36.880,2037.53,115.301,0,0.000885,0,0
0:5:37.174,2039.23,115.398,0,0.000885,0,0
0:5:37.471,2041.12,115.501,0,0.000885,0,0
0:5:37.771,2042.53,115.584,0,0.000885,0,0
0:5:38.065,2044.24,115.68,0,0.000885,0,0
0:5:38.367,2046.77,115.825,0,0.000885,0,0
0:5:38.673,2048.25,115.908,0,0.000885,0,0
0:5:38.977,2049.83,115.997,0,0.000885,0,0
0:5:39.282,2051.84,116.108,0,0.000885,0,0
0:5:39.586,2054.19,116.246,0,0.000885,0,0
0:5:39.885,2055.72,116.328,0,0.000885,0,0
0:5:40.187,2057.25,116.418,0,0.000885,0,0
0:5:40.485,2058.9,116.508,0,0.000885,0,0
0:5:40.782,2061.61,116.666,0,0.000885,0,0
0:5:41.078,2063.38,116.763,0,0.000885,0,0
0:5:41.381,2065.14,116.866,0,0.000885,0,0
0:5:41.684,2067.09,116.976,0,0.000885,0,0
0:5:41.986,2068.8,117.073,0,0.000885,0,0
0:5:42.281,2071.15,117.204,0,0.000885,0,0
0:5:42.576,2072.86,117.301,0,0.000885,0,0
0:5:42.875,2074.57,117.397,0,0.000885,0,0
0:5:43.183,2076.15,117.487,0,0.000885,0,0
0:5:43.485,2078.51,117.618,0,0.000885,0,0
0:5:43.788,2080.28,117.721,0,0.000885,0,0
0:5:44.090,2081.87,117.811,0,0.000885,0,0
0:5:44.394,2083.75,117.914,0,0.000885,0,0
0:5:44.698,2084.93,117.983,0,0.000885,0,0
0:5:45.001,2087.81,118.149,0,0.000885,0,0
0:5:45.302,2089.41,118.238,0,0.000885,0,0
0:5:45.603,2091.11,118.335,0,0.000885,0,0
0:5:45.899,2093,118.438,0,0.000885,0,0
0:5:46.199,2095.41,118.576,0,0.000885,0,0
0:5:46.498,2097.06,118.673,0,0.000885,0,0
0:5:46.792,2098.47,118.748,0,0.000885,0,0
0:5:47.094,2099.89,118.831,0,0.000885,0,0
0:5:47.389,2101.94,118.948,0,0.000885,0,0
0:5:47.689,2103.65,119.045,0,0.000885,0,0
0:5:47.985,2105.71,119.162,0,0.000885,0,0
0:5:48.283,2107.72,119.272,0,0.000885,0,0
0:5:48.582,2109.13,119.355,0,0.000885,0,0
0:5:48.887,2110.89,119.452,0,0.000885,0,0
0:5:49.191,2113.55,119.603,0,0.000885,0,0
0:5:49.493,2115.25,119.7,0,0.000885,0,0
0:5:49.793,2117.02,119.796,0,0.000885,0,0
0:5:50.095,2118.55,119.886,0,0.000885,0,0
0:5:50.390,2120.97,120.024,0,0.000885,0,0
0:5:50.692,2122.67,120.12,0,0.000885,0,0
0:5:50.986,2124.38,120.217,0,0.000885,0,0
0:5:51.286,2125.79,120.293,0,0.000885,0,0
0:5:51.585,2127.68,120.403,0,0.000885,0,0
0:5:51.879,2130.27,120.548,0,0.000885,0,0
0:5:52.178,2131.62,120.624,0,0.000885,0,0
0:5:52.474,2133.68,120.741,0,0.000885,0,0
0:5:52.775,2135.28,120.831,0,0.000885,0,0
0:5:53.079,2137.04,120.934,0,0.000885,0,0
0:5:53.377,2139.57,121.072,0,0.000885,0,0
0:5:53.678,2140.87,121.148,0,0.000885,0,0
0:5:53.980,2142.34,121.231,0,0.000885,0,0
0:5:54.286,2144.23,121.341,0,0.000885,0,0
0:5:54.589,2146.81,121.486,0,0.000885,0,0
0:5:54.891,2148.23,121.561,0,0.000885,0,0
0:5:55.193,2150.23,121.679,0,0.000885,0,0
0:5:55.489,2152.12,121.782,0,0.000885,0,0
0:5:55.788,2153.7,121.872,0,0.000885,0,0
0:5:56.085,2156.41,122.03,0,0.000885,0,0
0:5:56.385,2158.3,122.134,0,0.000885,0,0
0:5:56.689,2159.77,122.216,0,0.000885,0,0
0:5:56.988,2160.95,122.285,0,0.000885,0,0
0:5:57.287,2163.83,122.451,0,0.000885,0,0
0:5:57.580,2165.6,122.547,0,0.000885,0,0
0:5:57.883,2167.42,122.651,0,0.000885,0,0
0:5:58.176,2169.02,122.74,0,0.000885,0,0
0:5:58.476,2170.37,122.816,0,0.000885,0,0
0:5:58.775,2173.31,122.982,0,0.000885,0,0
0:5:59.075,2175.55,123.113,0,0.000885,0,0
0:5:59.380,2176.79,123.182,0,0.000885,0,0
0:5:59.684,2178.08,123.258,0,0.000885,0,0
0:5:59.988,2179.08,123.313,0,0.000885,0,0
0:6:0.289,2181.79,123.464,0,0.000885,0,0
0:6:0.588,2183.79,123.575,0,0.000885,0,0
0:6:0.884,2185.68,123.685,0,0.000885,0,0
0:6:1.190,2187.15,123.768,0,0.000885,0,0
0:6:1.491,2187.68,123.795,0,0.000885,0,0
0:6:1.786,2054.49,116.259,0,0.000885,0,0
0:6:1.874,2054.49,116.259,0,0.000885,0,0