File: DataFile2021-06-08_075306.csv
Test ID:,Date Tested:,Time:,Test Type:,Diameter Avg. (mm):,Cyl. Corr. Factor:,Height (mm):,Age (days):,Weight (kN):,Break Type:,Ramp Rate (MPa/s):,Load at Break (kN):,Stress at Break (MPa):
12,6/8/2021,07:53,Cylinder,100,1,200,0,3.6,3,0.25,544.98,69.39
Sample Time,Load (kN),Stress (MPa),Long. Strain,Trans. Strain,Chan1 Deflection (mm),Chan2 Deflection (mm)
0:0:12.960,5.39569,0.689476,0,0.000885,0,0
0:0:13.259,8.79858,1.11695,0,0.000885,0,0
0:0:13.557,10.6757,1.35827,0,0.000885,0,0
0:0:13.853,10.6179,1.35137,0,0.000885,0,0
0:0:14.154,10.1464,1.28932,0,0.000885,0,0
0:0:14.449,9.96846,1.26864,0,0.000885,0,0
0:0:14.748,9.85281,1.25485,0,0.000885,0,0
0:0:15.044,9.14999,1.16521,0,0.000885,0,0
0:0:15.342,9.03434,1.15142,0,0.000885,0,0
0:0:15.640,9.5014,1.20658,0,0.000885,0,0
0:0:15.935,9.44357,1.19969,0,0.000885,0,0
0:0:16.235,10.0886,1.28242,0,0.000885,0,0
0:0:16.532,10.7336,1.36516,0,0.000885,0,0
0:0:16.830,12.0814,1.53753,0,0.000885,0,0
0:0:17.128,12.7264,1.62027,0,0.000885,0,0
0:0:17.425,13.5493,1.72369,0,0.000885,0,0
0:0:17.726,13.3714,1.70301,0,0.000885,0,0
0:0:18.021,14.7814,1.88227,0,0.000885,0,0
0:0:18.324,15.3063,1.95122,0,0.000885,0,0
0:0:18.628,15.4264,1.96501,0,0.000885,0,0
0:0:18.932,16.365,2.08222,0,0.000885,0,0
0:0:19.234,17.7128,2.25459,0,0.000885,0,0
0:0:19.537,18.0642,2.30285,0,0.000885,0,0
0:0:19.839,18.5357,2.35801,0,0.000885,0,0
0:0:20.135,19.0606,2.42695,0,0.000885,0,0
0:0:20.432,19.59,2.4959,0,0.000885,0,0
0:0:20.731,20.3506,2.59243,0,0.000885,0,0
0:0:21.028,20.8221,2.64759,0,0.000885,0,0
0:0:21.331,21.4093,2.72343,0,0.000885,0,0
0:0:21.626,21.6406,2.7579,0,0.000885,0,0
0:0:21.928,22.5213,2.86822,0,0.000885,0,0
0:0:22.226,23.4021,2.97854,0,0.000885,0,0
0:0:22.522,24.0471,3.06127,0,0.000885,0,0
0:0:22.823,24.6343,3.13711,0,0.000885,0,0
0:0:23.118,25.1591,3.20606,0,0.000885,0,0
0:0:23.421,26.0977,3.32327,0,0.000885,0,0
0:0:23.726,26.9206,3.42669,0,0.000885,0,0
0:0:24.030,27.272,3.47496,0,0.000885,0,0
0:0:24.332,27.7436,3.53012,0,0.000885,0,0
0:0:24.635,28.2106,3.59217,0,0.000885,0,0
0:0:24.938,28.74,3.66112,0,0.000885,0,0
0:0:25.234,29.3271,3.73696,0,0.000885,0,0
0:0:25.535,29.7942,3.79212,0,0.000885,0,0
0:0:25.832,30.0878,3.83349,0,0.000885,0,0
0:0:26.131,30.9107,3.93691,0,0.000885,0,0
0:0:26.432,31.4934,4.01275,0,0.000885,0,0
0:0:26.726,31.7292,4.04033,0,0.000885,0,0
0:0:27.029,32.6099,4.15064,0,0.000885,0,0
0:0:27.326,33.4907,4.26096,0,0.000885,0,0
0:0:27.626,34.1935,4.35059,0,0.000885,0,0
0:0:27.924,34.7228,4.41954,0,0.000885,0,0
0:0:28.221,34.7806,4.42643,0,0.000885,0,0
0:0:28.522,35.0742,4.4678,0,0.000885,0,0
0:0:28.826,35.955,4.57812,0,0.000885,0,0
0:0:29.131,36.8891,4.69533,0,0.000885,0,0
0:0:29.433,37.5341,4.77807,0,0.000885,0,0
0:0:29.735,38.2992,4.87459,0,0.000885,0,0
0:0:30.037,38.357,4.88149,0,0.000885,0,0
0:0:30.333,39.4112,5.01938,0,0.000885,0,0
0:0:30.635,39.647,5.04696,0,0.000885,0,0
0:0:30.932,40.2342,5.1228,0,0.000885,0,0
0:0:31.230,41.0571,5.22623,0,0.000885,0,0
0:0:31.531,41.4663,5.28138,0,0.000885,0,0
0:0:31.828,42.5206,5.41238,0,0.000885,0,0
0:0:32.130,42.872,5.46065,0,0.000885,0,0
0:0:32.425,43.4591,5.53649,0,0.000885,0,0
0:0:32.725,43.6949,5.56407,0,0.000885,0,0
0:0:33.023,44.8069,5.70196,0,0.000885,0,0
0:0:33.325,45.1005,5.74333,0,0.000885,0,0
0:0:33.632,45.8656,5.83986,0,0.000885,0,0
0:0:33.934,46.3327,5.90191,0,0.000885,0,0
0:0:34.237,46.6841,5.94328,0,0.000885,0,0
0:0:34.540,47.6227,6.06049,0,0.000885,0,0
0:0:34.839,47.8006,6.08807,0,0.000885,0,0
0:0:35.139,48.6813,6.19839,0,0.000885,0,0
0:0:35.436,49.0906,6.25354,0,0.000885,0,0
0:0:35.737,49.7356,6.32939,0,0.000885,0,0
0:0:36.033,50.6163,6.4466,0,0.000885,0,0
0:0:36.332,50.8521,6.47418,0,0.000885,0,0
0:0:36.630,51.377,6.54312,0,0.000885,0,0
0:0:36.929,52.1999,6.64655,0,0.000885,0,0
0:0:37.229,53.1385,6.76376,0,0.000885,0,0
0:0:37.524,53.432,6.80513,0,0.000885,0,0
0:0:37.826,54.077,6.88786,0,0.000885,0,0
0:0:38.122,55.0734,7.01197,0,0.000885,0,0
0:0:38.424,55.5405,7.07402,0,0.000885,0,0
0:0:38.730,55.6028,7.08092,0,0.000885,0,0
0:0:39.033,56.1855,7.15676,0,0.000885,0,0
0:0:39.335,56.7148,7.21881,0,0.000885,0,0
0:0:39.637,57.302,7.29465,0,0.000885,0,0
0:0:39.939,58.3562,7.43255,0,0.000885,0,0
0:0:40.235,58.8856,7.4946,0,0.000885,0,0
0:0:40.532,59.4149,7.56355,0,0.000885,0,0
0:0:40.832,59.3526,7.55665,0,0.000885,0,0
0:0:41.129,60.2334,7.66697,0,0.000885,0,0
0:0:41.431,61.5234,7.83244,0,0.000885,0,0
0:0:41.728,61.937,7.8876,0,0.000885,0,0
0:0:42.028,62.1683,7.91518,0,0.000885,0,0
0:0:42.327,62.3463,7.93587,0,0.000885,0,0
0:0:42.623,63.227,8.05308,0,0.000885,0,0
0:0:42.925,64.3969,8.19787,0,0.000885,0,0
0:0:43.220,64.3969,8.19787,0,0.000885,0,0
0:0:43.524,64.9262,8.26681,0,0.000885,0,0
0:0:43.829,65.6291,8.35645,0,0.000885,0,0
0:0:44.133,66.1006,8.4185,0,0.000885,0,0
0:0:44.436,66.452,8.45987,0,0.000885,0,0
0:0:44.739,67.2126,8.55639,0,0.000885,0,0
0:0:45.041,68.387,8.70808,0,0.000885,0,0
0:0:45.337,68.7962,8.75634,0,0.000885,0,0
0:0:45.635,69.2677,8.81839,0,0.000885,0,0
0:0:45.935,70.0862,8.92182,0,0.000885,0,0
0:0:46.232,70.5577,8.98387,0,0.000885,0,0
0:0:46.534,71.1449,9.05971,0,0.000885,0,0
0:0:46.828,71.7276,9.13555,0,0.000885,0,0
0:0:47.130,72.0212,9.17003,0,0.000885,0,0
0:0:47.427,72.7863,9.26655,0,0.000885,0,0
0:0:47.726,73.1955,9.32171,0,0.000885,0,0
0:0:48.025,73.7827,9.39755,0,0.000885,0,0
0:0:48.329,74.3698,9.4665,0,0.000885,0,0
0:0:48.635,74.8947,9.53545,0,0.000885,0,0
0:0:48.937,75.9534,9.67334,0,0.000885,0,0
0:0:49.240,76.4783,9.7354,0,0.000885,0,0
0:0:49.543,77.0654,9.81124,0,0.000885,0,0
0:0:49.840,78.0618,9.94224,0,0.000885,0,0
0:0:50.141,78.1819,9.95603,0,0.000885,0,0
0:0:50.437,78.649,10.0112,0,0.000885,0,0
0:0:50.738,79.1205,10.0732,0,0.000885,0,0
0:0:51.036,79.7655,10.156,0,0.000885,0,0
0:0:51.335,80.5262,10.2525,0,0.000885,0,0
0:0:51.634,80.9398,10.3077,0,0.000885,0,0
0:0:51.929,81.4647,10.3697,0,0.000885,0,0
0:0:52.231,81.7583,10.4111,0,0.000885,0,0
0:0:52.527,82.8125,10.5421,0,0.000885,0,0
0:0:52.828,83.2262,10.5972,0,0.000885,0,0
0:0:53.126,83.5198,10.6317,0,0.000885,0,0
0:0:53.428,84.3961,10.7489,0,0.000885,0,0
0:0:53.735,85.8062,10.9282,0,0.000885,0,0
0:0:54.038,86.2733,10.9833,0,0.000885,0,0
0:0:54.340,86.7448,11.0454,0,0.000885,0,0
0:0:54.643,86.6247,11.0316,0,0.000885,0,0
0:0:54.939,86.3355,10.9902,0,0.000885,0,0
0:0:55.242,88.0348,11.2109,0,0.000885,0,0
0:0:55.535,88.6797,11.2936,0,0.000885,0,0
0:0:55.839,89.2091,11.3557,0,0.000885,0,0
0:0:56.136,89.9697,11.4522,0,0.000885,0,0
0:0:56.434,90.8505,11.5694,0,0.000885,0,0
0:0:56.736,91.5533,11.659,0,0.000885,0,0
0:0:57.030,91.7891,11.6866,0,0.000885,0,0
0:0:57.333,92.0826,11.7211,0,0.000885,0,0
0:0:57.627,92.6075,11.79,0,0.000885,0,0
0:0:57.929,93.4304,11.8935,0,0.000885,0,0
0:0:58.226,94.0176,11.9693,0,0.000885,0,0
0:0:58.530,94.5425,12.0382,0,0.000885,0,0
0:0:58.834,95.014,12.1003,0,0.000885,0,0
0:0:59.138,95.5434,12.1624,0,0.000885,0,0
0:0:59.441,96.6554,12.3071,0,0.000885,0,0
0:0:59.744,97.0646,12.3623,0,0.000885,0,0
0:1:0.043,97.1269,12.3692,0,0.000885,0,0
0:1:0.344,97.7719,12.4519,0,0.000885,0,0
0:1:0.638,98.5326,12.5485,0,0.000885,0,0
0:1:0.941,99.4133,12.6588,0,0.000885,0,0
0:1:1.237,99.8804,12.7139,0,0.000885,0,0
0:1:1.538,100.294,12.7691,0,0.000885,0,0
0:1:1.835,101.464,12.9208,0,0.000885,0,0
0:1:2.133,101.055,12.8656,0,0.000885,0,0
0:1:2.435,102.58,13.0587,0,0.000885,0,0
0:1:2.728,102.816,13.0931,0,0.000885,0,0
0:1:3.030,103.577,13.1897,0,0.000885,0,0
0:1:3.328,104.222,13.2724,0,0.000885,0,0
0:1:3.632,104.809,13.3414,0,0.000885,0,0
0:1:3.937,105.16,13.3896,0,0.000885,0,0
0:1:4.241,105.512,13.431,0,0.000885,0,0
0:1:4.542,105.805,13.4724,0,0.000885,0,0
0:1:4.847,107.153,13.6447,0,0.000885,0,0
0:1:5.145,107.389,13.6723,0,0.000885,0,0
0:1:5.445,107.976,13.7481,0,0.000885,0,0
0:1:5.742,109.03,13.8791,0,0.000885,0,0
0:1:6.043,109.382,13.9274,0,0.000885,0,0
0:1:6.338,110.027,14.0101,0,0.000885,0,0
0:1:6.640,110.556,14.0791,0,0.000885,0,0
0:1:6.938,110.792,14.1067,0,0.000885,0,0
0:1:7.235,111.553,14.2032,0,0.000885,0,0
0:1:7.537,112.375,14.3066,0,0.000885,0,0
0:1:7.833,112.727,14.3549,0,0.000885,0,0
0:1:8.133,113.665,14.4721,0,0.000885,0,0
0:1:8.431,114.017,14.5204,0,0.000885,0,0
0:1:8.733,114.31,14.5548,0,0.000885,0,0
0:1:9.039,115.129,14.6583,0,0.000885,0,0
0:1:9.342,115.778,14.741,0,0.000885,0,0
0:1:9.646,116.423,14.8237,0,0.000885,0,0
0:1:9.946,116.948,14.8927,0,0.000885,0,0
0:1:10.248,117.535,14.9685,0,0.000885,0,0
0:1:10.549,117.945,15.0168,0,0.000885,0,0
0:1:10.845,118.652,15.1064,0,0.000885,0,0
0:1:11.148,119.003,15.1547,0,0.000885,0,0
0:1:11.444,119.706,15.2443,0,0.000885,0,0
0:1:11.744,121.29,15.4443,0,0.000885,0,0
0:1:12.044,121.992,15.5339,0,0.000885,0,0
0:1:12.338,121.819,15.5132,0,0.000885,0,0
0:1:12.640,122.58,15.6097,0,0.000885,0,0
0:1:12.936,122.637,15.6166,0,0.000885,0,0
0:1:13.240,123.46,15.72,0,0.000885,0,0
0:1:13.546,123.634,15.7407,0,0.000885,0,0
0:1:13.848,124.75,15.8855,0,0.000885,0,0
0:1:14.151,124.986,15.9131,0,0.000885,0,0
0:1:14.454,125.511,15.982,0,0.000885,0,0
0:1:14.753,126.45,16.0993,0,0.000885,0,0
0:1:15.054,127.215,16.1958,0,0.000885,0,0
0:1:15.350,127.624,16.2509,0,0.000885,0,0
0:1:15.652,128.269,16.3337,0,0.000885,0,0
0:1:15.948,128.914,16.4164,0,0.000885,0,0
0:1:16.250,129.03,16.4302,0,0.000885,0,0
0:1:16.547,129.795,16.5267,0,0.000885,0,0
0:1:16.845,130.613,16.6302,0,0.000885,0,0
0:1:17.146,131.142,16.6991,0,0.000885,0,0
0:1:17.443,131.494,16.7405,0,0.000885,0,0
0:1:17.743,132.139,16.8232,0,0.000885,0,0
0:1:18.042,132.904,16.9197,0,0.000885,0,0
0:1:18.344,132.904,16.9197,0,0.000885,0,0
0:1:18.650,134.31,17.099,0,0.000885,0,0
0:1:18.953,134.719,17.1542,0,0.000885,0,0
0:1:19.254,135.426,17.2438,0,0.000885,0,0
0:1:19.557,135.6,17.2645,0,0.000885,0,0
0:1:19.858,136.36,17.361,0,0.000885,0,0
0:1:20.156,136.716,17.4093,0,0.000885,0,0
0:1:20.454,137.535,17.5127,0,0.000885,0,0
0:1:20.754,138.237,17.6023,0,0.000885,0,0
0:1:21.050,139.06,17.7057,0,0.000885,0,0
0:1:21.351,139.296,17.7333,0,0.000885,0,0
0:1:21.649,139.412,17.7471,0,0.000885,0,0
0:1:21.946,140.702,17.9126,0,0.000885,0,0
0:1:22.246,141.111,17.9677,0,0.000885,0,0
0:1:22.542,141.582,18.0298,0,0.000885,0,0
0:1:22.845,141.992,18.0781,0,0.000885,0,0
0:1:23.141,142.757,18.1746,0,0.000885,0,0
0:1:23.443,143.344,18.2504,0,0.000885,0,0
0:1:23.749,143.989,18.3332,0,0.000885,0,0
0:1:24.052,145.395,18.5124,0,0.000885,0,0
0:1:24.355,145.573,18.5331,0,0.000885,0,0
0:1:24.657,145.924,18.5814,0,0.000885,0,0
0:1:24.959,146.155,18.6089,0,0.000885,0,0
0:1:25.257,147.33,18.7606,0,0.000885,0,0
0:1:25.556,147.739,18.8089,0,0.000885,0,0
0:1:25.858,148.21,18.871,0,0.000885,0,0
0:1:26.152,148.677,18.933,0,0.000885,0,0
0:1:26.454,149.265,19.002,0,0.000885,0,0
0:1:26.753,150.03,19.1054,0,0.000885,0,0
0:1:27.051,150.732,19.195,0,0.000885,0,0
0:1:27.351,151.2,19.2502,0,0.000885,0,0
0:1:27.649,152.08,19.3605,0,0.000885,0,0
0:1:27.951,152.489,19.4156,0,0.000885,0,0
0:1:28.244,152.552,19.4225,0,0.000885,0,0
0:1:28.548,153.077,19.4915,0,0.000885,0,0
0:1:28.853,153.722,19.5742,0,0.000885,0,0
0:1:29.158,154.602,19.6845,0,0.000885,0,0
0:1:29.461,155.483,19.7948,0,0.000885,0,0
0:1:29.764,155.483,19.7948,0,0.000885,0,0
0:1:30.066,156.244,19.8914,0,0.000885,0,0
0:1:30.363,157.125,20.0086,0,0.000885,0,0
0:1:30.661,157.77,20.0913,0,0.000885,0,0
0:1:30.961,158.592,20.1947,0,0.000885,0,0
0:1:31.257,158.944,20.2361,0,0.000885,0,0
0:1:31.558,159.117,20.2568,0,0.000885,0,0
0:1:31.853,159.94,20.3671,0,0.000885,0,0
0:1:32.155,160.701,20.4636,0,0.000885,0,0
0:1:32.453,161.115,20.5119,0,0.000885,0,0
0:1:32.750,161.933,20.6153,0,0.000885,0,0
0:1:33.050,162.284,20.6636,0,0.000885,0,0
0:1:33.355,162.462,20.6843,0,0.000885,0,0
0:1:33.659,163.281,20.7877,0,0.000885,0,0
0:1:33.962,163.637,20.836,0,0.000885,0,0
0:1:34.264,164.397,20.9325,0,0.000885,0,0
0:1:34.569,165.452,21.0635,0,0.000885,0,0
0:1:34.864,165.923,21.1255,0,0.000885,0,0
0:1:35.166,166.626,21.2152,0,0.000885,0,0
0:1:35.462,167.271,21.2979,0,0.000885,0,0
0:1:35.762,167.449,21.3186,0,0.000885,0,0
0:1:36.059,168.094,21.4013,0,0.000885,0,0
0:1:36.357,168.561,21.4634,0,0.000885,0,0
0:1:36.656,169.615,21.5944,0,0.000885,0,0
0:1:36.952,169.971,21.6426,0,0.000885,0,0
0:1:37.255,170.496,21.7116,0,0.000885,0,0
0:1:37.551,171.377,21.8219,0,0.000885,0,0
0:1:37.851,171.906,21.8909,0,0.000885,0,0
0:1:38.149,172.845,22.0081,0,0.000885,0,0
0:1:38.452,172.782,22.0012,0,0.000885,0,0
0:1:38.757,173.018,22.0287,0,0.000885,0,0
0:1:39.060,174.135,22.1735,0,0.000885,0,0
0:1:39.363,174.78,22.2563,0,0.000885,0,0
0:1:39.666,175.304,22.3183,0,0.000885,0,0
0:1:39.963,175.598,22.3597,0,0.000885,0,0
0:1:40.265,176.714,22.4976,0,0.000885,0,0
0:1:40.561,177.302,22.5734,0,0.000885,0,0
0:1:40.862,177.533,22.6079,0,0.000885,0,0
0:1:41.159,178.24,22.6906,0,0.000885,0,0
0:1:41.459,178.414,22.7182,0,0.000885,0,0
0:1:41.758,179.472,22.8492,0,0.000885,0,0
0:1:42.054,179.939,22.9113,0,0.000885,0,0
0:1:42.355,180.762,23.0147,0,0.000885,0,0
0:1:42.652,180.994,23.0423,0,0.000885,0,0
0:1:42.951,181.172,23.0699,0,0.000885,0,0
0:1:43.250,182.052,23.1802,0,0.000885,0,0
0:1:43.553,183.285,23.3388,0,0.000885,0,0
0:1:43.858,183.516,23.3663,0,0.000885,0,0
0:1:44.161,183.694,23.387,0,0.000885,0,0
0:1:44.464,184.339,23.4698,0,0.000885,0,0
0:1:44.766,184.984,23.5525,0,0.000885,0,0
0:1:45.066,185.744,23.649,0,0.000885,0,0
0:1:45.365,186.158,23.7042,0,0.000885,0,0
0:1:45.662,186.683,23.7662,0,0.000885,0,0
0:1:45.965,187.742,23.9041,0,0.000885,0,0
0:1:46.259,188.035,23.9386,0,0.000885,0,0
0:1:46.559,188.267,23.9731,0,0.000885,0,0
0:1:46.859,189.147,24.0834,0,0.000885,0,0
0:1:47.156,189.85,24.173,0,0.000885,0,0
0:1:47.457,190.495,24.2558,0,0.000885,0,0
0:1:47.753,191.082,24.3316,0,0.000885,0,0
0:1:48.055,191.847,24.4281,0,0.000885,0,0
0:1:48.350,192.257,24.4764,0,0.000885,0,0
0:1:48.651,192.435,24.504,0,0.000885,0,0
0:1:48.956,193.369,24.6212,0,0.000885,0,0
0:1:49.255,193.782,24.6763,0,0.000885,0,0
0:1:49.555,194.721,24.7935,0,0.000885,0,0
0:1:49.856,195.366,24.8763,0,0.000885,0,0
0:1:50.154,196.011,24.959,0,0.000885,0,0
0:1:50.450,196.478,25.0142,0,0.000885,0,0
0:1:50.744,196.829,25.0624,0,0.000885,0,0
0:1:51.043,197.537,25.1521,0,0.000885,0,0
0:1:51.339,198.182,25.2348,0,0.000885,0,0
0:1:51.639,198.884,25.3244,0,0.000885,0,0
0:1:51.933,199.703,25.4279,0,0.000885,0,0
0:1:52.230,199.996,25.4623,0,0.000885,0,0
0:1:52.529,200.232,25.4968,0,0.000885,0,0
0:1:52.831,201.171,25.614,0,0.000885,0,0
0:1:53.131,202.109,25.7312,0,0.000885,0,0
0:1:53.434,202.519,25.7864,0,0.000885,0,0
0:1:53.736,202.639,25.8002,0,0.000885,0,0
0:1:54.036,203.284,25.8829,0,0.000885,0,0
0:1:54.336,204.28,26.007,0,0.000885,0,0
0:1:54.637,205.219,26.1311,0,0.000885,0,0
0:1:54.931,205.512,26.1656,0,0.000885,0,0
0:1:55.230,206.157,26.2483,0,0.000885,0,0
0:1:55.526,206.451,26.2828,0,0.000885,0,0
0:1:55.830,207.212,26.3862,0,0.000885,0,0
0:1:56.130,207.505,26.4207,0,0.000885,0,0
0:1:56.421,208.444,26.5379,0,0.000885,0,0
0:1:56.732,209.031,26.6138,0,0.000885,0,0
0:1:57.023,209.324,26.6551,0,0.000885,0,0
0:1:57.322,210.085,26.7517,0,0.000885,0,0
0:1:57.620,210.614,26.8137,0,0.000885,0,0
0:1:57.922,211.317,26.9033,0,0.000885,0,0
0:1:58.223,211.962,26.9861,0,0.000885,0,0
0:1:58.528,212.371,27.0412,0,0.000885,0,0
0:1:58.831,212.959,27.1171,0,0.000885,0,0
0:1:59.132,213.488,27.1791,0,0.000885,0,0
0:1:59.431,214.133,27.2619,0,0.000885,0,0
0:1:59.733,214.778,27.3446,0,0.000885,0,0
0:2:0.029,215.365,27.4204,0,0.000885,0,0
0:2:0.323,215.952,27.4963,0,0.000885,0,0
0:2:0.622,216.833,27.6066,0,0.000885,0,0
0:2:0.928,216.891,27.6135,0,0.000885,0,0
0:2:1.224,216.949,27.6204,0,0.000885,0,0
0:2:1.517,218.417,27.8066,0,0.000885,0,0
0:2:1.817,218.826,27.8617,0,0.000885,0,0
0:2:2.112,219.293,27.9238,0,0.000885,0,0
0:2:2.417,219.764,27.9789,0,0.000885,0,0
0:2:2.716,220.703,28.103,0,0.000885,0,0
0:2:3.009,221.228,28.1651,0,0.000885,0,0
0:2:3.312,221.993,28.2616,0,0.000885,0,0
0:2:3.614,222.754,28.365,0,0.000885,0,0
0:2:3.915,222.696,28.3512,0,0.000885,0,0
0:2:4.215,223.75,28.4891,0,0.000885,0,0
0:2:4.515,224.515,28.5857,0,0.000885,0,0
0:2:4.815,225.04,28.6546,0,0.000885,0,0
0:2:5.108,225.276,28.6822,0,0.000885,0,0
0:2:5.406,226.099,28.7856,0,0.000885,0,0
0:2:5.703,227.037,28.9097,0,0.000885,0,0
0:2:5.999,227.211,28.9304,0,0.000885,0,0
0:2:6.298,228.091,29.0407,0,0.000885,0,0
0:2:6.592,228.621,29.1097,0,0.000885,0,0
0:2:6.891,228.563,29.1028,0,0.000885,0,0
0:2:7.188,229.969,29.282,0,0.000885,0,0
0:2:7.482,230.084,29.2958,0,0.000885,0,0
0:2:7.781,231.085,29.4199,0,0.000885,0,0
0:2:8.074,231.259,29.4475,0,0.000885,0,0
0:2:8.376,231.61,29.4889,0,0.000885,0,0
0:2:8.680,232.606,29.6199,0,0.000885,0,0
0:2:8.983,232.958,29.6612,0,0.000885,0,0
0:2:9.281,232.9,29.6544,0,0.000885,0,0
0:2:9.583,233.723,29.7578,0,0.000885,0,0
0:2:9.883,234.426,29.8474,0,0.000885,0,0
0:2:10.178,235.306,29.9577,0,0.000885,0,0
0:2:10.476,235.836,30.0267,0,0.000885,0,0
0:2:10.773,236.539,30.1163,0,0.000885,0,0
0:2:11.066,236.654,30.1301,0,0.000885,0,0
0:2:11.365,237.184,30.199,0,0.000885,0,0
0:2:11.661,238.18,30.3231,0,0.000885,0,0
0:2:11.958,238.825,30.4059,0,0.000885,0,0
0:2:12.254,239.586,30.5024,0,0.000885,0,0
0:2:12.551,239.764,30.53,0,0.000885,0,0
0:2:12.849,240.231,30.5851,0,0.000885,0,0
0:2:13.140,240.644,30.6403,0,0.000885,0,0
0:2:13.441,241.641,30.7644,0,0.000885,0,0
0:2:13.744,242.17,30.8334,0,0.000885,0,0
0:2:14.046,242.931,30.9299,0,0.000885,0,0
0:2:14.347,243.398,30.9919,0,0.000885,0,0
0:2:14.646,244.105,31.0816,0,0.000885,0,0
0:2:14.947,244.279,31.1023,0,0.000885,0,0
0:2:15.242,245.275,31.2264,0,0.000885,0,0
0:2:15.539,245.569,31.2677,0,0.000885,0,0
0:2:15.836,246.627,31.3987,0,0.000885,0,0
0:2:16.130,247.272,31.4815,0,0.000885,0,0
0:2:16.430,247.681,31.5366,0,0.000885,0,0
0:2:16.722,247.975,31.5711,0,0.000885,0,0
0:2:17.020,248.384,31.6263,0,0.000885,0,0
0:2:17.316,249.149,31.7228,0,0.000885,0,0
0:2:17.613,249.616,31.7848,0,0.000885,0,0
0:2:17.911,250.555,31.902,0,0.000885,0,0
0:2:18.214,250.849,31.9365,0,0.000885,0,0
0:2:18.515,251.258,31.9917,0,0.000885,0,0
0:2:18.815,251.436,32.0124,0,0.000885,0,0
0:2:19.114,252.841,32.1916,0,0.000885,0,0
0:2:19.416,253.429,32.2675,0,0.000885,0,0
0:2:19.718,253.486,32.2744,0,0.000885,0,0
0:2:20.019,254.545,32.4123,0,0.000885,0,0
0:2:20.322,255.951,32.5915,0,0.000885,0,0
0:2:20.619,256.302,32.6329,0,0.000885,0,0
0:2:20.916,256.538,32.6605,0,0.000885,0,0
0:2:21.232,257.241,32.7501,0,0.000885,0,0
0:2:21.533,257.356,32.7708,0,0.000885,0,0
0:2:21.835,258.064,32.8604,0,0.000885,0,0
0:2:22.134,258.824,32.9569,0,0.000885,0,0
0:2:22.426,259.118,32.9914,0,0.000885,0,0
0:2:22.722,259.585,33.0535,0,0.000885,0,0
0:2:23.020,260.586,33.1776,0,0.000885,0,0
0:2:23.324,261.053,33.2396,0,0.000885,0,0
0:2:23.625,261.462,33.2879,0,0.000885,0,0
0:2:23.925,261.934,33.3499,0,0.000885,0,0
0:2:24.224,262.343,33.4051,0,0.000885,0,0
0:2:24.526,263.459,33.543,0,0.000885,0,0
0:2:24.831,264.22,33.6395,0,0.000885,0,0
0:2:25.130,264.571,33.6878,0,0.000885,0,0
0:2:25.422,264.807,33.7154,0,0.000885,0,0
0:2:25.732,265.981,33.867,0,0.000885,0,0
0:2:26.039,266.858,33.9774,0,0.000885,0,0
0:2:26.334,267.036,33.998,0,0.000885,0,0
0:2:26.634,267.681,34.0808,0,0.000885,0,0
0:2:26.934,268.326,34.1635,0,0.000885,0,0
0:2:27.235,268.855,34.2325,0,0.000885,0,0
0:2:27.531,269.264,34.2807,0,0.000885,0,0
0:2:27.825,269.616,34.329,0,0.000885,0,0
0:2:28.123,270.381,34.4255,0,0.000885,0,0
0:2:28.424,270.963,34.5014,0,0.000885,0,0
0:2:28.727,271.435,34.5634,0,0.000885,0,0
0:2:29.031,272.138,34.6531,0,0.000885,0,0
0:2:29.331,272.316,34.6737,0,0.000885,0,0
0:2:29.631,272.667,34.7151,0,0.000885,0,0
0:2:29.924,274.251,34.9219,0,0.000885,0,0
0:2:30.222,274.838,34.9909,0,0.000885,0,0
0:2:30.525,274.953,35.0116,0,0.000885,0,0
0:2:30.826,276.008,35.1426,0,0.000885,0,0
0:2:31.119,276.359,35.1839,0,0.000885,0,0
0:2:31.417,276.946,35.2598,0,0.000885,0,0
0:2:31.714,277.654,35.3494,0,0.000885,0,0
0:2:32.018,278.063,35.4046,0,0.000885,0,0
0:2:32.318,278.708,35.4873,0,0.000885,0,0
0:2:32.621,279.175,35.5425,0,0.000885,0,0
0:2:32.921,280.171,35.6735,0,0.000885,0,0
0:2:33.225,280.821,35.7562,0,0.000885,0,0
0:2:33.527,280.994,35.7769,0,0.000885,0,0
0:2:33.832,281.172,35.7976,0,0.000885,0,0
0:2:34.134,282.342,35.9493,0,0.000885,0,0
0:2:34.435,282.871,36.0182,0,0.000885,0,0
0:2:34.735,283.281,36.0665,0,0.000885,0,0
0:2:35.033,283.926,36.1492,0,0.000885,0,0
0:2:35.328,284.277,36.1975,0,0.000885,0,0
0:2:35.622,285.393,36.3354,0,0.000885,0,0
0:2:35.921,285.803,36.3905,0,0.000885,0,0
0:2:36.225,286.448,36.4733,0,0.000885,0,0
0:2:36.524,286.861,36.5215,0,0.000885,0,0
0:2:36.831,287.506,36.6043,0,0.000885,0,0
0:2:37.125,287.8,36.6456,0,0.000885,0,0
0:2:37.423,288.383,36.7215,0,0.000885,0,0
0:2:37.725,289.028,36.7973,0,0.000885,0,0
0:2:38.026,290.086,36.9352,0,0.000885,0,0
0:2:38.332,290.438,36.9766,0,0.000885,0,0
0:2:38.633,291.318,37.0938,0,0.000885,0,0
0:2:38.934,291.376,37.1007,0,0.000885,0,0
0:2:39.233,292.137,37.1972,0,0.000885,0,0
0:2:39.536,292.724,37.2731,0,0.000885,0,0
0:2:39.838,293.605,37.3834,0,0.000885,0,0
0:2:40.137,293.841,37.411,0,0.000885,0,0
0:2:40.434,294.601,37.5075,0,0.000885,0,0
0:2:40.737,294.837,37.542,0,0.000885,0,0
0:2:41.036,295.776,37.6592,0,0.000885,0,0
0:2:41.328,296.594,37.7626,0,0.000885,0,0
0:2:41.628,297.066,37.8246,0,0.000885,0,0
0:2:41.921,297.653,37.9005,0,0.000885,0,0
0:2:42.220,297.826,37.9212,0,0.000885,0,0
0:2:42.518,298.823,38.0453,0,0.000885,0,0
0:2:42.821,299.53,38.1349,0,0.000885,0,0
0:2:43.121,299.646,38.1487,0,0.000885,0,0
0:2:43.424,300.584,38.2728,0,0.000885,0,0
0:2:43.726,301.051,38.328,0,0.000885,0,0
0:2:44.026,301.638,38.4038,0,0.000885,0,0
0:2:44.326,302.11,38.4659,0,0.000885,0,0
0:2:44.626,302.871,38.5624,0,0.000885,0,0
0:2:44.920,303.106,38.59,0,0.000885,0,0
0:2:45.220,303.867,38.6865,0,0.000885,0,0
0:2:45.515,304.512,38.7692,0,0.000885,0,0
0:2:45.813,304.983,38.8313,0,0.000885,0,0
0:2:46.110,305.744,38.9278,0,0.000885,0,0
0:2:46.405,305.98,38.9554,0,0.000885,0,0
0:2:46.705,306.976,39.0864,0,0.000885,0,0
0:2:46.997,307.799,39.1898,0,0.000885,0,0
0:2:47.296,308.093,39.2243,0,0.000885,0,0
0:2:47.591,308.618,39.2932,0,0.000885,0,0
0:2:47.888,308.969,39.3415,0,0.000885,0,0
0:2:48.185,309.792,39.4449,0,0.000885,0,0
0:2:48.486,310.615,39.5483,0,0.000885,0,0
0:2:48.790,310.788,39.569,0,0.000885,0,0
0:2:49.091,311.553,39.6655,0,0.000885,0,0
0:2:49.391,312.256,39.7552,0,0.000885,0,0
0:2:49.690,312.665,39.8103,0,0.000885,0,0
0:2:49.987,313.017,39.8517,0,0.000885,0,0
0:2:50.285,313.782,39.9551,0,0.000885,0,0
0:2:50.578,314.133,39.9965,0,0.000885,0,0
0:2:50.877,314.778,40.0792,0,0.000885,0,0
0:2:51.171,315.481,40.1689,0,0.000885,0,0
0:2:51.467,316.184,40.2585,0,0.000885,0,0
0:2:51.764,316.593,40.3068,0,0.000885,0,0
0:2:52.060,317.71,40.4515,0,0.000885,0,0
0:2:52.359,317.71,40.4515,0,0.000885,0,0
0:2:52.652,318.648,40.5688,0,0.000885,0,0
0:2:52.951,319.178,40.6377,0,0.000885,0,0
0:2:53.255,319.938,40.7342,0,0.000885,0,0
0:2:53.555,320.583,40.817,0,0.000885,0,0
0:2:53.858,321.286,40.9066,0,0.000885,0,0
0:2:54.156,321.993,40.9962,0,0.000885,0,0
0:2:54.455,322.46,41.0583,0,0.000885,0,0
0:2:54.748,322.99,41.1272,0,0.000885,0,0
0:2:55.049,323.341,41.1686,0,0.000885,0,0
0:2:55.343,323.986,41.2513,0,0.000885,0,0
0:2:55.640,324.747,41.3479,0,0.000885,0,0
0:2:55.937,325.392,41.4306,0,0.000885,0,0
0:2:56.240,325.512,41.4444,0,0.000885,0,0
0:2:56.540,326.037,41.5133,0,0.000885,0,0
0:2:56.833,326.975,41.6305,0,0.000885,0,0
0:2:57.130,327.327,41.6788,0,0.000885,0,0
0:2:57.437,327.972,41.7615,0,0.000885,0,0
0:2:57.740,328.559,41.8305,0,0.000885,0,0
0:2:58.040,329.146,41.9063,0,0.000885,0,0
0:2:58.341,330.027,42.0235,0,0.000885,0,0
0:2:58.642,330.378,42.0649,0,0.000885,0,0
0:2:58.943,330.965,42.1408,0,0.000885,0,0
0:2:59.245,331.962,42.2649,0,0.000885,0,0
0:2:59.546,332.02,42.2718,0,0.000885,0,0
0:2:59.839,332.549,42.3407,0,0.000885,0,0
0:3:0.139,333.31,42.4372,0,0.000885,0,0
0:3:0.433,333.368,42.4441,0,0.000885,0,0
0:3:0.730,334.075,42.5338,0,0.000885,0,0
0:3:1.026,335.245,42.6854,0,0.000885,0,0
0:3:1.322,335.187,42.6785,0,0.000885,0,0
0:3:1.620,335.832,42.7613,0,0.000885,0,0
0:3:1.921,336.419,42.8371,0,0.000885,0,0
0:3:2.221,337.536,42.975,0,0.000885,0,0
0:3:2.516,338.474,43.0922,0,0.000885,0,0
0:3:2.813,338.59,43.1129,0,0.000885,0,0
0:3:3.109,339.177,43.1819,0,0.000885,0,0
0:3:3.411,339.995,43.2922,0,0.000885,0,0
0:3:3.712,340.64,43.3749,0,0.000885,0,0
0:3:4.013,340.76,43.3887,0,0.000885,0,0
0:3:4.315,341.405,43.4714,0,0.000885,0,0
0:3:4.615,341.699,43.5059,0,0.000885,0,0
0:3:4.912,342.344,43.5887,0,0.000885,0,0
0:3:5.210,343.225,43.699,0,0.000885,0,0
0:3:5.502,343.75,43.7679,0,0.000885,0,0
0:3:5.804,344.515,43.8644,0,0.000885,0,0
0:3:6.098,345.04,43.9334,0,0.000885,0,0
0:3:6.395,345.333,43.9679,0,0.000885,0,0
0:3:6.691,346.45,44.1127,0,0.000885,0,0
0:3:6.988,346.859,44.1609,0,0.000885,0,0
0:3:7.286,347.388,44.2299,0,0.000885,0,0
0:3:7.580,348.207,44.3333,0,0.000885,0,0
0:3:7.880,348.443,44.3678,0,0.000885,0,0
0:3:8.183,349.145,44.4574,0,0.000885,0,0
0:3:8.485,349.617,44.5126,0,0.000885,0,0
0:3:8.786,350.262,44.5953,0,0.000885,0,0
0:3:9.085,350.671,44.6504,0,0.000885,0,0
0:3:9.386,351.432,44.747,0,0.000885,0,0
0:3:9.679,351.725,44.7814,0,0.000885,0,0
0:3:9.979,352.37,44.8642,0,0.000885,0,0
0:3:10.274,352.726,44.9124,0,0.000885,0,0
0:3:10.570,353.602,45.0228,0,0.000885,0,0
0:3:10.869,354.247,45.1055,0,0.000885,0,0
0:3:11.162,355.013,45.202,0,0.000885,0,0
0:3:11.462,355.128,45.2158,0,0.000885,0,0
0:3:11.754,355.893,45.3123,0,0.000885,0,0
0:3:12.054,356.476,45.3882,0,0.000885,0,0
0:3:12.350,357.121,45.4709,0,0.000885,0,0
0:3:12.645,358.002,45.5812,0,0.000885,0,0
0:3:12.944,358.295,45.6226,0,0.000885,0,0
0:3:13.245,358.883,45.6916,0,0.000885,0,0
0:3:13.546,359.528,45.7743,0,0.000885,0,0
0:3:13.845,359.937,45.8295,0,0.000885,0,0
0:3:14.146,360.995,45.9605,0,0.000885,0,0
0:3:14.448,361.64,46.0432,0,0.000885,0,0
0:3:14.742,361.992,46.0915,0,0.000885,0,0
0:3:15.042,362.517,46.1604,0,0.000885,0,0
0:3:15.336,363.046,46.2225,0,0.000885,0,0
0:3:15.634,363.869,46.3259,0,0.000885,0,0
0:3:15.940,364.63,46.4293,0,0.000885,0,0
0:3:16.236,364.923,46.4638,0,0.000885,0,0
0:3:16.532,365.51,46.5396,0,0.000885,0,0
0:3:16.836,365.804,46.5741,0,0.000885,0,0
0:3:17.136,366.978,46.7258,0,0.000885,0,0
0:3:17.428,367.503,46.7947,0,0.000885,0,0
0:3:17.737,368.09,46.8637,0,0.000885,0,0
0:3:18.030,368.442,46.9119,0,0.000885,0,0
0:3:18.331,369.38,47.0291,0,0.000885,0,0
0:3:18.636,369.616,47.0636,0,0.000885,0,0
0:3:18.937,370.145,47.1257,0,0.000885,0,0
0:3:19.238,370.848,47.2153,0,0.000885,0,0
0:3:19.536,371.435,47.2911,0,0.000885,0,0
0:3:19.831,371.96,47.3601,0,0.000885,0,0
0:3:20.141,372.663,47.4497,0,0.000885,0,0
0:3:20.432,373.313,47.5325,0,0.000885,0,0
0:3:20.731,373.664,47.5738,0,0.000885,0,0
0:3:21.036,374.247,47.6497,0,0.000885,0,0
0:3:21.331,374.834,47.7255,0,0.000885,0,0
0:3:21.629,375.305,47.7876,0,0.000885,0,0
0:3:21.935,376.124,47.891,0,0.000885,0,0
0:3:22.231,376.538,47.9392,0,0.000885,0,0
0:3:22.525,377.24,48.0289,0,0.000885,0,0
0:3:22.826,378.063,48.1392,0,0.000885,0,0
0:3:23.128,378.001,48.1254,0,0.000885,0,0
0:3:23.430,378.588,48.2012,0,0.000885,0,0
0:3:23.731,379.411,48.3047,0,0.000885,0,0
0:3:24.030,380.35,48.4288,0,0.000885,0,0
0:3:24.331,380.937,48.5046,0,0.000885,0,0
0:3:24.635,381.52,48.5736,0,0.000885,0,0
0:3:24.932,382.049,48.6425,0,0.000885,0,0
0:3:25.229,382.636,48.7184,0,0.000885,0,0
0:3:25.532,383.223,48.7942,0,0.000885,0,0
0:3:25.832,383.926,48.8838,0,0.000885,0,0
0:3:26.137,384.22,48.9183,0,0.000885,0,0
0:3:26.436,384.807,48.9941,0,0.000885,0,0
0:3:26.740,385.158,49.0424,0,0.000885,0,0
0:3:27.038,385.919,49.1389,0,0.000885,0,0
0:3:27.335,386.332,49.1872,0,0.000885,0,0
0:3:27.626,387.035,49.2768,0,0.000885,0,0
0:3:27.926,387.622,49.3527,0,0.000885,0,0
0:3:28.228,388.147,49.4216,0,0.000885,0,0
0:3:28.531,389.144,49.5457,0,0.000885,0,0
0:3:28.830,389.437,49.5871,0,0.000885,0,0
0:3:29.131,390.145,49.6767,0,0.000885,0,0
0:3:29.432,391.377,49.8284,0,0.000885,0,0
0:3:29.737,391.844,49.8905,0,0.000885,0,0
0:3:30.037,392.431,49.9663,0,0.000885,0,0
0:3:30.330,392.898,50.0284,0,0.000885,0,0
0:3:30.637,392.84,50.0215,0,0.000885,0,0
0:3:30.933,394.072,50.1731,0,0.000885,0,0
0:3:31.228,394.717,50.2559,0,0.000885,0,0
0:3:31.527,394.953,50.2835,0,0.000885,0,0
0:3:31.830,395.247,50.3248,0,0.000885,0,0
0:3:32.137,396.065,50.4283,0,0.000885,0,0
0:3:32.445,396.772,50.5179,0,0.000885,0,0
0:3:32.740,397.182,50.573,0,0.000885,0,0
0:3:33.039,397.769,50.642,0,0.000885,0,0
0:3:33.342,398.178,50.6972,0,0.000885,0,0
0:3:33.645,399.232,50.835,0,0.000885,0,0
0:3:33.946,399.704,50.8902,0,0.000885,0,0
0:3:34.246,400.233,50.9592,0,0.000885,0,0
0:3:34.547,400.878,51.0419,0,0.000885,0,0
0:3:34.840,401.23,51.0833,0,0.000885,0,0
0:3:35.140,401.99,51.1798,0,0.000885,0,0
0:3:35.432,402.226,51.2143,0,0.000885,0,0
0:3:35.729,403.396,51.359,0,0.000885,0,0
0:3:36.039,403.338,51.3522,0,0.000885,0,0
0:3:36.330,404.455,51.4969,0,0.000885,0,0
0:3:36.630,405.215,51.5935,0,0.000885,0,0
0:3:36.923,405.745,51.6624,0,0.000885,0,0
0:3:37.230,405.98,51.69,0,0.000885,0,0
0:3:37.526,406.741,51.7865,0,0.000885,0,0
0:3:37.822,407.328,51.8624,0,0.000885,0,0
0:3:38.120,407.622,51.8968,0,0.000885,0,0
0:3:38.425,408.44,52.0072,0,0.000885,0,0
0:3:38.724,409.147,52.0968,0,0.000885,0,0
0:3:39.026,409.792,52.1795,0,0.000885,0,0
0:3:39.326,410.847,52.3105,0,0.000885,0,0
0:3:39.624,410.962,52.3243,0,0.000885,0,0
0:3:39.919,411.434,52.3864,0,0.000885,0,0
0:3:40.218,412.021,52.4622,0,0.000885,0,0
0:3:40.512,412.96,52.5794,0,0.000885,0,0
0:3:40.810,413.017,52.5863,0,0.000885,0,0
0:3:41.106,413.662,52.6691,0,0.000885,0,0
0:3:41.398,414.072,52.7242,0,0.000885,0,0
0:3:41.699,414.774,52.8138,0,0.000885,0,0
0:3:41.994,415.362,52.8828,0,0.000885,0,0
0:3:42.291,415.949,52.9586,0,0.000885,0,0
0:3:42.587,416.594,53.0414,0,0.000885,0,0
0:3:42.882,417.297,53.131,0,0.000885,0,0
0:3:43.181,417.826,53.1999,0,0.000885,0,0
0:3:43.484,418.119,53.2344,0,0.000885,0,0
0:3:43.786,419.058,53.3585,0,0.000885,0,0
0:3:44.086,419.232,53.3792,0,0.000885,0,0
0:3:44.387,420.232,53.5033,0,0.000885,0,0
0:3:44.686,421.051,53.6067,0,0.000885,0,0
0:3:44.981,421.754,53.6964,0,0.000885,0,0
0:3:45.281,421.932,53.7239,0,0.000885,0,0
0:3:45.574,422.11,53.7446,0,0.000885,0,0
0:3:45.870,422.755,53.8274,0,0.000885,0,0
0:3:46.169,423.4,53.9101,0,0.000885,0,0
0:3:46.463,423.982,53.9859,0,0.000885,0,0
0:3:46.764,424.396,54.0342,0,0.000885,0,0
0:3:47.057,425.157,54.1307,0,0.000885,0,0
0:3:47.356,425.566,54.1859,0,0.000885,0,0
0:3:47.652,426.74,54.3376,0,0.000885,0,0
0:3:47.952,427.092,54.379,0,0.000885,0,0
0:3:48.256,427.914,54.4824,0,0.000885,0,0
0:3:48.558,428.444,54.5513,0,0.000885,0,0
0:3:48.859,429.027,54.6272,0,0.000885,0,0
0:3:49.160,429.734,54.7168,0,0.000885,0,0
0:3:49.456,430.379,54.7995,0,0.000885,0,0
0:3:49.755,431.024,54.8823,0,0.000885,0,0
0:3:50.046,431.549,54.9443,0,0.000885,0,0
0:3:50.347,431.962,54.9995,0,0.000885,0,0
0:3:50.641,432.607,55.0822,0,0.000885,0,0
0:3:50.936,433.368,55.1787,0,0.000885,0,0
0:3:51.235,433.897,55.2477,0,0.000885,0,0
0:3:51.540,434.6,55.3373,0,0.000885,0,0
0:3:51.840,434.542,55.3304,0,0.000885,0,0
0:3:52.143,435.717,55.4752,0,0.000885,0,0
0:3:52.441,435.774,55.4821,0,0.000885,0,0
0:3:52.736,436.593,55.5855,0,0.000885,0,0
0:3:53.036,437.064,55.6476,0,0.000885,0,0
0:3:53.341,437.532,55.7096,0,0.000885,0,0
0:3:53.642,438.297,55.8062,0,0.000885,0,0
0:3:53.943,438.822,55.8751,0,0.000885,0,0
0:3:54.244,439.351,55.9372,0,0.000885,0,0
0:3:54.540,439.818,55.9992,0,0.000885,0,0
0:3:54.840,440.583,56.0957,0,0.000885,0,0
0:3:55.142,441.344,56.1923,0,0.000885,0,0
0:3:55.441,442.051,56.2819,0,0.000885,0,0
0:3:55.746,442.634,56.3577,0,0.000885,0,0
0:3:56.042,443.163,56.4267,0,0.000885,0,0
0:3:56.339,443.75,56.5025,0,0.000885,0,0
0:3:56.631,444.217,56.5577,0,0.000885,0,0
0:3:56.932,445.04,56.6611,0,0.000885,0,0
0:3:57.234,445.334,56.7025,0,0.000885,0,0
0:3:57.531,445.392,56.7094,0,0.000885,0,0
0:3:57.829,446.859,56.8955,0,0.000885,0,0
0:3:58.130,447.327,56.9576,0,0.000885,0,0
0:3:58.434,447.972,57.0403,0,0.000885,0,0
0:3:58.735,448.385,57.0886,0,0.000885,0,0
0:3:59.034,448.968,57.1644,0,0.000885,0,0
0:3:59.334,449.969,57.2885,0,0.000885,0,0
0:3:59.631,449.969,57.2885,0,0.000885,0,0
0:3:59.927,450.672,57.3782,0,0.000885,0,0
0:4:0.232,451.49,57.4885,0,0.000885,0,0
0:4:0.531,452.135,57.5712,0,0.000885,0,0
0:4:0.834,452.722,57.6402,0,0.000885,0,0
0:4:1.132,452.958,57.6746,0,0.000885,0,0
0:4:1.429,453.781,57.7781,0,0.000885,0,0
0:4:1.732,454.132,57.8194,0,0.000885,0,0
0:4:2.032,455.129,57.9504,0,0.000885,0,0
0:4:2.334,455.244,57.9642,0,0.000885,0,0
0:4:2.633,456.183,58.0814,0,0.000885,0,0
0:4:2.927,456.477,58.1228,0,0.000885,0,0
0:4:3.229,457.179,58.2124,0,0.000885,0,0
0:4:3.532,457.709,58.2745,0,0.000885,0,0
0:4:3.833,458.296,58.3503,0,0.000885,0,0
0:4:4.134,459.056,58.4469,0,0.000885,0,0
0:4:4.434,459.47,58.502,0,0.000885,0,0
0:4:4.731,460.346,58.6123,0,0.000885,0,0
0:4:5.040,460.64,58.6537,0,0.000885,0,0
0:4:5.334,461.054,58.702,0,0.000885,0,0
0:4:5.634,461.699,58.7847,0,0.000885,0,0
0:4:5.925,461.757,58.7916,0,0.000885,0,0
0:4:6.226,462.926,58.9433,0,0.000885,0,0
0:4:6.521,463.692,59.0398,0,0.000885,0,0
0:4:6.818,464.394,59.1294,0,0.000885,0,0
0:4:7.114,464.866,59.1915,0,0.000885,0,0
0:4:7.411,465.511,59.2673,0,0.000885,0,0
0:4:7.710,466.507,59.3983,0,0.000885,0,0
0:4:8.013,466.859,59.4397,0,0.000885,0,0
0:4:8.315,467.21,59.488,0,0.000885,0,0
0:4:8.616,468.091,59.5983,0,0.000885,0,0
0:4:8.916,468.264,59.619,0,0.000885,0,0
0:4:9.215,468.851,59.6948,0,0.000885,0,0
0:4:9.509,469.261,59.75,0,0.000885,0,0
0:4:9.809,469.674,59.7982,0,0.000885,0,0
0:4:10.104,470.199,59.8672,0,0.000885,0,0
0:4:10.400,471.08,59.9775,0,0.000885,0,0
0:4:10.697,471.431,60.0258,0,0.000885,0,0
0:4:10.993,472.312,60.1361,0,0.000885,0,0
0:4:11.291,473.193,60.2464,0,0.000885,0,0
0:4:11.585,473.66,60.3084,0,0.000885,0,0
0:4:11.884,474.305,60.3912,0,0.000885,0,0
0:4:12.179,475.012,60.4808,0,0.000885,0,0
0:4:12.476,475.186,60.5015,0,0.000885,0,0
0:4:12.774,475.951,60.598,0,0.000885,0,0
0:4:13.077,476.302,60.6463,0,0.000885,0,0
0:4:13.379,476.827,60.7083,0,0.000885,0,0
0:4:13.681,478.001,60.86,0,0.000885,0,0
0:4:13.980,478.531,60.929,0,0.000885,0,0
0:4:14.281,478.762,60.9565,0,0.000885,0,0
0:4:14.575,479.118,61.0048,0,0.000885,0,0
0:4:14.874,480.23,61.1427,0,0.000885,0,0
0:4:15.167,481.053,61.2461,0,0.000885,0,0
0:4:15.467,481.111,61.2599,0,0.000885,0,0
0:4:15.760,481.698,61.3289,0,0.000885,0,0
0:4:16.059,482.401,61.4185,0,0.000885,0,0
0:4:16.355,482.93,61.4874,0,0.000885,0,0
0:4:16.650,483.633,61.5771,0,0.000885,0,0
0:4:16.949,484.158,61.646,0,0.000885,0,0
0:4:17.243,484.745,61.7219,0,0.000885,0,0
0:4:17.543,485.274,61.7839,0,0.000885,0,0
0:4:17.845,485.861,61.8598,0,0.000885,0,0
0:4:18.146,486.155,61.9011,0,0.000885,0,0
0:4:18.449,486.974,62.0046,0,0.000885,0,0
0:4:18.750,487.619,62.0873,0,0.000885,0,0
0:4:19.051,488.148,62.1562,0,0.000885,0,0
0:4:19.351,488.851,62.2459,0,0.000885,0,0
0:4:19.650,489.558,62.3355,0,0.000885,0,0
0:4:19.946,490.141,62.4044,0,0.000885,0,0
0:4:20.241,490.612,62.4665,0,0.000885,0,0
0:4:20.537,491.079,62.5286,0,0.000885,0,0
0:4:20.830,491.724,62.6113,0,0.000885,0,0
0:4:21.130,492.311,62.6802,0,0.000885,0,0
0:4:21.424,492.663,62.7285,0,0.000885,0,0
0:4:21.732,493.192,62.7974,0,0.000885,0,0
0:4:22.029,493.895,62.8871,0,0.000885,0,0
0:4:22.334,494.66,62.9836,0,0.000885,0,0
0:4:22.634,495.479,63.087,0,0.000885,0,0
0:4:22.935,496.066,63.1629,0,0.000885,0,0
0:4:23.238,496.417,63.2042,0,0.000885,0,0
0:4:23.536,497.24,63.3077,0,0.000885,0,0
0:4:23.836,497.827,63.3835,0,0.000885,0,0
0:4:24.136,498.236,63.4387,0,0.000885,0,0
0:4:24.431,498.472,63.4662,0,0.000885,0,0
0:4:24.730,499.175,63.5559,0,0.000885,0,0
0:4:25.032,500.171,63.6869,0,0.000885,0,0
0:4:25.330,500.465,63.7213,0,0.000885,0,0
0:4:25.626,501.346,63.8317,0,0.000885,0,0
0:4:25.930,501.933,63.9075,0,0.000885,0,0
0:4:26.229,502.342,63.9627,0,0.000885,0,0
0:4:26.522,503.281,64.0799,0,0.000885,0,0
0:4:26.822,503.396,64.0937,0,0.000885,0,0
0:4:27.116,503.806,64.1488,0,0.000885,0,0
0:4:27.411,504.571,64.2453,0,0.000885,0,0
0:4:27.711,505.1,64.3143,0,0.000885,0,0
0:4:28.012,505.745,64.3901,0,0.000885,0,0
0:4:28.316,506.328,64.466,0,0.000885,0,0
0:4:28.616,506.741,64.5211,0,0.000885,0,0
0:4:28.916,507.329,64.597,0,0.000885,0,0
0:4:29.216,508.498,64.7418,0,0.000885,0,0
0:4:29.510,508.792,64.7831,0,0.000885,0,0
0:4:29.809,509.264,64.8383,0,0.000885,0,0
0:4:30.102,509.557,64.8797,0,0.000885,0,0
0:4:30.403,510.024,64.9417,0,0.000885,0,0
0:4:30.697,510.789,65.0382,0,0.000885,0,0
0:4:30.997,511.666,65.1486,0,0.000885,0,0
0:4:31.293,512.311,65.2313,0,0.000885,0,0
0:4:31.589,512.84,65.2934,0,0.000885,0,0
0:4:31.886,513.543,65.383,0,0.000885,0,0
0:4:32.180,514.072,65.4519,0,0.000885,0,0
0:4:32.479,514.539,65.514,0,0.000885,0,0
0:4:32.775,515.304,65.6105,0,0.000885,0,0
0:4:33.074,515.713,65.6657,0,0.000885,0,0
0:4:33.377,516.123,65.7139,0,0.000885,0,0
0:4:33.677,517.181,65.8518,0,0.000885,0,0
0:4:33.978,517.413,65.8794,0,0.000885,0,0
0:4:34.279,518.236,65.9828,0,0.000885,0,0
0:4:34.579,518.765,66.0518,0,0.000885,0,0
0:4:34.874,519.583,66.1552,0,0.000885,0,0
0:4:35.171,519.997,66.2104,0,0.000885,0,0
0:4:35.468,520.522,66.2724,0,0.000885,0,0
0:4:35.760,520.936,66.3276,0,0.000885,0,0
0:4:36.060,521.345,66.3827,0,0.000885,0,0
0:4:36.354,522.226,66.493,0,0.000885,0,0
0:4:36.651,522.871,66.5758,0,0.000885,0,0
0:4:36.948,523.573,66.6654,0,0.000885,0,0
0:4:37.243,524.218,66.7481,0,0.000885,0,0
0:4:37.543,524.686,66.8033,0,0.000885,0,0
0:4:37.845,524.979,66.8447,0,0.000885,0,0
0:4:38.149,525.976,66.9688,0,0.000885,0,0
0:4:38.449,526.331,67.017,0,0.000885,0,0
0:4:38.748,526.914,67.086,0,0.000885,0,0
0:4:39.049,527.208,67.1274,0,0.000885,0,0
0:4:39.343,527.915,67.217,0,0.000885,0,0
0:4:39.641,528.911,67.3411,0,0.000885,0,0
0:4:39.946,529.205,67.3825,0,0.000885,0,0
0:4:40.241,529.436,67.41,0,0.000885,0,0
0:4:40.538,530.317,67.5204,0,0.000885,0,0
0:4:40.843,531.082,67.6169,0,0.000885,0,0
0:4:41.144,531.433,67.6651,0,0.000885,0,0
0:4:41.435,531.843,67.7134,0,0.000885,0,0
0:4:41.735,532.372,67.7824,0,0.000885,0,0
0:4:42.029,533.017,67.8651,0,0.000885,0,0
0:4:42.327,533.662,67.9478,0,0.000885,0,0
0:4:42.635,534.129,68.0099,0,0.000885,0,0
0:4:42.937,534.658,68.0719,0,0.000885,0,0
0:4:43.238,535.303,68.1547,0,0.000885,0,0
0:4:43.540,535.597,68.196,0,0.000885,0,0
0:4:43.844,536.651,68.327,0,0.000885,0,0
0:4:44.144,537.296,68.4098,0,0.000885,0,0
0:4:44.456,538.293,68.5408,0,0.000885,0,0
0:4:44.756,538.644,68.5822,0,0.000885,0,0
0:4:45.050,539.409,68.6787,0,0.000885,0,0
0:4:45.350,539.996,68.7545,0,0.000885,0,0
0:4:45.645,540.406,68.8097,0,0.000885,0,0
0:4:45.951,541.228,68.9131,0,0.000885,0,0
0:4:46.248,541.344,68.9269,0,0.000885,0,0
0:4:46.551,542.341,69.051,0,0.000885,0,0
0:4:46.852,542.928,69.1268,0,0.000885,0,0
0:4:47.145,543.163,69.1544,0,0.000885,0,0
0:4:47.452,543.808,69.2372,0,0.000885,0,0
0:4:47.747,544.511,69.3268,0,0.000885,0,0
0:4:48.048,544.978,69.3888,0,0.000885,0,0
0:4:48.351,544.978,69.3888,0,0.000885,0,0
0:4:48.650,544.453,69.3199,0,0.000885,0,0
0:4:48.950,520.464,66.2655,0,0.000885,0,0
0:4:49.251,520.406,66.2586,0,0.000885,0,0
0:4:49.546,523.689,66.6792,0,0.000885,0,0
0:4:49.854,525.86,66.955,0,0.000885,0,0
0:4:50.146,527.795,67.2032,0,0.000885,0,0
0:4:50.446,524.863,66.8309,0,0.000885,0,0
0:4:50.747,444.279,56.5646,0,0.000885,0,0
0:4:51.045,443.634,56.4819,0,0.000885,0,0
0:4:51.351,443.866,56.5163,0,0.000885,0,0
0:4:51.653,444.511,56.5991,0,0.000885,0,0
0:4:51.953,445.685,56.7439,0,0.000885,0,0
0:4:52.245,446.566,56.8611,0,0.000885,0,0
0:4:52.542,447.327,56.9576,0,0.000885,0,0
0:4:52.847,447.384,56.9645,0,0.000885,0,0
0:4:53.147,446.975,56.9093,0,0.000885,0,0
0:4:53.446,446.388,56.8335,0,0.000885,0,0
0:4:53.746,446.33,56.8266,0,0.000885,0,0
0:4:54.045,446.388,56.8335,0,0.000885,0,0
0:4:54.337,446.739,56.8817,0,0.000885,0,0
0:4:54.635,446.566,56.8611,0,0.000885,0,0
0:4:54.938,446.272,56.8197,0,0.000885,0,0
0:4:55.234,445.921,56.7783,0,0.000885,0,0
0:4:55.532,421.402,53.655,0,0.000885,0,0
0:4:55.823,417.648,53.1793,0,0.000885,0,0
0:4:56.123,416.127,52.9793,0,0.000885,0,0
0:4:56.417,415.419,52.8897,0,0.000885,0,0
0:4:56.714,415.304,52.8759,0,0.000885,0,0
0:4:57.008,414.837,52.8207,0,0.000885,0,0
0:4:57.304,414.365,52.7587,0,0.000885,0,0
0:4:57.602,391.844,49.8905,0,0.000885,0,0
0:4:57.884,382.165,48.6563,0,0.000885,0,0