File: DataFile2021-06-08_053839.csv
Test ID:,Date Tested:,Time:,Test Type:,Diameter Avg. (mm):,Cyl. Corr. Factor:,Height (mm):,Age (days):,Weight (kN):,Break Type:,Ramp Rate (MPa/s):,Load at Break (kN):,Stress at Break (MPa):
12,6/8/2021,05:38,Cylinder,150,1,300,0,3.6,6,0.24,980.78,55.5
Sample Time,Load (kN),Stress (MPa),Long. Strain,Trans. Strain,Chan1 Deflection (mm),Chan2 Deflection (mm)
0:0:14.655,7.03709,0.399896,0,0.000885,0,0
0:0:14.852,16.4228,0.930792,0,0.000885,0,0
0:0:15.050,22.5213,1.27553,0,0.000885,0,0
0:0:15.252,22.6993,1.28242,0,0.000885,0,0
0:0:15.448,22.0543,1.24795,0,0.000885,0,0
0:0:15.649,21.992,1.24795,0,0.000885,0,0
0:0:15.846,21.1735,1.19969,0,0.000885,0,0
0:0:16.043,21.1157,1.19279,0,0.000885,0,0
0:0:16.245,21.0534,1.19279,0,0.000885,0,0
0:0:16.440,20.9956,1.1859,0,0.000885,0,0
0:0:16.641,20.9378,1.1859,0,0.000885,0,0
0:0:16.838,20.88,1.179,0,0.000885,0,0
0:0:17.034,20.9378,1.1859,0,0.000885,0,0
0:0:17.236,20.88,1.179,0,0.000885,0,0
0:0:17.432,20.6442,1.16521,0,0.000885,0,0
0:0:17.632,20.702,1.17211,0,0.000885,0,0
0:0:17.831,20.5285,1.15832,0,0.000885,0,0
0:0:18.034,20.5864,1.16521,0,0.000885,0,0
0:0:18.237,20.9956,1.1859,0,0.000885,0,0
0:0:18.433,21.347,1.20658,0,0.000885,0,0
0:0:18.632,22.4057,1.26864,0,0.000885,0,0
0:0:18.833,23.5756,1.33758,0,0.000885,0,0
0:0:19.037,23.2242,1.3169,0,0.000885,0,0
0:0:19.239,24.9278,1.41343,0,0.000885,0,0
0:0:19.438,25.6307,1.4479,0,0.000885,0,0
0:0:19.635,26.9785,1.52374,0,0.000885,0,0
0:0:19.837,27.45,1.55132,0,0.000885,0,0
0:0:20.039,28.5042,1.61337,0,0.000885,0,0
0:0:20.243,29.0914,1.64785,0,0.000885,0,0
0:0:20.446,31.0263,1.75816,0,0.000885,0,0
0:0:20.646,31.9071,1.80643,0,0.000885,0,0
0:0:20.849,33.077,1.86848,0,0.000885,0,0
0:0:21.051,33.4907,1.89606,0,0.000885,0,0
0:0:21.254,34.7228,1.96501,0,0.000885,0,0
0:0:21.454,35.4256,2.00637,0,0.000885,0,0
0:0:21.652,36.422,2.06153,0,0.000885,0,0
0:0:21.854,36.9514,2.08911,0,0.000885,0,0
0:0:22.050,38.0056,2.15116,0,0.000885,0,0
0:0:22.250,38.5349,2.17874,0,0.000885,0,0
0:0:22.450,40.1763,2.27527,0,0.000885,0,0
0:0:22.646,40.8792,2.31664,0,0.000885,0,0
0:0:22.849,41.7021,2.35801,0,0.000885,0,0
0:0:23.045,42.1113,2.38559,0,0.000885,0,0
0:0:23.244,42.5784,2.40627,0,0.000885,0,0
0:0:23.445,43.9306,2.48901,0,0.000885,0,0
0:0:23.640,45.1005,2.55106,0,0.000885,0,0
0:0:23.843,45.9813,2.59932,0,0.000885,0,0
0:0:24.041,46.217,2.61311,0,0.000885,0,0
0:0:24.238,47.5648,2.68896,0,0.000885,0,0
0:0:24.440,47.8006,2.70274,0,0.000885,0,0
0:0:24.636,49.3842,2.79238,0,0.000885,0,0
0:0:24.837,49.8512,2.81996,0,0.000885,0,0
0:0:25.039,51.4348,2.90959,0,0.000885,0,0
0:0:25.242,52.1421,2.95096,0,0.000885,0,0
0:0:25.445,52.9605,2.99922,0,0.000885,0,0
0:0:25.648,53.8413,3.04748,0,0.000885,0,0
0:0:25.850,55.1313,3.11643,0,0.000885,0,0
0:0:26.050,55.7184,3.1509,0,0.000885,0,0
0:0:26.253,57.4755,3.25433,0,0.000885,0,0
0:0:26.454,57.5377,3.25433,0,0.000885,0,0
0:0:26.652,58.7076,3.32327,0,0.000885,0,0
0:0:26.852,59.237,3.35085,0,0.000885,0,0
0:0:27.052,60.1755,3.40601,0,0.000885,0,0
0:0:27.248,60.1755,3.40601,0,0.000885,0,0
0:0:27.449,61.7013,3.48875,0,0.000885,0,0
0:0:27.647,61.7591,3.49564,0,0.000885,0,0
0:0:27.844,63.227,3.57838,0,0.000885,0,0
0:0:28.046,63.6941,3.60596,0,0.000885,0,0
0:0:28.243,65.1042,3.6818,0,0.000885,0,0
0:0:28.445,67.0391,3.79212,0,0.000885,0,0
0:0:28.643,67.1548,3.79901,0,0.000885,0,0
0:0:28.840,68.0355,3.84727,0,0.000885,0,0
0:0:29.042,68.209,3.86106,0,0.000885,0,0
0:0:29.239,69.9127,3.95759,0,0.000885,0,0
0:0:29.440,70.6733,3.99896,0,0.000885,0,0
0:0:29.640,72.0212,4.0748,0,0.000885,0,0
0:0:29.834,72.9019,4.12306,0,0.000885,0,0
0:0:30.038,73.1955,4.14375,0,0.000885,0,0
0:0:30.238,73.8405,4.17822,0,0.000885,0,0
0:0:30.442,74.7791,4.23338,0,0.000885,0,0
0:0:30.644,75.5397,4.27475,0,0.000885,0,0
0:0:30.847,77.0076,4.35749,0,0.000885,0,0
0:0:31.049,77.0654,4.36438,0,0.000885,0,0
0:0:31.249,78.2976,4.43333,0,0.000885,0,0
0:0:31.452,79.294,4.48849,0,0.000885,0,0
0:0:31.654,80.584,4.55743,0,0.000885,0,0
0:0:31.850,81.1711,4.59191,0,0.000885,0,0
0:0:32.051,82.2298,4.65396,0,0.000885,0,0
0:0:32.251,82.8748,4.68843,0,0.000885,0,0
0:0:32.448,83.9869,4.75049,0,0.000885,0,0
0:0:32.650,84.4584,4.77807,0,0.000885,0,0
0:0:32.847,85.3347,4.82633,0,0.000885,0,0
0:0:33.047,86.8026,4.90907,0,0.000885,0,0
0:0:33.247,87.3898,4.94354,0,0.000885,0,0
0:0:33.445,88.7376,5.01938,0,0.000885,0,0
0:0:33.646,89.3826,5.06075,0,0.000885,0,0
0:0:33.843,90.5569,5.1228,0,0.000885,0,0
0:0:34.042,90.379,5.11591,0,0.000885,0,0
0:0:34.242,91.4376,5.17107,0,0.000885,0,0
0:0:34.438,91.1441,5.15728,0,0.000885,0,0
0:0:34.641,93.6662,5.30207,0,0.000885,0,0
0:0:34.838,94.369,5.34344,0,0.000885,0,0
0:0:35.038,95.8369,5.42617,0,0.000885,0,0
0:0:35.240,96.4197,5.45375,0,0.000885,0,0
0:0:35.443,97.7096,5.5296,0,0.000885,0,0
0:0:35.644,97.8297,5.53649,0,0.000885,0,0
0:0:35.848,98.8261,5.59165,0,0.000885,0,0
0:0:36.049,99.1197,5.61233,0,0.000885,0,0
0:0:36.251,101.055,5.71575,0,0.000885,0,0
0:0:36.453,101.233,5.72954,0,0.000885,0,0
0:0:36.655,102.932,5.82607,0,0.000885,0,0
0:0:36.853,103.048,5.83296,0,0.000885,0,0
0:0:37.051,104.337,5.90191,0,0.000885,0,0
0:0:37.253,104.867,5.93639,0,0.000885,0,0
0:0:37.449,106.508,6.02602,0,0.000885,0,0
0:0:37.649,107.211,6.06739,0,0.000885,0,0
0:0:37.850,108.15,6.12254,0,0.000885,0,0
0:0:38.045,107.86,6.10186,0,0.000885,0,0
0:0:38.247,108.857,6.15702,0,0.000885,0,0
0:0:38.442,109.502,6.19839,0,0.000885,0,0
0:0:38.643,110.734,6.26733,0,0.000885,0,0
0:0:38.843,112.082,6.34318,0,0.000885,0,0
0:0:39.039,112.785,6.38455,0,0.000885,0,0
0:0:39.242,113.723,6.43281,0,0.000885,0,0
0:0:39.438,114.426,6.47418,0,0.000885,0,0
0:0:39.637,115.836,6.55691,0,0.000885,0,0
0:0:39.839,116.361,6.58449,0,0.000885,0,0
0:0:40.035,118.007,6.68102,0,0.000885,0,0
0:0:40.238,118.358,6.69481,0,0.000885,0,0
0:0:40.440,119.413,6.75686,0,0.000885,0,0
0:0:40.644,120.173,6.79823,0,0.000885,0,0
0:0:40.845,121.112,6.85339,0,0.000885,0,0
0:0:41.046,121.054,6.85339,0,0.000885,0,0
0:0:41.248,122.58,6.93613,0,0.000885,0,0
0:0:41.450,122.695,6.94302,0,0.000885,0,0
0:0:41.651,124.457,7.03955,0,0.000885,0,0
0:0:41.852,124.986,7.07402,0,0.000885,0,0
0:0:42.049,126.743,7.17055,0,0.000885,0,0
0:0:42.249,126.859,7.17744,0,0.000885,0,0
0:0:42.447,127.682,7.22571,0,0.000885,0,0
0:0:42.645,129.207,7.30844,0,0.000885,0,0
0:0:42.846,129.265,7.31534,0,0.000885,0,0
0:0:43.043,130.849,7.40497,0,0.000885,0,0
0:0:43.244,131.436,7.43944,0,0.000885,0,0
0:0:43.442,133.077,7.52907,0,0.000885,0,0
0:0:43.640,133.313,7.54286,0,0.000885,0,0
0:0:43.842,134.839,7.6325,0,0.000885,0,0
0:0:44.038,135.012,7.63939,0,0.000885,0,0
0:0:44.241,135.835,7.68765,0,0.000885,0,0
0:0:44.438,136.596,7.72902,0,0.000885,0,0
0:0:44.637,137.655,7.79108,0,0.000885,0,0
0:0:44.838,138.18,7.81865,0,0.000885,0,0
0:0:45.040,139.354,7.8876,0,0.000885,0,0
0:0:45.244,140.35,7.94276,0,0.000885,0,0
0:0:45.447,141.76,8.0186,0,0.000885,0,0
0:0:45.647,142.227,8.04618,0,0.000885,0,0
0:0:45.850,143.402,8.11513,0,0.000885,0,0
0:0:46.051,143.753,8.13581,0,0.000885,0,0
0:0:46.253,144.456,8.17718,0,0.000885,0,0
0:0:46.453,145.279,8.21855,0,0.000885,0,0
0:0:46.651,147.507,8.34955,0,0.000885,0,0
0:0:46.852,147.507,8.34955,0,0.000885,0,0
0:0:47.049,148.21,8.38402,0,0.000885,0,0
0:0:47.250,149.794,8.47366,0,0.000885,0,0
0:0:47.448,150.087,8.49434,0,0.000885,0,0
0:0:47.644,150.968,8.5426,0,0.000885,0,0
0:0:47.847,151.844,8.59087,0,0.000885,0,0
0:0:48.044,152.667,8.63913,0,0.000885,0,0
0:0:48.244,153.842,8.70808,0,0.000885,0,0
0:0:48.444,154.487,8.74255,0,0.000885,0,0
0:0:48.639,155.074,8.77703,0,0.000885,0,0
0:0:48.841,156.244,8.83908,0,0.000885,0,0
0:0:49.037,156.773,8.87355,0,0.000885,0,0
0:0:49.239,158.121,8.94939,0,0.000885,0,0
0:0:49.440,159.002,8.99766,0,0.000885,0,0
0:0:49.634,159.882,9.04592,0,0.000885,0,0
0:0:49.837,160.585,9.08729,0,0.000885,0,0
0:0:50.039,161.582,9.14245,0,0.000885,0,0
0:0:50.242,162.169,9.17692,0,0.000885,0,0
0:0:50.445,162.872,9.21829,0,0.000885,0,0
0:0:50.647,164.162,9.28724,0,0.000885,0,0
0:0:50.848,165.158,9.34929,0,0.000885,0,0
0:0:51.050,166.039,9.39755,0,0.000885,0,0
0:0:51.252,167.155,9.45961,0,0.000885,0,0
0:0:51.454,167.916,9.50098,0,0.000885,0,0
0:0:51.651,168.797,9.54924,0,0.000885,0,0
0:0:51.854,169.971,9.61819,0,0.000885,0,0
0:0:52.050,170.265,9.63198,0,0.000885,0,0
0:0:52.250,172.022,9.7354,0,0.000885,0,0
0:0:52.452,172.257,9.74919,0,0.000885,0,0
0:0:52.649,173.312,9.80434,0,0.000885,0,0
0:0:52.849,174.014,9.84571,0,0.000885,0,0
0:0:53.048,174.78,9.88708,0,0.000885,0,0
0:0:53.245,175.776,9.94913,0,0.000885,0,0
0:0:53.446,176.83,10.0043,0,0.000885,0,0
0:0:53.642,176.95,10.0112,0,0.000885,0,0
0:0:53.843,178.414,10.0939,0,0.000885,0,0
0:0:54.042,178.592,10.1077,0,0.000885,0,0
0:0:54.239,180.175,10.1973,0,0.000885,0,0
0:0:54.441,181.056,10.2456,0,0.000885,0,0
0:0:54.639,181.932,10.2939,0,0.000885,0,0
0:0:54.838,182.933,10.349,0,0.000885,0,0
0:0:55.040,183.516,10.3835,0,0.000885,0,0
0:0:55.244,184.632,10.4456,0,0.000885,0,0
0:0:55.446,185.629,10.5076,0,0.000885,0,0
0:0:55.648,186.274,10.5421,0,0.000885,0,0
0:0:55.849,187.684,10.6179,0,0.000885,0,0
0:0:56.051,187.799,10.6248,0,0.000885,0,0
0:0:56.253,189.499,10.7213,0,0.000885,0,0
0:0:56.455,189.792,10.742,0,0.000885,0,0
0:0:56.652,190.673,10.7903,0,0.000885,0,0
0:0:56.853,191.434,10.8317,0,0.000885,0,0
0:0:57.053,192.492,10.8937,0,0.000885,0,0
0:0:57.248,193.369,10.942,0,0.000885,0,0
0:0:57.449,193.662,10.9558,0,0.000885,0,0
0:0:57.646,195.366,11.0523,0,0.000885,0,0
0:0:57.843,195.597,11.0661,0,0.000885,0,0
0:0:58.043,197.359,11.1695,0,0.000885,0,0
0:0:58.235,197.417,11.1695,0,0.000885,0,0
0:0:58.437,198.297,11.2247,0,0.000885,0,0
0:0:58.632,199.645,11.3005,0,0.000885,0,0
0:0:58.828,199.881,11.3143,0,0.000885,0,0
0:0:59.029,201.055,11.3763,0,0.000885,0,0
0:0:59.233,202.345,11.4522,0,0.000885,0,0
0:0:59.433,203.226,11.5005,0,0.000885,0,0
0:0:59.629,203.457,11.5142,0,0.000885,0,0
0:0:59.825,205.099,11.6039,0,0.000885,0,0
0:1:0.026,205.219,11.6108,0,0.000885,0,0
0:1:0.225,206.744,11.7004,0,0.000885,0,0
0:1:0.429,207.269,11.728,0,0.000885,0,0
0:1:0.632,208.208,11.7831,0,0.000885,0,0
0:1:0.832,209.382,11.8452,0,0.000885,0,0
0:1:1.032,210.205,11.8935,0,0.000885,0,0
0:1:1.233,210.436,11.9072,0,0.000885,0,0
0:1:1.432,211.553,11.9693,0,0.000885,0,0
0:1:1.632,212.082,12.0038,0,0.000885,0,0
0:1:1.837,213.194,12.0658,0,0.000885,0,0
0:1:2.036,214.249,12.121,0,0.000885,0,0
0:1:2.234,215.307,12.183,0,0.000885,0,0
0:1:2.427,216.068,12.2244,0,0.000885,0,0
0:1:2.628,217.358,12.3002,0,0.000885,0,0
0:1:2.834,218.239,12.3485,0,0.000885,0,0
0:1:3.033,219.235,12.4037,0,0.000885,0,0
0:1:3.229,219.764,12.4381,0,0.000885,0,0
0:1:3.437,221.228,12.5209,0,0.000885,0,0
0:1:3.637,220.761,12.4933,0,0.000885,0,0
0:1:3.829,222.754,12.6036,0,0.000885,0,0
0:1:4.028,223.341,12.6381,0,0.000885,0,0
0:1:4.226,223.928,12.6726,0,0.000885,0,0
0:1:4.433,225.04,12.7346,0,0.000885,0,0
0:1:4.634,225.569,12.7622,0,0.000885,0,0
0:1:4.839,227.269,12.8587,0,0.000885,0,0
0:1:5.037,227.682,12.8863,0,0.000885,0,0
0:1:5.237,228.794,12.9484,0,0.000885,0,0
0:1:5.440,229.266,12.9759,0,0.000885,0,0
0:1:5.642,230.965,13.0725,0,0.000885,0,0
0:1:5.841,231.085,13.0794,0,0.000885,0,0
0:1:6.042,232.9,13.1828,0,0.000885,0,0
0:1:6.243,233.314,13.2035,0,0.000885,0,0
0:1:6.443,233.959,13.2379,0,0.000885,0,0
0:1:6.644,235.013,13.3,0,0.000885,0,0
0:1:6.841,235.836,13.3483,0,0.000885,0,0
0:1:7.037,236.245,13.3689,0,0.000885,0,0
0:1:7.239,237.771,13.4517,0,0.000885,0,0
0:1:7.434,238.296,13.4861,0,0.000885,0,0
0:1:7.630,239.821,13.5689,0,0.000885,0,0
0:1:7.828,239.999,13.5827,0,0.000885,0,0
0:1:8.035,241.289,13.6516,0,0.000885,0,0
0:1:8.235,242.05,13.6999,0,0.000885,0,0
0:1:8.430,243.34,13.7688,0,0.000885,0,0
0:1:8.628,243.34,13.7688,0,0.000885,0,0
0:1:8.825,243.985,13.8102,0,0.000885,0,0
0:1:9.030,245.101,13.8723,0,0.000885,0,0
0:1:9.234,245.862,13.9136,0,0.000885,0,0
0:1:9.428,246.979,13.9757,0,0.000885,0,0
0:1:9.637,248.091,14.0377,0,0.000885,0,0
0:1:9.838,248.793,14.0791,0,0.000885,0,0
0:1:10.038,249.732,14.1343,0,0.000885,0,0
0:1:10.241,250.733,14.1894,0,0.000885,0,0
0:1:10.442,251.142,14.2101,0,0.000885,0,0
0:1:10.642,253.077,14.3204,0,0.000885,0,0
0:1:10.842,253.255,14.3342,0,0.000885,0,0
0:1:11.043,254.367,14.3963,0,0.000885,0,0
0:1:11.242,255.306,14.4445,0,0.000885,0,0
0:1:11.441,256.244,14.4997,0,0.000885,0,0
0:1:11.637,256.422,14.5135,0,0.000885,0,0
0:1:11.838,257.77,14.5893,0,0.000885,0,0
0:1:12.033,258.295,14.6169,0,0.000885,0,0
0:1:12.229,259.821,14.6996,0,0.000885,0,0
0:1:12.429,260.523,14.741,0,0.000885,0,0
0:1:12.635,261.462,14.7961,0,0.000885,0,0
0:1:12.837,262.463,14.8513,0,0.000885,0,0
0:1:13.041,263.517,14.9134,0,0.000885,0,0
0:1:13.238,264.398,14.9616,0,0.000885,0,0
0:1:13.439,265.746,15.0375,0,0.000885,0,0
0:1:13.630,265.51,15.0237,0,0.000885,0,0
0:1:13.830,266.569,15.0857,0,0.000885,0,0
0:1:14.028,267.796,15.1547,0,0.000885,0,0
0:1:14.235,268.383,15.1892,0,0.000885,0,0
0:1:14.437,269.442,15.2443,0,0.000885,0,0
0:1:14.640,269.38,15.2443,0,0.000885,0,0
0:1:14.838,270.439,15.3064,0,0.000885,0,0
0:1:15.038,271.729,15.3753,0,0.000885,0,0
0:1:15.241,272.547,15.4236,0,0.000885,0,0
0:1:15.441,273.779,15.4925,0,0.000885,0,0
0:1:15.643,274.953,15.5615,0,0.000885,0,0
0:1:15.842,275.421,15.589,0,0.000885,0,0
0:1:16.043,276.186,15.6304,0,0.000885,0,0
0:1:16.243,276.421,15.6442,0,0.000885,0,0
0:1:16.444,278.708,15.7683,0,0.000885,0,0
0:1:16.640,278.708,15.7683,0,0.000885,0,0
0:1:16.836,279.94,15.8442,0,0.000885,0,0
0:1:17.037,281.11,15.9062,0,0.000885,0,0
0:1:17.240,282.342,15.9752,0,0.000885,0,0
0:1:17.440,282.52,15.9889,0,0.000885,0,0
0:1:17.637,283.868,16.0648,0,0.000885,0,0
0:1:17.842,283.926,16.0648,0,0.000885,0,0
0:1:18.043,285.042,16.1268,0,0.000885,0,0
0:1:18.238,285.923,16.182,0,0.000885,0,0
0:1:18.437,286.274,16.2027,0,0.000885,0,0
0:1:18.636,288.151,16.3061,0,0.000885,0,0
0:1:18.828,288.209,16.3061,0,0.000885,0,0
0:1:19.029,290.202,16.4233,0,0.000885,0,0
0:1:19.237,290.144,16.4164,0,0.000885,0,0
0:1:19.442,291.256,16.4785,0,0.000885,0,0
0:1:19.642,292.315,16.5405,0,0.000885,0,0
0:1:19.836,293.311,16.5957,0,0.000885,0,0
0:1:20.035,294.423,16.6577,0,0.000885,0,0
0:1:20.236,295.482,16.7198,0,0.000885,0,0
0:1:20.439,295.598,16.7267,0,0.000885,0,0
0:1:20.639,296.772,16.7956,0,0.000885,0,0
0:1:20.840,297.533,16.837,0,0.000885,0,0
0:1:21.042,298.591,16.8991,0,0.000885,0,0
0:1:21.242,299.53,16.9473,0,0.000885,0,0
0:1:21.442,300.526,17.0094,0,0.000885,0,0
0:1:21.643,300.7,17.0163,0,0.000885,0,0
0:1:21.839,301.696,17.0714,0,0.000885,0,0
0:1:22.037,302.168,17.099,0,0.000885,0,0
0:1:22.237,303.458,17.1748,0,0.000885,0,0
0:1:22.429,304.69,17.2438,0,0.000885,0,0
0:1:22.629,304.748,17.2438,0,0.000885,0,0
0:1:22.825,306.389,17.3403,0,0.000885,0,0
0:1:23.021,306.389,17.3403,0,0.000885,0,0
0:1:23.222,307.973,17.4299,0,0.000885,0,0
0:1:23.438,308.618,17.4644,0,0.000885,0,0
0:1:23.639,309.908,17.5403,0,0.000885,0,0
0:1:23.834,310.259,17.5541,0,0.000885,0,0
0:1:24.042,311.843,17.6437,0,0.000885,0,0
0:1:24.242,312.372,17.6782,0,0.000885,0,0
0:1:24.436,313.72,17.754,0,0.000885,0,0
0:1:24.636,314.485,17.7954,0,0.000885,0,0
0:1:24.832,315.481,17.8505,0,0.000885,0,0
0:1:25.039,316.656,17.9195,0,0.000885,0,0
0:1:25.239,318.355,18.016,0,0.000885,0,0
0:1:25.439,317.946,17.9953,0,0.000885,0,0
0:1:25.642,319.293,18.0712,0,0.000885,0,0
0:1:25.844,320.116,18.1125,0,0.000885,0,0
0:1:26.044,320.935,18.1608,0,0.000885,0,0
0:1:26.244,321.58,18.1953,0,0.000885,0,0
0:1:26.443,322.812,18.2642,0,0.000885,0,0
0:1:26.644,322.99,18.278,0,0.000885,0,0
0:1:26.845,324.338,18.3538,0,0.000885,0,0
0:1:27.037,325.04,18.3952,0,0.000885,0,0
0:1:27.238,326.037,18.4504,0,0.000885,0,0
0:1:27.435,325.979,18.4435,0,0.000885,0,0
0:1:27.629,327.096,18.5124,0,0.000885,0,0
0:1:27.831,328.034,18.5607,0,0.000885,0,0
0:1:28.036,328.973,18.6158,0,0.000885,0,0
0:1:28.235,330.027,18.6779,0,0.000885,0,0
0:1:28.432,330.027,18.6779,0,0.000885,0,0
0:1:28.638,332.14,18.7951,0,0.000885,0,0
0:1:28.839,332.371,18.8089,0,0.000885,0,0
0:1:29.035,334.248,18.9123,0,0.000885,0,0
0:1:29.229,334.484,18.9261,0,0.000885,0,0
0:1:29.430,335.952,19.0088,0,0.000885,0,0
0:1:29.637,336.419,19.0364,0,0.000885,0,0
0:1:29.838,337.3,19.0847,0,0.000885,0,0
0:1:30.038,338.532,19.1536,0,0.000885,0,0
0:1:30.240,339.644,19.2226,0,0.000885,0,0
0:1:30.442,339.938,19.2364,0,0.000885,0,0
0:1:30.643,341.641,19.3329,0,0.000885,0,0
0:1:30.844,342.108,19.3605,0,0.000885,0,0
0:1:31.043,342.753,19.395,0,0.000885,0,0
0:1:31.243,343.398,19.4294,0,0.000885,0,0
0:1:31.444,344.515,19.4984,0,0.000885,0,0
0:1:31.638,344.688,19.5053,0,0.000885,0,0
0:1:31.839,345.742,19.5673,0,0.000885,0,0
0:1:32.036,346.623,19.6156,0,0.000885,0,0
0:1:32.240,347.682,19.6776,0,0.000885,0,0
0:1:32.441,348.62,19.7259,0,0.000885,0,0
0:1:32.635,349.03,19.7535,0,0.000885,0,0
0:1:32.835,350.378,19.8293,0,0.000885,0,0
0:1:33.035,350.671,19.8431,0,0.000885,0,0
0:1:33.240,352.312,19.9396,0,0.000885,0,0
0:1:33.439,353.015,19.9741,0,0.000885,0,0
0:1:33.635,354.19,20.0431,0,0.000885,0,0
0:1:33.831,355.48,20.1189,0,0.000885,0,0
0:1:34.032,356.182,20.1534,0,0.000885,0,0
0:1:34.237,356.948,20.2016,0,0.000885,0,0
0:1:34.437,358.06,20.2637,0,0.000885,0,0
0:1:34.642,358.18,20.2706,0,0.000885,0,0
0:1:34.840,359.176,20.3257,0,0.000885,0,0
0:1:35.041,359.821,20.3602,0,0.000885,0,0
0:1:35.242,361.289,20.443,0,0.000885,0,0
0:1:35.445,362.401,20.505,0,0.000885,0,0
0:1:35.645,363.282,20.5602,0,0.000885,0,0
0:1:35.846,363.811,20.5877,0,0.000885,0,0
0:1:36.045,365.217,20.6636,0,0.000885,0,0
0:1:36.246,365.684,20.6912,0,0.000885,0,0
0:1:36.447,367.152,20.7739,0,0.000885,0,0
0:1:36.644,367.445,20.7946,0,0.000885,0,0
0:1:36.839,368.148,20.836,0,0.000885,0,0
0:1:37.039,369.616,20.9187,0,0.000885,0,0
0:1:37.245,369.616,20.9187,0,0.000885,0,0
0:1:37.442,370.612,20.9739,0,0.000885,0,0
0:1:37.642,371.609,21.029,0,0.000885,0,0
0:1:37.844,372.663,21.0911,0,0.000885,0,0
0:1:38.044,373.37,21.1255,0,0.000885,0,0
0:1:38.242,374.66,21.2014,0,0.000885,0,0
0:1:38.438,374.66,21.2014,0,0.000885,0,0
0:1:38.638,376.244,21.291,0,0.000885,0,0
0:1:38.842,376.831,21.3255,0,0.000885,0,0
0:1:39.041,377.885,21.3806,0,0.000885,0,0
0:1:39.239,379.175,21.4565,0,0.000885,0,0
0:1:39.432,380.23,21.5185,0,0.000885,0,0
0:1:39.632,380.995,21.5599,0,0.000885,0,0
0:1:39.829,382.227,21.6289,0,0.000885,0,0
0:1:40.036,382.285,21.6357,0,0.000885,0,0
0:1:40.237,383.281,21.6909,0,0.000885,0,0
0:1:40.438,384.455,21.753,0,0.000885,0,0
0:1:40.639,385.158,21.7943,0,0.000885,0,0
0:1:40.841,385.452,21.815,0,0.000885,0,0
0:1:41.042,386.915,21.8977,0,0.000885,0,0
0:1:41.242,387.035,21.9046,0,0.000885,0,0
0:1:41.442,388.441,21.9805,0,0.000885,0,0
0:1:41.644,389.437,22.0356,0,0.000885,0,0
0:1:41.841,390.905,22.1184,0,0.000885,0,0
0:1:42.037,391.55,22.1597,0,0.000885,0,0
0:1:42.236,392.022,22.1804,0,0.000885,0,0
0:1:42.431,393.427,22.2632,0,0.000885,0,0
0:1:42.630,393.605,22.2701,0,0.000885,0,0
0:1:42.828,394.833,22.3459,0,0.000885,0,0
0:1:43.032,395.656,22.3873,0,0.000885,0,0
0:1:43.232,396.417,22.4355,0,0.000885,0,0
0:1:43.429,397.182,22.4769,0,0.000885,0,0
0:1:43.638,398.587,22.5528,0,0.000885,0,0
0:1:43.838,399.059,22.5803,0,0.000885,0,0
0:1:44.040,400.464,22.6631,0,0.000885,0,0
0:1:44.241,400.113,22.6424,0,0.000885,0,0
0:1:44.439,402.399,22.7734,0,0.000885,0,0
0:1:44.645,402.751,22.7941,0,0.000885,0,0
0:1:44.845,403.752,22.8492,0,0.000885,0,0
0:1:45.047,404.864,22.9113,0,0.000885,0,0
0:1:45.248,406.212,22.9871,0,0.000885,0,0
0:1:45.450,405.86,22.9664,0,0.000885,0,0
0:1:45.650,407.212,23.0423,0,0.000885,0,0
0:1:45.851,407.915,23.0836,0,0.000885,0,0
0:1:46.050,408.676,23.125,0,0.000885,0,0
0:1:46.251,409.321,23.1595,0,0.000885,0,0
0:1:46.450,411.14,23.2629,0,0.000885,0,0
0:1:46.645,410.904,23.2491,0,0.000885,0,0
0:1:46.845,411.727,23.2974,0,0.000885,0,0
0:1:47.040,412.839,23.3594,0,0.000885,0,0
0:1:47.238,414.014,23.4284,0,0.000885,0,0
0:1:47.437,415.597,23.518,0,0.000885,0,0
0:1:47.640,416.3,23.5594,0,0.000885,0,0
0:1:47.842,417.123,23.6076,0,0.000885,0,0
0:1:48.039,418.062,23.6559,0,0.000885,0,0
0:1:48.232,419.409,23.7318,0,0.000885,0,0
0:1:48.432,419.232,23.7249,0,0.000885,0,0
0:1:48.638,420.526,23.7938,0,0.000885,0,0
0:1:48.837,421.109,23.8283,0,0.000885,0,0
0:1:49.034,421.989,23.8765,0,0.000885,0,0
0:1:49.228,423.279,23.9524,0,0.000885,0,0
0:1:49.429,424.512,24.0213,0,0.000885,0,0
0:1:49.624,425.392,24.0696,0,0.000885,0,0
0:1:49.821,425.277,24.0627,0,0.000885,0,0
0:1:50.022,426.037,24.111,0,0.000885,0,0
0:1:50.224,427.385,24.1868,0,0.000885,0,0
0:1:50.425,428.559,24.2489,0,0.000885,0,0
0:1:50.625,428.559,24.2489,0,0.000885,0,0
0:1:50.826,429.147,24.2833,0,0.000885,0,0
0:1:51.025,430.143,24.3385,0,0.000885,0,0
0:1:51.226,431.433,24.4143,0,0.000885,0,0
0:1:51.426,432.781,24.4902,0,0.000885,0,0
0:1:51.634,433.368,24.5247,0,0.000885,0,0
0:1:51.831,434.013,24.5591,0,0.000885,0,0
0:1:52.030,435.423,24.6419,0,0.000885,0,0
0:1:52.234,436.184,24.6832,0,0.000885,0,0
0:1:52.437,437.3,24.7453,0,0.000885,0,0
0:1:52.643,437.3,24.7453,0,0.000885,0,0
0:1:52.839,439.057,24.8487,0,0.000885,0,0
0:1:53.039,439.529,24.8694,0,0.000885,0,0
0:1:53.232,441.17,24.9659,0,0.000885,0,0
0:1:53.431,442.051,25.0142,0,0.000885,0,0
0:1:53.631,442.754,25.0555,0,0.000885,0,0
0:1:53.834,443.986,25.1245,0,0.000885,0,0
0:1:54.035,444.747,25.1659,0,0.000885,0,0
0:1:54.231,445.569,25.2141,0,0.000885,0,0
0:1:54.439,446.739,25.2831,0,0.000885,0,0
0:1:54.640,446.802,25.2831,0,0.000885,0,0
0:1:54.832,448.207,25.3658,0,0.000885,0,0
0:1:55.032,448.852,25.4003,0,0.000885,0,0
0:1:55.232,448.968,25.4072,0,0.000885,0,0
0:1:55.433,449.906,25.4623,0,0.000885,0,0
0:1:55.635,450.614,25.4968,0,0.000885,0,0
0:1:55.838,451.726,25.5658,0,0.000885,0,0
0:1:56.038,452.664,25.614,0,0.000885,0,0
0:1:56.238,453.954,25.6899,0,0.000885,0,0
0:1:56.435,454.719,25.7312,0,0.000885,0,0
0:1:56.638,456.067,25.8071,0,0.000885,0,0
0:1:56.844,456.299,25.8209,0,0.000885,0,0
0:1:57.043,458.176,25.9243,0,0.000885,0,0
0:1:57.241,458.002,25.9174,0,0.000885,0,0
0:1:57.434,459.114,25.9794,0,0.000885,0,0
0:1:57.635,460.404,26.0553,0,0.000885,0,0
0:1:57.830,461.521,26.1173,0,0.000885,0,0
0:1:58.039,461.636,26.1242,0,0.000885,0,0
0:1:58.235,462.695,26.1863,0,0.000885,0,0
0:1:58.430,463.047,26.2001,0,0.000885,0,0
0:1:58.632,464.452,26.2828,0,0.000885,0,0
0:1:58.828,465.097,26.3173,0,0.000885,0,0
0:1:59.033,466.329,26.3862,0,0.000885,0,0
0:1:59.233,467.446,26.4552,0,0.000885,0,0
0:1:59.429,467.504,26.4552,0,0.000885,0,0
0:1:59.629,469.203,26.5517,0,0.000885,0,0
0:1:59.835,470.671,26.6344,0,0.000885,0,0
0:2:0.043,470.729,26.6344,0,0.000885,0,0
0:2:0.243,471.552,26.6827,0,0.000885,0,0
0:2:0.444,472.721,26.7517,0,0.000885,0,0
0:2:0.646,473.602,26.7999,0,0.000885,0,0
0:2:0.848,474.425,26.8482,0,0.000885,0,0
0:2:1.047,474.95,26.8758,0,0.000885,0,0
0:2:1.248,476.066,26.9378,0,0.000885,0,0
0:2:1.449,476.24,26.9516,0,0.000885,0,0
0:2:1.648,478.295,27.0688,0,0.000885,0,0
0:2:1.848,478.531,27.0826,0,0.000885,0,0
0:2:2.043,480.052,27.1653,0,0.000885,0,0
0:2:2.243,480.933,27.2136,0,0.000885,0,0
0:2:2.440,481.756,27.2619,0,0.000885,0,0
0:2:2.635,482.752,27.317,0,0.000885,0,0
0:2:2.835,483.513,27.3584,0,0.000885,0,0
0:2:3.029,483.926,27.386,0,0.000885,0,0
0:2:3.229,484.451,27.4136,0,0.000885,0,0
0:2:3.435,485.452,27.4687,0,0.000885,0,0
0:2:3.633,486.506,27.5308,0,0.000885,0,0
0:2:3.834,486.916,27.5515,0,0.000885,0,0
0:2:4.039,488.619,27.648,0,0.000885,0,0
0:2:4.240,488.851,27.6618,0,0.000885,0,0
0:2:4.446,490.554,27.7583,0,0.000885,0,0
0:2:4.643,490.848,27.779,0,0.000885,0,0
0:2:4.843,492.899,27.8893,0,0.000885,0,0
0:2:5.044,492.721,27.8824,0,0.000885,0,0
0:2:5.246,493.486,27.9238,0,0.000885,0,0
0:2:5.448,495.011,28.0134,0,0.000885,0,0
0:2:5.648,495.127,28.0203,0,0.000885,0,0
0:2:5.848,496.359,28.0892,0,0.000885,0,0
0:2:6.047,497.004,28.1237,0,0.000885,0,0
0:2:6.249,498.001,28.1789,0,0.000885,0,0
0:2:6.448,498.881,28.234,0,0.000885,0,0
0:2:6.642,499.878,28.2892,0,0.000885,0,0
0:2:6.843,500.229,28.3099,0,0.000885,0,0
0:2:7.041,501.755,28.3926,0,0.000885,0,0
0:2:7.236,502.049,28.4133,0,0.000885,0,0
0:2:7.435,502.751,28.4478,0,0.000885,0,0
0:2:7.641,503.574,28.496,0,0.000885,0,0
0:2:7.841,504.98,28.5788,0,0.000885,0,0
0:2:8.035,505.625,28.6132,0,0.000885,0,0
0:2:8.234,506.684,28.6753,0,0.000885,0,0
0:2:8.432,507.738,28.7305,0,0.000885,0,0
0:2:8.636,508.97,28.7994,0,0.000885,0,0
0:2:8.839,509.851,28.8546,0,0.000885,0,0
0:2:9.045,511.141,28.9235,0,0.000885,0,0
0:2:9.243,512.079,28.9787,0,0.000885,0,0
0:2:9.442,511.901,28.9649,0,0.000885,0,0
0:2:9.633,513.956,29.0821,0,0.000885,0,0
0:2:9.835,514.246,29.1028,0,0.000885,0,0
0:2:10.035,515.068,29.1441,0,0.000885,0,0
0:2:10.239,516.358,29.22,0,0.000885,0,0
0:2:10.440,517.239,29.2682,0,0.000885,0,0
0:2:10.640,517.648,29.2958,0,0.000885,0,0
0:2:10.841,519.059,29.3717,0,0.000885,0,0
0:2:11.040,519.232,29.3855,0,0.000885,0,0
0:2:11.240,520.113,29.4337,0,0.000885,0,0
0:2:11.441,520.994,29.482,0,0.000885,0,0
0:2:11.644,522.048,29.544,0,0.000885,0,0
0:2:11.844,522.163,29.5509,0,0.000885,0,0
0:2:12.042,523.983,29.6544,0,0.000885,0,0
0:2:12.236,524.161,29.6612,0,0.000885,0,0
0:2:12.440,525.508,29.7371,0,0.000885,0,0
0:2:12.643,526.038,29.7647,0,0.000885,0,0
0:2:12.842,527.208,29.8336,0,0.000885,0,0
0:2:13.040,528.44,29.9026,0,0.000885,0,0
0:2:13.234,528.854,29.9301,0,0.000885,0,0
0:2:13.435,529.85,29.9853,0,0.000885,0,0
0:2:13.630,530.317,30.0129,0,0.000885,0,0
0:2:13.839,531.727,30.0887,0,0.000885,0,0
0:2:14.036,531.901,30.1025,0,0.000885,0,0
0:2:14.231,533.662,30.199,0,0.000885,0,0
0:2:14.432,534.129,30.2266,0,0.000885,0,0
0:2:14.628,535.01,30.2749,0,0.000885,0,0
0:2:14.835,535.77,30.3162,0,0.000885,0,0
0:2:15.035,536.593,30.3645,0,0.000885,0,0
0:2:15.237,537.826,30.4335,0,0.000885,0,0
0:2:15.439,539.058,30.5024,0,0.000885,0,0
0:2:15.641,539.409,30.5231,0,0.000885,0,0
0:2:15.842,541.344,30.6334,0,0.000885,0,0
0:2:16.043,541.402,30.6403,0,0.000885,0,0
0:2:16.242,542.047,30.6748,0,0.000885,0,0
0:2:16.443,543.163,30.7368,0,0.000885,0,0
0:2:16.640,544.102,30.792,0,0.000885,0,0
0:2:16.845,544.863,30.8334,0,0.000885,0,0
0:2:17.046,545.859,30.8885,0,0.000885,0,0
0:2:17.248,546.74,30.9368,0,0.000885,0,0
0:2:17.448,547.443,30.9781,0,0.000885,0,0
0:2:17.646,547.914,31.0057,0,0.000885,0,0
0:2:17.842,549.146,31.0747,0,0.000885,0,0
0:2:18.042,549.965,31.1229,0,0.000885,0,0
0:2:18.245,551.023,31.1781,0,0.000885,0,0
0:2:18.444,552.78,31.2815,0,0.000885,0,0
0:2:18.644,553.31,31.3091,0,0.000885,0,0
0:2:18.835,554.48,31.378,0,0.000885,0,0
0:2:19.036,554.364,31.3711,0,0.000885,0,0
0:2:19.232,555.712,31.447,0,0.000885,0,0
0:2:19.442,556.005,31.4608,0,0.000885,0,0
0:2:19.641,556.944,31.5159,0,0.000885,0,0
0:2:19.833,557.94,31.5711,0,0.000885,0,0
0:2:20.033,558.821,31.6263,0,0.000885,0,0
0:2:20.233,559.938,31.6883,0,0.000885,0,0
0:2:20.436,560.992,31.7435,0,0.000885,0,0
0:2:20.636,561.521,31.7779,0,0.000885,0,0
0:2:20.840,562.985,31.8607,0,0.000885,0,0
0:2:21.037,563.398,31.8814,0,0.000885,0,0
0:2:21.240,564.688,31.9572,0,0.000885,0,0
0:2:21.437,565.04,31.9779,0,0.000885,0,0
0:2:21.640,566.388,32.0537,0,0.000885,0,0
0:2:21.834,567.442,32.1089,0,0.000885,0,0
0:2:22.031,567.971,32.1434,0,0.000885,0,0
0:2:22.231,568.732,32.1847,0,0.000885,0,0
0:2:22.425,570.378,32.2744,0,0.000885,0,0
0:2:22.623,570.315,32.2744,0,0.000885,0,0
0:2:22.832,571.432,32.3364,0,0.000885,0,0
0:2:23.030,572.077,32.3709,0,0.000885,0,0
0:2:23.230,573.015,32.426,0,0.000885,0,0
0:2:23.432,573.896,32.4743,0,0.000885,0,0
0:2:23.632,574.483,32.5088,0,0.000885,0,0
0:2:23.831,575.947,32.5915,0,0.000885,0,0
0:2:24.036,577.006,32.6536,0,0.000885,0,0
0:2:24.236,578.295,32.7225,0,0.000885,0,0
0:2:24.442,578.295,32.7225,0,0.000885,0,0
0:2:24.641,579.817,32.8121,0,0.000885,0,0
0:2:24.838,579.937,32.819,0,0.000885,0,0
0:2:25.036,581.049,32.8811,0,0.000885,0,0
0:2:25.235,582.281,32.95,0,0.000885,0,0
0:2:25.436,582.868,32.9845,0,0.000885,0,0
0:2:25.638,583.398,33.0121,0,0.000885,0,0
0:2:25.842,585.333,33.1224,0,0.000885,0,0
0:2:26.042,585.212,33.1155,0,0.000885,0,0
0:2:26.243,586.858,33.212,0,0.000885,0,0
0:2:26.443,587.152,33.2258,0,0.000885,0,0
0:2:26.643,588.558,33.3086,0,0.000885,0,0
0:2:26.841,588.967,33.3293,0,0.000885,0,0
0:2:27.036,590.083,33.3913,0,0.000885,0,0
0:2:27.237,591.195,33.4534,0,0.000885,0,0
0:2:27.442,592.192,33.5085,0,0.000885,0,0
0:2:27.641,593.308,33.5775,0,0.000885,0,0
0:2:27.841,593.895,33.605,0,0.000885,0,0
0:2:28.046,594.598,33.6464,0,0.000885,0,0
0:2:28.248,595.715,33.7085,0,0.000885,0,0
0:2:28.444,595.95,33.7223,0,0.000885,0,0
0:2:28.643,596.595,33.7636,0,0.000885,0,0
0:2:28.843,597.476,33.8119,0,0.000885,0,0
0:2:29.036,598.708,33.8808,0,0.000885,0,0
0:2:29.238,599.473,33.9222,0,0.000885,0,0
0:2:29.436,600.354,33.9705,0,0.000885,0,0
0:2:29.645,601.057,34.0118,0,0.000885,0,0
0:2:29.847,602.525,34.0946,0,0.000885,0,0
0:2:30.050,603.464,34.1497,0,0.000885,0,0
0:2:30.251,603.993,34.1773,0,0.000885,0,0
0:2:30.454,605.812,34.2807,0,0.000885,0,0
0:2:30.654,605.461,34.26,0,0.000885,0,0
0:2:30.855,606.573,34.3221,0,0.000885,0,0
0:2:31.056,607.396,34.3704,0,0.000885,0,0
0:2:31.259,608.161,34.4117,0,0.000885,0,0
0:2:31.456,609.451,34.4876,0,0.000885,0,0
0:2:31.654,610.332,34.5358,0,0.000885,0,0
0:2:31.855,611.564,34.6048,0,0.000885,0,0
0:2:32.050,612.093,34.6393,0,0.000885,0,0
0:2:32.251,612.854,34.6806,0,0.000885,0,0
0:2:32.451,614.442,34.7703,0,0.000885,0,0
0:2:32.648,615.202,34.8116,0,0.000885,0,0
0:2:32.849,616.79,34.9013,0,0.000885,0,0
0:2:33.043,616.67,34.8944,0,0.000885,0,0
0:2:33.243,617.142,34.9219,0,0.000885,0,0
0:2:33.443,617.902,34.9633,0,0.000885,0,0
0:2:33.638,619.077,35.0323,0,0.000885,0,0
0:2:33.839,620.078,35.0874,0,0.000885,0,0
0:2:34.034,620.723,35.1288,0,0.000885,0,0
0:2:34.233,621.955,35.1977,0,0.000885,0,0
0:2:34.434,622.013,35.1977,0,0.000885,0,0
0:2:34.630,623.832,35.3012,0,0.000885,0,0
0:2:34.831,623.654,35.2943,0,0.000885,0,0
0:2:35.033,625.593,35.4046,0,0.000885,0,0
0:2:35.235,625.651,35.4046,0,0.000885,0,0
0:2:35.438,627.297,35.5011,0,0.000885,0,0
0:2:35.641,627.764,35.5218,0,0.000885,0,0
0:2:35.843,629.174,35.6045,0,0.000885,0,0
0:2:36.043,629.526,35.6252,0,0.000885,0,0
0:2:36.244,631.109,35.7148,0,0.000885,0,0
0:2:36.446,631.581,35.7424,0,0.000885,0,0
0:2:36.642,633.049,35.8252,0,0.000885,0,0
0:2:36.844,634.045,35.8803,0,0.000885,0,0
0:2:37.039,634.984,35.9355,0,0.000885,0,0
0:2:37.246,635.513,35.9631,0,0.000885,0,0
0:2:37.448,636.572,36.0251,0,0.000885,0,0
0:2:37.644,636.572,36.0251,0,0.000885,0,0
0:2:37.844,637.51,36.0734,0,0.000885,0,0
0:2:38.044,638.213,36.1147,0,0.000885,0,0
0:2:38.236,639.209,36.1699,0,0.000885,0,0
0:2:38.439,640.384,36.2388,0,0.000885,0,0
0:2:38.647,641.091,36.2802,0,0.000885,0,0
0:2:38.845,641.852,36.3216,0,0.000885,0,0
0:2:39.046,642.559,36.3629,0,0.000885,0,0
0:2:39.239,643.907,36.4388,0,0.000885,0,0
0:2:39.442,644.672,36.4802,0,0.000885,0,0
0:2:39.638,646.433,36.5836,0,0.000885,0,0
0:2:39.835,646.843,36.6043,0,0.000885,0,0
0:2:40.036,647.839,36.6594,0,0.000885,0,0
0:2:40.238,648.253,36.6801,0,0.000885,0,0
0:2:40.443,649.133,36.7353,0,0.000885,0,0
0:2:40.645,650.13,36.7904,0,0.000885,0,0
0:2:40.846,651.246,36.8525,0,0.000885,0,0
0:2:41.049,652.185,36.9076,0,0.000885,0,0
0:2:41.248,653.297,36.9697,0,0.000885,0,0
0:2:41.450,653.884,37.0042,0,0.000885,0,0
0:2:41.648,655.001,37.0662,0,0.000885,0,0
0:2:41.844,654.827,37.0524,0,0.000885,0,0
0:2:42.046,655.939,37.1214,0,0.000885,0,0
0:2:42.243,656.175,37.1352,0,0.000885,0,0
0:2:42.440,657.821,37.2248,0,0.000885,0,0
0:2:42.643,658.875,37.2868,0,0.000885,0,0
0:2:42.846,659.698,37.3282,0,0.000885,0,0
0:2:43.049,660.814,37.3972,0,0.000885,0,0
0:2:43.245,661.459,37.4316,0,0.000885,0,0
0:2:43.442,662.807,37.5075,0,0.000885,0,0
0:2:43.644,663.572,37.5488,0,0.000885,0,0
0:2:43.837,664.217,37.5902,0,0.000885,0,0
0:2:44.036,665.156,37.6385,0,0.000885,0,0
0:2:44.237,665.801,37.6798,0,0.000885,0,0
0:2:44.444,666.917,37.7419,0,0.000885,0,0
0:2:44.646,667.62,37.7764,0,0.000885,0,0
0:2:44.840,668.559,37.8315,0,0.000885,0,0
0:2:45.038,669.853,37.9074,0,0.000885,0,0
0:2:45.239,670.676,37.9556,0,0.000885,0,0
0:2:45.445,672.082,38.0315,0,0.000885,0,0
0:2:45.646,672.26,38.0453,0,0.000885,0,0
0:2:45.847,673.785,38.128,0,0.000885,0,0
0:2:46.048,673.901,38.1349,0,0.000885,0,0
0:2:46.249,675.369,38.2176,0,0.000885,0,0
0:2:46.450,676.014,38.2521,0,0.000885,0,0
0:2:46.652,677.073,38.3142,0,0.000885,0,0
0:2:46.850,677.366,38.328,0,0.000885,0,0
0:2:47.047,678.541,38.3969,0,0.000885,0,0
0:2:47.248,679.537,38.4521,0,0.000885,0,0
0:2:47.443,679.364,38.4452,0,0.000885,0,0
0:2:47.644,681.063,38.5417,0,0.000885,0,0
0:2:47.843,681.121,38.5417,0,0.000885,0,0
0:2:48.036,683.06,38.652,0,0.000885,0,0
0:2:48.239,683.118,38.6589,0,0.000885,0,0
0:2:48.447,684.701,38.7485,0,0.000885,0,0
0:2:48.646,684.764,38.7485,0,0.000885,0,0
0:2:48.845,686.232,38.8313,0,0.000885,0,0
0:2:49.039,686.756,38.8657,0,0.000885,0,0
0:2:49.240,688.167,38.9416,0,0.000885,0,0
0:2:49.439,688.344,38.9554,0,0.000885,0,0
0:2:49.638,689.986,39.045,0,0.000885,0,0
0:2:49.837,690.689,39.0864,0,0.000885,0,0
0:2:50.040,691.805,39.1484,0,0.000885,0,0
0:2:50.246,692.686,39.1967,0,0.000885,0,0
0:2:50.446,693.567,39.245,0,0.000885,0,0
0:2:50.648,694.683,39.3139,0,0.000885,0,0
0:2:50.847,695.622,39.3622,0,0.000885,0,0
0:2:51.048,696.209,39.3966,0,0.000885,0,0
0:2:51.251,697.619,39.4794,0,0.000885,0,0
0:2:51.450,698.264,39.5139,0,0.000885,0,0
0:2:51.646,699.79,39.5966,0,0.000885,0,0
0:2:51.848,699.612,39.5897,0,0.000885,0,0
0:2:52.040,699.732,39.5966,0,0.000885,0,0
0:2:52.240,700.435,39.638,0,0.000885,0,0
0:2:52.440,701.431,39.6931,0,0.000885,0,0
0:2:52.636,702.726,39.769,0,0.000885,0,0
0:2:52.838,704.073,39.8448,0,0.000885,0,0
0:2:53.035,705.132,39.9,0,0.000885,0,0
0:2:53.233,705.893,39.9482,0,0.000885,0,0
0:2:53.435,706.894,40.0034,0,0.000885,0,0
0:2:53.629,707.596,40.0448,0,0.000885,0,0
0:2:53.831,708.477,40.093,0,0.000885,0,0
0:2:54.029,708.886,40.1137,0,0.000885,0,0
0:2:54.234,710.648,40.2171,0,0.000885,0,0
0:2:54.436,711.119,40.2378,0,0.000885,0,0
0:2:54.633,712.174,40.2999,0,0.000885,0,0
0:2:54.832,712.703,40.3274,0,0.000885,0,0
0:2:55.033,714.407,40.424,0,0.000885,0,0
0:2:55.236,714.464,40.4309,0,0.000885,0,0
0:2:55.439,716.399,40.5412,0,0.000885,0,0
0:2:55.640,716.226,40.5274,0,0.000885,0,0
0:2:55.841,718.161,40.6377,0,0.000885,0,0
0:2:56.044,717.987,40.6308,0,0.000885,0,0
0:2:56.244,718.632,40.6653,0,0.000885,0,0
0:2:56.447,719.922,40.7411,0,0.000885,0,0
0:2:56.653,721.333,40.817,0,0.000885,0,0
0:2:56.852,721.39,40.8239,0,0.000885,0,0
0:2:57.053,722.155,40.8652,0,0.000885,0,0
0:2:57.247,723.388,40.9342,0,0.000885,0,0
0:2:57.448,723.975,40.9686,0,0.000885,0,0
0:2:57.646,725.5,41.0583,0,0.000885,0,0
0:2:57.841,725.616,41.0583,0,0.000885,0,0
0:2:58.046,727.2,41.1479,0,0.000885,0,0
0:2:58.238,727.493,41.1686,0,0.000885,0,0
0:2:58.439,728.258,41.21,0,0.000885,0,0
0:2:58.637,729.962,41.3065,0,0.000885,0,0
0:2:58.844,730.665,41.3479,0,0.000885,0,0
0:2:59.046,731.897,41.4168,0,0.000885,0,0
0:2:59.240,732.662,41.4582,0,0.000885,0,0
0:2:59.438,733.601,41.5133,0,0.000885,0,0
0:2:59.639,734.424,41.5616,0,0.000885,0,0
0:2:59.845,735.3,41.6099,0,0.000885,0,0
0:3:0.046,736.301,41.665,0,0.000885,0,0
0:3:0.248,736.768,41.6926,0,0.000885,0,0
0:3:0.451,738.178,41.7753,0,0.000885,0,0
0:3:0.654,738.529,41.7891,0,0.000885,0,0
0:3:0.855,739.997,41.8788,0,0.000885,0,0
0:3:1.056,740.349,41.8925,0,0.000885,0,0
0:3:1.257,741.407,41.9546,0,0.000885,0,0
0:3:1.458,741.995,41.9891,0,0.000885,0,0
0:3:1.659,743.405,42.0649,0,0.000885,0,0
0:3:1.854,743.284,42.058,0,0.000885,0,0
0:3:2.055,744.343,42.1201,0,0.000885,0,0
0:3:2.253,745.224,42.1683,0,0.000885,0,0
0:3:2.449,746.398,42.2373,0,0.000885,0,0
0:3:2.651,747.275,42.2855,0,0.000885,0,0
0:3:2.847,748.04,42.3338,0,0.000885,0,0
0:3:3.046,749.45,42.4097,0,0.000885,0,0
0:3:3.247,749.508,42.4165,0,0.000885,0,0
0:3:3.440,751.211,42.5131,0,0.000885,0,0
0:3:3.644,751.443,42.52,0,0.000885,0,0
0:3:3.838,752.968,42.6096,0,0.000885,0,0
0:3:4.048,753.791,42.6579,0,0.000885,0,0
0:3:4.250,754.73,42.7061,0,0.000885,0,0
0:3:4.454,755.086,42.7268,0,0.000885,0,0
0:3:4.654,756.255,42.7958,0,0.000885,0,0
0:3:4.852,756.669,42.8164,0,0.000885,0,0
0:3:5.048,757.844,42.8854,0,0.000885,0,0
0:3:5.250,758.079,42.8992,0,0.000885,0,0
0:3:5.451,759.311,42.9681,0,0.000885,0,0
0:3:5.655,760.25,43.0233,0,0.000885,0,0
0:3:5.857,761.131,43.0715,0,0.000885,0,0
0:3:6.058,762.421,43.1474,0,0.000885,0,0
0:3:6.259,763.653,43.2163,0,0.000885,0,0
0:3:6.461,763.889,43.2301,0,0.000885,0,0
0:3:6.663,765.944,43.3404,0,0.000885,0,0
0:3:6.862,765.708,43.3335,0,0.000885,0,0
0:3:7.059,767.06,43.4094,0,0.000885,0,0
0:3:7.260,767.412,43.4232,0,0.000885,0,0
0:3:7.457,768.817,43.5059,0,0.000885,0,0
0:3:7.656,769.173,43.5266,0,0.000885,0,0
0:3:7.856,770.463,43.6024,0,0.000885,0,0
0:3:8.051,771.224,43.6438,0,0.000885,0,0
0:3:8.252,772.047,43.6921,0,0.000885,0,0
0:3:8.451,772.927,43.7403,0,0.000885,0,0
0:3:8.648,773.866,43.7886,0,0.000885,0,0
0:3:8.849,775.098,43.8644,0,0.000885,0,0
0:3:9.053,775.512,43.8851,0,0.000885,0,0
0:3:9.255,777.038,43.9679,0,0.000885,0,0
0:3:9.451,777.095,43.9748,0,0.000885,0,0
0:3:9.651,778.27,44.0437,0,0.000885,0,0
0:3:9.853,778.448,44.0506,0,0.000885,0,0
0:3:10.056,780.205,44.154,0,0.000885,0,0
0:3:10.258,779.973,44.1402,0,0.000885,0,0
0:3:10.459,781.557,44.2299,0,0.000885,0,0
0:3:10.661,782.789,44.2988,0,0.000885,0,0
0:3:10.863,783.906,44.3609,0,0.000885,0,0
0:3:11.064,784.315,44.3816,0,0.000885,0,0
0:3:11.266,785.253,44.4367,0,0.000885,0,0
0:3:11.463,786.721,44.5194,0,0.000885,0,0
0:3:11.661,788.074,44.5953,0,0.000885,0,0
0:3:11.862,788.131,44.6022,0,0.000885,0,0
0:3:12.058,789.128,44.6573,0,0.000885,0,0
0:3:12.259,790.129,44.7125,0,0.000885,0,0
0:3:12.456,791.303,44.7814,0,0.000885,0,0
0:3:12.653,791.534,44.7883,0,0.000885,0,0
0:3:12.855,792.829,44.8642,0,0.000885,0,0
0:3:13.051,793.474,44.8987,0,0.000885,0,0
0:3:13.251,794.003,44.9331,0,0.000885,0,0
0:3:13.451,794.59,44.9676,0,0.000885,0,0
0:3:13.646,795.293,45.0021,0,0.000885,0,0
0:3:13.848,796.641,45.0779,0,0.000885,0,0
0:3:14.043,797.642,45.14,0,0.000885,0,0
0:3:14.241,798.345,45.1744,0,0.000885,0,0
0:3:14.442,798.638,45.1951,0,0.000885,0,0
0:3:14.636,799.519,45.2434,0,0.000885,0,0
0:3:14.839,801.223,45.3399,0,0.000885,0,0
0:3:15.037,801.16,45.3399,0,0.000885,0,0
0:3:15.241,802.864,45.4296,0,0.000885,0,0
0:3:15.443,803.803,45.4847,0,0.000885,0,0
0:3:15.647,804.683,45.533,0,0.000885,0,0
0:3:15.847,805.328,45.5743,0,0.000885,0,0
0:3:16.048,806.503,45.6364,0,0.000885,0,0
0:3:16.247,807.268,45.6847,0,0.000885,0,0
0:3:16.449,807.971,45.7191,0,0.000885,0,0
0:3:16.654,809.087,45.7881,0,0.000885,0,0
0:3:16.857,810.083,45.8432,0,0.000885,0,0
0:3:17.054,810.141,45.8432,0,0.000885,0,0
0:3:17.253,811.494,45.9191,0,0.000885,0,0
0:3:17.454,812.432,45.9742,0,0.000885,0,0
0:3:17.649,814.016,46.0639,0,0.000885,0,0
0:3:17.849,814.016,46.0639,0,0.000885,0,0
0:3:18.049,815.426,46.1466,0,0.000885,0,0
0:3:18.254,816.716,46.2156,0,0.000885,0,0
0:3:18.456,817.596,46.2638,0,0.000885,0,0
0:3:18.651,818.246,46.3052,0,0.000885,0,0
0:3:18.851,818.891,46.3397,0,0.000885,0,0
0:3:19.050,820.065,46.4086,0,0.000885,0,0
0:3:19.247,821.062,46.4638,0,0.000885,0,0
0:3:19.448,821.827,46.5051,0,0.000885,0,0
0:3:19.642,822.703,46.5534,0,0.000885,0,0
0:3:19.841,822.703,46.5534,0,0.000885,0,0
0:3:20.042,824.349,46.6499,0,0.000885,0,0
0:3:20.247,824.758,46.6706,0,0.000885,0,0
0:3:20.450,825.932,46.7396,0,0.000885,0,0
0:3:20.651,826.871,46.7947,0,0.000885,0,0
0:3:20.853,827.165,46.8085,0,0.000885,0,0
0:3:21.054,828.165,46.8637,0,0.000885,0,0
0:3:21.254,829.455,46.9395,0,0.000885,0,0
0:3:21.457,830.923,47.0222,0,0.000885,0,0
0:3:21.654,830.745,47.0085,0,0.000885,0,0
0:3:21.852,832.565,47.1119,0,0.000885,0,0
0:3:22.052,833.152,47.1464,0,0.000885,0,0
0:3:22.249,834.326,47.2153,0,0.000885,0,0
0:3:22.450,834.326,47.2153,0,0.000885,0,0
0:3:22.647,835.385,47.2705,0,0.000885,0,0
0:3:22.842,836.675,47.3463,0,0.000885,0,0
0:3:23.043,837.146,47.3739,0,0.000885,0,0
0:3:23.238,838.258,47.4359,0,0.000885,0,0
0:3:23.440,838.788,47.4635,0,0.000885,0,0
0:3:23.638,839.846,47.5256,0,0.000885,0,0
0:3:23.835,841.43,47.6152,0,0.000885,0,0
0:3:24.035,841.608,47.6221,0,0.000885,0,0
0:3:24.239,843.427,47.7255,0,0.000885,0,0
0:3:24.441,843.779,47.7462,0,0.000885,0,0
0:3:24.641,844.308,47.7807,0,0.000885,0,0
0:3:24.837,845.54,47.8496,0,0.000885,0,0
0:3:25.038,845.54,47.8496,0,0.000885,0,0
0:3:25.239,847.302,47.9461,0,0.000885,0,0
0:3:25.443,848.476,48.0151,0,0.000885,0,0
0:3:25.647,849.059,48.0496,0,0.000885,0,0
0:3:25.849,849.588,48.0771,0,0.000885,0,0
0:3:26.051,850.411,48.1254,0,0.000885,0,0
0:3:26.251,851.585,48.1875,0,0.000885,0,0
0:3:26.453,851.995,48.215,0,0.000885,0,0
0:3:26.654,852.64,48.2495,0,0.000885,0,0
0:3:26.850,854.637,48.3598,0,0.000885,0,0
0:3:27.052,854.752,48.3667,0,0.000885,0,0
0:3:27.244,856.398,48.4632,0,0.000885,0,0
0:3:27.444,856.87,48.4908,0,0.000885,0,0
0:3:27.647,857.688,48.5322,0,0.000885,0,0
0:3:27.851,858.747,48.5942,0,0.000885,0,0
0:3:28.053,859.743,48.6494,0,0.000885,0,0
0:3:28.250,860.566,48.6977,0,0.000885,0,0
0:3:28.449,862.208,48.7942,0,0.000885,0,0
0:3:28.650,862.737,48.8218,0,0.000885,0,0
0:3:28.854,863.151,48.8425,0,0.000885,0,0
0:3:29.055,864.031,48.8907,0,0.000885,0,0
0:3:29.253,864.908,48.9459,0,0.000885,0,0
0:3:29.452,865.909,49.001,0,0.000885,0,0
0:3:29.652,866.376,49.0286,0,0.000885,0,0
0:3:29.848,867.492,49.0907,0,0.000885,0,0
0:3:30.049,867.964,49.1183,0,0.000885,0,0
0:3:30.251,869.369,49.1941,0,0.000885,0,0
0:3:30.454,869.899,49.2286,0,0.000885,0,0
0:3:30.657,871.545,49.3182,0,0.000885,0,0
0:3:30.857,871.896,49.3389,0,0.000885,0,0
0:3:31.059,872.541,49.3734,0,0.000885,0,0
0:3:31.259,873.186,49.4147,0,0.000885,0,0
0:3:31.460,873.889,49.4492,0,0.000885,0,0
0:3:31.662,875.241,49.5319,0,0.000885,0,0
0:3:31.859,876.002,49.5733,0,0.000885,0,0
0:3:32.058,876.651,49.6078,0,0.000885,0,0
0:3:32.257,878.177,49.6974,0,0.000885,0,0
0:3:32.454,878.35,49.7043,0,0.000885,0,0
0:3:32.656,879.645,49.7801,0,0.000885,0,0
0:3:32.852,880.348,49.8146,0,0.000885,0,0
0:3:33.053,882.051,49.9111,0,0.000885,0,0
0:3:33.251,882.638,49.9456,0,0.000885,0,0
0:3:33.445,883.813,50.0146,0,0.000885,0,0
0:3:33.648,884.867,50.0766,0,0.000885,0,0
0:3:33.842,885.276,50.0973,0,0.000885,0,0
0:3:34.042,885.983,50.1387,0,0.000885,0,0
0:3:34.242,887.038,50.1938,0,0.000885,0,0
0:3:34.439,888.332,50.2697,0,0.000885,0,0
0:3:34.641,888.741,50.2904,0,0.000885,0,0
0:3:34.844,889.973,50.3593,0,0.000885,0,0
0:3:35.044,890.503,50.3938,0,0.000885,0,0
0:3:35.245,891.619,50.4558,0,0.000885,0,0
0:3:35.451,891.971,50.4765,0,0.000885,0,0
0:3:35.654,893.554,50.5661,0,0.000885,0,0
0:3:35.856,894.084,50.5937,0,0.000885,0,0
0:3:36.056,894.844,50.6351,0,0.000885,0,0
0:3:36.258,895.725,50.6903,0,0.000885,0,0
0:3:36.459,896.548,50.7316,0,0.000885,0,0
0:3:36.661,897.78,50.8075,0,0.000885,0,0
0:3:36.858,898.545,50.8488,0,0.000885,0,0
0:3:37.057,899.777,50.9178,0,0.000885,0,0
0:3:37.258,900.244,50.9454,0,0.000885,0,0
0:3:37.452,901.067,50.9867,0,0.000885,0,0
0:3:37.654,902.006,51.0419,0,0.000885,0,0
0:3:37.852,902.655,51.0764,0,0.000885,0,0
0:3:38.045,903.532,51.1315,0,0.000885,0,0
0:3:38.249,904.297,51.1729,0,0.000885,0,0
0:3:38.444,905.178,51.2212,0,0.000885,0,0
0:3:38.643,905.823,51.2625,0,0.000885,0,0
0:3:38.842,906.525,51.297,0,0.000885,0,0
0:3:39.038,908.229,51.3935,0,0.000885,0,0
0:3:39.239,908.994,51.4418,0,0.000885,0,0
0:3:39.437,909.99,51.4969,0,0.000885,0,0
0:3:39.635,910.813,51.5383,0,0.000885,0,0
0:3:39.836,911.636,51.5866,0,0.000885,0,0
0:3:40.039,912.339,51.6279,0,0.000885,0,0
0:3:40.243,913.687,51.7038,0,0.000885,0,0
0:3:40.443,913.807,51.7107,0,0.000885,0,0
0:3:40.645,915.8,51.821,0,0.000885,0,0
0:3:40.845,916.271,51.8486,0,0.000885,0,0
0:3:41.046,916.329,51.8555,0,0.000885,0,0
0:3:41.249,916.974,51.8899,0,0.000885,0,0
0:3:41.449,918.091,51.952,0,0.000885,0,0
0:3:41.654,919.265,52.0209,0,0.000885,0,0
0:3:41.855,920.617,52.0968,0,0.000885,0,0
0:3:42.051,921.027,52.1175,0,0.000885,0,0
0:3:42.250,922.552,52.2071,0,0.000885,0,0
0:3:42.451,923.082,52.2347,0,0.000885,0,0
0:3:42.644,924.136,52.2967,0,0.000885,0,0
0:3:42.845,925.074,52.3519,0,0.000885,0,0
0:3:43.043,926.191,52.4139,0,0.000885,0,0
0:3:43.240,926.836,52.4484,0,0.000885,0,0
0:3:43.441,927.543,52.4898,0,0.000885,0,0
0:3:43.646,928.482,52.5381,0,0.000885,0,0
0:3:43.846,929.011,52.5725,0,0.000885,0,0
0:3:44.056,930.007,52.6277,0,0.000885,0,0
0:3:44.254,930.71,52.6691,0,0.000885,0,0
0:3:44.456,932.178,52.7518,0,0.000885,0,0
0:3:44.651,932.708,52.7794,0,0.000885,0,0
0:3:44.852,933.353,52.8138,0,0.000885,0,0
0:3:45.054,934.118,52.8621,0,0.000885,0,0
0:3:45.258,935.701,52.9517,0,0.000885,0,0
0:3:45.458,935.879,52.9586,0,0.000885,0,0
0:3:45.660,937.463,53.0483,0,0.000885,0,0
0:3:45.862,937.756,53.0689,0,0.000885,0,0
0:3:46.064,939.282,53.1517,0,0.000885,0,0
0:3:46.265,939.633,53.1724,0,0.000885,0,0
0:3:46.466,940.866,53.2413,0,0.000885,0,0
0:3:46.664,941.573,53.2827,0,0.000885,0,0
0:3:46.863,942.391,53.3309,0,0.000885,0,0
0:3:47.063,942.921,53.3585,0,0.000885,0,0
0:3:47.257,944.037,53.4206,0,0.000885,0,0
0:3:47.459,944.918,53.4688,0,0.000885,0,0
0:3:47.655,946.737,53.5723,0,0.000885,0,0
0:3:47.855,946.973,53.5861,0,0.000885,0,0
0:3:48.056,948.436,53.6688,0,0.000885,0,0
0:3:48.250,948.966,53.7033,0,0.000885,0,0
0:3:48.452,949.437,53.7239,0,0.000885,0,0
0:3:48.650,950.554,53.7929,0,0.000885,0,0
0:3:48.845,950.905,53.8136,0,0.000885,0,0
0:3:49.047,951.844,53.8618,0,0.000885,0,0
0:3:49.253,952.782,53.917,0,0.000885,0,0
0:3:49.453,954.015,53.9859,0,0.000885,0,0
0:3:49.652,954.602,54.0204,0,0.000885,0,0
0:3:49.846,955.482,54.0687,0,0.000885,0,0
0:3:50.050,955.954,54.0963,0,0.000885,0,0
0:3:50.252,957.128,54.1652,0,0.000885,0,0
0:3:50.456,957.36,54.1721,0,0.000885,0,0
0:3:50.659,958.828,54.2617,0,0.000885,0,0
0:3:50.860,959.179,54.2755,0,0.000885,0,0
0:3:51.061,960.94,54.379,0,0.000885,0,0
0:3:51.263,962.057,54.441,0,0.000885,0,0
0:3:51.465,963.467,54.5237,0,0.000885,0,0
0:3:51.664,963.173,54.5031,0,0.000885,0,0
0:3:51.860,964.873,54.5996,0,0.000885,0,0
0:3:52.061,964.699,54.5927,0,0.000885,0,0
0:3:52.260,966.047,54.6685,0,0.000885,0,0
0:3:52.457,967.279,54.7375,0,0.000885,0,0
0:3:52.659,968.338,54.7995,0,0.000885,0,0
0:3:52.852,969.161,54.8409,0,0.000885,0,0
0:3:53.052,969.103,54.8409,0,0.000885,0,0
0:3:53.253,969.921,54.8892,0,0.000885,0,0
0:3:53.456,970.802,54.9374,0,0.000885,0,0
0:3:53.658,971.567,54.9788,0,0.000885,0,0
0:3:53.855,972.212,55.0133,0,0.000885,0,0
0:3:54.052,973.151,55.0684,0,0.000885,0,0
0:3:54.254,974.325,55.1374,0,0.000885,0,0
0:3:54.450,974.854,55.165,0,0.000885,0,0
0:3:54.652,975.615,55.2063,0,0.000885,0,0
0:3:54.847,976.732,55.2684,0,0.000885,0,0
0:3:55.056,977.261,55.3028,0,0.000885,0,0
0:3:55.257,978.315,55.358,0,0.000885,0,0
0:3:55.459,978.435,55.3649,0,0.000885,0,0
0:3:55.663,980.197,55.4683,0,0.000885,0,0
0:3:55.864,980.312,55.4752,0,0.000885,0,0
0:3:56.065,980.548,55.489,0,0.000885,0,0
0:3:56.267,980.784,55.5028,0,0.000885,0,0
0:3:56.466,980.842,55.5028,0,0.000885,0,0
0:3:56.668,980.664,55.4959,0,0.000885,0,0
0:3:56.866,979.254,55.4132,0,0.000885,0,0
0:3:57.061,978.022,55.3442,0,0.000885,0,0
0:3:57.263,971.096,54.9512,0,0.000885,0,0
0:3:57.460,961.061,54.3858,0,0.000885,0,0
0:3:57.646,856.808,48.4839,0,0.000885,0,0