File: DataFile2021-06-29_074636.csv
Test ID:,Date Tested:,Time:,Test Type:,Diameter Avg. (mm):,Cyl. Corr. Factor:,Height (mm):,Age (days):,Weight (kN):,Break Type:,Ramp Rate (MPa/s):,Load at Break (kN):,Stress at Break (MPa):
12,6/29/2021,07:46,Cylinder,150,1,300,0,3.6,3,0.23,412.37,23.34
Sample Time,Load (kN),Stress (MPa),Long. Strain,Trans. Strain,Chan1 Deflection (mm),Chan2 Deflection (mm)
0:0:12.686,5.21776,0.296475,0,0.000885,0,0
0:0:12.784,6.39209,0.358527,0,0.000885,0,0
0:0:12.884,6.39209,0.358527,0,0.000885,0,0
0:0:12.986,7.27284,0.413685,0,0.000885,0,0
0:0:13.087,8.97206,0.510212,0,0.000885,0,0
0:0:13.185,10.907,0.620528,0,0.000885,0,0
0:0:13.283,10.907,0.620528,0,0.000885,0,0
0:0:13.384,11.6143,0.655002,0,0.000885,0,0
0:0:13.485,11.73,0.661897,0,0.000885,0,0
0:0:13.585,11.3207,0.641212,0,0.000885,0,0
0:0:13.681,11.3207,0.641212,0,0.000885,0,0
0:0:13.778,11.9079,0.675686,0,0.000885,0,0
0:0:13.877,11.9079,0.675686,0,0.000885,0,0
0:0:13.979,11.7878,0.668791,0,0.000885,0,0
0:0:14.079,11.7878,0.668791,0,0.000885,0,0
0:0:14.176,11.4364,0.648107,0,0.000885,0,0
0:0:14.275,11.9657,0.675686,0,0.000885,0,0
0:0:14.375,12.0235,0.682581,0,0.000885,0,0
0:0:14.475,12.0235,0.682581,0,0.000885,0,0
0:0:14.577,12.7842,0.72395,0,0.000885,0,0
0:0:14.676,12.9043,0.730844,0,0.000885,0,0
0:0:14.772,12.9043,0.730844,0,0.000885,0,0
0:0:14.871,14.0742,0.799792,0,0.000885,0,0
0:0:14.973,14.5457,0.820476,0,0.000885,0,0
0:0:15.074,14.7192,0.834266,0,0.000885,0,0
0:0:15.173,14.7192,0.834266,0,0.000885,0,0
0:0:15.270,15.4843,0.875634,0,0.000885,0,0
0:0:15.369,16.5385,0.937687,0,0.000885,0,0
0:0:15.470,17.2413,0.979056,0,0.000885,0,0
0:0:15.572,17.2413,0.979056,0,0.000885,0,0
0:0:15.672,18.2422,1.03421,0,0.000885,0,0
0:0:15.768,18.5936,1.0549,0,0.000885,0,0
0:0:15.866,18.945,1.06869,0,0.000885,0,0
0:0:15.967,18.945,1.06869,0,0.000885,0,0
0:0:16.068,19.2386,1.08937,0,0.000885,0,0
0:0:16.169,20.235,1.14453,0,0.000885,0,0
0:0:16.275,20.3506,1.15142,0,0.000885,0,0
0:0:16.372,20.3506,1.15142,0,0.000885,0,0
0:0:16.473,20.7643,1.17211,0,0.000885,0,0
0:0:16.576,21.7029,1.22727,0,0.000885,0,0
0:0:16.676,22.1699,1.25485,0,0.000885,0,0
0:0:16.773,22.1699,1.25485,0,0.000885,0,0
0:0:16.870,22.5792,1.27553,0,0.000885,0,0
0:0:16.971,23.0507,1.30311,0,0.000885,0,0
0:0:17.072,23.0507,1.30311,0,0.000885,0,0
0:0:17.173,23.7535,1.34448,0,0.000885,0,0
0:0:17.271,24.6343,1.39274,0,0.000885,0,0
0:0:17.368,25.1013,1.42032,0,0.000885,0,0
0:0:17.468,25.1013,1.42032,0,0.000885,0,0
0:0:17.570,25.8041,1.46169,0,0.000885,0,0
0:0:17.671,26.5692,1.50306,0,0.000885,0,0
0:0:17.770,27.1564,1.53753,0,0.000885,0,0
0:0:17.866,27.1564,1.53753,0,0.000885,0,0
0:0:17.966,28.0371,1.58579,0,0.000885,0,0
0:0:18.067,28.6199,1.62027,0,0.000885,0,0
0:0:18.168,29.5006,1.66853,0,0.000885,0,0
0:0:18.268,29.5006,1.66853,0,0.000885,0,0
0:0:18.369,30.2657,1.7099,0,0.000885,0,0
0:0:18.471,31.3199,1.77195,0,0.000885,0,0
0:0:18.573,31.4356,1.77885,0,0.000885,0,0
0:0:18.674,31.4356,1.77885,0,0.000885,0,0
0:0:18.776,32.6099,1.84779,0,0.000885,0,0
0:0:18.877,33.3127,1.88227,0,0.000885,0,0
0:0:18.979,34.3714,1.94432,0,0.000885,0,0
0:0:19.078,34.3714,1.94432,0,0.000885,0,0
0:0:19.178,34.4871,1.95122,0,0.000885,0,0
0:0:19.281,35.5991,2.01327,0,0.000885,0,0
0:0:19.381,35.5991,2.01327,0,0.000885,0,0
0:0:19.483,36.1285,2.04774,0,0.000885,0,0
0:0:19.584,36.3642,2.05464,0,0.000885,0,0
0:0:19.686,37.245,2.1098,0,0.000885,0,0
0:0:19.787,37.7698,2.13737,0,0.000885,0,0
0:0:19.886,37.7698,2.13737,0,0.000885,0,0
0:0:19.984,38.5349,2.17874,0,0.000885,0,0
0:0:20.084,39.3534,2.22701,0,0.000885,0,0
0:0:20.185,39.3534,2.22701,0,0.000885,0,0
0:0:20.285,39.8249,2.25459,0,0.000885,0,0
0:0:20.383,40.3498,2.28216,0,0.000885,0,0
0:0:20.481,41.2306,2.33043,0,0.000885,0,0
0:0:20.578,41.2306,2.33043,0,0.000885,0,0
0:0:20.681,41.8756,2.3718,0,0.000885,0,0
0:0:20.783,42.3471,2.39938,0,0.000885,0,0
0:0:20.882,43.0499,2.43385,0,0.000885,0,0
0:0:20.977,43.0499,2.43385,0,0.000885,0,0
0:0:21.077,43.5792,2.46832,0,0.000885,0,0
0:0:21.178,44.3977,2.50969,0,0.000885,0,0
0:0:21.279,44.8069,2.53727,0,0.000885,0,0
0:0:21.377,44.8069,2.53727,0,0.000885,0,0
0:0:21.474,45.1628,2.55795,0,0.000885,0,0
0:0:21.575,45.572,2.57864,0,0.000885,0,0
0:0:21.674,45.572,2.57864,0,0.000885,0,0
0:0:21.776,46.2748,2.62001,0,0.000885,0,0
0:0:21.877,46.7464,2.64759,0,0.000885,0,0
0:0:21.973,47.2134,2.67517,0,0.000885,0,0
0:0:22.072,47.2134,2.67517,0,0.000885,0,0
0:0:22.173,48.0942,2.72343,0,0.000885,0,0
0:0:22.274,48.3299,2.73722,0,0.000885,0,0
0:0:22.374,48.797,2.7648,0,0.000885,0,0
0:0:22.470,48.797,2.7648,0,0.000885,0,0
0:0:22.569,49.2062,2.78548,0,0.000885,0,0
0:0:22.670,49.7934,2.81996,0,0.000885,0,0
0:0:22.771,50.2026,2.84064,0,0.000885,0,0
0:0:22.870,50.2026,2.84064,0,0.000885,0,0
0:0:22.972,50.5585,2.86132,0,0.000885,0,0
0:0:23.073,51.2035,2.8958,0,0.000885,0,0
0:0:23.176,51.0834,2.8889,0,0.000885,0,0
0:0:23.276,51.0834,2.8889,0,0.000885,0,0
0:0:23.378,52.1421,2.95096,0,0.000885,0,0
0:0:23.479,53.1385,3.00611,0,0.000885,0,0
0:0:23.582,53.7256,3.04059,0,0.000885,0,0
0:0:23.683,53.7256,3.04059,0,0.000885,0,0
0:0:23.784,53.8991,3.04748,0,0.000885,0,0
0:0:23.884,54.4284,3.08196,0,0.000885,0,0
0:0:23.985,54.9533,3.10954,0,0.000885,0,0
0:0:24.086,54.9533,3.10954,0,0.000885,0,0
0:0:24.187,56.0698,3.17159,0,0.000885,0,0
0:0:24.288,56.3634,3.19227,0,0.000885,0,0
0:0:24.390,57.0662,3.22675,0,0.000885,0,0
0:0:24.487,57.0662,3.22675,0,0.000885,0,0
0:0:24.585,57.7112,3.26811,0,0.000885,0,0
0:0:24.685,58.2984,3.29569,0,0.000885,0,0
0:0:24.786,58.2984,3.29569,0,0.000885,0,0
0:0:24.887,58.7699,3.32327,0,0.000885,0,0
0:0:24.986,59.3526,3.35775,0,0.000885,0,0
0:0:25.085,59.8241,3.38533,0,0.000885,0,0
0:0:25.182,59.8241,3.38533,0,0.000885,0,0
0:0:25.284,60.9985,3.45427,0,0.000885,0,0
0:0:25.385,61.937,3.50254,0,0.000885,0,0
0:0:25.484,62.4619,3.53701,0,0.000885,0,0
0:0:25.581,62.4619,3.53701,0,0.000885,0,0
0:0:25.679,63.227,3.57838,0,0.000885,0,0
0:0:25.781,63.6363,3.59906,0,0.000885,0,0
0:0:25.883,64.517,3.65422,0,0.000885,0,0
0:0:25.983,64.517,3.65422,0,0.000885,0,0
0:0:26.079,64.9841,3.67491,0,0.000885,0,0
0:0:26.178,65.5134,3.70938,0,0.000885,0,0
0:0:26.279,65.5134,3.70938,0,0.000885,0,0
0:0:26.381,66.3942,3.75764,0,0.000885,0,0
0:0:26.481,66.7456,3.77833,0,0.000885,0,0
0:0:26.578,67.6219,3.82659,0,0.000885,0,0
0:0:26.674,67.6219,3.82659,0,0.000885,0,0
0:0:26.775,67.742,3.83349,0,0.000885,0,0
0:0:26.877,68.5026,3.87485,0,0.000885,0,0
0:0:26.977,68.9741,3.90243,0,0.000885,0,0
0:0:27.075,68.9741,3.90243,0,0.000885,0,0
0:0:27.173,69.7348,3.9438,0,0.000885,0,0
0:0:27.274,69.9705,3.95759,0,0.000885,0,0
0:0:27.375,70.8513,4.00585,0,0.000885,0,0
0:0:27.476,70.8513,4.00585,0,0.000885,0,0
0:0:27.574,70.9091,4.01275,0,0.000885,0,0
0:0:27.671,72.1991,4.08859,0,0.000885,0,0
0:0:27.771,72.2569,4.08859,0,0.000885,0,0
0:0:27.872,72.2569,4.08859,0,0.000885,0,0
0:0:27.973,73.3734,4.15064,0,0.000885,0,0
0:0:28.075,73.6047,4.16443,0,0.000885,0,0
0:0:28.175,74.1919,4.19891,0,0.000885,0,0
0:0:28.278,74.1919,4.19891,0,0.000885,0,0
0:0:28.379,74.6056,4.21959,0,0.000885,0,0
0:0:28.482,75.1883,4.25407,0,0.000885,0,0
0:0:28.583,75.3662,4.26785,0,0.000885,0,0
0:0:28.685,75.3662,4.26785,0,0.000885,0,0
0:0:28.785,76.4783,4.32991,0,0.000885,0,0
0:0:28.887,77.0076,4.35749,0,0.000885,0,0
0:0:28.986,77.537,4.38507,0,0.000885,0,0
0:0:29.088,77.537,4.38507,0,0.000885,0,0
0:0:29.187,78.4755,4.44022,0,0.000885,0,0
0:0:29.289,78.7691,4.45401,0,0.000885,0,0
0:0:29.390,79.3563,4.48849,0,0.000885,0,0
0:0:29.491,79.3563,4.48849,0,0.000885,0,0
0:0:29.592,79.7655,4.51607,0,0.000885,0,0
0:0:29.688,80.2904,4.54365,0,0.000885,0,0
0:0:29.786,80.2904,4.54365,0,0.000885,0,0
0:0:29.888,81.0555,4.58501,0,0.000885,0,0
0:0:29.989,81.8161,4.63328,0,0.000885,0,0
0:0:30.089,82.2877,4.65396,0,0.000885,0,0
0:0:30.187,82.2877,4.65396,0,0.000885,0,0
0:0:30.285,82.9326,4.69533,0,0.000885,0,0
0:0:30.386,83.5776,4.7298,0,0.000885,0,0
0:0:30.488,83.8712,4.74359,0,0.000885,0,0
0:0:30.587,83.8712,4.74359,0,0.000885,0,0
0:0:30.685,84.6319,4.79186,0,0.000885,0,0
0:0:30.782,85.7484,4.85391,0,0.000885,0,0
0:0:30.882,86.3934,4.88838,0,0.000885,0,0
0:0:30.983,86.3934,4.88838,0,0.000885,0,0
0:0:31.084,86.8026,4.90907,0,0.000885,0,0
0:0:31.182,87.7412,4.96423,0,0.000885,0,0
0:0:31.279,87.7412,4.96423,0,0.000885,0,0
0:0:31.379,87.9769,4.97801,0,0.000885,0,0
0:0:31.482,88.7376,5.01938,0,0.000885,0,0
0:0:31.583,89.5605,5.06765,0,0.000885,0,0
0:0:31.679,89.5605,5.06765,0,0.000885,0,0
0:0:31.777,89.6183,5.07454,0,0.000885,0,0
0:0:31.877,90.2055,5.10212,0,0.000885,0,0
0:0:31.977,90.7304,5.13659,0,0.000885,0,0
0:0:32.078,90.7304,5.13659,0,0.000885,0,0
0:0:32.177,91.4376,5.17107,0,0.000885,0,0
0:0:32.274,92.0248,5.20554,0,0.000885,0,0
0:0:32.373,92.7276,5.24691,0,0.000885,0,0
0:0:32.475,92.7276,5.24691,0,0.000885,0,0
0:0:32.576,93.0212,5.2607,0,0.000885,0,0
0:0:32.676,94.0176,5.32275,0,0.000885,0,0
0:0:32.773,94.7783,5.36412,0,0.000885,0,0
0:0:32.871,94.7783,5.36412,0,0.000885,0,0
0:0:32.973,95.6012,5.41238,0,0.000885,0,0
0:0:33.073,95.7747,5.41928,0,0.000885,0,0
0:0:33.175,95.7747,5.41928,0,0.000885,0,0
0:0:33.275,96.304,5.44686,0,0.000885,0,0
0:0:33.378,96.949,5.48823,0,0.000885,0,0
0:0:33.479,97.3582,5.50891,0,0.000885,0,0
0:0:33.581,97.3582,5.50891,0,0.000885,0,0
0:0:33.683,97.8876,5.53649,0,0.000885,0,0
0:0:33.785,98.5904,5.57786,0,0.000885,0,0
0:0:33.884,99.1197,5.61233,0,0.000885,0,0
0:0:33.985,99.1197,5.61233,0,0.000885,0,0
0:0:34.086,99.9426,5.6537,0,0.000885,0,0
0:0:34.188,100.468,5.68817,0,0.000885,0,0
0:0:34.288,101.526,5.74333,0,0.000885,0,0
0:0:34.389,101.526,5.74333,0,0.000885,0,0
0:0:34.490,101.935,5.77091,0,0.000885,0,0
0:0:34.592,102.287,5.7916,0,0.000885,0,0
0:0:34.693,103.168,5.83986,0,0.000885,0,0
0:0:34.790,103.168,5.83986,0,0.000885,0,0
0:0:34.888,103.692,5.86744,0,0.000885,0,0
0:0:34.987,104.337,5.90191,0,0.000885,0,0
0:0:35.089,105.218,5.95707,0,0.000885,0,0
0:0:35.189,105.218,5.95707,0,0.000885,0,0
0:0:35.288,105.57,5.97086,0,0.000885,0,0
0:0:35.384,106.686,6.03981,0,0.000885,0,0
0:0:35.484,106.98,6.0536,0,0.000885,0,0
0:0:35.585,106.98,6.0536,0,0.000885,0,0
0:0:35.687,107.389,6.07428,0,0.000885,0,0
0:0:35.787,108.034,6.11565,0,0.000885,0,0
0:0:35.885,108.737,6.15012,0,0.000885,0,0
0:0:35.983,108.737,6.15012,0,0.000885,0,0
0:0:36.084,109.324,6.1846,0,0.000885,0,0
0:0:36.186,110.027,6.22597,0,0.000885,0,0
0:0:36.284,110.027,6.22597,0,0.000885,0,0
0:0:36.379,110.672,6.26044,0,0.000885,0,0
0:0:36.478,110.85,6.27423,0,0.000885,0,0
0:0:36.579,110.792,6.26733,0,0.000885,0,0
0:0:36.681,110.792,6.26733,0,0.000885,0,0
0:0:36.782,111.61,6.3156,0,0.000885,0,0
0:0:36.879,112.318,6.35697,0,0.000885,0,0
0:0:36.977,113.078,6.39833,0,0.000885,0,0
0:0:37.077,113.078,6.39833,0,0.000885,0,0
0:0:37.179,113.665,6.43281,0,0.000885,0,0
0:0:37.279,114.132,6.46039,0,0.000885,0,0
0:0:37.376,114.84,6.50176,0,0.000885,0,0
0:0:37.473,114.84,6.50176,0,0.000885,0,0
0:0:37.575,114.898,6.50176,0,0.000885,0,0
0:0:37.675,115.774,6.55002,0,0.000885,0,0
0:0:37.776,115.774,6.55002,0,0.000885,0,0
0:0:37.875,116.01,6.56381,0,0.000885,0,0
0:0:37.972,116.948,6.61897,0,0.000885,0,0
0:0:38.072,117.242,6.63276,0,0.000885,0,0
0:0:38.174,117.242,6.63276,0,0.000885,0,0
0:0:38.274,117.945,6.67413,0,0.000885,0,0
0:0:38.376,118.71,6.71549,0,0.000885,0,0
0:0:38.476,118.825,6.72239,0,0.000885,0,0
0:0:38.579,118.825,6.72239,0,0.000885,0,0
0:0:38.681,119.88,6.78444,0,0.000885,0,0
0:0:38.782,120.818,6.8396,0,0.000885,0,0
0:0:38.884,121.583,6.88097,0,0.000885,0,0
0:0:38.985,121.583,6.88097,0,0.000885,0,0
0:0:39.086,121.935,6.90165,0,0.000885,0,0
0:0:39.188,122.286,6.92234,0,0.000885,0,0
0:0:39.289,122.931,6.95681,0,0.000885,0,0
0:0:39.390,122.931,6.95681,0,0.000885,0,0
0:0:39.489,123.634,6.99818,0,0.000885,0,0
0:0:39.589,124.221,7.03265,0,0.000885,0,0
0:0:39.691,124.808,7.06023,0,0.000885,0,0
0:0:39.792,124.808,7.06023,0,0.000885,0,0
0:0:39.893,125.338,7.09471,0,0.000885,0,0
0:0:39.991,126.04,7.12918,0,0.000885,0,0
0:0:40.087,126.801,7.17744,0,0.000885,0,0
0:0:40.189,126.801,7.17744,0,0.000885,0,0
0:0:40.289,127.273,7.20502,0,0.000885,0,0
0:0:40.389,127.74,7.22571,0,0.000885,0,0
0:0:40.487,128.153,7.25328,0,0.000885,0,0
0:0:40.584,128.153,7.25328,0,0.000885,0,0
0:0:40.685,129.03,7.30155,0,0.000885,0,0
0:0:40.788,129.795,7.34292,0,0.000885,0,0
0:0:40.887,129.795,7.34292,0,0.000885,0,0
0:0:40.986,130.262,7.3705,0,0.000885,0,0
0:0:41.083,130.733,7.39807,0,0.000885,0,0
0:0:41.183,131.61,7.44634,0,0.000885,0,0
0:0:41.284,131.61,7.44634,0,0.000885,0,0
0:0:41.385,132.432,7.4946,0,0.000885,0,0
0:0:41.483,132.842,7.51529,0,0.000885,0,0
0:0:41.579,133.255,7.54286,0,0.000885,0,0
0:0:41.679,133.255,7.54286,0,0.000885,0,0
0:0:41.782,134.074,7.58423,0,0.000885,0,0
0:0:41.883,134.777,7.6256,0,0.000885,0,0
0:0:41.982,135.426,7.66008,0,0.000885,0,0
0:0:42.077,135.426,7.66008,0,0.000885,0,0
0:0:42.178,135.893,7.68765,0,0.000885,0,0
0:0:42.279,136.187,7.70834,0,0.000885,0,0
0:0:42.379,136.774,7.74281,0,0.000885,0,0
0:0:42.477,136.774,7.74281,0,0.000885,0,0
0:0:42.574,137.419,7.77729,0,0.000885,0,0
0:0:42.674,137.886,7.80487,0,0.000885,0,0
0:0:42.775,137.886,7.80487,0,0.000885,0,0
0:0:42.876,138.357,7.83244,0,0.000885,0,0
0:0:42.976,138.825,7.85313,0,0.000885,0,0
0:0:43.079,139.47,7.8945,0,0.000885,0,0
0:0:43.181,139.47,7.8945,0,0.000885,0,0
0:0:43.283,140.644,7.95655,0,0.000885,0,0
0:0:43.384,141.289,7.99792,0,0.000885,0,0
0:0:43.485,141.64,8.0186,0,0.000885,0,0
0:0:43.586,141.64,8.0186,0,0.000885,0,0
0:0:43.688,142.05,8.03929,0,0.000885,0,0
0:0:43.788,143.108,8.10134,0,0.000885,0,0
0:0:43.890,143.575,8.12202,0,0.000885,0,0
0:0:43.990,143.575,8.12202,0,0.000885,0,0
0:0:44.091,144.22,8.16339,0,0.000885,0,0
0:0:44.192,144.634,8.18408,0,0.000885,0,0
0:0:44.294,144.985,8.20476,0,0.000885,0,0
0:0:44.395,144.985,8.20476,0,0.000885,0,0
0:0:44.495,145.51,8.23234,0,0.000885,0,0
0:0:44.593,146.155,8.27371,0,0.000885,0,0
0:0:44.691,147.387,8.34266,0,0.000885,0,0
0:0:44.792,147.387,8.34266,0,0.000885,0,0
0:0:44.894,148.032,8.37713,0,0.000885,0,0
0:0:44.993,148.326,8.39092,0,0.000885,0,0
0:0:45.092,148.971,8.43229,0,0.000885,0,0
0:0:45.189,148.971,8.43229,0,0.000885,0,0
0:0:45.289,149.5,8.45987,0,0.000885,0,0
0:0:45.391,150.03,8.48745,0,0.000885,0,0
0:0:45.492,150.612,8.52192,0,0.000885,0,0
0:0:45.589,150.612,8.52192,0,0.000885,0,0
0:0:45.686,151.142,8.5495,0,0.000885,0,0
0:0:45.786,152.196,8.61155,0,0.000885,0,0
0:0:45.888,152.196,8.61155,0,0.000885,0,0
0:0:45.988,152.783,8.64603,0,0.000885,0,0
0:0:46.087,153.255,8.6736,0,0.000885,0,0
0:0:46.185,153.9,8.70808,0,0.000885,0,0
0:0:46.285,153.9,8.70808,0,0.000885,0,0
0:0:46.386,154.193,8.72876,0,0.000885,0,0
0:0:46.487,154.954,8.77013,0,0.000885,0,0
0:0:46.586,155.19,8.78392,0,0.000885,0,0
0:0:46.682,155.19,8.78392,0,0.000885,0,0
0:0:46.781,156.07,8.83218,0,0.000885,0,0
0:0:46.883,156.831,8.87355,0,0.000885,0,0
0:0:46.984,157.302,8.90113,0,0.000885,0,0
0:0:47.083,157.302,8.90113,0,0.000885,0,0
0:0:47.183,157.77,8.92871,0,0.000885,0,0
0:0:47.279,158.415,8.96318,0,0.000885,0,0
0:0:47.381,158.415,8.96318,0,0.000885,0,0
0:0:47.482,158.944,8.99766,0,0.000885,0,0
0:0:47.582,159.469,9.02524,0,0.000885,0,0
0:0:47.678,160.292,9.0735,0,0.000885,0,0
0:0:47.776,160.292,9.0735,0,0.000885,0,0
0:0:47.876,160.994,9.10797,0,0.000885,0,0
0:0:47.978,161.172,9.12176,0,0.000885,0,0
0:0:48.079,161.76,9.15624,0,0.000885,0,0
0:0:48.179,161.76,9.15624,0,0.000885,0,0
0:0:48.283,162.405,9.19071,0,0.000885,0,0
0:0:48.384,163.165,9.23208,0,0.000885,0,0
0:0:48.485,163.695,9.26655,0,0.000885,0,0
0:0:48.587,163.695,9.26655,0,0.000885,0,0
0:0:48.688,164.34,9.30103,0,0.000885,0,0
0:0:48.790,165.336,9.35619,0,0.000885,0,0
0:0:48.891,165.923,9.39066,0,0.000885,0,0
0:0:48.991,165.923,9.39066,0,0.000885,0,0
0:0:49.093,166.684,9.43203,0,0.000885,0,0
0:0:49.193,167.68,9.48719,0,0.000885,0,0
0:0:49.294,167.974,9.50787,0,0.000885,0,0
0:0:49.395,167.974,9.50787,0,0.000885,0,0
0:0:49.496,168.152,9.51477,0,0.000885,0,0
0:0:49.598,168.739,9.54924,0,0.000885,0,0
0:0:49.696,169.206,9.57682,0,0.000885,0,0
0:0:49.792,169.206,9.57682,0,0.000885,0,0
0:0:49.893,169.677,9.6044,0,0.000885,0,0
0:0:49.995,170.202,9.63198,0,0.000885,0,0
0:0:50.095,170.91,9.67334,0,0.000885,0,0
0:0:50.193,170.91,9.67334,0,0.000885,0,0
0:0:50.291,171.67,9.71471,0,0.000885,0,0
0:0:50.392,172.022,9.7354,0,0.000885,0,0
0:0:50.493,172.609,9.76987,0,0.000885,0,0
0:0:50.593,172.609,9.76987,0,0.000885,0,0
0:0:50.692,173.312,9.80434,0,0.000885,0,0
0:0:50.790,174.192,9.8595,0,0.000885,0,0
0:0:50.889,174.192,9.8595,0,0.000885,0,0
0:0:50.990,174.659,9.88708,0,0.000885,0,0
0:0:51.091,175.131,9.90777,0,0.000885,0,0
0:0:51.189,175.482,9.92845,0,0.000885,0,0
0:0:51.286,175.482,9.92845,0,0.000885,0,0
0:0:51.387,176.243,9.97671,0,0.000885,0,0
0:0:51.487,176.714,9.9974,0,0.000885,0,0
0:0:51.589,177.417,10.0388,0,0.000885,0,0
0:0:51.687,177.417,10.0388,0,0.000885,0,0
0:0:51.785,178.12,10.0801,0,0.000885,0,0
0:0:51.884,178.649,10.1077,0,0.000885,0,0
0:0:51.986,179.179,10.1422,0,0.000885,0,0
0:0:52.086,179.179,10.1422,0,0.000885,0,0
0:0:52.185,179.766,10.1698,0,0.000885,0,0
0:0:52.282,180.411,10.2111,0,0.000885,0,0
0:0:52.381,180.411,10.2111,0,0.000885,0,0
0:0:52.483,181.172,10.2525,0,0.000885,0,0
0:0:52.583,181.523,10.2732,0,0.000885,0,0
0:0:52.683,182.346,10.3215,0,0.000885,0,0
0:0:52.779,182.346,10.3215,0,0.000885,0,0
0:0:52.879,182.929,10.349,0,0.000885,0,0
0:0:52.979,183.342,10.3766,0,0.000885,0,0
0:0:53.081,183.867,10.4042,0,0.000885,0,0
0:0:53.182,183.867,10.4042,0,0.000885,0,0
0:0:53.284,184.339,10.4318,0,0.000885,0,0
0:0:53.387,185.099,10.4731,0,0.000885,0,0
0:0:53.489,185.513,10.5007,0,0.000885,0,0
0:0:53.590,185.513,10.5007,0,0.000885,0,0
0:0:53.690,186.216,10.5352,0,0.000885,0,0
0:0:53.790,186.861,10.5766,0,0.000885,0,0
0:0:53.892,187.27,10.5972,0,0.000885,0,0
0:0:53.992,187.27,10.5972,0,0.000885,0,0
0:0:54.094,187.679,10.6179,0,0.000885,0,0
0:0:54.193,188.618,10.6731,0,0.000885,0,0
0:0:54.295,189.089,10.7007,0,0.000885,0,0
0:0:54.395,189.089,10.7007,0,0.000885,0,0
0:0:54.497,189.557,10.7282,0,0.000885,0,0
0:0:54.598,190.495,10.7765,0,0.000885,0,0
0:0:54.699,191.26,10.8248,0,0.000885,0,0
0:0:54.796,191.26,10.8248,0,0.000885,0,0
0:0:54.894,191.785,10.8523,0,0.000885,0,0
0:0:54.996,192.724,10.9075,0,0.000885,0,0
0:0:55.096,193.195,10.9351,0,0.000885,0,0
0:0:55.194,193.195,10.9351,0,0.000885,0,0
0:0:55.292,193.547,10.9558,0,0.000885,0,0
0:0:55.389,194.134,10.9833,0,0.000885,0,0
0:0:55.489,194.134,10.9833,0,0.000885,0,0
0:0:55.589,194.837,11.0247,0,0.000885,0,0
0:0:55.689,195.482,11.0592,0,0.000885,0,0
0:0:55.786,196.127,11.1006,0,0.000885,0,0
0:0:55.883,196.127,11.1006,0,0.000885,0,0
0:0:55.984,196.598,11.1281,0,0.000885,0,0
0:0:56.086,197.065,11.1488,0,0.000885,0,0
0:0:56.184,197.768,11.1902,0,0.000885,0,0
0:0:56.281,197.768,11.1902,0,0.000885,0,0
0:0:56.377,198.182,11.2178,0,0.000885,0,0
0:0:56.478,199,11.2591,0,0.000885,0,0
0:0:56.578,199.414,11.2867,0,0.000885,0,0
0:0:56.678,199.414,11.2867,0,0.000885,0,0
0:0:56.776,199.996,11.3143,0,0.000885,0,0
0:0:56.873,200.819,11.3626,0,0.000885,0,0
0:0:56.974,200.819,11.3626,0,0.000885,0,0
0:0:57.074,201.229,11.3901,0,0.000885,0,0
0:0:57.174,201.874,11.4246,0,0.000885,0,0
0:0:57.270,202.581,11.466,0,0.000885,0,0
0:0:57.376,202.581,11.466,0,0.000885,0,0
0:0:57.475,202.99,11.4867,0,0.000885,0,0
0:0:57.576,203.635,11.5211,0,0.000885,0,0
0:0:57.676,204.222,11.5556,0,0.000885,0,0
0:0:57.774,204.222,11.5556,0,0.000885,0,0
0:0:57.871,204.867,11.5901,0,0.000885,0,0
0:0:57.970,205.454,11.6246,0,0.000885,0,0
0:0:58.071,206.393,11.6797,0,0.000885,0,0
0:0:58.171,206.393,11.6797,0,0.000885,0,0
0:0:58.271,206.918,11.7073,0,0.000885,0,0
0:0:58.372,207.563,11.7487,0,0.000885,0,0
0:0:58.474,208.622,11.8038,0,0.000885,0,0
0:0:58.575,208.622,11.8038,0,0.000885,0,0
0:0:58.676,209.089,11.8314,0,0.000885,0,0
0:0:58.777,209.56,11.859,0,0.000885,0,0
0:0:58.877,210.263,11.9004,0,0.000885,0,0
0:0:58.976,210.263,11.9004,0,0.000885,0,0
0:0:59.076,210.966,11.9348,0,0.000885,0,0
0:0:59.177,211.144,11.9486,0,0.000885,0,0
0:0:59.277,211.144,11.9486,0,0.000885,0,0
0:0:59.377,211.726,11.9831,0,0.000885,0,0
0:0:59.478,212.492,12.0245,0,0.000885,0,0
0:0:59.579,213.016,12.052,0,0.000885,0,0
0:0:59.678,213.016,12.052,0,0.000885,0,0
0:0:59.776,213.372,12.0727,0,0.000885,0,0
0:0:59.873,213.897,12.1072,0,0.000885,0,0
0:0:59.973,214.542,12.1417,0,0.000885,0,0
0:1:0.074,214.542,12.1417,0,0.000885,0,0
0:1:0.174,215.249,12.183,0,0.000885,0,0
0:1:0.272,216.126,12.2313,0,0.000885,0,0
0:1:0.379,216.539,12.252,0,0.000885,0,0
0:1:0.478,216.539,12.252,0,0.000885,0,0
0:1:0.578,217.242,12.2934,0,0.000885,0,0
0:1:0.678,217.767,12.3209,0,0.000885,0,0
0:1:0.776,218.417,12.3623,0,0.000885,0,0
0:1:0.871,218.417,12.3623,0,0.000885,0,0
0:1:0.971,218.768,12.383,0,0.000885,0,0
0:1:1.071,219.235,12.4037,0,0.000885,0,0
0:1:1.171,219.707,12.4312,0,0.000885,0,0
0:1:1.271,219.707,12.4312,0,0.000885,0,0
0:1:1.377,220.116,12.4588,0,0.000885,0,0
0:1:1.474,220.934,12.5002,0,0.000885,0,0
0:1:1.574,220.934,12.5002,0,0.000885,0,0
0:1:1.675,221.29,12.5209,0,0.000885,0,0
0:1:1.775,222.051,12.5622,0,0.000885,0,0
0:1:1.872,222.344,12.5829,0,0.000885,0,0
0:1:1.978,222.344,12.5829,0,0.000885,0,0
0:1:2.077,223.105,12.6243,0,0.000885,0,0
0:1:2.178,223.225,12.6312,0,0.000885,0,0
0:1:2.278,223.812,12.6657,0,0.000885,0,0
0:1:2.376,223.812,12.6657,0,0.000885,0,0
0:1:2.473,224.044,12.6795,0,0.000885,0,0
0:1:2.572,224.924,12.7277,0,0.000885,0,0
0:1:2.674,225.569,12.7622,0,0.000885,0,0
0:1:2.773,225.569,12.7622,0,0.000885,0,0
0:1:2.870,225.979,12.7898,0,0.000885,0,0
0:1:2.976,226.801,12.8311,0,0.000885,0,0
0:1:3.076,227.446,12.8725,0,0.000885,0,0
0:1:3.175,227.446,12.8725,0,0.000885,0,0
0:1:3.276,228.385,12.9208,0,0.000885,0,0
0:1:3.376,228.794,12.9484,0,0.000885,0,0
0:1:3.478,229.559,12.9897,0,0.000885,0,0
0:1:3.577,229.559,12.9897,0,0.000885,0,0
0:1:3.679,229.853,13.0035,0,0.000885,0,0
0:1:3.780,231.143,13.0794,0,0.000885,0,0
0:1:3.882,231.788,13.1138,0,0.000885,0,0
0:1:3.982,231.788,13.1138,0,0.000885,0,0
0:1:4.083,232.784,13.1759,0,0.000885,0,0
0:1:4.183,233.251,13.1966,0,0.000885,0,0
0:1:4.283,233.896,13.2379,0,0.000885,0,0
0:1:4.382,233.896,13.2379,0,0.000885,0,0
0:1:4.483,234.426,13.2655,0,0.000885,0,0
0:1:4.584,235.013,13.3,0,0.000885,0,0
0:1:4.685,235.013,13.3,0,0.000885,0,0
0:1:4.785,236.245,13.3689,0,0.000885,0,0
0:1:4.884,236.712,13.3965,0,0.000885,0,0
0:1:4.980,237.126,13.4172,0,0.000885,0,0
0:1:5.079,237.126,13.4172,0,0.000885,0,0
0:1:5.180,237.886,13.4586,0,0.000885,0,0
0:1:5.280,238.474,13.493,0,0.000885,0,0
0:1:5.378,238.825,13.5137,0,0.000885,0,0
0:1:5.474,238.825,13.5137,0,0.000885,0,0
0:1:5.574,239.47,13.5482,0,0.000885,0,0
0:1:5.675,240.231,13.5965,0,0.000885,0,0
0:1:5.775,241.111,13.6447,0,0.000885,0,0
0:1:5.872,241.111,13.6447,0,0.000885,0,0
0:1:5.977,241.583,13.6723,0,0.000885,0,0
0:1:6.076,241.699,13.6792,0,0.000885,0,0
0:1:6.178,242.286,13.7137,0,0.000885,0,0
0:1:6.278,242.286,13.7137,0,0.000885,0,0
0:1:6.376,243.166,13.7619,0,0.000885,0,0
0:1:6.472,243.691,13.7895,0,0.000885,0,0
0:1:6.571,243.691,13.7895,0,0.000885,0,0
0:1:6.672,244.221,13.8171,0,0.000885,0,0
0:1:6.773,244.808,13.8516,0,0.000885,0,0
0:1:6.871,245.453,13.8929,0,0.000885,0,0
0:1:6.976,245.453,13.8929,0,0.000885,0,0
0:1:7.074,246.04,13.9205,0,0.000885,0,0
0:1:7.175,246.507,13.9481,0,0.000885,0,0
0:1:7.275,247.152,13.9826,0,0.000885,0,0
0:1:7.375,247.152,13.9826,0,0.000885,0,0
0:1:7.472,248.148,14.0446,0,0.000885,0,0
0:1:7.571,248.211,14.0446,0,0.000885,0,0
0:1:7.672,249.087,14.0929,0,0.000885,0,0
0:1:7.771,249.087,14.0929,0,0.000885,0,0
0:1:7.879,249.732,14.1343,0,0.000885,0,0
0:1:7.976,250.439,14.1687,0,0.000885,0,0
0:1:8.074,250.791,14.1894,0,0.000885,0,0
0:1:8.175,250.791,14.1894,0,0.000885,0,0
0:1:8.275,251.2,14.217,0,0.000885,0,0
0:1:8.376,251.729,14.2446,0,0.000885,0,0
0:1:8.475,252.196,14.2721,0,0.000885,0,0
0:1:8.578,252.196,14.2721,0,0.000885,0,0
0:1:8.679,252.899,14.3135,0,0.000885,0,0
0:1:8.781,253.664,14.3549,0,0.000885,0,0
0:1:8.879,254.074,14.3756,0,0.000885,0,0
0:1:8.981,254.074,14.3756,0,0.000885,0,0
0:1:9.080,254.545,14.4031,0,0.000885,0,0
0:1:9.181,254.719,14.4169,0,0.000885,0,0
0:1:9.282,254.719,14.4169,0,0.000885,0,0
0:1:9.382,255.128,14.4376,0,0.000885,0,0
0:1:9.483,255.773,14.4721,0,0.000885,0,0
0:1:9.581,256.244,14.4997,0,0.000885,0,0
0:1:9.681,256.244,14.4997,0,0.000885,0,0
0:1:9.783,256.889,14.5341,0,0.000885,0,0
0:1:9.883,257.65,14.5824,0,0.000885,0,0
0:1:9.982,258.001,14.6031,0,0.000885,0,0
0:1:10.076,258.001,14.6031,0,0.000885,0,0
0:1:10.177,258.473,14.6238,0,0.000885,0,0
0:1:10.278,259.002,14.6583,0,0.000885,0,0
0:1:10.378,259.585,14.6927,0,0.000885,0,0
0:1:10.474,259.585,14.6927,0,0.000885,0,0
0:1:10.572,260.35,14.7341,0,0.000885,0,0
0:1:10.672,260.879,14.7617,0,0.000885,0,0
0:1:10.774,261.698,14.8099,0,0.000885,0,0
0:1:10.873,261.698,14.8099,0,0.000885,0,0
0:1:10.968,262.463,14.8513,0,0.000885,0,0
0:1:11.076,262.93,14.8789,0,0.000885,0,0
0:1:11.176,262.93,14.8789,0,0.000885,0,0
0:1:11.277,263.984,14.9409,0,0.000885,0,0
0:1:11.376,264.278,14.9547,0,0.000885,0,0
0:1:11.473,265.101,15.003,0,0.000885,0,0
0:1:11.571,265.101,15.003,0,0.000885,0,0
0:1:11.671,265.568,15.0306,0,0.000885,0,0
0:1:11.772,266.039,15.0581,0,0.000885,0,0
0:1:11.873,266.506,15.0788,0,0.000885,0,0
0:1:11.978,266.506,15.0788,0,0.000885,0,0
0:1:12.075,267.329,15.1271,0,0.000885,0,0
0:1:12.175,268.09,15.1685,0,0.000885,0,0
0:1:12.276,268.735,15.2098,0,0.000885,0,0
0:1:12.376,268.735,15.2098,0,0.000885,0,0
0:1:12.473,269.794,15.265,0,0.000885,0,0
0:1:12.579,269.909,15.2719,0,0.000885,0,0
0:1:12.679,270.67,15.3202,0,0.000885,0,0
0:1:12.779,270.67,15.3202,0,0.000885,0,0
0:1:12.882,271.141,15.3408,0,0.000885,0,0
0:1:12.982,271.608,15.3684,0,0.000885,0,0
0:1:13.083,272.316,15.4098,0,0.000885,0,0
0:1:13.184,272.316,15.4098,0,0.000885,0,0
0:1:13.285,272.609,15.4236,0,0.000885,0,0
0:1:13.385,273.899,15.4994,0,0.000885,0,0
0:1:13.486,274.486,15.5339,0,0.000885,0,0
0:1:13.586,274.486,15.5339,0,0.000885,0,0
0:1:13.687,274.896,15.5546,0,0.000885,0,0
0:1:13.787,275.656,15.5959,0,0.000885,0,0
0:1:13.888,276.359,15.6373,0,0.000885,0,0
0:1:13.987,276.359,15.6373,0,0.000885,0,0
0:1:14.088,277.24,15.6856,0,0.000885,0,0
0:1:14.187,277.418,15.6994,0,0.000885,0,0
0:1:14.288,277.418,15.6994,0,0.000885,0,0
0:1:14.388,278.178,15.7407,0,0.000885,0,0
0:1:14.486,278.65,15.7683,0,0.000885,0,0
0:1:14.583,279.059,15.789,0,0.000885,0,0
0:1:14.680,279.059,15.789,0,0.000885,0,0
0:1:14.783,279.82,15.8373,0,0.000885,0,0
0:1:14.882,280.701,15.8855,0,0.000885,0,0
0:1:14.982,281.23,15.9131,0,0.000885,0,0
0:1:15.078,281.23,15.9131,0,0.000885,0,0
0:1:15.175,281.466,15.9269,0,0.000885,0,0
0:1:15.276,281.991,15.9545,0,0.000885,0,0
0:1:15.377,283.165,16.0234,0,0.000885,0,0
0:1:15.476,283.165,16.0234,0,0.000885,0,0
0:1:15.573,283.574,16.0441,0,0.000885,0,0
0:1:15.679,284.046,16.0717,0,0.000885,0,0
0:1:15.781,284.633,16.1062,0,0.000885,0,0
0:1:15.882,284.633,16.1062,0,0.000885,0,0
0:1:15.982,285.216,16.1406,0,0.000885,0,0
0:1:16.078,285.745,16.1682,0,0.000885,0,0
0:1:16.174,285.745,16.1682,0,0.000885,0,0
0:1:16.275,286.39,16.2096,0,0.000885,0,0
0:1:16.375,286.626,16.2165,0,0.000885,0,0
0:1:16.475,287.155,16.2509,0,0.000885,0,0
0:1:16.580,287.155,16.2509,0,0.000885,0,0
0:1:16.687,287.68,16.2785,0,0.000885,0,0
0:1:16.787,288.209,16.3061,0,0.000885,0,0
0:1:16.888,288.912,16.3475,0,0.000885,0,0
0:1:16.988,288.912,16.3475,0,0.000885,0,0
0:1:17.087,289.263,16.3682,0,0.000885,0,0
0:1:17.183,290.086,16.4164,0,0.000885,0,0
0:1:17.282,291.198,16.4785,0,0.000885,0,0
0:1:17.383,291.198,16.4785,0,0.000885,0,0
0:1:17.483,291.434,16.4923,0,0.000885,0,0
0:1:17.579,291.906,16.5198,0,0.000885,0,0
0:1:17.677,292.666,16.5612,0,0.000885,0,0
0:1:17.776,292.666,16.5612,0,0.000885,0,0
0:1:17.876,293.196,16.5888,0,0.000885,0,0
0:1:17.977,293.956,16.637,0,0.000885,0,0
0:1:18.077,294.543,16.6646,0,0.000885,0,0
0:1:18.177,294.543,16.6646,0,0.000885,0,0
0:1:18.278,295.188,16.706,0,0.000885,0,0
0:1:18.380,295.776,16.7405,0,0.000885,0,0
0:1:18.480,296.127,16.7543,0,0.000885,0,0
0:1:18.582,296.127,16.7543,0,0.000885,0,0
0:1:18.682,297.475,16.837,0,0.000885,0,0
0:1:18.783,298.12,16.8715,0,0.000885,0,0
0:1:18.881,298.12,16.8715,0,0.000885,0,0
0:1:18.982,298.707,16.9059,0,0.000885,0,0
0:1:19.083,299.174,16.9266,0,0.000885,0,0
0:1:19.183,299.939,16.9749,0,0.000885,0,0
0:1:19.282,299.939,16.9749,0,0.000885,0,0
0:1:19.383,300.878,17.0232,0,0.000885,0,0
0:1:19.484,301.229,17.0438,0,0.000885,0,0
0:1:19.583,301.874,17.0852,0,0.000885,0,0
0:1:19.679,301.874,17.0852,0,0.000885,0,0
0:1:19.776,302.403,17.1128,0,0.000885,0,0
0:1:19.877,302.871,17.1404,0,0.000885,0,0
0:1:19.977,303.573,17.1817,0,0.000885,0,0
0:1:20.077,303.573,17.1817,0,0.000885,0,0
0:1:20.174,304.338,17.2231,0,0.000885,0,0
0:1:20.272,304.983,17.2576,0,0.000885,0,0
0:1:20.369,304.983,17.2576,0,0.000885,0,0
0:1:20.472,305.393,17.2852,0,0.000885,0,0
0:1:20.572,305.628,17.2921,0,0.000885,0,0
0:1:20.679,306.389,17.3403,0,0.000885,0,0
0:1:20.775,306.389,17.3403,0,0.000885,0,0
0:1:20.874,306.74,17.361,0,0.000885,0,0
0:1:20.975,307.212,17.3817,0,0.000885,0,0
0:1:21.076,307.973,17.4299,0,0.000885,0,0
0:1:21.174,307.973,17.4299,0,0.000885,0,0
0:1:21.282,308.502,17.4575,0,0.000885,0,0
0:1:21.379,309.089,17.492,0,0.000885,0,0
0:1:21.480,309.792,17.5334,0,0.000885,0,0
0:1:21.580,309.792,17.5334,0,0.000885,0,0
0:1:21.678,310.321,17.5609,0,0.000885,0,0
0:1:21.775,311.024,17.6023,0,0.000885,0,0
0:1:21.883,311.785,17.6437,0,0.000885,0,0
0:1:21.984,311.785,17.6437,0,0.000885,0,0
0:1:22.084,312.078,17.6575,0,0.000885,0,0
0:1:22.182,312.959,17.7126,0,0.000885,0,0
0:1:22.279,313.546,17.7402,0,0.000885,0,0
0:1:22.377,313.546,17.7402,0,0.000885,0,0
0:1:22.477,314.013,17.7678,0,0.000885,0,0
0:1:22.578,314.658,17.8092,0,0.000885,0,0
0:1:22.678,314.894,17.8161,0,0.000885,0,0
0:1:22.774,314.894,17.8161,0,0.000885,0,0
0:1:22.880,315.481,17.8505,0,0.000885,0,0
0:1:22.981,316.535,17.9126,0,0.000885,0,0
0:1:23.082,317.065,17.9402,0,0.000885,0,0
0:1:23.182,317.065,17.9402,0,0.000885,0,0
0:1:23.283,317.594,17.9746,0,0.000885,0,0
0:1:23.382,317.768,17.9815,0,0.000885,0,0
0:1:23.484,317.768,17.9815,0,0.000885,0,0
0:1:23.585,318.355,18.016,0,0.000885,0,0
0:1:23.687,318.826,18.0436,0,0.000885,0,0
0:1:23.786,319.293,18.0712,0,0.000885,0,0
0:1:23.887,319.293,18.0712,0,0.000885,0,0
0:1:23.986,319.938,18.1056,0,0.000885,0,0
0:1:24.087,320.761,18.1539,0,0.000885,0,0
0:1:24.186,320.935,18.1608,0,0.000885,0,0
0:1:24.287,320.935,18.1608,0,0.000885,0,0
0:1:24.387,321.286,18.1815,0,0.000885,0,0
0:1:24.488,321.638,18.2022,0,0.000885,0,0
0:1:24.588,322.576,18.2573,0,0.000885,0,0
0:1:24.689,322.576,18.2573,0,0.000885,0,0
0:1:24.786,323.221,18.2918,0,0.000885,0,0
0:1:24.883,323.75,18.3194,0,0.000885,0,0
0:1:24.982,324.28,18.3538,0,0.000885,0,0
0:1:25.082,324.28,18.3538,0,0.000885,0,0
0:1:25.183,324.925,18.3883,0,0.000885,0,0
0:1:25.280,324.983,18.3883,0,0.000885,0,0
0:1:25.377,324.983,18.3883,0,0.000885,0,0
0:1:25.475,325.979,18.4435,0,0.000885,0,0
0:1:25.577,326.682,18.4848,0,0.000885,0,0
0:1:25.677,326.975,18.5055,0,0.000885,0,0
0:1:25.775,326.975,18.5055,0,0.000885,0,0
0:1:25.883,327.914,18.5538,0,0.000885,0,0
0:1:25.978,328.208,18.5745,0,0.000885,0,0
0:1:26.079,328.91,18.6158,0,0.000885,0,0
0:1:26.179,328.91,18.6158,0,0.000885,0,0
0:1:26.278,329.262,18.6296,0,0.000885,0,0
0:1:26.376,329.498,18.6434,0,0.000885,0,0
0:1:26.473,330.143,18.6848,0,0.000885,0,0
0:1:26.573,330.143,18.6848,0,0.000885,0,0
0:1:26.673,330.965,18.7262,0,0.000885,0,0
0:1:26.774,331.61,18.7675,0,0.000885,0,0
0:1:26.869,332.078,18.7951,0,0.000885,0,0
0:1:26.966,332.078,18.7951,0,0.000885,0,0
0:1:27.064,332.607,18.8227,0,0.000885,0,0
0:1:27.165,333.43,18.871,0,0.000885,0,0
0:1:27.265,333.43,18.871,0,0.000885,0,0
0:1:27.374,334.133,18.9054,0,0.000885,0,0
0:1:27.473,334.542,18.933,0,0.000885,0,0
0:1:27.569,335.538,18.9882,0,0.000885,0,0
0:1:27.672,335.538,18.9882,0,0.000885,0,0
0:1:27.769,336.183,19.0226,0,0.000885,0,0
0:1:27.879,336.77,19.0571,0,0.000885,0,0
0:1:27.976,337.536,19.0985,0,0.000885,0,0
0:1:28.075,337.536,19.0985,0,0.000885,0,0
0:1:28.176,337.945,19.1261,0,0.000885,0,0
0:1:28.276,338.532,19.1536,0,0.000885,0,0
0:1:28.376,338.883,19.1743,0,0.000885,0,0
0:1:28.478,338.883,19.1743,0,0.000885,0,0
0:1:28.577,339.528,19.2157,0,0.000885,0,0
0:1:28.679,340.231,19.2502,0,0.000885,0,0
0:1:28.780,340.818,19.2846,0,0.000885,0,0
0:1:28.881,340.818,19.2846,0,0.000885,0,0
0:1:28.979,341.521,19.326,0,0.000885,0,0
0:1:29.079,342.108,19.3605,0,0.000885,0,0
0:1:29.179,342.695,19.395,0,0.000885,0,0
0:1:29.280,342.695,19.395,0,0.000885,0,0
0:1:29.380,343.456,19.4363,0,0.000885,0,0
0:1:29.480,343.928,19.4639,0,0.000885,0,0
0:1:29.579,344.866,19.5122,0,0.000885,0,0
0:1:29.680,344.866,19.5122,0,0.000885,0,0
0:1:29.781,345.16,19.5328,0,0.000885,0,0
0:1:29.882,345.92,19.5742,0,0.000885,0,0
0:1:29.977,345.92,19.5742,0,0.000885,0,0
0:1:30.075,346.392,19.6018,0,0.000885,0,0
0:1:30.176,347.037,19.6363,0,0.000885,0,0
0:1:30.275,347.62,19.6707,0,0.000885,0,0
0:1:30.375,347.62,19.6707,0,0.000885,0,0
0:1:30.482,348.149,19.6983,0,0.000885,0,0
0:1:30.579,348.736,19.7328,0,0.000885,0,0
0:1:30.681,349.03,19.7535,0,0.000885,0,0
0:1:30.779,349.03,19.7535,0,0.000885,0,0
0:1:30.880,349.559,19.7811,0,0.000885,0,0
0:1:30.976,350.262,19.8224,0,0.000885,0,0
0:1:31.074,350.907,19.8569,0,0.000885,0,0
0:1:31.171,350.907,19.8569,0,0.000885,0,0
0:1:31.274,351.494,19.8914,0,0.000885,0,0
0:1:31.374,352.255,19.9327,0,0.000885,0,0
0:1:31.482,352.842,19.9672,0,0.000885,0,0
0:1:31.577,352.842,19.9672,0,0.000885,0,0
0:1:31.676,353.78,20.0224,0,0.000885,0,0
0:1:31.777,354.132,20.0431,0,0.000885,0,0
0:1:31.878,354.892,20.0844,0,0.000885,0,0
0:1:31.976,354.892,20.0844,0,0.000885,0,0
0:1:32.082,355.48,20.1189,0,0.000885,0,0
0:1:32.182,355.831,20.1327,0,0.000885,0,0
0:1:32.282,356.245,20.1603,0,0.000885,0,0
0:1:32.382,356.245,20.1603,0,0.000885,0,0
0:1:32.480,357.063,20.2085,0,0.000885,0,0
0:1:32.576,357.477,20.2292,0,0.000885,0,0
0:1:32.674,357.477,20.2292,0,0.000885,0,0
0:1:32.775,358.238,20.2706,0,0.000885,0,0
0:1:32.875,359.528,20.3464,0,0.000885,0,0
0:1:32.976,360.115,20.3809,0,0.000885,0,0
0:1:33.076,360.115,20.3809,0,0.000885,0,0
0:1:33.179,360.875,20.4223,0,0.000885,0,0
0:1:33.278,361.698,20.4705,0,0.000885,0,0
0:1:33.379,361.872,20.4774,0,0.000885,0,0
0:1:33.479,361.872,20.4774,0,0.000885,0,0
0:1:33.580,362.285,20.4981,0,0.000885,0,0
0:1:33.680,362.637,20.5188,0,0.000885,0,0
0:1:33.782,363.397,20.5671,0,0.000885,0,0
0:1:33.882,363.397,20.5671,0,0.000885,0,0
0:1:33.983,363.869,20.5877,0,0.000885,0,0
0:1:34.082,364.572,20.6291,0,0.000885,0,0
0:1:34.182,365.453,20.6774,0,0.000885,0,0
0:1:34.282,365.453,20.6774,0,0.000885,0,0
0:1:34.383,366.271,20.7256,0,0.000885,0,0
0:1:34.483,366.685,20.7532,0,0.000885,0,0
0:1:34.579,367.445,20.7946,0,0.000885,0,0
0:1:34.676,367.445,20.7946,0,0.000885,0,0
0:1:34.775,367.739,20.8084,0,0.000885,0,0
0:1:34.876,368.735,20.8635,0,0.000885,0,0
0:1:34.976,368.735,20.8635,0,0.000885,0,0
0:1:35.074,368.735,20.8635,0,0.000885,0,0
0:1:35.180,369.38,20.9049,0,0.000885,0,0
0:1:35.279,369.91,20.9325,0,0.000885,0,0
0:1:35.379,369.91,20.9325,0,0.000885,0,0
0:1:35.480,370.79,20.9807,0,0.000885,0,0
0:1:35.578,371.551,21.0221,0,0.000885,0,0
0:1:35.675,372.08,21.0566,0,0.000885,0,0
0:1:35.783,372.08,21.0566,0,0.000885,0,0
0:1:35.885,372.663,21.0911,0,0.000885,0,0
0:1:35.983,373.37,21.1255,0,0.000885,0,0
0:1:36.083,373.722,21.1462,0,0.000885,0,0
0:1:36.180,373.722,21.1462,0,0.000885,0,0
0:1:36.277,374.425,21.1876,0,0.000885,0,0
0:1:36.379,374.776,21.2083,0,0.000885,0,0
0:1:36.478,375.363,21.2427,0,0.000885,0,0
0:1:36.576,375.363,21.2427,0,0.000885,0,0
0:1:36.674,375.479,21.2496,0,0.000885,0,0
0:1:36.769,376.417,21.2979,0,0.000885,0,0
0:1:36.869,376.417,21.2979,0,0.000885,0,0
0:1:36.969,376.769,21.3186,0,0.000885,0,0
0:1:37.069,377.534,21.3669,0,0.000885,0,0
0:1:37.178,377.885,21.3806,0,0.000885,0,0
0:1:37.275,377.885,21.3806,0,0.000885,0,0
0:1:37.376,378.588,21.422,0,0.000885,0,0
0:1:37.476,379.233,21.4634,0,0.000885,0,0
0:1:37.575,379.82,21.491,0,0.000885,0,0
0:1:37.682,379.82,21.491,0,0.000885,0,0
0:1:37.778,380.35,21.5254,0,0.000885,0,0
0:1:37.879,380.995,21.5599,0,0.000885,0,0
0:1:37.979,381.52,21.5875,0,0.000885,0,0
0:1:38.079,381.52,21.5875,0,0.000885,0,0
0:1:38.178,381.933,21.6151,0,0.000885,0,0
0:1:38.280,382.52,21.6495,0,0.000885,0,0
0:1:38.382,383.103,21.6771,0,0.000885,0,0
0:1:38.483,383.103,21.6771,0,0.000885,0,0
0:1:38.582,383.868,21.7254,0,0.000885,0,0
0:1:38.683,384.162,21.7392,0,0.000885,0,0
0:1:38.784,384.571,21.7599,0,0.000885,0,0
0:1:38.884,384.571,21.7599,0,0.000885,0,0
0:1:38.985,385.452,21.815,0,0.000885,0,0
0:1:39.085,385.861,21.8357,0,0.000885,0,0
0:1:39.184,386.915,21.8977,0,0.000885,0,0
0:1:39.285,386.915,21.8977,0,0.000885,0,0
0:1:39.385,387.502,21.9253,0,0.000885,0,0
0:1:39.486,388.147,21.9667,0,0.000885,0,0
0:1:39.586,388.441,21.9805,0,0.000885,0,0
0:1:39.685,388.441,21.9805,0,0.000885,0,0
0:1:39.783,388.499,21.9874,0,0.000885,0,0
0:1:39.879,389.322,22.0287,0,0.000885,0,0
0:1:39.980,389.322,22.0287,0,0.000885,0,0
0:1:40.080,389.851,22.0632,0,0.000885,0,0
0:1:40.181,390.376,22.0908,0,0.000885,0,0
0:1:40.277,390.905,22.1184,0,0.000885,0,0
0:1:40.384,390.905,22.1184,0,0.000885,0,0
0:1:40.484,391.786,22.1735,0,0.000885,0,0
0:1:40.585,392.08,22.1873,0,0.000885,0,0
0:1:40.684,392.373,22.2011,0,0.000885,0,0
0:1:40.780,392.373,22.2011,0,0.000885,0,0
0:1:40.877,393.249,22.2563,0,0.000885,0,0
0:1:40.978,394.072,22.2976,0,0.000885,0,0
0:1:41.077,394.308,22.3114,0,0.000885,0,0
0:1:41.177,394.308,22.3114,0,0.000885,0,0
0:1:41.275,394.833,22.3459,0,0.000885,0,0
0:1:41.371,395.011,22.3528,0,0.000885,0,0
0:1:41.470,395.011,22.3528,0,0.000885,0,0
0:1:41.570,396.007,22.408,0,0.000885,0,0
0:1:41.670,396.359,22.4286,0,0.000885,0,0
0:1:41.779,397.004,22.4631,0,0.000885,0,0
0:1:41.876,397.004,22.4631,0,0.000885,0,0
0:1:41.975,397.355,22.4838,0,0.000885,0,0
0:1:42.077,397.827,22.5114,0,0.000885,0,0
0:1:42.175,398.65,22.5596,0,0.000885,0,0
0:1:42.274,398.65,22.5596,0,0.000885,0,0
0:1:42.381,399.584,22.6148,0,0.000885,0,0
0:1:42.479,400.233,22.6493,0,0.000885,0,0
0:1:42.580,400.7,22.6769,0,0.000885,0,0
0:1:42.681,400.7,22.6769,0,0.000885,0,0
0:1:42.777,400.994,22.6906,0,0.000885,0,0
0:1:42.874,401.639,22.7251,0,0.000885,0,0
0:1:42.971,402.048,22.7527,0,0.000885,0,0
0:1:43.072,402.048,22.7527,0,0.000885,0,0
0:1:43.172,402.462,22.7734,0,0.000885,0,0
0:1:43.274,402.751,22.7941,0,0.000885,0,0
0:1:43.372,403.689,22.8423,0,0.000885,0,0
0:1:43.476,403.689,22.8423,0,0.000885,0,0
0:1:43.576,404.045,22.863,0,0.000885,0,0
0:1:43.678,404.334,22.8837,0,0.000885,0,0
0:1:43.778,404.984,22.9182,0,0.000885,0,0
0:1:43.878,404.984,22.9182,0,0.000885,0,0
0:1:43.978,405.215,22.932,0,0.000885,0,0
0:1:44.079,405.918,22.9733,0,0.000885,0,0
0:1:44.178,405.918,22.9733,0,0.000885,0,0
0:1:44.279,406.505,23.0009,0,0.000885,0,0
0:1:44.378,407.035,23.0354,0,0.000885,0,0
0:1:44.478,407.973,23.0836,0,0.000885,0,0
0:1:44.578,407.973,23.0836,0,0.000885,0,0
0:1:44.680,408.44,23.1112,0,0.000885,0,0
0:1:44.780,409.263,23.1595,0,0.000885,0,0
0:1:44.876,409.966,23.2009,0,0.000885,0,0
0:1:44.983,409.966,23.2009,0,0.000885,0,0
0:1:45.083,410.202,23.2146,0,0.000885,0,0
0:1:45.184,410.495,23.2284,0,0.000885,0,0
0:1:45.284,410.611,23.2353,0,0.000885,0,0
0:1:45.380,410.611,23.2353,0,0.000885,0,0
0:1:45.478,410.847,23.2491,0,0.000885,0,0
0:1:45.577,411.256,23.2698,0,0.000885,0,0
0:1:45.679,411.14,23.2629,0,0.000885,0,0
0:1:45.777,411.14,23.2629,0,0.000885,0,0
0:1:45.875,411.256,23.2698,0,0.000885,0,0
0:1:45.982,411.67,23.2974,0,0.000885,0,0
0:1:46.078,412.021,23.3181,0,0.000885,0,0
0:1:46.179,412.021,23.3181,0,0.000885,0,0
0:1:46.279,411.963,23.3112,0,0.000885,0,0
0:1:46.378,412.079,23.3181,0,0.000885,0,0
0:1:46.476,412.079,23.3181,0,0.000885,0,0
0:1:46.584,412.372,23.3388,0,0.000885,0,0
0:1:46.686,412.608,23.3456,0,0.000885,0,0
0:1:46.785,412.488,23.3388,0,0.000885,0,0
0:1:46.883,412.488,23.3388,0,0.000885,0,0
0:1:46.979,412.488,23.3388,0,0.000885,0,0
0:1:47.077,412.252,23.3319,0,0.000885,0,0
0:1:47.176,412.021,23.3181,0,0.000885,0,0
0:1:47.276,412.021,23.3181,0,0.000885,0,0
0:1:47.375,411.843,23.3043,0,0.000885,0,0
0:1:47.482,411.376,23.2767,0,0.000885,0,0
0:1:47.579,410.962,23.256,0,0.000885,0,0
0:1:47.679,410.962,23.256,0,0.000885,0,0
0:1:47.780,410.669,23.2422,0,0.000885,0,0
0:1:47.880,409.735,23.1871,0,0.000885,0,0
0:1:47.978,409.147,23.1526,0,0.000885,0,0
0:1:48.080,409.147,23.1526,0,0.000885,0,0
0:1:48.180,408.089,23.0905,0,0.000885,0,0
0:1:48.282,406.857,23.0216,0,0.000885,0,0
0:1:48.382,405.687,22.9595,0,0.000885,0,0
0:1:48.482,405.687,22.9595,0,0.000885,0,0
0:1:48.580,403.81,22.8492,0,0.000885,0,0
0:1:48.680,401.875,22.7389,0,0.000885,0,0
0:1:48.779,401.875,22.7389,0,0.000885,0,0
0:1:48.880,399.762,22.6217,0,0.000885,0,0
0:1:48.979,395.892,22.4011,0,0.000885,0,0
0:1:49.080,391.55,22.1597,0,0.000885,0,0
0:1:49.178,391.55,22.1597,0,0.000885,0,0
0:1:49.278,388.032,21.9598,0,0.000885,0,0
0:1:49.378,385.567,21.8219,0,0.000885,0,0
0:1:49.476,383.868,21.7254,0,0.000885,0,0
0:1:49.571,383.868,21.7254,0,0.000885,0,0
0:1:49.669,382.107,21.622,0,0.000885,0,0
0:1:49.769,380.643,21.5392,0,0.000885,0,0
0:1:49.869,379.878,21.4979,0,0.000885,0,0
0:1:49.969,379.878,21.4979,0,0.000885,0,0
0:1:50.077,378.766,21.4358,0,0.000885,0,0
0:1:50.173,377.943,21.3875,0,0.000885,0,0
0:1:50.272,376.653,21.3117,0,0.000885,0,0
0:1:50.372,376.653,21.3117,0,0.000885,0,0
0:1:50.483,375.541,21.2496,0,0.000885,0,0
0:1:50.579,374.425,21.1876,0,0.000885,0,0
0:1:50.677,373.25,21.1186,0,0.000885,0,0
0:1:50.776,373.25,21.1186,0,0.000885,0,0
0:1:50.877,372.08,21.0566,0,0.000885,0,0
0:1:50.976,371.022,20.9945,0,0.000885,0,0
0:1:51.083,370.497,20.967,0,0.000885,0,0
0:1:51.189,370.497,20.967,0,0.000885,0,0
0:1:51.289,369.558,20.9118,0,0.000885,0,0
0:1:51.389,368.851,20.8704,0,0.000885,0,0
0:1:51.488,368.5,20.8497,0,0.000885,0,0
0:1:51.584,368.5,20.8497,0,0.000885,0,0
0:1:51.680,368.09,20.8291,0,0.000885,0,0
0:1:51.779,367.681,20.8084,0,0.000885,0,0
0:1:51.880,367.681,20.8084,0,0.000885,0,0
0:1:51.979,367.33,20.7877,0,0.000885,0,0
0:1:52.077,366.858,20.7601,0,0.000885,0,0
0:1:52.184,366.449,20.7394,0,0.000885,0,0
0:1:52.283,366.449,20.7394,0,0.000885,0,0
0:1:52.383,366.329,20.7325,0,0.000885,0,0
0:1:52.483,365.92,20.705,0,0.000885,0,0
0:1:52.579,365.159,20.6636,0,0.000885,0,0
0:1:52.686,365.159,20.6636,0,0.000885,0,0
0:1:52.784,364.63,20.636,0,0.000885,0,0
0:1:52.884,364.1,20.6015,0,0.000885,0,0
0:1:52.984,363.691,20.5809,0,0.000885,0,0
0:1:53.084,363.691,20.5809,0,0.000885,0,0
0:1:53.185,363.046,20.5464,0,0.000885,0,0
0:1:53.286,362.637,20.5188,0,0.000885,0,0
0:1:53.387,362.165,20.4912,0,0.000885,0,0
0:1:53.486,362.165,20.4912,0,0.000885,0,0
0:1:53.587,361.698,20.4705,0,0.000885,0,0
0:1:53.687,361.756,20.4705,0,0.000885,0,0
0:1:53.787,361.111,20.4361,0,0.000885,0,0
0:1:53.887,361.111,20.4361,0,0.000885,0,0
0:1:53.987,360.115,20.3809,0,0.000885,0,0
0:1:54.086,359.35,20.3326,0,0.000885,0,0
0:1:54.186,359.35,20.3326,0,0.000885,0,0
0:1:54.286,358.705,20.2982,0,0.000885,0,0
0:1:54.386,358.353,20.2775,0,0.000885,0,0
0:1:54.486,357.477,20.2292,0,0.000885,0,0
0:1:54.585,357.477,20.2292,0,0.000885,0,0
0:1:54.682,356.89,20.1947,0,0.000885,0,0
0:1:54.778,356.245,20.1603,0,0.000885,0,0
0:1:54.878,355.48,20.1189,0,0.000885,0,0
0:1:54.978,355.48,20.1189,0,0.000885,0,0
0:1:55.078,355.013,20.0913,0,0.000885,0,0
0:1:55.186,354.247,20.0431,0,0.000885,0,0
0:1:55.282,353.545,20.0086,0,0.000885,0,0
0:1:55.382,353.545,20.0086,0,0.000885,0,0
0:1:55.482,352.37,19.9396,0,0.000885,0,0
0:1:55.582,351.788,19.9052,0,0.000885,0,0
0:1:55.677,350.849,19.8569,0,0.000885,0,0
0:1:55.783,350.849,19.8569,0,0.000885,0,0
0:1:55.882,349.848,19.7948,0,0.000885,0,0
0:1:55.983,349.265,19.7673,0,0.000885,0,0
0:1:56.083,349.265,19.7673,0,0.000885,0,0
0:1:56.180,348.149,19.6983,0,0.000885,0,0
0:1:56.286,347.21,19.6501,0,0.000885,0,0
0:1:56.385,346.392,19.6018,0,0.000885,0,0
0:1:56.485,346.392,19.6018,0,0.000885,0,0
0:1:56.586,345.511,19.5535,0,0.000885,0,0
0:1:56.684,344.63,19.5053,0,0.000885,0,0
0:1:56.779,343.514,19.4363,0,0.000885,0,0
0:1:56.876,343.514,19.4363,0,0.000885,0,0
0:1:56.978,342.695,19.395,0,0.000885,0,0
0:1:57.077,341.579,19.3329,0,0.000885,0,0
0:1:57.177,340.818,19.2846,0,0.000885,0,0
0:1:57.284,340.818,19.2846,0,0.000885,0,0
0:1:57.379,339.764,19.2295,0,0.000885,0,0
0:1:57.479,338.59,19.1605,0,0.000885,0,0
0:1:57.580,337.887,19.1192,0,0.000885,0,0
0:1:57.679,337.887,19.1192,0,0.000885,0,0
0:1:57.786,336.597,19.0502,0,0.000885,0,0
0:1:57.883,335.307,18.9744,0,0.000885,0,0
0:1:57.982,334.075,18.9054,0,0.000885,0,0
0:1:58.083,334.075,18.9054,0,0.000885,0,0
0:1:58.182,332.665,18.8227,0,0.000885,0,0
0:1:58.282,330.845,18.7193,0,0.000885,0,0
0:1:58.382,330.845,18.7193,0,0.000885,0,0
0:1:58.484,329.498,18.6434,0,0.000885,0,0
0:1:58.584,327.972,18.5607,0,0.000885,0,0
0:1:58.684,326.682,18.4848,0,0.000885,0,0
0:1:58.784,326.682,18.4848,0,0.000885,0,0
0:1:58.885,325.334,18.409,0,0.000885,0,0
0:1:58.985,324.338,18.3538,0,0.000885,0,0
0:1:59.086,322.87,18.2711,0,0.000885,0,0
0:1:59.185,322.87,18.2711,0,0.000885,0,0
0:1:59.285,321.758,18.2091,0,0.000885,0,0
0:1:59.384,320.348,18.1263,0,0.000885,0,0
0:1:59.485,318.706,18.0367,0,0.000885,0,0
0:1:59.585,318.706,18.0367,0,0.000885,0,0
0:1:59.686,317.007,17.9402,0,0.000885,0,0
0:1:59.782,315.597,17.8574,0,0.000885,0,0
0:1:59.888,313.368,17.7333,0,0.000885,0,0
0:1:59.986,313.368,17.7333,0,0.000885,0,0
0:2:0.086,311.26,17.6161,0,0.000885,0,0
0:2:0.187,309.383,17.5058,0,0.000885,0,0
0:2:0.284,307.448,17.3955,0,0.000885,0,0
0:2:0.382,307.448,17.3955,0,0.000885,0,0
0:2:0.478,305.335,17.2783,0,0.000885,0,0
0:2:0.579,303.636,17.1817,0,0.000885,0,0
0:2:0.679,301.638,17.0714,0,0.000885,0,0
0:2:0.777,301.638,17.0714,0,0.000885,0,0
0:2:0.884,299.53,16.9473,0,0.000885,0,0
0:2:0.979,298.004,16.8646,0,0.000885,0,0
0:2:1.081,298.004,16.8646,0,0.000885,0,0
0:2:1.180,296.127,16.7543,0,0.000885,0,0
0:2:1.279,293.898,16.6302,0,0.000885,0,0
0:2:1.374,291.906,16.5198,0,0.000885,0,0
0:2:1.484,291.906,16.5198,0,0.000885,0,0
0:2:1.583,290.028,16.4095,0,0.000885,0,0
0:2:1.614,290.028,16.4095,0,0.000885,0,0