File: DataFile2021-07-17_063903.csv
Test ID:,Date Tested:,Time:,Test Type:,Diameter Avg. (mm):,Cyl. Corr. Factor:,Height (mm):,Age (days):,Weight (kN):,Break Type:,Ramp Rate (MPa/s):,Load at Break (kN):,Stress at Break (MPa):
12,7/17/2021,06:39,Cylinder,100,1,200,0,3.6,3,0.25,1320.6,168.14
Sample Time,Load (kN),Stress (MPa),Long. Strain,Trans. Strain,Chan1 Deflection (mm),Chan2 Deflection (mm)
0:0:8.443,5.51135,0.703265,0,0.000885,0,0
0:0:9.038,7.73991,0.98595,0,0.000885,0,0
0:0:9.632,7.86001,0.99974,0,0.000885,0,0
0:0:10.227,8.32707,1.06179,0,0.000885,0,0
0:0:10.827,9.38575,1.19279,0,0.000885,0,0
0:0:11.422,10.9693,1.39964,0,0.000885,0,0
0:0:12.019,11.4942,1.46169,0,0.000885,0,0
0:0:12.612,13.3714,1.70301,0,0.000885,0,0
0:0:13.208,14.43,1.83401,0,0.000885,0,0
0:0:13.805,15.3686,1.95811,0,0.000885,0,0
0:0:14.411,16.5963,2.11669,0,0.000885,0,0
0:0:15.019,17.8285,2.26838,0,0.000885,0,0
0:0:15.623,19.7056,2.50969,0,0.000885,0,0
0:0:16.219,21.1735,2.69585,0,0.000885,0,0
0:0:16.817,22.2278,2.82685,0,0.000885,0,0
0:0:17.416,22.8728,2.90959,0,0.000885,0,0
0:0:18.013,24.1049,3.06817,0,0.000885,0,0
0:0:18.611,25.1591,3.20606,0,0.000885,0,0
0:0:19.212,26.3913,3.35775,0,0.000885,0,0
0:0:19.821,27.3299,3.48185,0,0.000885,0,0
0:0:20.424,28.5042,3.62664,0,0.000885,0,0
0:0:21.026,29.5584,3.76454,0,0.000885,0,0
0:0:21.625,31.3199,3.98517,0,0.000885,0,0
0:0:22.219,32.2007,4.10238,0,0.000885,0,0
0:0:22.816,33.3706,4.24717,0,0.000885,0,0
0:0:23.413,34.2513,4.36438,0,0.000885,0,0
0:0:24.022,35.4835,4.51607,0,0.000885,0,0
0:0:24.630,36.9514,4.70222,0,0.000885,0,0
0:0:25.231,38.0056,4.84012,0,0.000885,0,0
0:0:25.828,39.9984,5.09523,0,0.000885,0,0
0:0:26.423,40.7057,5.18486,0,0.000885,0,0
0:0:27.021,41.6398,5.30207,0,0.000885,0,0
0:0:27.619,42.8141,5.45375,0,0.000885,0,0
0:0:28.218,43.517,5.54338,0,0.000885,0,0
0:0:28.814,44.9849,5.72954,0,0.000885,0,0
0:0:29.423,45.8078,5.83296,0,0.000885,0,0
0:0:30.030,47.5648,6.0536,0,0.000885,0,0
0:0:30.628,48.797,6.21218,0,0.000885,0,0
0:0:31.228,50.5585,6.4397,0,0.000885,0,0
0:0:31.826,51.377,6.54312,0,0.000885,0,0
0:0:32.422,52.1421,6.63965,0,0.000885,0,0
0:0:33.020,53.5477,6.81891,0,0.000885,0,0
0:0:33.614,54.3083,6.91544,0,0.000885,0,0
0:0:34.223,55.6028,7.08092,0,0.000885,0,0
0:0:34.830,56.7148,7.21881,0,0.000885,0,0
0:0:35.436,58.2406,7.41876,0,0.000885,0,0
0:0:36.031,59.059,7.52218,0,0.000885,0,0
0:0:36.628,60.2912,7.67386,0,0.000885,0,0
0:0:37.223,61.3499,7.81176,0,0.000885,0,0
0:0:37.821,62.9334,8.01171,0,0.000885,0,0
0:0:38.416,64.1656,8.17029,0,0.000885,0,0
0:0:39.017,65.0419,8.2806,0,0.000885,0,0
0:0:39.625,67.2126,8.55639,0,0.000885,0,0
0:0:40.231,67.9777,8.65292,0,0.000885,0,0
0:0:40.830,68.7962,8.75634,0,0.000885,0,0
0:0:41.424,69.2054,8.8115,0,0.000885,0,0
0:0:42.025,70.5577,8.98387,0,0.000885,0,0
0:0:42.624,72.1991,9.19071,0,0.000885,0,0
0:0:43.220,73.667,9.37687,0,0.000885,0,0
0:0:43.820,74.6056,9.50098,0,0.000885,0,0
0:0:44.429,75.7755,9.64577,0,0.000885,0,0
0:0:45.034,77.4168,9.8595,0,0.000885,0,0
0:0:45.632,77.7104,9.89398,0,0.000885,0,0
0:0:46.231,79.2362,10.087,0,0.000885,0,0
0:0:46.826,80.7619,10.2801,0,0.000885,0,0
0:0:47.423,81.7005,10.4042,0,0.000885,0,0
0:0:48.019,82.8748,10.549,0,0.000885,0,0
0:0:48.617,83.8712,10.68,0,0.000885,0,0
0:0:49.226,84.8098,10.7972,0,0.000885,0,0
0:0:49.833,86.3355,10.9902,0,0.000885,0,0
0:0:50.436,87.799,11.1764,0,0.000885,0,0
0:0:51.030,88.9155,11.3212,0,0.000885,0,0
0:0:51.626,89.6183,11.4108,0,0.000885,0,0
0:0:52.224,91.3175,11.6246,0,0.000885,0,0
0:0:52.823,92.1405,11.7349,0,0.000885,0,0
0:0:53.422,93.724,11.9348,0,0.000885,0,0
0:0:54.020,94.4847,12.0314,0,0.000885,0,0
0:0:54.630,95.9526,12.2175,0,0.000885,0,0
0:0:55.234,96.8912,12.3347,0,0.000885,0,0
0:0:55.835,98.0655,12.4864,0,0.000885,0,0
0:0:56.433,99.5868,12.6795,0,0.000885,0,0
0:0:57.030,100.174,12.7553,0,0.000885,0,0
0:0:57.627,101.758,12.9552,0,0.000885,0,0
0:0:58.223,103.105,13.1276,0,0.000885,0,0
0:0:58.825,104.044,13.2448,0,0.000885,0,0
0:0:59.433,105.218,13.3965,0,0.000885,0,0
0:1:0.039,106.215,13.5206,0,0.000885,0,0
0:1:0.638,107.447,13.6792,0,0.000885,0,0
0:1:1.235,108.328,13.7895,0,0.000885,0,0
0:1:1.831,109.911,13.9964,0,0.000885,0,0
0:1:2.427,110.965,14.1274,0,0.000885,0,0
0:1:3.026,112.375,14.3066,0,0.000885,0,0
0:1:3.622,113.256,14.4169,0,0.000885,0,0
0:1:4.230,114.72,14.61,0,0.000885,0,0
0:1:4.836,116.01,14.7686,0,0.000885,0,0
0:1:5.438,116.655,14.8513,0,0.000885,0,0
0:1:6.034,118.71,15.1133,0,0.000885,0,0
0:1:6.632,119.355,15.196,0,0.000885,0,0
0:1:7.230,120.645,15.3615,0,0.000885,0,0
0:1:7.830,121.819,15.5132,0,0.000885,0,0
0:1:8.428,123.109,15.6718,0,0.000885,0,0
0:1:9.025,124.163,15.8097,0,0.000885,0,0
0:1:9.634,124.866,15.8993,0,0.000885,0,0
0:1:10.241,126.45,16.0993,0,0.000885,0,0
0:1:10.840,127.215,16.1958,0,0.000885,0,0
0:1:11.436,129.03,16.4302,0,0.000885,0,0
0:1:12.033,130.382,16.6026,0,0.000885,0,0
0:1:12.630,131.378,16.7267,0,0.000885,0,0
0:1:13.224,132.432,16.8646,0,0.000885,0,0
0:1:13.821,133.193,16.9611,0,0.000885,0,0
0:1:14.430,134.955,17.1817,0,0.000885,0,0
0:1:15.036,135.835,17.2921,0,0.000885,0,0
0:1:15.641,137.068,17.4506,0,0.000885,0,0
0:1:16.237,138.122,17.5885,0,0.000885,0,0
0:1:16.833,139.118,17.7126,0,0.000885,0,0
0:1:17.430,140.586,17.8988,0,0.000885,0,0
0:1:18.030,141.698,18.0436,0,0.000885,0,0
0:1:18.627,143.282,18.2435,0,0.000885,0,0
0:1:19.235,144.105,18.3469,0,0.000885,0,0
0:1:19.841,144.985,18.4573,0,0.000885,0,0
0:1:20.461,146.511,18.6572,0,0.000885,0,0
0:1:21.071,147.859,18.8227,0,0.000885,0,0
0:1:21.670,149.029,18.9744,0,0.000885,0,0
0:1:22.269,149.852,19.0778,0,0.000885,0,0
0:1:22.873,151.026,19.2295,0,0.000885,0,0
0:1:23.466,152.432,19.4087,0,0.000885,0,0
0:1:24.075,153.428,19.5328,0,0.000885,0,0
0:1:24.683,154.78,19.7052,0,0.000885,0,0
0:1:25.288,156.128,19.8776,0,0.000885,0,0
0:1:25.887,157.125,20.0086,0,0.000885,0,0
0:1:26.485,158.592,20.1947,0,0.000885,0,0
0:1:27.078,159.705,20.3326,0,0.000885,0,0
0:1:27.675,160.349,20.4154,0,0.000885,0,0
0:1:28.272,161.639,20.5809,0,0.000885,0,0
0:1:28.871,163.223,20.7808,0,0.000885,0,0
0:1:29.479,164.162,20.9049,0,0.000885,0,0
0:1:30.084,165.572,21.0842,0,0.000885,0,0
0:1:30.684,166.332,21.1807,0,0.000885,0,0
0:1:31.281,167.565,21.3324,0,0.000885,0,0
0:1:31.882,168.619,21.4703,0,0.000885,0,0
0:1:32.480,169.971,21.6426,0,0.000885,0,0
0:1:33.077,171.319,21.815,0,0.000885,0,0
0:1:33.672,172.315,21.9391,0,0.000885,0,0
0:1:34.279,173.783,22.1253,0,0.000885,0,0
0:1:34.884,174.78,22.2563,0,0.000885,0,0
0:1:35.491,176.537,22.4769,0,0.000885,0,0
0:1:36.088,177.475,22.5941,0,0.000885,0,0
0:1:36.680,178.298,22.7044,0,0.000885,0,0
0:1:37.277,179.704,22.8837,0,0.000885,0,0
0:1:37.873,180.527,22.9871,0,0.000885,0,0
0:1:38.471,182.11,23.1871,0,0.000885,0,0
0:1:39.066,183.049,23.3043,0,0.000885,0,0
0:1:39.678,184.103,23.4422,0,0.000885,0,0
0:1:40.285,185.451,23.6145,0,0.000885,0,0
0:1:40.884,186.158,23.7042,0,0.000885,0,0
0:1:41.485,187.679,23.8972,0,0.000885,0,0
0:1:42.081,189.147,24.0834,0,0.000885,0,0
0:1:42.679,190.557,24.2627,0,0.000885,0,0
0:1:43.276,191.612,24.3937,0,0.000885,0,0
0:1:43.877,193.253,24.6074,0,0.000885,0,0
0:1:44.479,193.898,24.6901,0,0.000885,0,0
0:1:45.082,194.721,24.7935,0,0.000885,0,0
0:1:45.677,195.659,24.9108,0,0.000885,0,0
0:1:46.267,196.598,25.0349,0,0.000885,0,0
0:1:46.858,198.413,25.2624,0,0.000885,0,0
0:1:47.468,199.178,25.3589,0,0.000885,0,0
0:1:48.065,200.704,25.552,0,0.000885,0,0
0:1:48.658,202.287,25.7588,0,0.000885,0,0
0:1:49.262,203.457,25.9036,0,0.000885,0,0
0:1:49.863,204.454,26.0346,0,0.000885,0,0
0:1:50.458,205.686,26.1863,0,0.000885,0,0
0:1:51.051,207.096,26.3656,0,0.000885,0,0
0:1:51.644,207.741,26.4483,0,0.000885,0,0
0:1:52.238,208.915,26.6,0,0.000885,0,0
0:1:52.832,210.027,26.7448,0,0.000885,0,0
0:1:53.423,211.144,26.8827,0,0.000885,0,0
0:1:54.022,212.314,27.0343,0,0.000885,0,0
0:1:54.627,213.724,27.2136,0,0.000885,0,0
0:1:55.228,214.427,27.3032,0,0.000885,0,0
0:1:55.822,215.659,27.4618,0,0.000885,0,0
0:1:56.414,216.891,27.6135,0,0.000885,0,0
0:1:57.006,218.354,27.7997,0,0.000885,0,0
0:1:57.598,219.764,27.9789,0,0.000885,0,0
0:1:58.189,220.583,28.0823,0,0.000885,0,0
0:1:58.785,222.051,28.2754,0,0.000885,0,0
0:1:59.388,222.811,28.3719,0,0.000885,0,0
0:1:59.991,224.164,28.5443,0,0.000885,0,0
0:2:0.590,225.569,28.7236,0,0.000885,0,0
0:2:1.179,225.979,28.7718,0,0.000885,0,0
0:2:1.773,227.562,28.9718,0,0.000885,0,0
0:2:2.375,228.736,29.1235,0,0.000885,0,0
0:2:2.979,230.378,29.3303,0,0.000885,0,0
0:2:3.572,230.849,29.3924,0,0.000885,0,0
0:2:4.178,232.313,29.5785,0,0.000885,0,0
0:2:4.779,233.545,29.7371,0,0.000885,0,0
0:2:5.373,234.368,29.8405,0,0.000885,0,0
0:2:5.978,235.774,30.0198,0,0.000885,0,0
0:2:6.569,236.712,30.137,0,0.000885,0,0
0:2:7.175,238.064,30.3094,0,0.000885,0,0
0:2:7.766,239.176,30.4541,0,0.000885,0,0
0:2:8.366,240.996,30.6817,0,0.000885,0,0
0:2:8.962,241.814,30.792,0,0.000885,0,0
0:2:9.566,242.637,30.8954,0,0.000885,0,0
0:2:10.166,243.576,31.0126,0,0.000885,0,0
0:2:10.769,245.044,31.1988,0,0.000885,0,0
0:2:11.374,246.271,31.3574,0,0.000885,0,0
0:2:11.974,247.21,31.4746,0,0.000885,0,0
0:2:12.576,249.087,31.7159,0,0.000885,0,0
0:2:13.179,249.968,31.8262,0,0.000885,0,0
0:2:13.773,251.378,32.0055,0,0.000885,0,0
0:2:14.377,252.432,32.1434,0,0.000885,0,0
0:2:14.978,253.544,32.2813,0,0.000885,0,0
0:2:15.576,254.776,32.4398,0,0.000885,0,0
0:2:16.176,255.773,32.5639,0,0.000885,0,0
0:2:16.780,257.419,32.7777,0,0.000885,0,0
0:2:17.382,258.295,32.888,0,0.000885,0,0
0:2:17.976,259.118,32.9914,0,0.000885,0,0
0:2:18.577,259.941,33.0948,0,0.000885,0,0
0:2:19.182,261.462,33.2879,0,0.000885,0,0
0:2:19.785,262.752,33.4534,0,0.000885,0,0
0:2:20.388,264.456,33.674,0,0.000885,0,0
0:2:20.983,265.688,33.8257,0,0.000885,0,0
0:2:21.577,266.684,33.9567,0,0.000885,0,0
0:2:22.167,268.21,34.1497,0,0.000885,0,0
0:2:22.758,268.797,34.2256,0,0.000885,0,0
0:2:23.358,269.736,34.3428,0,0.000885,0,0
0:2:23.961,271.199,34.5289,0,0.000885,0,0
0:2:24.562,271.964,34.6255,0,0.000885,0,0
0:2:25.164,273.312,34.7978,0,0.000885,0,0
0:2:25.765,273.721,34.853,0,0.000885,0,0
0:2:26.357,275.776,35.115,0,0.000885,0,0
0:2:26.958,277.476,35.3287,0,0.000885,0,0
0:2:27.560,279.001,35.5218,0,0.000885,0,0
0:2:28.155,279.589,35.5976,0,0.000885,0,0
0:2:28.767,280.113,35.6666,0,0.000885,0,0
0:2:29.371,281.755,35.8734,0,0.000885,0,0
0:2:29.971,282.987,36.032,0,0.000885,0,0
0:2:30.565,284.103,36.1699,0,0.000885,0,0
0:2:31.168,285.336,36.3285,0,0.000885,0,0
0:2:31.773,285.981,36.4112,0,0.000885,0,0
0:2:32.366,287.622,36.6181,0,0.000885,0,0
0:2:32.959,288.739,36.7628,0,0.000885,0,0
0:2:33.560,289.908,36.9145,0,0.000885,0,0
0:2:34.160,291.318,37.0938,0,0.000885,0,0
0:2:34.763,292.373,37.2248,0,0.000885,0,0
0:2:35.363,294.134,37.4523,0,0.000885,0,0
0:2:35.957,294.25,37.4661,0,0.000885,0,0
0:2:36.547,295.891,37.673,0,0.000885,0,0
0:2:37.138,297.301,37.8522,0,0.000885,0,0
0:2:37.732,298.12,37.9556,0,0.000885,0,0
0:2:38.325,299.646,38.1487,0,0.000885,0,0
0:2:38.927,300.526,38.2659,0,0.000885,0,0
0:2:39.528,301.407,38.3762,0,0.000885,0,0
0:2:40.126,302.813,38.5555,0,0.000885,0,0
0:2:40.717,303.751,38.6727,0,0.000885,0,0
0:2:41.311,305.277,38.8657,0,0.000885,0,0
0:2:41.903,306.567,39.0312,0,0.000885,0,0
0:2:42.500,307.741,39.1829,0,0.000885,0,0
0:2:43.091,308.796,39.3139,0,0.000885,0,0
0:2:43.688,310.201,39.4932,0,0.000885,0,0
0:2:44.291,311.14,39.6173,0,0.000885,0,0
0:2:44.893,312.492,39.7896,0,0.000885,0,0
0:2:45.490,313.72,39.9413,0,0.000885,0,0
0:2:46.081,314.307,40.0172,0,0.000885,0,0
0:2:46.682,316.011,40.2378,0,0.000885,0,0
0:2:47.272,316.535,40.2999,0,0.000885,0,0
0:2:47.863,318.47,40.5481,0,0.000885,0,0
0:2:48.458,319,40.617,0,0.000885,0,0
0:2:49.062,320.993,40.8721,0,0.000885,0,0
0:2:49.663,321.464,40.9273,0,0.000885,0,0
0:2:50.260,322.403,41.0514,0,0.000885,0,0
0:2:50.862,324.222,41.2789,0,0.000885,0,0
0:2:51.473,324.925,41.3685,0,0.000885,0,0
0:2:52.080,326.682,41.5961,0,0.000885,0,0
0:2:52.683,327.211,41.665,0,0.000885,0,0
0:2:53.271,329.204,41.9132,0,0.000885,0,0
0:2:53.881,329.969,42.0098,0,0.000885,0,0
0:2:54.484,331.433,42.2028,0,0.000885,0,0
0:2:55.084,331.962,42.2649,0,0.000885,0,0
0:2:55.680,333.078,42.4097,0,0.000885,0,0
0:2:56.282,334.133,42.5407,0,0.000885,0,0
0:2:56.872,335.832,42.7613,0,0.000885,0,0
0:2:57.473,337.122,42.9268,0,0.000885,0,0
0:2:58.078,337.767,43.0026,0,0.000885,0,0
0:2:58.671,339.586,43.237,0,0.000885,0,0
0:2:59.275,340.409,43.3404,0,0.000885,0,0
0:2:59.874,341.579,43.4921,0,0.000885,0,0
0:3:0.470,343.105,43.6852,0,0.000885,0,0
0:3:1.062,343.928,43.7886,0,0.000885,0,0
0:3:1.655,345.333,43.9679,0,0.000885,0,0
0:3:2.249,346.392,44.1058,0,0.000885,0,0
0:3:2.842,346.975,44.1816,0,0.000885,0,0
0:3:3.435,348.91,44.4229,0,0.000885,0,0
0:3:4.040,349.733,44.5263,0,0.000885,0,0
0:3:4.642,351.143,44.7056,0,0.000885,0,0
0:3:5.237,352.664,44.9056,0,0.000885,0,0
0:3:5.829,353.193,44.9676,0,0.000885,0,0
0:3:6.422,354.483,45.1331,0,0.000885,0,0
0:3:7.014,355.951,45.3192,0,0.000885,0,0
0:3:7.604,357.183,45.4778,0,0.000885,0,0
0:3:8.195,358.06,45.5881,0,0.000885,0,0
0:3:8.797,359.292,45.7467,0,0.000885,0,0
0:3:9.401,360.35,45.8777,0,0.000885,0,0
0:3:10.002,361.289,46.0018,0,0.000885,0,0
0:3:10.595,363.224,46.25,0,0.000885,0,0
0:3:11.186,363.633,46.2983,0,0.000885,0,0
0:3:11.776,364.22,46.3741,0,0.000885,0,0
0:3:12.367,366.155,46.6223,0,0.000885,0,0
0:3:12.970,366.916,46.7189,0,0.000885,0,0
0:3:13.563,367.912,46.843,0,0.000885,0,0
0:3:14.168,369.438,47.036,0,0.000885,0,0
0:3:14.769,371.142,47.2567,0,0.000885,0,0
0:3:15.366,372.018,47.367,0,0.000885,0,0
0:3:15.957,373.077,47.5049,0,0.000885,0,0
0:3:16.550,374.247,47.6497,0,0.000885,0,0
0:3:17.145,375.479,47.8082,0,0.000885,0,0
0:3:17.739,377.005,48.0013,0,0.000885,0,0
0:3:18.332,377.534,48.0702,0,0.000885,0,0
0:3:18.935,378.588,48.2012,0,0.000885,0,0
0:3:19.538,379.998,48.3805,0,0.000885,0,0
0:3:20.131,381.582,48.5874,0,0.000885,0,0
0:3:20.725,382.814,48.739,0,0.000885,0,0
0:3:21.318,383.459,48.8218,0,0.000885,0,0
0:3:21.911,385.394,49.07,0,0.000885,0,0
0:3:22.503,386.039,49.1527,0,0.000885,0,0
0:3:23.092,387.56,49.3458,0,0.000885,0,0
0:3:23.693,388.735,49.4975,0,0.000885,0,0
0:3:24.297,389.909,49.6423,0,0.000885,0,0
0:3:24.898,391.315,49.8215,0,0.000885,0,0
0:3:25.492,392.253,49.9456,0,0.000885,0,0
0:3:26.084,393.605,50.118,0,0.000885,0,0
0:3:26.683,394.25,50.2007,0,0.000885,0,0
0:3:27.283,394.953,50.2835,0,0.000885,0,0
0:3:27.875,396.301,50.4558,0,0.000885,0,0
0:3:28.482,398,50.6765,0,0.000885,0,0
0:3:29.085,399.468,50.8626,0,0.000885,0,0
0:3:29.687,399.646,50.8833,0,0.000885,0,0
0:3:30.283,401.461,51.1177,0,0.000885,0,0
0:3:30.873,402.284,51.2212,0,0.000885,0,0
0:3:31.466,403.983,51.4349,0,0.000885,0,0
0:3:32.062,404.806,51.5383,0,0.000885,0,0
0:3:32.655,406.212,51.7176,0,0.000885,0,0
0:3:33.249,407.27,51.8555,0,0.000885,0,0
0:3:33.854,408.734,52.0416,0,0.000885,0,0
0:3:34.456,409.73,52.1657,0,0.000885,0,0
0:3:35.050,410.847,52.3105,0,0.000885,0,0
0:3:35.645,412.252,52.4898,0,0.000885,0,0
0:3:36.237,412.724,52.5518,0,0.000885,0,0
0:3:36.830,414.072,52.7242,0,0.000885,0,0
0:3:37.423,415.655,52.9242,0,0.000885,0,0
0:3:38.022,417.297,53.131,0,0.000885,0,0
0:3:38.623,417.884,53.2068,0,0.000885,0,0
0:3:39.227,418.764,53.3172,0,0.000885,0,0
0:3:39.829,420.17,53.4964,0,0.000885,0,0
0:3:40.423,421.287,53.6412,0,0.000885,0,0
0:3:41.015,422.283,53.7653,0,0.000885,0,0
0:3:41.605,423.222,53.8894,0,0.000885,0,0
0:3:42.197,424.983,54.1101,0,0.000885,0,0
0:3:42.791,426.037,54.248,0,0.000885,0,0
0:3:43.385,427.563,54.441,0,0.000885,0,0
0:3:43.987,428.208,54.5237,0,0.000885,0,0
0:3:44.589,429.32,54.6616,0,0.000885,0,0
0:3:45.188,430.085,54.7582,0,0.000885,0,0
0:3:45.778,431.611,54.9512,0,0.000885,0,0
0:3:46.367,433.017,55.1305,0,0.000885,0,0
0:3:46.962,434.133,55.2753,0,0.000885,0,0
0:3:47.554,435.245,55.4201,0,0.000885,0,0
0:3:48.148,435.89,55.4959,0,0.000885,0,0
0:3:48.752,437.945,55.7579,0,0.000885,0,0
0:3:49.352,439.057,55.9027,0,0.000885,0,0
0:3:49.944,440.054,56.0268,0,0.000885,0,0
0:3:50.538,441.228,56.1785,0,0.000885,0,0
0:3:51.131,441.579,56.2267,0,0.000885,0,0
0:3:51.725,443.279,56.4405,0,0.000885,0,0
0:3:52.319,445.098,56.6749,0,0.000885,0,0
0:3:52.908,445.921,56.7783,0,0.000885,0,0
0:3:53.504,446.917,56.9024,0,0.000885,0,0
0:3:54.109,447.62,56.9921,0,0.000885,0,0
0:3:54.710,449.03,57.1713,0,0.000885,0,0
0:3:55.305,450.378,57.3437,0,0.000885,0,0
0:3:55.899,451.726,57.5161,0,0.000885,0,0
0:3:56.489,452.958,57.6746,0,0.000885,0,0
0:3:57.078,454.364,57.8539,0,0.000885,0,0
0:3:57.671,455.009,57.9366,0,0.000885,0,0
0:3:58.263,455.832,58.0401,0,0.000885,0,0
0:3:58.868,457.944,58.309,0,0.000885,0,0
0:3:59.470,458.296,58.3503,0,0.000885,0,0
0:4:0.068,460.289,58.6054,0,0.000885,0,0
0:4:0.670,461.049,58.702,0,0.000885,0,0
0:4:1.279,462.224,58.8536,0,0.000885,0,0
0:4:1.874,463.22,58.9778,0,0.000885,0,0
0:4:2.467,464.279,59.1156,0,0.000885,0,0
0:4:3.071,465.862,59.3156,0,0.000885,0,0
0:4:3.676,466.739,59.4259,0,0.000885,0,0
0:4:4.275,468.322,59.6259,0,0.000885,0,0
0:4:4.879,469.261,59.75,0,0.000885,0,0
0:4:5.474,469.968,59.8396,0,0.000885,0,0
0:4:6.067,471.961,60.0947,0,0.000885,0,0
0:4:6.679,472.49,60.1568,0,0.000885,0,0
0:4:7.281,473.954,60.3429,0,0.000885,0,0
0:4:7.892,475.012,60.4808,0,0.000885,0,0
0:4:8.494,476.596,60.6808,0,0.000885,0,0
0:4:9.097,478.117,60.8738,0,0.000885,0,0
0:4:9.698,478.531,60.929,0,0.000885,0,0
0:4:10.288,479.994,61.1151,0,0.000885,0,0
0:4:10.889,481.578,61.3151,0,0.000885,0,0
0:4:11.481,482.165,61.3909,0,0.000885,0,0
0:4:12.082,482.694,61.4599,0,0.000885,0,0
0:4:12.690,484.803,61.7288,0,0.000885,0,0
0:4:13.291,485.274,61.7839,0,0.000885,0,0
0:4:13.896,487.267,62.039,0,0.000885,0,0
0:4:14.498,487.97,62.1287,0,0.000885,0,0
0:4:15.091,489.731,62.3562,0,0.000885,0,0
0:4:15.681,490.083,62.3976,0,0.000885,0,0
0:4:16.276,491.079,62.5286,0,0.000885,0,0
0:4:16.879,492.663,62.7285,0,0.000885,0,0
0:4:17.490,493.953,62.894,0,0.000885,0,0
0:4:18.091,495.127,63.0388,0,0.000885,0,0
0:4:18.696,496.595,63.2249,0,0.000885,0,0
0:4:19.296,497.943,63.3973,0,0.000885,0,0
0:4:19.898,499.233,63.5628,0,0.000885,0,0
0:4:20.489,499.642,63.6179,0,0.000885,0,0
0:4:21.090,501.052,63.7972,0,0.000885,0,0
0:4:21.680,502.458,63.9765,0,0.000885,0,0
0:4:22.284,503.632,64.1212,0,0.000885,0,0
0:4:22.878,504.864,64.2798,0,0.000885,0,0
0:4:23.482,505.976,64.4246,0,0.000885,0,0
0:4:24.089,506.915,64.5418,0,0.000885,0,0
0:4:24.690,508.676,64.7693,0,0.000885,0,0
0:4:25.284,509.086,64.8176,0,0.000885,0,0
0:4:25.877,510.554,65.0038,0,0.000885,0,0
0:4:26.472,512.017,65.1899,0,0.000885,0,0
0:4:27.082,513.076,65.3278,0,0.000885,0,0
0:4:27.683,514.601,65.5209,0,0.000885,0,0
0:4:28.284,516.185,65.7208,0,0.000885,0,0
0:4:28.889,516.065,65.707,0,0.000885,0,0
0:4:29.491,516.83,65.8036,0,0.000885,0,0
0:4:30.093,518.765,66.0518,0,0.000885,0,0
0:4:30.683,520.113,66.2241,0,0.000885,0,0
0:4:31.282,520.994,66.3345,0,0.000885,0,0
0:4:31.875,522.519,66.5275,0,0.000885,0,0
0:4:32.470,523.396,66.6378,0,0.000885,0,0
0:4:33.074,524.748,66.8102,0,0.000885,0,0
0:4:33.678,526.096,66.9826,0,0.000885,0,0
0:4:34.279,527.27,67.1343,0,0.000885,0,0
0:4:34.874,527.853,67.2101,0,0.000885,0,0
0:4:35.467,528.733,67.3204,0,0.000885,0,0
0:4:36.061,530.259,67.5135,0,0.000885,0,0
0:4:36.654,531.665,67.6927,0,0.000885,0,0
0:4:37.247,532.955,67.8582,0,0.000885,0,0
0:4:37.839,534.601,68.065,0,0.000885,0,0
0:4:38.437,535.01,68.1202,0,0.000885,0,0
0:4:39.040,536.536,68.3133,0,0.000885,0,0
0:4:39.641,537.238,68.4029,0,0.000885,0,0
0:4:40.235,538.938,68.6166,0,0.000885,0,0
0:4:40.827,539.351,68.6718,0,0.000885,0,0
0:4:41.419,541.051,68.8855,0,0.000885,0,0
0:4:42.007,542.576,69.0855,0,0.000885,0,0
0:4:42.600,543.515,69.2027,0,0.000885,0,0
0:4:43.194,544.044,69.2716,0,0.000885,0,0
0:4:43.797,545.743,69.4854,0,0.000885,0,0
0:4:44.398,546.446,69.575,0,0.000885,0,0
0:4:44.994,548.266,69.8094,0,0.000885,0,0
0:4:45.595,548.733,69.8646,0,0.000885,0,0
0:4:46.184,549.849,70.0094,0,0.000885,0,0
0:4:46.799,552.02,70.2852,0,0.000885,0,0
0:4:47.391,552.487,70.3472,0,0.000885,0,0
0:4:47.983,554.191,70.5609,0,0.000885,0,0
0:4:48.587,554.715,70.6299,0,0.000885,0,0
0:4:49.187,556.063,70.8023,0,0.000885,0,0
0:4:49.781,557.238,70.9471,0,0.000885,0,0
0:4:50.374,558.821,71.1539,0,0.000885,0,0
0:4:50.970,560.463,71.3607,0,0.000885,0,0
0:4:51.582,561.108,71.4435,0,0.000885,0,0
0:4:52.185,562.166,71.5745,0,0.000885,0,0
0:4:52.776,562.691,71.6434,0,0.000885,0,0
0:4:53.376,564.043,71.8158,0,0.000885,0,0
0:4:53.980,565.858,72.0502,0,0.000885,0,0
0:4:54.579,566.975,72.1881,0,0.000885,0,0
0:4:55.183,568.029,72.326,0,0.000885,0,0
0:4:55.773,568.323,72.3605,0,0.000885,0,0
0:4:56.366,570.729,72.6707,0,0.000885,0,0
0:4:56.957,571.432,72.7604,0,0.000885,0,0
0:4:57.550,572.37,72.8776,0,0.000885,0,0
0:4:58.143,574.305,73.1258,0,0.000885,0,0
0:4:58.748,575.186,73.2361,0,0.000885,0,0
0:4:59.348,576.24,73.3671,0,0.000885,0,0
0:4:59.946,576.77,73.4361,0,0.000885,0,0
0:5:0.539,578.998,73.7187,0,0.000885,0,0
0:5:1.129,580.053,73.8566,0,0.000885,0,0
0:5:1.722,581.343,74.0221,0,0.000885,0,0
0:5:2.315,582.165,74.1255,0,0.000885,0,0
0:5:2.908,582.633,74.1807,0,0.000885,0,0
0:5:3.514,584.216,74.3875,0,0.000885,0,0
0:5:4.114,585.684,74.5737,0,0.000885,0,0
0:5:4.708,586.858,74.7185,0,0.000885,0,0
0:5:5.303,587.913,74.8564,0,0.000885,0,0
0:5:5.901,589.323,75.0356,0,0.000885,0,0
0:5:6.496,589.79,75.0977,0,0.000885,0,0
0:5:7.091,591.258,75.2839,0,0.000885,0,0
0:5:7.685,592.49,75.4355,0,0.000885,0,0
0:5:8.286,594.078,75.6424,0,0.000885,0,0
0:5:8.893,595.016,75.7596,0,0.000885,0,0
0:5:9.499,595.897,75.8699,0,0.000885,0,0
0:5:10.094,597.539,76.0836,0,0.000885,0,0
0:5:10.686,598.539,76.2078,0,0.000885,0,0
0:5:11.280,599.772,76.3663,0,0.000885,0,0
0:5:11.875,600.946,76.5111,0,0.000885,0,0
0:5:12.480,602.529,76.718,0,0.000885,0,0
0:5:13.077,603.526,76.8421,0,0.000885,0,0
0:5:13.684,604.407,76.9524,0,0.000885,0,0
0:5:14.286,605.639,77.111,0,0.000885,0,0
0:5:14.885,607.285,77.3247,0,0.000885,0,0
0:5:15.490,607.578,77.3592,0,0.000885,0,0
0:5:16.086,608.281,77.4488,0,0.000885,0,0
0:5:16.683,610.63,77.7453,0,0.000885,0,0
0:5:17.279,611.332,77.8349,0,0.000885,0,0
0:5:17.872,612.565,77.9935,0,0.000885,0,0
0:5:18.471,613.681,78.1383,0,0.000885,0,0
0:5:19.079,614.971,78.3038,0,0.000885,0,0
0:5:19.682,615.914,78.421,0,0.000885,0,0
0:5:20.281,617.733,78.6554,0,0.000885,0,0
0:5:20.897,618.672,78.7726,0,0.000885,0,0
0:5:21.488,619.611,78.8898,0,0.000885,0,0
0:5:22.082,621.252,79.1036,0,0.000885,0,0
0:5:22.680,621.488,79.1311,0,0.000885,0,0
0:5:23.285,623.365,79.3724,0,0.000885,0,0
0:5:23.891,624.659,79.531,0,0.000885,0,0
0:5:24.496,625.42,79.6344,0,0.000885,0,0
0:5:25.094,626.714,79.793,0,0.000885,0,0
0:5:25.690,628.062,79.9654,0,0.000885,0,0
0:5:26.285,629.121,80.1033,0,0.000885,0,0
0:5:26.882,630.762,80.3101,0,0.000885,0,0
0:5:27.496,631.701,80.4342,0,0.000885,0,0
0:5:28.106,632.466,80.5308,0,0.000885,0,0
0:5:28.714,634.285,80.7583,0,0.000885,0,0
0:5:29.316,634.93,80.841,0,0.000885,0,0
0:5:29.913,636.75,81.0755,0,0.000885,0,0
0:5:30.507,637.043,81.1099,0,0.000885,0,0
0:5:31.102,638.627,81.3099,0,0.000885,0,0
0:5:31.698,639.921,81.4753,0,0.000885,0,0
0:5:32.295,640.624,81.565,0,0.000885,0,0
0:5:32.891,642.328,81.7856,0,0.000885,0,0
0:5:33.499,643.382,81.9166,0,0.000885,0,0
0:5:34.100,645.143,82.1441,0,0.000885,0,0
0:5:34.698,645.437,82.1786,0,0.000885,0,0
0:5:35.295,646.963,82.3717,0,0.000885,0,0
0:5:35.889,647.434,82.4337,0,0.000885,0,0
0:5:36.486,649.196,82.6612,0,0.000885,0,0
0:5:37.080,650.721,82.8543,0,0.000885,0,0
0:5:37.675,651.251,82.9164,0,0.000885,0,0
0:5:38.277,652.599,83.0887,0,0.000885,0,0
0:5:38.882,654.182,83.2956,0,0.000885,0,0
0:5:39.485,654.832,83.3783,0,0.000885,0,0
0:5:40.080,655.944,83.5162,0,0.000885,0,0
0:5:40.676,657.002,83.6541,0,0.000885,0,0
0:5:41.270,658.234,83.8058,0,0.000885,0,0
0:5:41.864,659.702,83.9988,0,0.000885,0,0
0:5:42.459,661.228,84.1919,0,0.000885,0,0
0:5:43.055,662.109,84.3022,0,0.000885,0,0
0:5:43.663,663.283,84.4539,0,0.000885,0,0
0:5:44.266,664.515,84.6056,0,0.000885,0,0
0:5:44.869,665.512,84.7366,0,0.000885,0,0
0:5:45.461,666.864,84.9089,0,0.000885,0,0
0:5:46.055,667.451,84.9848,0,0.000885,0,0
0:5:46.652,669.444,85.2399,0,0.000885,0,0
0:5:47.248,670.151,85.3295,0,0.000885,0,0
0:5:47.843,671.206,85.4605,0,0.000885,0,0
0:5:48.451,672.5,85.626,0,0.000885,0,0
0:5:49.054,673.906,85.8053,0,0.000885,0,0
0:5:49.652,675.2,85.9707,0,0.000885,0,0
0:5:50.249,675.903,86.0604,0,0.000885,0,0
0:5:50.845,677.313,86.2396,0,0.000885,0,0
0:5:51.443,678.487,86.3844,0,0.000885,0,0
0:5:52.035,679.484,86.5154,0,0.000885,0,0
0:5:52.631,681.303,86.7429,0,0.000885,0,0
0:5:53.231,681.774,86.805,0,0.000885,0,0
0:5:53.837,683.416,87.0118,0,0.000885,0,0
0:5:54.441,684.532,87.1566,0,0.000885,0,0
0:5:55.039,685.765,87.3152,0,0.000885,0,0
0:5:55.635,686.587,87.4186,0,0.000885,0,0
0:5:56.227,687.29,87.5083,0,0.000885,0,0
0:5:56.821,689.461,87.784,0,0.000885,0,0
0:5:57.414,690.284,87.8875,0,0.000885,0,0
0:5:58.011,691.694,88.0667,0,0.000885,0,0
0:5:58.616,692.397,88.1564,0,0.000885,0,0
0:5:59.222,694.394,88.4115,0,0.000885,0,0
0:5:59.822,695.155,88.508,0,0.000885,0,0
0:6:0.414,695.8,88.5907,0,0.000885,0,0
0:6:1.010,697.268,88.7769,0,0.000885,0,0
0:6:1.606,698.562,88.9424,0,0.000885,0,0
0:6:2.203,699.501,89.0665,0,0.000885,0,0
0:6:2.808,700.555,89.1975,0,0.000885,0,0
0:6:3.415,701.787,89.3561,0,0.000885,0,0
0:6:4.020,703.317,89.5491,0,0.000885,0,0
0:6:4.615,704.198,89.6594,0,0.000885,0,0
0:6:5.213,706.133,89.9076,0,0.000885,0,0
0:6:5.809,706.836,89.9973,0,0.000885,0,0
0:6:6.406,708.304,90.1834,0,0.000885,0,0
0:6:6.999,709.305,90.3144,0,0.000885,0,0
0:6:7.601,710.181,90.4247,0,0.000885,0,0
0:6:8.207,711.591,90.604,0,0.000885,0,0
0:6:8.812,712.414,90.7074,0,0.000885,0,0
0:6:9.415,713.762,90.8798,0,0.000885,0,0
0:6:10.011,715.172,91.0591,0,0.000885,0,0
0:6:10.605,716.288,91.2038,0,0.000885,0,0
0:6:11.199,717.463,91.3486,0,0.000885,0,0
0:6:11.804,718.988,91.5417,0,0.000885,0,0
0:6:12.403,719.633,91.6244,0,0.000885,0,0
0:6:13.008,721.043,91.8037,0,0.000885,0,0
0:6:13.615,722.333,91.9692,0,0.000885,0,0
0:6:14.219,723.214,92.0795,0,0.000885,0,0
0:6:14.816,724.446,92.2381,0,0.000885,0,0
0:6:15.410,725.621,92.3897,0,0.000885,0,0
0:6:16.009,727.204,92.5897,0,0.000885,0,0
0:6:16.605,728.556,92.7621,0,0.000885,0,0
0:6:17.201,728.614,92.769,0,0.000885,0,0
0:6:17.804,730.082,92.9551,0,0.000885,0,0
0:6:18.404,731.492,93.1344,0,0.000885,0,0
0:6:19.009,732.373,93.2516,0,0.000885,0,0
0:6:19.613,733.899,93.4446,0,0.000885,0,0
0:6:20.210,735.367,93.6308,0,0.000885,0,0
0:6:20.806,735.776,93.6791,0,0.000885,0,0
0:6:21.409,737.128,93.8514,0,0.000885,0,0
0:6:22.003,739.179,94.1134,0,0.000885,0,0
0:6:22.606,739.535,94.1617,0,0.000885,0,0
0:6:23.213,741.292,94.3823,0,0.000885,0,0
0:6:23.817,741.47,94.4099,0,0.000885,0,0
0:6:24.420,743.409,94.6512,0,0.000885,0,0
0:6:25.015,744.228,94.7615,0,0.000885,0,0
0:6:25.608,745.989,94.9822,0,0.000885,0,0
0:6:26.203,746.518,95.0511,0,0.000885,0,0
0:6:26.810,747.515,95.1752,0,0.000885,0,0
0:6:27.407,748.983,95.3614,0,0.000885,0,0
0:6:28.003,750.508,95.5544,0,0.000885,0,0
0:6:28.609,751.625,95.6992,0,0.000885,0,0
0:6:29.213,752.857,95.8578,0,0.000885,0,0
0:6:29.809,754.561,96.0715,0,0.000885,0,0
0:6:30.406,755.321,96.1681,0,0.000885,0,0
0:6:31.003,755.851,96.237,0,0.000885,0,0
0:6:31.609,757.203,96.4094,0,0.000885,0,0
0:6:32.201,758.493,96.5749,0,0.000885,0,0
0:6:32.805,759.961,96.761,0,0.000885,0,0
0:6:33.411,760.722,96.8576,0,0.000885,0,0
0:6:34.016,762.189,97.0437,0,0.000885,0,0
0:6:34.622,763.422,97.2023,0,0.000885,0,0
0:6:35.218,764.422,97.3264,0,0.000885,0,0
0:6:35.811,765.303,97.4436,0,0.000885,0,0
0:6:36.405,766.415,97.5815,0,0.000885,0,0
0:6:37.001,768.061,97.7952,0,0.000885,0,0
0:6:37.607,769.471,97.9745,0,0.000885,0,0
0:6:38.212,770.468,98.0986,0,0.000885,0,0
0:6:38.820,771.464,98.2227,0,0.000885,0,0
0:6:39.421,772.874,98.402,0,0.000885,0,0
0:6:40.014,773.991,98.5468,0,0.000885,0,0
0:6:40.608,774.751,98.6433,0,0.000885,0,0
0:6:41.208,776.161,98.8226,0,0.000885,0,0
0:6:41.804,777.278,98.9673,0,0.000885,0,0
0:6:42.401,779.039,99.188,0,0.000885,0,0
0:6:42.996,779.8,99.2845,0,0.000885,0,0
0:6:43.605,780.916,99.4293,0,0.000885,0,0
0:6:44.208,782.327,99.6086,0,0.000885,0,0
0:6:44.807,783.029,99.6982,0,0.000885,0,0
0:6:45.404,784.906,99.9395,0,0.000885,0,0
0:6:46.007,785.551,100.022,0,0.000885,0,0
0:6:46.602,786.726,100.167,0,0.000885,0,0
0:6:47.205,787.549,100.27,0,0.000885,0,0
0:6:47.810,789.426,100.512,0,0.000885,0,0
0:6:48.417,790.658,100.67,0,0.000885,0,0
0:6:49.023,791.539,100.781,0,0.000885,0,0
0:6:49.625,792.771,100.939,0,0.000885,0,0
0:6:50.216,793.772,101.063,0,0.000885,0,0
0:6:50.813,795.24,101.25,0,0.000885,0,0
0:6:51.408,795.827,101.325,0,0.000885,0,0
0:6:52.006,797.584,101.553,0,0.000885,0,0
0:6:52.612,798.407,101.656,0,0.000885,0,0
0:6:53.210,800.52,101.925,0,0.000885,0,0
0:6:53.817,800.813,101.96,0,0.000885,0,0
0:6:54.420,802.223,102.139,0,0.000885,0,0
0:6:55.017,803.513,102.304,0,0.000885,0,0
0:6:55.614,804.394,102.422,0,0.000885,0,0
0:6:56.211,805.039,102.504,0,0.000885,0,0
0:6:56.803,806.979,102.746,0,0.000885,0,0
0:6:57.407,808.562,102.953,0,0.000885,0,0
0:6:58.000,809.149,103.021,0,0.000885,0,0
0:6:58.608,810.911,103.249,0,0.000885,0,0
0:6:59.213,811.44,103.318,0,0.000885,0,0
0:6:59.816,812.614,103.463,0,0.000885,0,0
0:7:0.410,813.789,103.614,0,0.000885,0,0
0:7:1.004,815.021,103.773,0,0.000885,0,0
0:7:1.597,816.662,103.98,0,0.000885,0,0
0:7:2.207,817.721,104.118,0,0.000885,0,0
0:7:2.812,818.424,104.207,0,0.000885,0,0
0:7:3.420,820.128,104.421,0,0.000885,0,0
0:7:4.023,820.83,104.511,0,0.000885,0,0
0:7:4.622,822.24,104.69,0,0.000885,0,0
0:7:5.216,823.53,104.855,0,0.000885,0,0
0:7:5.815,824.531,104.98,0,0.000885,0,0
0:7:6.411,825.995,105.166,0,0.000885,0,0
0:7:7.008,826.996,105.297,0,0.000885,0,0
0:7:7.601,827.934,105.414,0,0.000885,0,0
0:7:8.212,829.051,105.559,0,0.000885,0,0
0:7:8.820,830.163,105.697,0,0.000885,0,0
0:7:9.423,831.279,105.841,0,0.000885,0,0
0:7:10.020,833.041,106.069,0,0.000885,0,0
0:7:10.615,833.686,106.145,0,0.000885,0,0
0:7:11.209,834.744,106.283,0,0.000885,0,0
0:7:11.812,836.27,106.476,0,0.000885,0,0
0:7:12.408,838.383,106.745,0,0.000885,0,0
0:7:13.004,838.85,106.807,0,0.000885,0,0
0:7:13.611,839.437,106.883,0,0.000885,0,0
0:7:14.216,841.319,107.117,0,0.000885,0,0
0:7:14.816,842.493,107.269,0,0.000885,0,0
0:7:15.410,843.369,107.379,0,0.000885,0,0
0:7:16.002,844.9,107.579,0,0.000885,0,0
0:7:16.600,845.367,107.634,0,0.000885,0,0
0:7:17.208,846.95,107.834,0,0.000885,0,0
0:7:17.815,847.831,107.951,0,0.000885,0,0
0:7:18.423,849.477,108.158,0,0.000885,0,0
0:7:19.028,850.593,108.303,0,0.000885,0,0
0:7:19.625,852.057,108.489,0,0.000885,0,0
0:7:20.221,852.644,108.565,0,0.000885,0,0
0:7:20.820,853.818,108.71,0,0.000885,0,0
0:7:21.415,854.819,108.841,0,0.000885,0,0
0:7:22.009,856.345,109.034,0,0.000885,0,0
0:7:22.613,858.044,109.247,0,0.000885,0,0
0:7:23.218,858.694,109.33,0,0.000885,0,0
0:7:23.823,859.69,109.461,0,0.000885,0,0
0:7:24.427,860.922,109.613,0,0.000885,0,0
0:7:25.024,862.626,109.833,0,0.000885,0,0
0:7:25.615,863.507,109.944,0,0.000885,0,0
0:7:26.210,865.09,110.144,0,0.000885,0,0
0:7:26.803,865.677,110.22,0,0.000885,0,0
0:7:27.411,866.616,110.344,0,0.000885,0,0
0:7:28.010,868.493,110.578,0,0.000885,0,0
0:7:28.617,869.436,110.702,0,0.000885,0,0
0:7:29.222,870.668,110.854,0,0.000885,0,0
0:7:29.818,871.607,110.978,0,0.000885,0,0
0:7:30.413,873.075,111.164,0,0.000885,0,0
0:7:31.009,873.835,111.261,0,0.000885,0,0
0:7:31.608,875.361,111.454,0,0.000885,0,0
0:7:32.213,876.242,111.564,0,0.000885,0,0
0:7:32.807,877.123,111.681,0,0.000885,0,0
0:7:33.417,879.178,111.943,0,0.000885,0,0
0:7:34.024,879.943,112.04,0,0.000885,0,0
0:7:34.628,881.175,112.191,0,0.000885,0,0
0:7:35.225,882.581,112.371,0,0.000885,0,0
0:7:35.822,883.639,112.509,0,0.000885,0,0
0:7:36.415,884.636,112.633,0,0.000885,0,0
0:7:37.008,886.046,112.812,0,0.000885,0,0
0:7:37.602,887.456,112.991,0,0.000885,0,0
0:7:38.211,888.043,113.067,0,0.000885,0,0
0:7:38.816,889.155,113.212,0,0.000885,0,0
0:7:39.418,890.272,113.35,0,0.000885,0,0
0:7:40.014,891.917,113.564,0,0.000885,0,0
0:7:40.608,893.265,113.736,0,0.000885,0,0
0:7:41.210,894.382,113.874,0,0.000885,0,0
0:7:41.808,895.556,114.025,0,0.000885,0,0
0:7:42.415,896.143,114.101,0,0.000885,0,0
0:7:43.014,897.433,114.267,0,0.000885,0,0
0:7:43.622,898.55,114.405,0,0.000885,0,0
0:7:44.226,899.955,114.584,0,0.000885,0,0
0:7:44.821,901.13,114.736,0,0.000885,0,0
0:7:45.417,902.246,114.88,0,0.000885,0,0
0:7:46.013,903.95,115.094,0,0.000885,0,0
0:7:46.618,904.359,115.149,0,0.000885,0,0
0:7:47.212,905.943,115.349,0,0.000885,0,0
0:7:47.815,907.237,115.515,0,0.000885,0,0
0:7:48.422,908.176,115.632,0,0.000885,0,0
0:7:49.027,909.114,115.749,0,0.000885,0,0
0:7:49.631,910.76,115.963,0,0.000885,0,0
0:7:50.227,911.992,116.122,0,0.000885,0,0
0:7:50.821,913.104,116.259,0,0.000885,0,0
0:7:51.415,914.047,116.377,0,0.000885,0,0
0:7:52.011,915.573,116.577,0,0.000885,0,0
0:7:52.617,916.098,116.639,0,0.000885,0,0
0:7:53.215,917.566,116.832,0,0.000885,0,0
0:7:53.823,919.212,117.039,0,0.000885,0,0
0:7:54.427,920.15,117.156,0,0.000885,0,0
0:7:55.024,921.498,117.328,0,0.000885,0,0
0:7:55.622,922.205,117.418,0,0.000885,0,0
0:7:56.219,923.322,117.563,0,0.000885,0,0
0:7:56.816,925.079,117.783,0,0.000885,0,0
0:7:57.417,925.786,117.873,0,0.000885,0,0
0:7:58.023,927.134,118.045,0,0.000885,0,0
0:7:58.629,928.25,118.19,0,0.000885,0,0
0:7:59.232,929.367,118.328,0,0.000885,0,0
0:7:59.828,931.008,118.542,0,0.000885,0,0
0:8:0.422,931.947,118.659,0,0.000885,0,0
0:8:1.015,933.241,118.824,0,0.000885,0,0
0:8:1.607,933.766,118.893,0,0.000885,0,0
0:8:2.215,935.648,119.128,0,0.000885,0,0
0:8:2.811,936.644,119.259,0,0.000885,0,0
0:8:3.418,937.703,119.39,0,0.000885,0,0
0:8:4.023,939.166,119.576,0,0.000885,0,0
0:8:4.621,939.816,119.659,0,0.000885,0,0
0:8:5.216,941.048,119.817,0,0.000885,0,0
0:8:5.814,942.16,119.962,0,0.000885,0,0
0:8:6.411,943.512,120.134,0,0.000885,0,0
0:8:7.015,944.571,120.265,0,0.000885,0,0
0:8:7.610,945.803,120.424,0,0.000885,0,0
0:8:8.215,947.035,120.582,0,0.000885,0,0
0:8:8.822,948.09,120.713,0,0.000885,0,0
0:8:9.425,949.5,120.893,0,0.000885,0,0
0:8:10.022,950.496,121.024,0,0.000885,0,0
0:8:10.616,952.084,121.224,0,0.000885,0,0
0:8:11.217,952.902,121.327,0,0.000885,0,0
0:8:11.815,954.019,121.472,0,0.000885,0,0
0:8:12.422,955.309,121.637,0,0.000885,0,0
0:8:13.017,956.368,121.768,0,0.000885,0,0
0:8:13.626,957.893,121.961,0,0.000885,0,0
0:8:14.228,958.538,122.044,0,0.000885,0,0
0:8:14.827,960.184,122.251,0,0.000885,0,0
0:8:15.423,961.123,122.375,0,0.000885,0,0
0:8:16.022,962.177,122.506,0,0.000885,0,0
0:8:16.617,963.236,122.644,0,0.000885,0,0
0:8:17.213,964.704,122.83,0,0.000885,0,0
0:8:17.816,965.527,122.934,0,0.000885,0,0
0:8:18.418,966.932,123.113,0,0.000885,0,0
0:8:19.025,968.751,123.347,0,0.000885,0,0
0:8:19.630,969.396,123.43,0,0.000885,0,0
0:8:20.228,970.34,123.547,0,0.000885,0,0
0:8:20.820,971.572,123.706,0,0.000885,0,0
0:8:21.415,973.271,123.919,0,0.000885,0,0
0:8:22.019,974.036,124.016,0,0.000885,0,0
0:8:22.615,975.152,124.161,0,0.000885,0,0
0:8:23.222,976.327,124.312,0,0.000885,0,0
0:8:23.826,977.087,124.409,0,0.000885,0,0
0:8:24.430,978.733,124.616,0,0.000885,0,0
0:8:25.023,979.965,124.774,0,0.000885,0,0
0:8:25.617,981.785,125.002,0,0.000885,0,0
0:8:26.213,983.253,125.188,0,0.000885,0,0
0:8:26.819,983.898,125.271,0,0.000885,0,0
0:8:27.413,984.365,125.333,0,0.000885,0,0
0:8:28.021,985.245,125.443,0,0.000885,0,0
0:8:28.628,987.594,125.747,0,0.000885,0,0
0:8:29.231,988.008,125.795,0,0.000885,0,0
0:8:29.827,989.476,125.981,0,0.000885,0,0
0:8:30.422,990.646,126.133,0,0.000885,0,0
0:8:31.019,992.176,126.326,0,0.000885,0,0
0:8:31.615,993.052,126.443,0,0.000885,0,0
0:8:32.217,994.226,126.588,0,0.000885,0,0
0:8:32.821,995.463,126.746,0,0.000885,0,0
0:8:33.427,996.575,126.891,0,0.000885,0,0
0:8:34.032,998.163,127.091,0,0.000885,0,0
0:8:34.635,999.333,127.236,0,0.000885,0,0
0:8:35.231,1000.28,127.36,0,0.000885,0,0
0:8:35.822,1001.27,127.484,0,0.000885,0,0
0:8:36.416,1002.39,127.629,0,0.000885,0,0
0:8:37.010,1003.15,127.725,0,0.000885,0,0
0:8:37.618,1004.68,127.918,0,0.000885,0,0
0:8:38.216,1005.97,128.084,0,0.000885,0,0
0:8:38.823,1007.55,128.284,0,0.000885,0,0
0:8:39.426,1008.2,128.367,0,0.000885,0,0
0:8:40.023,1009.55,128.539,0,0.000885,0,0
0:8:40.619,1011.13,128.739,0,0.000885,0,0
0:8:41.216,1011.89,128.835,0,0.000885,0,0
0:8:41.822,1012.95,128.973,0,0.000885,0,0
0:8:42.417,1014.59,129.18,0,0.000885,0,0
0:8:43.025,1015.18,129.256,0,0.000885,0,0
0:8:43.632,1016.18,129.387,0,0.000885,0,0
0:8:44.234,1017.82,129.594,0,0.000885,0,0
0:8:44.831,1019.29,129.78,0,0.000885,0,0
0:8:45.428,1020.35,129.918,0,0.000885,0,0
0:8:46.022,1021.17,130.021,0,0.000885,0,0
0:8:46.615,1022.52,130.194,0,0.000885,0,0
0:8:47.218,1023.58,130.325,0,0.000885,0,0
0:8:47.814,1025.11,130.518,0,0.000885,0,0
0:8:48.423,1026.28,130.669,0,0.000885,0,0
0:8:49.028,1027.04,130.766,0,0.000885,0,0
0:8:49.632,1028.22,130.918,0,0.000885,0,0
0:8:50.227,1029.8,131.118,0,0.000885,0,0
0:8:50.821,1030.68,131.228,0,0.000885,0,0
0:8:51.415,1032.03,131.4,0,0.000885,0,0
0:8:52.011,1032.97,131.524,0,0.000885,0,0
0:8:52.606,1034.26,131.683,0,0.000885,0,0
0:8:53.204,1035.38,131.828,0,0.000885,0,0
0:8:53.811,1036.79,132.007,0,0.000885,0,0
0:8:54.416,1037.08,132.048,0,0.000885,0,0
0:8:55.023,1039.19,132.317,0,0.000885,0,0
0:8:55.619,1040.37,132.462,0,0.000885,0,0
0:8:56.215,1041.42,132.6,0,0.000885,0,0
0:8:56.822,1042.71,132.765,0,0.000885,0,0
0:8:57.425,1043.77,132.896,0,0.000885,0,0
0:8:58.026,1044.71,133.014,0,0.000885,0,0
0:8:58.632,1046.12,133.193,0,0.000885,0,0
0:8:59.235,1047.17,133.331,0,0.000885,0,0
0:8:59.833,1048.76,133.531,0,0.000885,0,0
0:9:0.428,1049.52,133.627,0,0.000885,0,0
0:9:1.023,1051.05,133.82,0,0.000885,0,0
0:9:1.626,1051.76,133.91,0,0.000885,0,0
0:9:2.221,1053.1,134.082,0,0.000885,0,0
0:9:2.818,1054.57,134.275,0,0.000885,0,0
0:9:3.425,1055.1,134.337,0,0.000885,0,0
0:9:4.029,1056.92,134.572,0,0.000885,0,0
0:9:4.627,1057.8,134.682,0,0.000885,0,0
0:9:5.223,1058.85,134.82,0,0.000885,0,0
0:9:5.818,1060.15,134.986,0,0.000885,0,0
0:9:6.424,1061.55,135.165,0,0.000885,0,0
0:9:7.022,1063.32,135.385,0,0.000885,0,0
0:9:7.614,1063.55,135.413,0,0.000885,0,0
0:9:8.224,1064.96,135.592,0,0.000885,0,0
0:9:8.831,1065.96,135.723,0,0.000885,0,0
0:9:9.434,1067.02,135.854,0,0.000885,0,0
0:9:10.030,1068.66,136.068,0,0.000885,0,0
0:9:10.627,1069.36,136.158,0,0.000885,0,0
0:9:11.222,1070.66,136.323,0,0.000885,0,0
0:9:11.815,1072.12,136.509,0,0.000885,0,0
0:9:12.421,1073.18,136.64,0,0.000885,0,0
0:9:13.024,1074.24,136.778,0,0.000885,0,0
0:9:13.629,1075.47,136.93,0,0.000885,0,0
0:9:14.233,1076.82,137.102,0,0.000885,0,0
0:9:14.830,1077.46,137.185,0,0.000885,0,0
0:9:15.424,1079.17,137.406,0,0.000885,0,0
0:9:16.014,1079.69,137.468,0,0.000885,0,0
0:9:16.608,1081.04,137.64,0,0.000885,0,0
0:9:17.214,1082.57,137.84,0,0.000885,0,0
0:9:17.825,1084.27,138.054,0,0.000885,0,0
0:9:18.431,1085.21,138.171,0,0.000885,0,0
0:9:19.034,1086.68,138.357,0,0.000885,0,0
0:9:19.632,1087.97,138.523,0,0.000885,0,0
0:9:20.227,1088.27,138.564,0,0.000885,0,0
0:9:20.824,1089.56,138.729,0,0.000885,0,0
0:9:21.420,1091.08,138.922,0,0.000885,0,0
0:9:22.012,1092.14,139.053,0,0.000885,0,0
0:9:22.606,1092.72,139.129,0,0.000885,0,0
0:9:23.209,1094.37,139.336,0,0.000885,0,0
0:9:23.815,1095.19,139.446,0,0.000885,0,0
0:9:24.420,1096.48,139.605,0,0.000885,0,0
0:9:25.026,1098.3,139.839,0,0.000885,0,0
0:9:25.619,1099.53,139.998,0,0.000885,0,0
0:9:26.224,1100.53,140.122,0,0.000885,0,0
0:9:26.819,1101.53,140.253,0,0.000885,0,0
0:9:27.427,1102.59,140.384,0,0.000885,0,0
0:9:28.022,1103.64,140.522,0,0.000885,0,0
0:9:28.628,1105.17,140.715,0,0.000885,0,0
0:9:29.231,1105.93,140.812,0,0.000885,0,0
0:9:29.829,1107.46,141.005,0,0.000885,0,0
0:9:30.427,1108.75,141.17,0,0.000885,0,0
0:9:31.023,1109.81,141.308,0,0.000885,0,0
0:9:31.628,1110.63,141.411,0,0.000885,0,0
0:9:32.221,1111.92,141.577,0,0.000885,0,0
0:9:32.826,1113.33,141.756,0,0.000885,0,0
0:9:33.432,1114.68,141.929,0,0.000885,0,0
0:9:34.037,1115.27,141.998,0,0.000885,0,0
0:9:34.641,1117.38,142.266,0,0.000885,0,0
0:9:35.235,1117.79,142.322,0,0.000885,0,0
0:9:35.830,1119.43,142.528,0,0.000885,0,0
0:9:36.423,1120.37,142.653,0,0.000885,0,0
0:9:37.021,1121.37,142.777,0,0.000885,0,0
0:9:37.627,1122.72,142.949,0,0.000885,0,0
0:9:38.223,1123.54,143.052,0,0.000885,0,0
0:9:38.830,1125.19,143.266,0,0.000885,0,0
0:9:39.436,1126.65,143.452,0,0.000885,0,0
0:9:40.031,1127.65,143.576,0,0.000885,0,0
0:9:40.629,1128.59,143.694,0,0.000885,0,0
0:9:41.225,1129.65,143.832,0,0.000885,0,0
0:9:41.816,1131.17,144.025,0,0.000885,0,0
0:9:42.411,1132,144.128,0,0.000885,0,0
0:9:43.005,1132.99,144.259,0,0.000885,0,0
0:9:43.611,1134.35,144.431,0,0.000885,0,0
0:9:44.216,1135.34,144.555,0,0.000885,0,0
0:9:44.829,1136.75,144.735,0,0.000885,0,0
0:9:45.424,1137.98,144.893,0,0.000885,0,0
0:9:46.026,1138.86,145.004,0,0.000885,0,0
0:9:46.624,1139.98,145.148,0,0.000885,0,0
0:9:47.222,1141.68,145.362,0,0.000885,0,0
0:9:47.827,1142.45,145.459,0,0.000885,0,0
0:9:48.433,1144.09,145.672,0,0.000885,0,0
0:9:49.036,1145.38,145.831,0,0.000885,0,0
0:9:49.633,1146.14,145.934,0,0.000885,0,0
0:9:50.228,1147.2,146.065,0,0.000885,0,0
0:9:50.825,1148.37,146.217,0,0.000885,0,0
0:9:51.431,1150.13,146.438,0,0.000885,0,0
0:9:52.025,1151.6,146.624,0,0.000885,0,0
0:9:52.629,1151.84,146.658,0,0.000885,0,0
0:9:53.232,1153.07,146.81,0,0.000885,0,0
0:9:53.837,1154.65,147.017,0,0.000885,0,0
0:9:54.440,1155.65,147.141,0,0.000885,0,0
0:9:55.038,1157.35,147.362,0,0.000885,0,0
0:9:55.629,1158.23,147.472,0,0.000885,0,0
0:9:56.224,1159.41,147.624,0,0.000885,0,0
0:9:56.829,1160.41,147.748,0,0.000885,0,0
0:9:57.425,1161.58,147.899,0,0.000885,0,0
0:9:58.031,1162.28,147.989,0,0.000885,0,0
0:9:58.638,1163.52,148.141,0,0.000885,0,0
0:9:59.241,1164.98,148.334,0,0.000885,0,0
0:9:59.837,1166.16,148.479,0,0.000885,0,0
0:10:0.433,1167.28,148.623,0,0.000885,0,0
0:10:1.029,1168.92,148.83,0,0.000885,0,0
0:10:1.625,1169.98,148.968,0,0.000885,0,0
0:10:2.230,1171.21,149.12,0,0.000885,0,0
0:10:2.825,1172.03,149.23,0,0.000885,0,0
0:10:3.435,1173.26,149.382,0,0.000885,0,0
0:10:4.041,1174.26,149.513,0,0.000885,0,0
0:10:4.644,1175.61,149.685,0,0.000885,0,0
0:10:5.241,1176.78,149.83,0,0.000885,0,0
0:10:5.838,1178.08,149.995,0,0.000885,0,0
0:10:6.433,1179.6,150.188,0,0.000885,0,0
0:10:7.026,1180.66,150.326,0,0.000885,0,0
0:10:7.619,1181.71,150.457,0,0.000885,0,0
0:10:8.228,1182.83,150.602,0,0.000885,0,0
0:10:8.833,1184.18,150.775,0,0.000885,0,0
0:10:9.434,1184.77,150.85,0,0.000885,0,0
0:10:10.029,1186.35,151.05,0,0.000885,0,0
0:10:10.623,1187.17,151.154,0,0.000885,0,0
0:10:11.228,1188.76,151.361,0,0.000885,0,0
0:10:11.825,1189.81,151.492,0,0.000885,0,0
0:10:12.429,1190.46,151.574,0,0.000885,0,0
0:10:13.027,1192.1,151.781,0,0.000885,0,0
0:10:13.634,1193.4,151.947,0,0.000885,0,0
0:10:14.239,1194.39,152.078,0,0.000885,0,0
0:10:14.836,1195.8,152.257,0,0.000885,0,0
0:10:15.434,1197.09,152.416,0,0.000885,0,0
0:10:16.029,1197.74,152.498,0,0.000885,0,0
0:10:16.626,1199.09,152.671,0,0.000885,0,0
0:10:17.230,1200.09,152.802,0,0.000885,0,0
0:10:17.833,1201.73,153.008,0,0.000885,0,0
0:10:18.435,1203.49,153.236,0,0.000885,0,0
0:10:19.039,1203.79,153.27,0,0.000885,0,0
0:10:19.643,1204.9,153.415,0,0.000885,0,0
0:10:20.239,1206.13,153.567,0,0.000885,0,0
0:10:20.832,1207.13,153.698,0,0.000885,0,0
0:10:21.426,1208.83,153.912,0,0.000885,0,0
0:10:22.032,1210.42,154.119,0,0.000885,0,0
0:10:22.628,1210.83,154.167,0,0.000885,0,0
0:10:23.225,1212.24,154.346,0,0.000885,0,0
0:10:23.831,1213.59,154.518,0,0.000885,0,0
0:10:24.433,1214.76,154.67,0,0.000885,0,0
0:10:25.031,1215.7,154.787,0,0.000885,0,0
0:10:25.629,1217.34,154.994,0,0.000885,0,0
0:10:26.225,1217.58,155.029,0,0.000885,0,0
0:10:26.832,1219.11,155.222,0,0.000885,0,0
0:10:27.422,1220.69,155.422,0,0.000885,0,0
0:10:28.035,1222.04,155.594,0,0.000885,0,0
0:10:28.641,1222.92,155.704,0,0.000885,0,0
0:10:29.244,1223.92,155.835,0,0.000885,0,0
0:10:29.840,1225.15,155.994,0,0.000885,0,0
0:10:30.437,1226.44,156.152,0,0.000885,0,0
0:10:31.030,1227.85,156.332,0,0.000885,0,0
0:10:31.632,1228.5,156.414,0,0.000885,0,0
0:10:32.228,1229.67,156.566,0,0.000885,0,0
0:10:32.822,1230.67,156.69,0,0.000885,0,0
0:10:33.430,1232.43,156.918,0,0.000885,0,0
0:10:34.035,1233.55,157.063,0,0.000885,0,0
0:10:34.634,1234.31,157.159,0,0.000885,0,0
0:10:35.228,1236.07,157.38,0,0.000885,0,0
0:10:35.832,1237.07,157.511,0,0.000885,0,0
0:10:36.429,1238.24,157.656,0,0.000885,0,0
0:10:37.023,1239.42,157.807,0,0.000885,0,0
0:10:37.631,1240.53,157.952,0,0.000885,0,0
0:10:38.228,1241.47,158.069,0,0.000885,0,0
0:10:38.834,1242.47,158.193,0,0.000885,0,0
0:10:39.439,1244.23,158.421,0,0.000885,0,0
0:10:40.036,1245.4,158.573,0,0.000885,0,0
0:10:40.633,1246.57,158.717,0,0.000885,0,0
0:10:41.226,1247.57,158.848,0,0.000885,0,0
0:10:41.830,1249.16,159.048,0,0.000885,0,0
0:10:42.434,1250.04,159.159,0,0.000885,0,0
0:10:43.028,1251.27,159.317,0,0.000885,0,0
0:10:43.635,1251.51,159.345,0,0.000885,0,0
0:10:44.239,1252.98,159.531,0,0.000885,0,0
0:10:44.845,1254.44,159.717,0,0.000885,0,0
0:10:45.438,1255.09,159.8,0,0.000885,0,0
0:10:46.031,1256.91,160.034,0,0.000885,0,0
0:10:46.624,1258.14,160.193,0,0.000885,0,0
0:10:47.222,1259.67,160.386,0,0.000885,0,0
0:10:47.830,1260.19,160.455,0,0.000885,0,0
0:10:48.438,1262.01,160.682,0,0.000885,0,0
0:10:49.041,1263.07,160.82,0,0.000885,0,0
0:10:49.638,1263.89,160.924,0,0.000885,0,0
0:10:50.236,1265.01,161.068,0,0.000885,0,0
0:10:50.832,1266.83,161.296,0,0.000885,0,0
0:10:51.429,1267.94,161.441,0,0.000885,0,0
0:10:52.033,1268.7,161.537,0,0.000885,0,0
0:10:52.624,1269.7,161.661,0,0.000885,0,0
0:10:53.225,1271.05,161.834,0,0.000885,0,0
0:10:53.833,1272.23,161.985,0,0.000885,0,0
0:10:54.437,1273.87,162.192,0,0.000885,0,0
0:10:55.034,1274.69,162.296,0,0.000885,0,0
0:10:55.629,1275.69,162.427,0,0.000885,0,0
0:10:56.232,1277.33,162.634,0,0.000885,0,0
0:10:56.824,1277.92,162.709,0,0.000885,0,0
0:10:57.431,1278.98,162.847,0,0.000885,0,0
0:10:58.038,1280.62,163.054,0,0.000885,0,0
0:10:58.645,1282.09,163.24,0,0.000885,0,0
0:10:59.248,1282.79,163.33,0,0.000885,0,0
0:10:59.849,1284.38,163.53,0,0.000885,0,0
0:11:0.442,1285.32,163.654,0,0.000885,0,0
0:11:1.038,1286.79,163.84,0,0.000885,0,0
0:11:1.634,1287.9,163.978,0,0.000885,0,0
0:11:2.230,1288.66,164.075,0,0.000885,0,0
0:11:2.836,1290.19,164.274,0,0.000885,0,0
0:11:3.434,1291.19,164.399,0,0.000885,0,0
0:11:4.040,1292.19,164.523,0,0.000885,0,0
0:11:4.642,1293.71,164.723,0,0.000885,0,0
0:11:5.239,1294.77,164.854,0,0.000885,0,0
0:11:5.836,1296.3,165.047,0,0.000885,0,0
0:11:6.430,1297,165.136,0,0.000885,0,0
0:11:7.024,1298.29,165.302,0,0.000885,0,0
0:11:7.638,1299.05,165.398,0,0.000885,0,0
0:11:8.245,1300.93,165.64,0,0.000885,0,0
0:11:8.849,1302.22,165.805,0,0.000885,0,0
0:11:9.454,1303.4,165.957,0,0.000885,0,0
0:11:10.047,1303.75,165.998,0,0.000885,0,0
0:11:10.641,1304.98,166.157,0,0.000885,0,0
0:11:11.235,1306.16,166.302,0,0.000885,0,0
0:11:11.830,1307.27,166.446,0,0.000885,0,0
0:11:12.426,1308.92,166.653,0,0.000885,0,0
0:11:13.022,1309.68,166.757,0,0.000885,0,0
0:11:13.630,1311.44,166.977,0,0.000885,0,0
0:11:14.232,1312.61,167.129,0,0.000885,0,0
0:11:14.839,1313.49,167.239,0,0.000885,0,0
0:11:15.436,1314.32,167.343,0,0.000885,0,0
0:11:16.032,1315.72,167.522,0,0.000885,0,0
0:11:16.626,1317.25,167.715,0,0.000885,0,0
0:11:17.232,1317.9,167.798,0,0.000885,0,0
0:11:17.836,1319.36,167.984,0,0.000885,0,0
0:11:18.439,1320.83,168.17,0,0.000885,0,0
0:11:18.468,1320.83,168.17,0,0.000885,0,0