File: DataFile2021-06-30_072232.csv
Test ID:,Date Tested:,Time:,Test Type:,Diameter Avg. (mm):,Cyl. Corr. Factor:,Height (mm):,Age (days):,Weight (kN):,Break Type:,Ramp Rate (MPa/s):,Load at Break (kN):,Stress at Break (MPa):
12,6/30/2021,07:22,Cylinder,100,1,200,0,3.6,3,0.25,897.67,114.29
Sample Time,Load (kN),Stress (MPa),Long. Strain,Trans. Strain,Chan1 Deflection (mm),Chan2 Deflection (mm)
0:0:18.739,5.7471,0.730844,0,0.000885,0,0
0:0:19.138,10.0886,1.28242,0,0.000885,0,0
0:0:19.535,9.5014,1.20658,0,0.000885,0,0
0:0:19.948,9.91064,1.26174,0,0.000885,0,0
0:0:20.357,9.26565,1.179,0,0.000885,0,0
0:0:20.755,9.26565,1.179,0,0.000885,0,0
0:0:21.154,9.38575,1.19279,0,0.000885,0,0
0:0:21.560,9.85281,1.25485,0,0.000885,0,0
0:0:21.954,10.4978,1.33758,0,0.000885,0,0
0:0:22.353,10.7336,1.36516,0,0.000885,0,0
0:0:22.753,12.7842,1.62716,0,0.000885,0,0
0:0:23.161,13.6071,1.73058,0,0.000885,0,0
0:0:23.557,13.785,1.75816,0,0.000885,0,0
0:0:23.952,14.9549,1.90295,0,0.000885,0,0
0:0:24.355,15.9513,2.03395,0,0.000885,0,0
0:0:24.760,16.8321,2.14427,0,0.000885,0,0
0:0:25.165,17.4771,2.22701,0,0.000885,0,0
0:0:25.568,18.3578,2.33732,0,0.000885,0,0
0:0:25.968,19.0606,2.42695,0,0.000885,0,0
0:0:26.365,20.5285,2.61311,0,0.000885,0,0
0:0:26.769,21.1157,2.68896,0,0.000885,0,0
0:0:27.165,22.2856,2.84064,0,0.000885,0,0
0:0:27.560,23.5177,2.99232,0,0.000885,0,0
0:0:27.957,23.9314,3.04748,0,0.000885,0,0
0:0:28.358,24.6921,3.14401,0,0.000885,0,0
0:0:28.758,25.4527,3.24054,0,0.000885,0,0
0:0:29.154,25.8664,3.29569,0,0.000885,0,0
0:0:29.560,26.2178,3.33706,0,0.000885,0,0
0:0:29.965,27.7436,3.53012,0,0.000885,0,0
0:0:30.368,27.9749,3.56459,0,0.000885,0,0
0:0:30.773,28.74,3.66112,0,0.000885,0,0
0:0:31.169,29.5006,3.75764,0,0.000885,0,0
0:0:31.565,30.2034,3.84727,0,0.000885,0,0
0:0:31.964,30.9685,3.9438,0,0.000885,0,0
0:0:32.365,32.3163,4.11617,0,0.000885,0,0
0:0:32.762,32.9035,4.19201,0,0.000885,0,0
0:0:33.159,33.5485,4.27475,0,0.000885,0,0
0:0:33.554,34.7228,4.41954,0,0.000885,0,0
0:0:33.955,35.0742,4.4678,0,0.000885,0,0
0:0:34.366,36.1863,4.6057,0,0.000885,0,0
0:0:34.773,37.4184,4.76428,0,0.000885,0,0
0:0:35.176,37.9478,4.83322,0,0.000885,0,0
0:0:35.580,38.1835,4.8608,0,0.000885,0,0
0:0:35.981,38.8285,4.94354,0,0.000885,0,0
0:0:36.382,40.0562,5.10212,0,0.000885,0,0
0:0:36.778,40.7012,5.18486,0,0.000885,0,0
0:0:37.175,41.5241,5.28828,0,0.000885,0,0
0:0:37.574,42.0535,5.35723,0,0.000885,0,0
0:0:37.974,43.1077,5.48823,0,0.000885,0,0
0:0:38.372,43.517,5.54338,0,0.000885,0,0
0:0:38.769,44.6913,5.68817,0,0.000885,0,0
0:0:39.175,45.7455,5.82607,0,0.000885,0,0
0:0:39.579,46.2748,5.89502,0,0.000885,0,0
0:0:39.983,47.0355,5.99154,0,0.000885,0,0
0:0:40.386,47.4492,6.03981,0,0.000885,0,0
0:0:40.782,48.6191,6.19149,0,0.000885,0,0
0:0:41.182,49.2685,6.27423,0,0.000885,0,0
0:0:41.583,50.2026,6.39144,0,0.000885,0,0
0:0:41.979,50.4962,6.43281,0,0.000885,0,0
0:0:42.375,51.5549,6.56381,0,0.000885,0,0
0:0:42.773,52.6091,6.7017,0,0.000885,0,0
0:0:43.172,53.1963,6.77065,0,0.000885,0,0
0:0:43.570,54.1927,6.90165,0,0.000885,0,0
0:0:43.965,54.6019,6.94992,0,0.000885,0,0
0:0:44.372,55.1891,7.02576,0,0.000885,0,0
0:0:44.776,56.1277,7.14986,0,0.000885,0,0
0:0:45.180,56.9506,7.25328,0,0.000885,0,0
0:0:45.584,57.7112,7.34981,0,0.000885,0,0
0:0:45.980,58.8856,7.4946,0,0.000885,0,0
0:0:46.378,59.882,7.6256,0,0.000885,0,0
0:0:46.778,59.882,7.6256,0,0.000885,0,0
0:0:47.176,60.8205,7.74281,0,0.000885,0,0
0:0:47.570,61.5812,7.83934,0,0.000885,0,0
0:0:47.965,62.582,7.97034,0,0.000885,0,0
0:0:48.365,63.6363,8.10134,0,0.000885,0,0
0:0:48.765,64.4547,8.20476,0,0.000885,0,0
0:0:49.164,65.3933,8.32887,0,0.000885,0,0
0:0:49.570,65.8648,8.38402,0,0.000885,0,0
0:0:49.974,66.452,8.45987,0,0.000885,0,0
0:0:50.377,67.5062,8.59776,0,0.000885,0,0
0:0:50.780,67.9154,8.64603,0,0.000885,0,0
0:0:51.177,68.9163,8.77703,0,0.000885,0,0
0:0:51.572,69.6769,8.87355,0,0.000885,0,0
0:0:51.973,70.6155,8.99076,0,0.000885,0,0
0:0:52.373,71.0248,9.04592,0,0.000885,0,0
0:0:52.769,72.6083,9.24587,0,0.000885,0,0
0:0:53.163,72.6083,9.24587,0,0.000885,0,0
0:0:53.561,73.667,9.37687,0,0.000885,0,0
0:0:53.961,74.2497,9.45271,0,0.000885,0,0
0:0:54.360,75.1305,9.56303,0,0.000885,0,0
0:0:54.764,75.602,9.62508,0,0.000885,0,0
0:0:55.170,76.247,9.70782,0,0.000885,0,0
0:0:55.572,77.0654,9.81124,0,0.000885,0,0
0:0:55.976,77.7727,9.90087,0,0.000885,0,0
0:0:56.373,79.2362,10.087,0,0.000885,0,0
0:0:56.770,80.2326,10.218,0,0.000885,0,0
0:0:57.165,81.0555,10.3215,0,0.000885,0,0
0:0:57.568,81.4647,10.3697,0,0.000885,0,0
0:0:57.965,81.4647,10.3697,0,0.000885,0,0
0:0:58.360,82.7547,10.5352,0,0.000885,0,0
0:0:58.757,83.6355,10.6455,0,0.000885,0,0
0:0:59.160,84.6897,10.7834,0,0.000885,0,0
0:0:59.568,85.6283,10.9006,0,0.000885,0,0
0:0:59.971,86.4512,11.004,0,0.000885,0,0
0:1:0.374,86.8604,11.0592,0,0.000885,0,0
0:1:0.772,87.5632,11.1488,0,0.000885,0,0
0:1:1.172,88.5018,11.266,0,0.000885,0,0
0:1:1.570,89.2091,11.3557,0,0.000885,0,0
0:1:1.965,90.1477,11.4798,0,0.000885,0,0
0:1:2.362,90.7927,11.5625,0,0.000885,0,0
0:1:2.763,91.9625,11.7073,0,0.000885,0,0
0:1:3.161,92.2561,11.7487,0,0.000885,0,0
0:1:3.566,93.3148,11.8797,0,0.000885,0,0
0:1:3.963,93.7819,11.9417,0,0.000885,0,0
0:1:4.368,94.2534,12.0038,0,0.000885,0,0
0:1:4.775,95.1919,12.121,0,0.000885,0,0
0:1:5.178,96.4197,12.2796,0,0.000885,0,0
0:1:5.582,97.1269,12.3692,0,0.000885,0,0
0:1:5.979,97.8297,12.4588,0,0.000885,0,0
0:1:6.378,99.0041,12.6036,0,0.000885,0,0
0:1:6.778,99.3555,12.6519,0,0.000885,0,0
0:1:7.174,99.7647,12.7001,0,0.000885,0,0
0:1:7.568,100.41,12.7829,0,0.000885,0,0
0:1:7.964,101.526,12.9277,0,0.000885,0,0
0:1:8.364,102.754,13.0862,0,0.000885,0,0
0:1:8.763,103.519,13.1828,0,0.000885,0,0
0:1:9.160,104.809,13.3414,0,0.000885,0,0
0:1:9.565,105.045,13.3758,0,0.000885,0,0
0:1:9.969,105.396,13.4172,0,0.000885,0,0
0:1:10.374,106.041,13.4999,0,0.000885,0,0
0:1:10.776,107.211,13.6516,0,0.000885,0,0
0:1:11.172,107.74,13.7206,0,0.000885,0,0
0:1:11.569,108.737,13.8447,0,0.000885,0,0
0:1:11.969,109.969,14.0033,0,0.000885,0,0
0:1:12.366,110.498,14.0722,0,0.000885,0,0
0:1:12.763,111.73,14.2239,0,0.000885,0,0
0:1:13.158,111.553,14.2032,0,0.000885,0,0
0:1:13.557,112.727,14.3549,0,0.000885,0,0
0:1:13.965,113.43,14.4445,0,0.000885,0,0
0:1:14.364,113.959,14.5066,0,0.000885,0,0
0:1:14.770,115.013,14.6445,0,0.000885,0,0
0:1:15.173,115.543,14.7134,0,0.000885,0,0
0:1:15.577,117.184,14.9203,0,0.000885,0,0
0:1:15.981,117.593,14.9754,0,0.000885,0,0
0:1:16.379,118.416,15.0788,0,0.000885,0,0
0:1:16.776,119.177,15.1754,0,0.000885,0,0
0:1:17.172,120.115,15.2926,0,0.000885,0,0
0:1:17.573,120.351,15.3202,0,0.000885,0,0
0:1:17.973,121.174,15.4305,0,0.000885,0,0
0:1:18.369,121.992,15.5339,0,0.000885,0,0
0:1:18.764,122.637,15.6166,0,0.000885,0,0
0:1:19.170,123.576,15.7338,0,0.000885,0,0
0:1:19.575,124.341,15.8304,0,0.000885,0,0
0:1:19.980,125.747,16.0096,0,0.000885,0,0
0:1:20.382,126.743,16.1406,0,0.000885,0,0
0:1:20.778,127.273,16.2027,0,0.000885,0,0
0:1:21.178,128.269,16.3337,0,0.000885,0,0
0:1:21.576,128.269,16.3337,0,0.000885,0,0
0:1:21.973,129.501,16.4854,0,0.000885,0,0
0:1:22.372,130.497,16.6164,0,0.000885,0,0
0:1:22.766,130.32,16.5957,0,0.000885,0,0
0:1:23.168,131.73,16.7749,0,0.000885,0,0
0:1:23.566,132.548,16.8784,0,0.000885,0,0
0:1:23.963,133.077,16.9473,0,0.000885,0,0
0:1:24.369,134.074,17.0714,0,0.000885,0,0
0:1:24.773,135.012,17.1886,0,0.000885,0,0
0:1:25.175,135.951,17.3127,0,0.000885,0,0
0:1:25.579,136.302,17.3541,0,0.000885,0,0
0:1:25.976,137.183,17.4644,0,0.000885,0,0
0:1:26.374,137.944,17.5609,0,0.000885,0,0
0:1:26.771,138.767,17.6713,0,0.000885,0,0
0:1:27.173,139.705,17.7885,0,0.000885,0,0
0:1:27.571,140.057,17.8298,0,0.000885,0,0
0:1:27.965,141.231,17.9815,0,0.000885,0,0
0:1:28.362,142.343,18.1263,0,0.000885,0,0
0:1:28.760,143.224,18.2366,0,0.000885,0,0
0:1:29.173,142.579,18.1539,0,0.000885,0,0
0:1:29.576,144.22,18.3607,0,0.000885,0,0
0:1:29.981,145.101,18.4779,0,0.000885,0,0
0:1:30.384,145.688,18.5469,0,0.000885,0,0
0:1:30.785,147.33,18.7606,0,0.000885,0,0
0:1:31.183,147.387,18.7675,0,0.000885,0,0
0:1:31.581,148.504,18.9054,0,0.000885,0,0
0:1:31.976,148.913,18.9606,0,0.000885,0,0
0:1:32.373,149.149,18.9882,0,0.000885,0,0
0:1:32.773,150.79,19.2019,0,0.000885,0,0
0:1:33.172,151.142,19.2433,0,0.000885,0,0
0:1:33.568,152.022,19.3536,0,0.000885,0,0
0:1:33.964,152.432,19.4087,0,0.000885,0,0
0:1:34.369,153.49,19.5397,0,0.000885,0,0
0:1:34.775,154.545,19.6776,0,0.000885,0,0
0:1:35.179,154.954,19.7328,0,0.000885,0,0
0:1:35.581,156.244,19.8914,0,0.000885,0,0
0:1:35.978,156.595,19.9396,0,0.000885,0,0
0:1:36.376,158.241,20.1465,0,0.000885,0,0
0:1:36.776,157.77,20.0913,0,0.000885,0,0
0:1:37.174,159.531,20.312,0,0.000885,0,0
0:1:37.569,159.647,20.3257,0,0.000885,0,0
0:1:37.964,160.994,20.4981,0,0.000885,0,0
0:1:38.364,161.115,20.5119,0,0.000885,0,0
0:1:38.763,162.578,20.6981,0,0.000885,0,0
0:1:39.171,163.343,20.7946,0,0.000885,0,0
0:1:39.576,163.93,20.8704,0,0.000885,0,0
0:1:39.980,165.158,21.029,0,0.000885,0,0
0:1:40.383,165.394,21.0566,0,0.000885,0,0
0:1:40.785,166.626,21.2152,0,0.000885,0,0
0:1:41.184,167.035,21.2703,0,0.000885,0,0
0:1:41.579,167.68,21.3531,0,0.000885,0,0
0:1:41.977,168.97,21.5116,0,0.000885,0,0
0:1:42.378,169.615,21.5944,0,0.000885,0,0
0:1:42.774,169.615,21.5944,0,0.000885,0,0
0:1:43.171,171.199,21.8012,0,0.000885,0,0
0:1:43.566,171.67,21.8564,0,0.000885,0,0
0:1:43.966,172.667,21.9874,0,0.000885,0,0
0:1:44.365,173.547,22.0977,0,0.000885,0,0
0:1:44.771,173.841,22.1322,0,0.000885,0,0
0:1:45.175,174.659,22.2356,0,0.000885,0,0
0:1:45.579,175.834,22.3873,0,0.000885,0,0
0:1:45.981,176.537,22.4769,0,0.000885,0,0
0:1:46.377,177.653,22.6217,0,0.000885,0,0
0:1:46.773,178.182,22.6838,0,0.000885,0,0
0:1:47.170,178.649,22.7458,0,0.000885,0,0
0:1:47.572,179.939,22.9113,0,0.000885,0,0
0:1:47.968,180.117,22.932,0,0.000885,0,0
0:1:48.364,181.229,23.0768,0,0.000885,0,0
0:1:48.770,181.639,23.125,0,0.000885,0,0
0:1:49.175,183.222,23.3319,0,0.000885,0,0
0:1:49.582,183.4,23.3525,0,0.000885,0,0
0:1:49.985,184.748,23.5249,0,0.000885,0,0
0:1:50.387,184.868,23.5387,0,0.000885,0,0
0:1:50.785,186.452,23.7386,0,0.000885,0,0
0:1:51.185,186.861,23.7938,0,0.000885,0,0
0:1:51.582,187.212,23.8352,0,0.000885,0,0
0:1:51.978,187.799,23.911,0,0.000885,0,0
0:1:52.375,188.738,24.0282,0,0.000885,0,0
0:1:52.776,189.619,24.1454,0,0.000885,0,0
0:1:53.175,190.264,24.2282,0,0.000885,0,0
0:1:53.572,191.26,24.3523,0,0.000885,0,0
0:1:53.969,192.021,24.4488,0,0.000885,0,0
0:1:54.370,193.08,24.5867,0,0.000885,0,0
0:1:54.773,193.782,24.6763,0,0.000885,0,0
0:1:55.174,194.779,24.8004,0,0.000885,0,0
0:1:55.574,195.13,24.8418,0,0.000885,0,0
0:1:55.969,196.42,25.0073,0,0.000885,0,0
0:1:56.365,197.123,25.0969,0,0.000885,0,0
0:1:56.761,198.119,25.2279,0,0.000885,0,0
0:1:57.165,199,25.3382,0,0.000885,0,0
0:1:57.569,199.058,25.3451,0,0.000885,0,0
0:1:57.962,199.939,25.4554,0,0.000885,0,0
0:1:58.369,201.171,25.614,0,0.000885,0,0
0:1:58.773,201.113,25.6071,0,0.000885,0,0
0:1:59.166,201.522,25.6554,0,0.000885,0,0
0:1:59.569,203.515,25.9105,0,0.000885,0,0
0:1:59.972,203.871,25.9588,0,0.000885,0,0
0:2:0.372,205.219,26.1311,0,0.000885,0,0
0:2:0.772,205.277,26.138,0,0.000885,0,0
0:2:1.162,205.979,26.2277,0,0.000885,0,0
0:2:1.569,206.918,26.3449,0,0.000885,0,0
0:2:1.965,207.505,26.4207,0,0.000885,0,0
0:2:2.370,208.853,26.5931,0,0.000885,0,0
0:2:2.762,209.146,26.6276,0,0.000885,0,0
0:2:3.166,210.557,26.8068,0,0.000885,0,0
0:2:3.563,210.73,26.8344,0,0.000885,0,0
0:2:3.957,211.726,26.9585,0,0.000885,0,0
0:2:4.359,212.082,26.9999,0,0.000885,0,0
0:2:4.763,213.897,27.2343,0,0.000885,0,0
0:2:5.162,214.133,27.2619,0,0.000885,0,0
0:2:5.562,215.774,27.4756,0,0.000885,0,0
0:2:5.967,215.952,27.4963,0,0.000885,0,0
0:2:6.369,215.952,27.4963,0,0.000885,0,0
0:2:6.762,217.242,27.6618,0,0.000885,0,0
0:2:7.158,217.767,27.7238,0,0.000885,0,0
0:2:7.567,219.413,27.9376,0,0.000885,0,0
0:2:7.970,219.293,27.9238,0,0.000885,0,0
0:2:8.360,220.761,28.1099,0,0.000885,0,0
0:2:8.769,221.054,28.1444,0,0.000885,0,0
0:2:9.167,221.757,28.234,0,0.000885,0,0
0:2:9.571,222.989,28.3926,0,0.000885,0,0
0:2:9.971,223.399,28.4409,0,0.000885,0,0
0:2:10.372,224.689,28.6063,0,0.000885,0,0
0:2:10.767,225.454,28.7029,0,0.000885,0,0
0:2:11.164,225.569,28.7236,0,0.000885,0,0
0:2:11.568,227.74,28.9993,0,0.000885,0,0
0:2:11.959,227.389,28.9511,0,0.000885,0,0
0:2:12.365,227.976,29.0269,0,0.000885,0,0
0:2:12.763,229.559,29.2269,0,0.000885,0,0
0:2:13.167,229.266,29.1924,0,0.000885,0,0
0:2:13.570,230.147,29.3027,0,0.000885,0,0
0:2:13.964,231.259,29.4475,0,0.000885,0,0
0:2:14.364,231.846,29.5165,0,0.000885,0,0
0:2:14.769,233.429,29.7233,0,0.000885,0,0
0:2:15.169,233.665,29.7509,0,0.000885,0,0
0:2:15.570,234.541,29.8612,0,0.000885,0,0
0:2:15.963,235.249,29.9508,0,0.000885,0,0
0:2:16.360,236.539,30.1163,0,0.000885,0,0
0:2:16.766,236.832,30.1508,0,0.000885,0,0
0:2:17.168,237.593,30.2542,0,0.000885,0,0
0:2:17.574,238.709,30.3921,0,0.000885,0,0
0:2:17.970,239.764,30.53,0,0.000885,0,0
0:2:18.364,240.466,30.6196,0,0.000885,0,0
0:2:18.767,240.76,30.6541,0,0.000885,0,0
0:2:19.159,241.347,30.7299,0,0.000885,0,0
0:2:19.559,242.401,30.8609,0,0.000885,0,0
0:2:19.961,243.166,30.9575,0,0.000885,0,0
0:2:20.366,244.808,31.1712,0,0.000885,0,0
0:2:20.765,245.511,31.2608,0,0.000885,0,0
0:2:21.167,244.75,31.1643,0,0.000885,0,0
0:2:21.565,246.507,31.3849,0,0.000885,0,0
0:2:21.972,247.152,31.4677,0,0.000885,0,0
0:2:22.364,247.388,31.4953,0,0.000885,0,0
0:2:22.767,248.62,31.6538,0,0.000885,0,0
0:2:23.174,249.265,31.7366,0,0.000885,0,0
0:2:23.571,250.964,31.9572,0,0.000885,0,0
0:2:23.965,250.849,31.9365,0,0.000885,0,0
0:2:24.369,252.374,32.1365,0,0.000885,0,0
0:2:24.769,252.726,32.1778,0,0.000885,0,0
0:2:25.169,253.019,32.2123,0,0.000885,0,0
0:2:25.569,254.425,32.3916,0,0.000885,0,0
0:2:25.973,255.07,32.4743,0,0.000885,0,0
0:2:26.362,256.129,32.6122,0,0.000885,0,0
0:2:26.759,256.538,32.6605,0,0.000885,0,0
0:2:27.168,258.121,32.8673,0,0.000885,0,0
0:2:27.570,257.943,32.8397,0,0.000885,0,0
0:2:27.974,259.06,32.9845,0,0.000885,0,0
0:2:28.366,259.296,33.0121,0,0.000885,0,0
0:2:28.761,259.821,33.081,0,0.000885,0,0
0:2:29.157,260.701,33.1914,0,0.000885,0,0
0:2:29.559,262.343,33.4051,0,0.000885,0,0
0:2:29.960,262.401,33.412,0,0.000885,0,0
0:2:30.360,263.575,33.5568,0,0.000885,0,0
0:2:30.760,264.22,33.6395,0,0.000885,0,0
0:2:31.166,265.274,33.7774,0,0.000885,0,0
0:2:31.570,266.097,33.8808,0,0.000885,0,0
0:2:31.962,266.92,33.9843,0,0.000885,0,0
0:2:32.360,267.623,34.0739,0,0.000885,0,0
0:2:32.767,268.032,34.129,0,0.000885,0,0
0:2:33.170,269.206,34.2738,0,0.000885,0,0
0:2:33.574,270.145,34.3979,0,0.000885,0,0
0:2:33.970,270.381,34.4255,0,0.000885,0,0
0:2:34.366,272.08,34.6393,0,0.000885,0,0
0:2:34.767,271.902,34.6186,0,0.000885,0,0
0:2:35.169,273.018,34.7634,0,0.000885,0,0
0:2:35.569,273.837,34.8668,0,0.000885,0,0
0:2:35.967,274.602,34.9633,0,0.000885,0,0
0:2:36.374,275.483,35.0736,0,0.000885,0,0
0:2:36.769,276.888,35.2529,0,0.000885,0,0
0:2:37.169,276.831,35.246,0,0.000885,0,0
0:2:37.574,277.769,35.3632,0,0.000885,0,0
0:2:37.971,278.472,35.4528,0,0.000885,0,0
0:2:38.374,279.646,35.6045,0,0.000885,0,0
0:2:38.767,279.82,35.6252,0,0.000885,0,0
0:2:39.170,280.994,35.7769,0,0.000885,0,0
0:2:39.572,281.172,35.7976,0,0.000885,0,0
0:2:39.973,282.578,35.9768,0,0.000885,0,0
0:2:40.373,283.107,36.0458,0,0.000885,0,0
0:2:40.775,283.868,36.1423,0,0.000885,0,0
0:2:41.173,284.922,36.2802,0,0.000885,0,0
0:2:41.569,285.745,36.3836,0,0.000885,0,0
0:2:41.961,286.683,36.5008,0,0.000885,0,0
0:2:42.363,287.035,36.5491,0,0.000885,0,0
0:2:42.771,288.503,36.7353,0,0.000885,0,0
0:2:43.166,288.97,36.7904,0,0.000885,0,0
0:2:43.572,289.557,36.8663,0,0.000885,0,0
0:2:43.976,290.202,36.949,0,0.000885,0,0
0:2:44.378,290.611,37.0042,0,0.000885,0,0
0:2:44.779,292.488,37.2386,0,0.000885,0,0
0:2:45.180,292.724,37.2731,0,0.000885,0,0
0:2:45.580,293.956,37.4247,0,0.000885,0,0
0:2:45.972,294.486,37.4937,0,0.000885,0,0
0:2:46.377,295.188,37.5833,0,0.000885,0,0
0:2:46.774,295.833,37.6661,0,0.000885,0,0
0:2:47.169,296.3,37.7281,0,0.000885,0,0
0:2:47.560,296.83,37.7902,0,0.000885,0,0
0:2:47.975,298.298,37.9832,0,0.000885,0,0
0:2:48.371,299.41,38.1211,0,0.000885,0,0
0:2:48.775,299.588,38.1418,0,0.000885,0,0
0:2:49.172,299.881,38.1832,0,0.000885,0,0
0:2:49.574,301.465,38.3831,0,0.000885,0,0
0:2:49.974,301.758,38.4176,0,0.000885,0,0
0:2:50.374,303.28,38.6175,0,0.000885,0,0
0:2:50.775,303.636,38.6589,0,0.000885,0,0
0:2:51.170,304.748,38.8037,0,0.000885,0,0
0:2:51.573,305.157,38.852,0,0.000885,0,0
0:2:51.975,306.038,38.9692,0,0.000885,0,0
0:2:52.373,306.683,39.045,0,0.000885,0,0
0:2:52.771,307.385,39.1346,0,0.000885,0,0
0:2:53.174,308.386,39.2656,0,0.000885,0,0
0:2:53.576,309.147,39.3622,0,0.000885,0,0
0:2:53.970,310.259,39.507,0,0.000885,0,0
0:2:54.370,310.731,39.5621,0,0.000885,0,0
0:2:54.774,311.963,39.7207,0,0.000885,0,0
0:2:55.174,312.198,39.7483,0,0.000885,0,0
0:2:55.574,313.955,39.9758,0,0.000885,0,0
0:2:55.971,313.546,39.9206,0,0.000885,0,0
0:2:56.377,314.952,40.0999,0,0.000885,0,0
0:2:56.771,315.539,40.1758,0,0.000885,0,0
0:2:57.162,315.948,40.2309,0,0.000885,0,0
0:2:57.569,316.713,40.3274,0,0.000885,0,0
0:2:57.975,317.594,40.4378,0,0.000885,0,0
0:2:58.371,319.115,40.6308,0,0.000885,0,0
0:2:58.775,319.178,40.6377,0,0.000885,0,0
0:2:59.170,319.823,40.7204,0,0.000885,0,0
0:2:59.572,320.761,40.8376,0,0.000885,0,0
0:2:59.974,321.815,40.9755,0,0.000885,0,0
0:3:0.374,322.576,41.0721,0,0.000885,0,0
0:3:0.775,323.808,41.2306,0,0.000885,0,0
0:3:1.169,323.808,41.2306,0,0.000885,0,0
0:3:1.572,325.334,41.4237,0,0.000885,0,0
0:3:1.971,325.921,41.4995,0,0.000885,0,0
0:3:2.376,327.033,41.6374,0,0.000885,0,0
0:3:2.770,326.802,41.6099,0,0.000885,0,0
0:3:3.159,328.443,41.8167,0,0.000885,0,0
0:3:3.555,328.617,41.8443,0,0.000885,0,0
0:3:3.954,329.849,41.996,0,0.000885,0,0
0:3:4.356,330.32,42.058,0,0.000885,0,0
0:3:4.756,330.73,42.1132,0,0.000885,0,0
0:3:5.158,331.846,42.2511,0,0.000885,0,0
0:3:5.564,332.198,42.2993,0,0.000885,0,0
0:3:5.960,333.545,42.4717,0,0.000885,0,0
0:3:6.377,333.897,42.5131,0,0.000885,0,0
0:3:6.770,335.538,42.7199,0,0.000885,0,0
0:3:7.172,335.658,42.7337,0,0.000885,0,0
0:3:7.571,336.948,42.8992,0,0.000885,0,0
0:3:7.975,337.18,42.9337,0,0.000885,0,0
0:3:8.366,338.474,43.0922,0,0.000885,0,0
0:3:8.773,338.941,43.1543,0,0.000885,0,0
0:3:9.175,339.995,43.2922,0,0.000885,0,0
0:3:9.576,340.409,43.3404,0,0.000885,0,0
0:3:9.977,340.934,43.4094,0,0.000885,0,0
0:3:10.377,341.757,43.5128,0,0.000885,0,0
0:3:10.771,342.869,43.6576,0,0.000885,0,0
0:3:11.175,343.398,43.7197,0,0.000885,0,0
0:3:11.574,344.924,43.9196,0,0.000885,0,0
0:3:11.978,345.333,43.9679,0,0.000885,0,0
0:3:12.379,346.565,44.1264,0,0.000885,0,0
0:3:12.773,346.917,44.1678,0,0.000885,0,0
0:3:13.171,348.5,44.3747,0,0.000885,0,0
0:3:13.576,348.327,44.3471,0,0.000885,0,0
0:3:13.971,349.265,44.4712,0,0.000885,0,0
0:3:14.375,349.617,44.5126,0,0.000885,0,0
0:3:14.776,350.907,44.678,0,0.000885,0,0
0:3:15.175,351.023,44.6918,0,0.000885,0,0
0:3:15.574,351.845,44.7952,0,0.000885,0,0
0:3:15.978,352.784,44.9193,0,0.000885,0,0
0:3:16.371,353.954,45.0641,0,0.000885,0,0
0:3:16.776,354.541,45.14,0,0.000885,0,0
0:3:17.174,355.773,45.2986,0,0.000885,0,0
0:3:17.578,356.712,45.4158,0,0.000885,0,0
0:3:17.971,356.89,45.4433,0,0.000885,0,0
0:3:18.377,358.18,45.6019,0,0.000885,0,0
0:3:18.773,358.825,45.6847,0,0.000885,0,0
0:3:19.177,359.821,45.8157,0,0.000885,0,0
0:3:19.579,360.173,45.857,0,0.000885,0,0
0:3:19.981,360.582,45.9122,0,0.000885,0,0
0:3:20.381,361.405,46.0156,0,0.000885,0,0
0:3:20.781,362.695,46.1811,0,0.000885,0,0
0:3:21.174,362.752,46.188,0,0.000885,0,0
0:3:21.577,364.042,46.3535,0,0.000885,0,0
0:3:21.972,365.804,46.5741,0,0.000885,0,0
0:3:22.366,365.862,46.581,0,0.000885,0,0
0:3:22.775,367.33,46.7671,0,0.000885,0,0
0:3:23.176,367.152,46.7465,0,0.000885,0,0
0:3:23.579,368.384,46.905,0,0.000885,0,0
0:3:23.976,369.145,47.0016,0,0.000885,0,0
0:3:24.372,369.265,47.0153,0,0.000885,0,0
0:3:24.774,370.083,47.1188,0,0.000885,0,0
0:3:25.176,370.728,47.2015,0,0.000885,0,0
0:3:25.576,371.845,47.3463,0,0.000885,0,0
0:3:25.976,372.49,47.429,0,0.000885,0,0
0:3:26.367,373.664,47.5738,0,0.000885,0,0
0:3:26.774,374.954,47.7393,0,0.000885,0,0
0:3:27.176,374.954,47.7393,0,0.000885,0,0
0:3:27.574,375.83,47.8496,0,0.000885,0,0
0:3:27.981,376.417,47.9255,0,0.000885,0,0
0:3:28.375,377.534,48.0702,0,0.000885,0,0
0:3:28.776,378.766,48.2288,0,0.000885,0,0
0:3:29.178,378.646,48.2081,0,0.000885,0,0
0:3:29.581,380.056,48.3874,0,0.000885,0,0
0:3:29.980,380.35,48.4288,0,0.000885,0,0
0:3:30.378,381.462,48.5667,0,0.000885,0,0
0:3:30.773,382.165,48.6563,0,0.000885,0,0
0:3:31.167,382.694,48.7252,0,0.000885,0,0
0:3:31.575,384.277,48.9252,0,0.000885,0,0
0:3:31.979,384.687,48.9804,0,0.000885,0,0
0:3:32.371,385.332,49.0631,0,0.000885,0,0
0:3:32.776,386.39,49.1941,0,0.000885,0,0
0:3:33.175,386.915,49.263,0,0.000885,0,0
0:3:33.578,387.565,49.3458,0,0.000885,0,0
0:3:33.980,388.383,49.4492,0,0.000885,0,0
0:3:34.381,389.673,49.6147,0,0.000885,0,0
0:3:34.784,390.082,49.6698,0,0.000885,0,0
0:3:35.185,390.496,49.7181,0,0.000885,0,0
0:3:35.585,391.315,49.8215,0,0.000885,0,0
0:3:35.979,392.782,50.0077,0,0.000885,0,0
0:3:36.374,393.427,50.0904,0,0.000885,0,0
0:3:36.779,394.188,50.1869,0,0.000885,0,0
0:3:37.174,395.189,50.3179,0,0.000885,0,0
0:3:37.578,395.54,50.3593,0,0.000885,0,0
0:3:37.981,396.537,50.4903,0,0.000885,0,0
0:3:38.377,397.004,50.5455,0,0.000885,0,0
0:3:38.775,398.236,50.704,0,0.000885,0,0
0:3:39.176,398.356,50.7178,0,0.000885,0,0
0:3:39.578,399.646,50.8833,0,0.000885,0,0
0:3:39.979,399.584,50.8764,0,0.000885,0,0
0:3:40.380,400.585,51.0005,0,0.000885,0,0
0:3:40.780,401.697,51.1453,0,0.000885,0,0
0:3:41.174,402.813,51.2901,0,0.000885,0,0
0:3:41.578,404.161,51.4625,0,0.000885,0,0
0:3:41.975,404.219,51.4694,0,0.000885,0,0
0:3:42.367,405.918,51.6831,0,0.000885,0,0
0:3:42.773,405.335,51.6073,0,0.000885,0,0
0:3:43.176,406.741,51.7865,0,0.000885,0,0
0:3:43.573,407.328,51.8624,0,0.000885,0,0
0:3:43.967,408.147,51.9658,0,0.000885,0,0
0:3:44.370,408.267,51.9796,0,0.000885,0,0
0:3:44.774,409.027,52.0761,0,0.000885,0,0
0:3:45.174,410.317,52.2416,0,0.000885,0,0
0:3:45.570,411.256,52.3657,0,0.000885,0,0
0:3:45.966,412.252,52.4898,0,0.000885,0,0
0:3:46.369,413.075,52.5932,0,0.000885,0,0
0:3:46.775,413.662,52.6691,0,0.000885,0,0
0:3:47.179,414.072,52.7242,0,0.000885,0,0
0:3:47.576,415.655,52.9242,0,0.000885,0,0
0:3:47.974,416.652,53.0483,0,0.000885,0,0
0:3:48.376,416.594,53.0414,0,0.000885,0,0
0:3:48.778,417.768,53.1931,0,0.000885,0,0
0:3:49.181,418.355,53.2689,0,0.000885,0,0
0:3:49.582,418.942,53.3378,0,0.000885,0,0
0:3:49.983,419.761,53.4482,0,0.000885,0,0
0:3:50.382,421.109,53.6205,0,0.000885,0,0
0:3:50.776,421.696,53.6895,0,0.000885,0,0
0:3:51.174,422.283,53.7653,0,0.000885,0,0
0:3:51.578,422.928,53.8481,0,0.000885,0,0
0:3:51.968,424.276,54.0204,0,0.000885,0,0
0:3:52.375,424.454,54.0411,0,0.000885,0,0
0:3:52.778,424.983,54.1101,0,0.000885,0,0
0:3:53.175,426.153,54.2617,0,0.000885,0,0
0:3:53.580,426.798,54.3445,0,0.000885,0,0
0:3:53.970,427.149,54.3858,0,0.000885,0,0
0:3:54.375,428.853,54.6065,0,0.000885,0,0
0:3:54.777,429.498,54.6823,0,0.000885,0,0
0:3:55.178,429.792,54.7237,0,0.000885,0,0
0:3:55.579,431.255,54.9098,0,0.000885,0,0
0:3:55.982,432.194,55.0271,0,0.000885,0,0
0:3:56.375,432.959,55.1236,0,0.000885,0,0
0:3:56.781,433.604,55.2063,0,0.000885,0,0
0:3:57.179,434.484,55.3166,0,0.000885,0,0
0:3:57.571,434.894,55.3718,0,0.000885,0,0
0:3:57.974,435.067,55.3925,0,0.000885,0,0
0:3:58.380,436.299,55.5511,0,0.000885,0,0
0:3:58.776,437.007,55.6407,0,0.000885,0,0
0:3:59.170,437.532,55.7096,0,0.000885,0,0
0:3:59.574,438.234,55.7993,0,0.000885,0,0
0:3:59.975,439.057,55.9027,0,0.000885,0,0
0:4:0.376,439.76,55.9923,0,0.000885,0,0
0:4:0.776,441.05,56.1578,0,0.000885,0,0
0:4:1.179,442.224,56.3026,0,0.000885,0,0
0:4:1.571,443.221,56.4336,0,0.000885,0,0
0:4:1.977,443.866,56.5163,0,0.000885,0,0
0:4:2.382,444.982,56.6542,0,0.000885,0,0
0:4:2.779,445.156,56.6818,0,0.000885,0,0
0:4:3.183,445.801,56.7645,0,0.000885,0,0
0:4:3.577,446.739,56.8817,0,0.000885,0,0
0:4:3.969,447.153,56.93,0,0.000885,0,0
0:4:4.368,448.092,57.0541,0,0.000885,0,0
0:4:4.772,448.91,57.1575,0,0.000885,0,0
0:4:5.174,449.497,57.2334,0,0.000885,0,0
0:4:5.575,450.494,57.3575,0,0.000885,0,0
0:4:5.981,451.61,57.5023,0,0.000885,0,0
0:4:6.376,452.135,57.5712,0,0.000885,0,0
0:4:6.770,452.664,57.6333,0,0.000885,0,0
0:4:7.176,453.603,57.7574,0,0.000885,0,0
0:4:7.578,454.599,57.8815,0,0.000885,0,0
0:4:7.983,455.244,57.9642,0,0.000885,0,0
0:4:8.381,456.183,58.0814,0,0.000885,0,0
0:4:8.776,457.064,58.1918,0,0.000885,0,0
0:4:9.177,457.357,58.2331,0,0.000885,0,0
0:4:9.580,458.06,58.3228,0,0.000885,0,0
0:4:9.982,458.589,58.3917,0,0.000885,0,0
0:4:10.381,460.231,58.5985,0,0.000885,0,0
0:4:10.780,460.991,58.6951,0,0.000885,0,0
0:4:11.173,461.579,58.7709,0,0.000885,0,0
0:4:11.578,461.699,58.7847,0,0.000885,0,0
0:4:11.984,463.398,58.9984,0,0.000885,0,0
0:4:12.380,463.807,59.0536,0,0.000885,0,0
0:4:12.773,464.51,59.1432,0,0.000885,0,0
0:4:13.178,465.626,59.288,0,0.000885,0,0
0:4:13.582,466.156,59.3501,0,0.000885,0,0
0:4:13.979,467.21,59.488,0,0.000885,0,0
0:4:14.384,468.149,59.6052,0,0.000885,0,0
0:4:14.787,468.967,59.7086,0,0.000885,0,0
0:4:15.188,469.029,59.7155,0,0.000885,0,0
0:4:15.589,470.141,59.8603,0,0.000885,0,0
0:4:15.989,470.907,59.9568,0,0.000885,0,0
0:4:16.383,472.254,60.1292,0,0.000885,0,0
0:4:16.776,472.784,60.1981,0,0.000885,0,0
0:4:17.180,473.429,60.2809,0,0.000885,0,0
0:4:17.576,474.074,60.3636,0,0.000885,0,0
0:4:17.968,474.367,60.3981,0,0.000885,0,0
0:4:18.372,475.421,60.5291,0,0.000885,0,0
0:4:18.777,476.889,60.7221,0,0.000885,0,0
0:4:19.178,477.766,60.8324,0,0.000885,0,0
0:4:19.581,478.295,60.9014,0,0.000885,0,0
0:4:19.981,478.646,60.9428,0,0.000885,0,0
0:4:20.379,479.763,61.0875,0,0.000885,0,0
0:4:20.783,480.581,61.191,0,0.000885,0,0
0:4:21.179,481.404,61.2944,0,0.000885,0,0
0:4:21.574,482.107,61.384,0,0.000885,0,0
0:4:21.979,482.694,61.4599,0,0.000885,0,0
0:4:22.381,482.81,61.4737,0,0.000885,0,0
0:4:22.777,484.278,61.6598,0,0.000885,0,0
0:4:23.173,484.981,61.7494,0,0.000885,0,0
0:4:23.577,485.804,61.8529,0,0.000885,0,0
0:4:23.968,486.506,61.9425,0,0.000885,0,0
0:4:24.371,487.796,62.108,0,0.000885,0,0
0:4:24.774,488.384,62.1838,0,0.000885,0,0
0:4:25.173,488.908,62.2528,0,0.000885,0,0
0:4:25.577,489.847,62.37,0,0.000885,0,0
0:4:25.979,490.083,62.3976,0,0.000885,0,0
0:4:26.384,491.315,62.5561,0,0.000885,0,0
0:4:26.782,492.196,62.6664,0,0.000885,0,0
0:4:27.184,492.663,62.7285,0,0.000885,0,0
0:4:27.578,493.659,62.8526,0,0.000885,0,0
0:4:27.970,494.54,62.9698,0,0.000885,0,0
0:4:28.380,495.305,63.0663,0,0.000885,0,0
0:4:28.785,496.066,63.1629,0,0.000885,0,0
0:4:29.179,497.182,63.3008,0,0.000885,0,0
0:4:29.580,497.649,63.3628,0,0.000885,0,0
0:4:29.981,498.881,63.5214,0,0.000885,0,0
0:4:30.381,499.055,63.5421,0,0.000885,0,0
0:4:30.780,500.114,63.6731,0,0.000885,0,0
0:4:31.172,501.11,63.8041,0,0.000885,0,0
0:4:31.578,501.288,63.8248,0,0.000885,0,0
0:4:31.973,502.751,64.0109,0,0.000885,0,0
0:4:32.381,503.223,64.073,0,0.000885,0,0
0:4:32.784,503.632,64.1212,0,0.000885,0,0
0:4:33.175,504.219,64.1971,0,0.000885,0,0
0:4:33.572,505.273,64.335,0,0.000885,0,0
0:4:33.968,505.976,64.4246,0,0.000885,0,0
0:4:34.374,507.151,64.5694,0,0.000885,0,0
0:4:34.774,507.853,64.659,0,0.000885,0,0
0:4:35.174,508.734,64.7762,0,0.000885,0,0
0:4:35.571,509.909,64.921,0,0.000885,0,0
0:4:35.980,510.14,64.9555,0,0.000885,0,0
0:4:36.370,510.963,65.0589,0,0.000885,0,0
0:4:36.774,511.723,65.1555,0,0.000885,0,0
0:4:37.171,512.782,65.2865,0,0.000885,0,0
0:4:37.566,513.601,65.3968,0,0.000885,0,0
0:4:37.961,514.072,65.4519,0,0.000885,0,0
0:4:38.374,515.246,65.6036,0,0.000885,0,0
0:4:38.782,515.598,65.645,0,0.000885,0,0
0:4:39.180,516.416,65.7553,0,0.000885,0,0
0:4:39.583,517.003,65.8242,0,0.000885,0,0
0:4:39.985,518.058,65.9621,0,0.000885,0,0
0:4:40.385,518.293,65.9897,0,0.000885,0,0
0:4:40.782,519.526,66.1483,0,0.000885,0,0
0:4:41.180,519.997,66.2104,0,0.000885,0,0
0:4:41.584,520.994,66.3345,0,0.000885,0,0
0:4:41.985,522.163,66.4861,0,0.000885,0,0
0:4:42.381,522.928,66.5827,0,0.000885,0,0
0:4:42.776,523.516,66.6585,0,0.000885,0,0
0:4:43.172,524.979,66.8447,0,0.000885,0,0
0:4:43.574,524.863,66.8309,0,0.000885,0,0
0:4:43.989,526.447,67.0308,0,0.000885,0,0
0:4:44.388,526.505,67.0377,0,0.000885,0,0
0:4:44.792,527.443,67.1549,0,0.000885,0,0
0:4:45.193,528.324,67.2653,0,0.000885,0,0
0:4:45.592,529.027,67.3549,0,0.000885,0,0
0:4:45.987,529.788,67.4583,0,0.000885,0,0
0:4:46.386,530.962,67.6031,0,0.000885,0,0
0:4:46.780,531.901,67.7272,0,0.000885,0,0
0:4:47.182,532.136,67.7548,0,0.000885,0,0
0:4:47.574,533.484,67.9271,0,0.000885,0,0
0:4:47.972,533.893,67.9754,0,0.000885,0,0
0:4:48.380,534.543,68.0581,0,0.000885,0,0
0:4:48.771,535.188,68.1409,0,0.000885,0,0
0:4:49.163,536.3,68.2857,0,0.000885,0,0
0:4:49.564,536.709,68.3339,0,0.000885,0,0
0:4:49.968,537.416,68.4236,0,0.000885,0,0
0:4:50.369,538.644,68.5822,0,0.000885,0,0
0:4:50.768,538.764,68.5959,0,0.000885,0,0
0:4:51.184,539.467,68.6856,0,0.000885,0,0
0:4:51.581,540.641,68.8373,0,0.000885,0,0
0:4:51.976,541.638,68.9614,0,0.000885,0,0
0:4:52.371,542.518,69.0786,0,0.000885,0,0
0:4:52.773,542.986,69.1337,0,0.000885,0,0
0:4:53.180,543.924,69.2578,0,0.000885,0,0
0:4:53.575,544.689,69.3544,0,0.000885,0,0
0:4:53.971,545.623,69.4716,0,0.000885,0,0
0:4:54.374,546.446,69.575,0,0.000885,0,0
0:4:54.777,547.563,69.7198,0,0.000885,0,0
0:4:55.176,547.794,69.7474,0,0.000885,0,0
0:4:55.575,548.439,69.8301,0,0.000885,0,0
0:4:55.981,549.44,69.9542,0,0.000885,0,0
0:4:56.372,550.201,70.0507,0,0.000885,0,0
0:4:56.776,551.081,70.1679,0,0.000885,0,0
0:4:57.174,551.842,70.2645,0,0.000885,0,0
0:4:57.590,553.074,70.4162,0,0.000885,0,0
0:4:57.982,553.425,70.4644,0,0.000885,0,0
0:4:58.386,554.6,70.6161,0,0.000885,0,0
0:4:58.783,555.303,70.7057,0,0.000885,0,0
0:4:59.176,555.774,70.7609,0,0.000885,0,0
0:4:59.581,556.828,70.8988,0,0.000885,0,0
0:4:59.984,557.122,70.9333,0,0.000885,0,0
0:5:0.384,558.118,71.0643,0,0.000885,0,0
0:5:0.784,558.648,71.1263,0,0.000885,0,0
0:5:1.177,559.76,71.2711,0,0.000885,0,0
0:5:1.583,560.347,71.3469,0,0.000885,0,0
0:5:1.985,561.05,71.4366,0,0.000885,0,0
0:5:2.383,561.988,71.5538,0,0.000885,0,0
0:5:2.789,562.985,71.6848,0,0.000885,0,0
0:5:3.182,563.336,71.7262,0,0.000885,0,0
0:5:3.586,564.395,71.8641,0,0.000885,0,0
0:5:3.991,565.213,71.9675,0,0.000885,0,0
0:5:4.390,566.33,72.1054,0,0.000885,0,0
0:5:4.793,566.975,72.1881,0,0.000885,0,0
0:5:5.194,567.504,72.2571,0,0.000885,0,0
0:5:5.594,568.38,72.3674,0,0.000885,0,0
0:5:5.992,569.319,72.4915,0,0.000885,0,0
0:5:6.388,569.67,72.5328,0,0.000885,0,0
0:5:6.783,570.845,72.6845,0,0.000885,0,0
0:5:7.184,571.783,72.8017,0,0.000885,0,0
0:5:7.579,572.838,72.9327,0,0.000885,0,0
0:5:7.976,573.073,72.9672,0,0.000885,0,0
0:5:8.383,573.603,73.0362,0,0.000885,0,0
0:5:8.785,574.012,73.0844,0,0.000885,0,0
0:5:9.188,575.186,73.2361,0,0.000885,0,0
0:5:9.591,575.831,73.3188,0,0.000885,0,0
0:5:9.992,576.65,73.4223,0,0.000885,0,0
0:5:10.391,577.588,73.5395,0,0.000885,0,0
0:5:10.784,578.353,73.636,0,0.000885,0,0
0:5:11.182,579.465,73.7808,0,0.000885,0,0
0:5:11.587,579.817,73.8222,0,0.000885,0,0
0:5:11.991,580.755,73.9463,0,0.000885,0,0
0:5:12.385,581.636,74.0566,0,0.000885,0,0
0:5:12.777,582.753,74.2014,0,0.000885,0,0
0:5:13.175,583.571,74.3048,0,0.000885,0,0
0:5:13.569,584.216,74.3875,0,0.000885,0,0
0:5:13.986,584.923,74.4772,0,0.000885,0,0
0:5:14.387,585.8,74.5875,0,0.000885,0,0
0:5:14.790,586.151,74.6289,0,0.000885,0,0
0:5:15.191,587.383,74.7874,0,0.000885,0,0
0:5:15.594,588.148,74.884,0,0.000885,0,0
0:5:15.990,588.971,74.9874,0,0.000885,0,0
0:5:16.385,589.852,75.1046,0,0.000885,0,0
0:5:16.783,590.439,75.1735,0,0.000885,0,0
0:5:17.192,591.2,75.277,0,0.000885,0,0
0:5:17.587,591.787,75.3459,0,0.000885,0,0
0:5:17.978,592.258,75.408,0,0.000885,0,0
0:5:18.377,593.077,75.5114,0,0.000885,0,0
0:5:18.776,594.545,75.6975,0,0.000885,0,0
0:5:19.172,595.194,75.7803,0,0.000885,0,0
0:5:19.576,595.661,75.8423,0,0.000885,0,0
0:5:19.980,596.364,75.932,0,0.000885,0,0
0:5:20.385,597.659,76.0974,0,0.000885,0,0
0:5:20.787,598.304,76.1802,0,0.000885,0,0
0:5:21.184,598.949,76.2629,0,0.000885,0,0
0:5:21.578,599.887,76.3801,0,0.000885,0,0
0:5:21.986,600.826,76.4973,0,0.000885,0,0
0:5:22.385,601.591,76.5939,0,0.000885,0,0
0:5:22.783,601.942,76.6421,0,0.000885,0,0
0:5:23.177,603.352,76.8214,0,0.000885,0,0
0:5:23.571,603.646,76.8559,0,0.000885,0,0
0:5:23.971,604.291,76.9386,0,0.000885,0,0
0:5:24.380,605.995,77.1592,0,0.000885,0,0
0:5:24.787,606.697,77.2489,0,0.000885,0,0
0:5:25.190,607.107,77.2971,0,0.000885,0,0
0:5:25.591,607.752,77.3799,0,0.000885,0,0
0:5:25.991,608.695,77.504,0,0.000885,0,0
0:5:26.389,608.926,77.5315,0,0.000885,0,0
0:5:26.784,609.633,77.6212,0,0.000885,0,0
0:5:27.177,610.514,77.7315,0,0.000885,0,0
0:5:27.584,611.568,77.8694,0,0.000885,0,0
0:5:27.985,612.685,78.0073,0,0.000885,0,0
0:5:28.391,613.33,78.09,0,0.000885,0,0
0:5:28.785,613.388,78.0969,0,0.000885,0,0
0:5:29.179,614.798,78.2762,0,0.000885,0,0
0:5:29.584,615.207,78.3313,0,0.000885,0,0
0:5:29.990,616.443,78.4899,0,0.000885,0,0
0:5:30.392,617.32,78.6002,0,0.000885,0,0
0:5:30.794,618.027,78.6899,0,0.000885,0,0
0:5:31.191,618.614,78.7657,0,0.000885,0,0
0:5:31.588,619.433,78.8691,0,0.000885,0,0
0:5:31.988,620.198,78.9657,0,0.000885,0,0
0:5:32.385,620.785,79.0415,0,0.000885,0,0
0:5:32.778,621.781,79.1656,0,0.000885,0,0
0:5:33.185,622.782,79.2966,0,0.000885,0,0
0:5:33.585,623.663,79.4069,0,0.000885,0,0
0:5:33.993,624.188,79.4759,0,0.000885,0,0
0:5:34.398,624.837,79.5586,0,0.000885,0,0
0:5:34.800,626.185,79.731,0,0.000885,0,0
0:5:35.203,626.714,79.793,0,0.000885,0,0
0:5:35.603,627.537,79.9033,0,0.000885,0,0
0:5:36.002,628.298,79.9999,0,0.000885,0,0
0:5:36.396,629.294,80.124,0,0.000885,0,0
0:5:36.792,629.65,80.1722,0,0.000885,0,0
0:5:37.190,630.353,80.2619,0,0.000885,0,0
0:5:37.589,631.118,80.3584,0,0.000885,0,0
0:5:37.987,632.057,80.4756,0,0.000885,0,0
0:5:38.379,632.995,80.5928,0,0.000885,0,0
0:5:38.786,633.111,80.6135,0,0.000885,0,0
0:5:39.190,634.285,80.7583,0,0.000885,0,0
0:5:39.594,635.344,80.8962,0,0.000885,0,0
0:5:39.997,636.047,80.9858,0,0.000885,0,0
0:5:40.400,636.75,81.0755,0,0.000885,0,0
0:5:40.795,637.279,81.1375,0,0.000885,0,0
0:5:41.194,638.395,81.2823,0,0.000885,0,0
0:5:41.594,639.334,81.3995,0,0.000885,0,0
0:5:41.990,639.743,81.4547,0,0.000885,0,0
0:5:42.385,640.33,81.5305,0,0.000885,0,0
0:5:42.792,641.153,81.6339,0,0.000885,0,0
0:5:43.191,642.328,81.7856,0,0.000885,0,0
0:5:43.587,643.208,81.8959,0,0.000885,0,0
0:5:43.982,644.089,82.0062,0,0.000885,0,0
0:5:44.388,644.498,82.0614,0,0.000885,0,0
0:5:44.792,645.851,82.2338,0,0.000885,0,0
0:5:45.194,646.202,82.2751,0,0.000885,0,0
0:5:45.597,646.963,82.3717,0,0.000885,0,0
0:5:45.993,647.728,82.4682,0,0.000885,0,0
0:5:46.391,648.609,82.5854,0,0.000885,0,0
0:5:46.788,649.605,82.7095,0,0.000885,0,0
0:5:47.186,649.899,82.7509,0,0.000885,0,0
0:5:47.580,650.192,82.7854,0,0.000885,0,0
0:5:47.974,651.544,82.9577,0,0.000885,0,0
0:5:48.374,652.599,83.0887,0,0.000885,0,0
0:5:48.772,653.364,83.1921,0,0.000885,0,0
0:5:49.179,653.951,83.2611,0,0.000885,0,0
0:5:49.582,654.832,83.3783,0,0.000885,0,0
0:5:49.987,655.77,83.4955,0,0.000885,0,0
0:5:50.389,656.473,83.5851,0,0.000885,0,0
0:5:50.791,657.118,83.6679,0,0.000885,0,0
0:5:51.186,658.234,83.8058,0,0.000885,0,0
0:5:51.580,658.764,83.8747,0,0.000885,0,0
0:5:51.977,659.587,83.9781,0,0.000885,0,0
0:5:52.376,660.467,84.0954,0,0.000885,0,0
0:5:52.774,661.286,84.1988,0,0.000885,0,0
0:5:53.168,661.58,84.2332,0,0.000885,0,0
0:5:53.564,662.874,84.3987,0,0.000885,0,0
0:5:53.973,663.399,84.4677,0,0.000885,0,0
0:5:54.381,664.458,84.5987,0,0.000885,0,0
0:5:54.787,664.925,84.6607,0,0.000885,0,0
0:5:55.190,665.454,84.7297,0,0.000885,0,0
0:5:55.592,666.748,84.8951,0,0.000885,0,0
0:5:55.993,667.393,84.9779,0,0.000885,0,0
0:5:56.391,668.038,85.0606,0,0.000885,0,0
0:5:56.786,668.626,85.1296,0,0.000885,0,0
0:5:57.191,669.68,85.2675,0,0.000885,0,0
0:5:57.588,670.503,85.3709,0,0.000885,0,0
0:5:57.988,671.09,85.4467,0,0.000885,0,0
0:5:58.381,671.913,85.5501,0,0.000885,0,0
0:5:58.789,672.673,85.6467,0,0.000885,0,0
0:5:59.193,673.674,85.7777,0,0.000885,0,0
0:5:59.598,674.435,85.8742,0,0.000885,0,0
0:6:0.000,675.436,85.9983,0,0.000885,0,0
0:6:0.401,676.317,86.1086,0,0.000885,0,0
0:6:0.796,677.255,86.2327,0,0.000885,0,0
0:6:1.195,677.255,86.2327,0,0.000885,0,0
0:6:1.594,678.016,86.3293,0,0.000885,0,0
0:6:1.990,679.074,86.4603,0,0.000885,0,0
0:6:2.393,679.893,86.5637,0,0.000885,0,0
0:6:2.790,681.129,86.7223,0,0.000885,0,0
0:6:3.189,681.481,86.7705,0,0.000885,0,0
0:6:3.583,682.362,86.8808,0,0.000885,0,0
0:6:3.977,682.949,86.9567,0,0.000885,0,0
0:6:4.381,683.358,87.0049,0,0.000885,0,0
0:6:4.788,684.417,87.1428,0,0.000885,0,0
0:6:5.191,685.062,87.2256,0,0.000885,0,0
0:6:5.592,686.174,87.3635,0,0.000885,0,0
0:6:5.985,686.939,87.4669,0,0.000885,0,0
0:6:6.384,687.82,87.5772,0,0.000885,0,0
0:6:6.783,688.291,87.6324,0,0.000885,0,0
0:6:7.178,689.167,87.7496,0,0.000885,0,0
0:6:7.574,690.11,87.8668,0,0.000885,0,0
0:6:7.992,690.813,87.9564,0,0.000885,0,0
0:6:8.390,691.988,88.1081,0,0.000885,0,0
0:6:8.790,692.103,88.1219,0,0.000885,0,0
0:6:9.183,693.042,88.2391,0,0.000885,0,0
0:6:9.590,694.336,88.4046,0,0.000885,0,0
0:6:9.993,695.333,88.5356,0,0.000885,0,0
0:6:10.395,695.804,88.5907,0,0.000885,0,0
0:6:10.797,696.329,88.6597,0,0.000885,0,0
0:6:11.192,697.21,88.77,0,0.000885,0,0
0:6:11.588,698.326,88.9148,0,0.000885,0,0
0:6:11.984,698.856,88.9837,0,0.000885,0,0
0:6:12.382,699.385,89.0458,0,0.000885,0,0
0:6:12.777,700.146,89.1423,0,0.000885,0,0
0:6:13.171,700.791,89.2251,0,0.000885,0,0
0:6:13.578,701.907,89.3698,0,0.000885,0,0
0:6:13.978,702.552,89.4526,0,0.000885,0,0
0:6:14.383,702.73,89.4733,0,0.000885,0,0
0:6:14.790,703.847,89.6181,0,0.000885,0,0
0:6:15.193,705.079,89.7697,0,0.000885,0,0
0:6:15.592,705.782,89.8663,0,0.000885,0,0
0:6:15.991,706.547,89.9628,0,0.000885,0,0
0:6:16.385,707.659,90.1007,0,0.000885,0,0
0:6:16.790,708.246,90.1765,0,0.000885,0,0
0:6:17.188,709.362,90.3213,0,0.000885,0,0
0:6:17.584,710.479,90.4592,0,0.000885,0,0
0:6:17.982,711.239,90.5557,0,0.000885,0,0
0:6:18.376,711.417,90.5833,0,0.000885,0,0
0:6:18.772,712.178,90.6798,0,0.000885,0,0
0:6:19.173,713.001,90.7833,0,0.000885,0,0
0:6:19.578,713.766,90.8798,0,0.000885,0,0
0:6:19.980,714.878,91.0246,0,0.000885,0,0
0:6:20.383,715.465,91.0935,0,0.000885,0,0
0:6:20.791,715.701,91.128,0,0.000885,0,0
0:6:21.191,717.463,91.3486,0,0.000885,0,0
0:6:21.586,717.347,91.3348,0,0.000885,0,0
0:6:21.981,718.05,91.4245,0,0.000885,0,0
0:6:22.385,718.521,91.4865,0,0.000885,0,0
0:6:22.784,720.105,91.6865,0,0.000885,0,0
0:6:23.182,720.692,91.7623,0,0.000885,0,0
0:6:23.581,721.573,91.8726,0,0.000885,0,0
0:6:23.976,722.16,91.9485,0,0.000885,0,0
0:6:24.378,723.566,92.1277,0,0.000885,0,0
0:6:24.782,724.153,92.2036,0,0.000885,0,0
0:6:25.183,724.509,92.245,0,0.000885,0,0
0:6:25.585,725.563,92.3829,0,0.000885,0,0
0:6:25.982,726.092,92.4518,0,0.000885,0,0
0:6:26.378,726.737,92.5276,0,0.000885,0,0
0:6:26.777,727.618,92.6449,0,0.000885,0,0
0:6:27.175,728.672,92.7759,0,0.000885,0,0
0:6:27.580,729.731,92.9137,0,0.000885,0,0
0:6:27.985,729.967,92.9413,0,0.000885,0,0
0:6:28.393,731.141,93.093,0,0.000885,0,0
0:6:28.793,731.844,93.1826,0,0.000885,0,0
0:6:29.190,732.315,93.2378,0,0.000885,0,0
0:6:29.593,733.312,93.3688,0,0.000885,0,0
0:6:29.998,734.602,93.5343,0,0.000885,0,0
0:6:30.400,735.131,93.6032,0,0.000885,0,0
0:6:30.801,735.247,93.617,0,0.000885,0,0
0:6:31.198,736.599,93.7894,0,0.000885,0,0
0:6:31.592,737.359,93.8859,0,0.000885,0,0
0:6:31.986,737.831,93.9411,0,0.000885,0,0
0:6:32.385,739.241,94.1203,0,0.000885,0,0
0:6:32.784,739.535,94.1617,0,0.000885,0,0
0:6:33.182,740.709,94.3065,0,0.000885,0,0
0:6:33.576,740.94,94.341,0,0.000885,0,0
0:6:33.983,741.648,94.4306,0,0.000885,0,0
0:6:34.385,742.47,94.534,0,0.000885,0,0
0:6:34.794,743.64,94.6857,0,0.000885,0,0
0:6:35.196,744.29,94.7684,0,0.000885,0,0
0:6:35.598,745.402,94.9063,0,0.000885,0,0
0:6:35.995,745.695,94.9477,0,0.000885,0,0
0:6:36.395,746.518,95.0511,0,0.000885,0,0
0:6:36.792,747.283,95.1477,0,0.000885,0,0
0:6:37.185,748.044,95.2442,0,0.000885,0,0
0:6:37.581,748.983,95.3614,0,0.000885,0,0
0:6:37.978,749.748,95.4579,0,0.000885,0,0
0:6:38.378,750.686,95.582,0,0.000885,0,0
0:6:38.774,751.567,95.6923,0,0.000885,0,0
0:6:39.168,751.683,95.7061,0,0.000885,0,0
0:6:39.572,752.915,95.8647,0,0.000885,0,0
0:6:39.977,753.386,95.9268,0,0.000885,0,0
0:6:40.379,754.561,96.0715,0,0.000885,0,0
0:6:40.780,755.384,96.175,0,0.000885,0,0
0:6:41.177,755.971,96.2508,0,0.000885,0,0
0:6:41.575,756.967,96.3818,0,0.000885,0,0
0:6:41.974,757.554,96.4577,0,0.000885,0,0
0:6:42.373,758.729,96.6024,0,0.000885,0,0
0:6:42.787,759.258,96.6714,0,0.000885,0,0
0:6:43.182,760.019,96.7679,0,0.000885,0,0
0:6:43.581,760.899,96.8782,0,0.000885,0,0
0:6:43.979,761.487,96.9541,0,0.000885,0,0
0:6:44.375,762.074,97.0299,0,0.000885,0,0
0:6:44.778,763.484,97.2092,0,0.000885,0,0
0:6:45.183,763.777,97.2437,0,0.000885,0,0
0:6:45.585,764.422,97.3264,0,0.000885,0,0
0:6:45.987,765.125,97.416,0,0.000885,0,0
0:6:46.384,766.242,97.5608,0,0.000885,0,0
0:6:46.779,767.065,97.6642,0,0.000885,0,0
0:6:47.176,768.119,97.8021,0,0.000885,0,0
0:6:47.582,768.826,97.8918,0,0.000885,0,0
0:6:47.992,769.823,98.0159,0,0.000885,0,0
0:6:48.399,770.174,98.0641,0,0.000885,0,0
0:6:48.794,770.819,98.1469,0,0.000885,0,0
0:6:49.196,771.7,98.2572,0,0.000885,0,0
0:6:49.601,772.287,98.333,0,0.000885,0,0
0:6:50.003,773.755,98.5192,0,0.000885,0,0
0:6:50.405,774.693,98.6364,0,0.000885,0,0
0:6:50.803,775.107,98.6916,0,0.000885,0,0
0:6:51.201,775.868,98.7881,0,0.000885,0,0
0:6:51.599,776.748,98.8984,0,0.000885,0,0
0:6:51.995,777.22,98.9605,0,0.000885,0,0
0:6:52.389,777.865,99.0432,0,0.000885,0,0
0:6:52.795,778.919,99.1742,0,0.000885,0,0
0:6:53.196,779.271,99.2225,0,0.000885,0,0
0:6:53.594,780.214,99.3397,0,0.000885,0,0
0:6:53.997,781.21,99.4638,0,0.000885,0,0
0:6:54.402,781.975,99.5672,0,0.000885,0,0
0:6:54.807,783.029,99.6982,0,0.000885,0,0
0:6:55.208,783.91,99.8085,0,0.000885,0,0
0:6:55.611,784.497,99.8843,0,0.000885,0,0
0:6:56.007,785.614,100.029,0,0.000885,0,0
0:6:56.403,786.201,100.105,0,0.000885,0,0
0:6:56.801,786.788,100.174,0,0.000885,0,0
0:6:57.199,787.255,100.236,0,0.000885,0,0
0:6:57.595,787.958,100.326,0,0.000885,0,0
0:6:57.998,788.429,100.388,0,0.000885,0,0
0:6:58.396,789.488,100.519,0,0.000885,0,0
0:6:58.796,791.014,100.712,0,0.000885,0,0
0:6:59.189,791.307,100.753,0,0.000885,0,0
0:6:59.596,792.126,100.857,0,0.000885,0,0
0:6:59.999,793.127,100.981,0,0.000885,0,0
0:7:0.401,793.656,101.05,0,0.000885,0,0
0:7:0.804,794.71,101.187,0,0.000885,0,0
0:7:1.201,795.591,101.298,0,0.000885,0,0
0:7:1.595,796.12,101.367,0,0.000885,0,0
0:7:1.993,797.295,101.512,0,0.000885,0,0
0:7:2.401,797.94,101.594,0,0.000885,0,0
0:7:2.796,798.233,101.636,0,0.000885,0,0
0:7:3.190,799.114,101.746,0,0.000885,0,0
0:7:3.588,800.053,101.863,0,0.000885,0,0
0:7:3.987,801.107,102.001,0,0.000885,0,0
0:7:4.383,801.636,102.07,0,0.000885,0,0
0:7:4.789,802.637,102.194,0,0.000885,0,0
0:7:5.191,803.34,102.284,0,0.000885,0,0
0:7:5.594,804.456,102.429,0,0.000885,0,0
0:7:5.997,804.981,102.491,0,0.000885,0,0
0:7:6.394,806.098,102.635,0,0.000885,0,0
0:7:6.785,806.685,102.711,0,0.000885,0,0
0:7:7.184,807.624,102.828,0,0.000885,0,0
0:7:7.581,807.33,102.794,0,0.000885,0,0
0:7:7.977,808.211,102.904,0,0.000885,0,0
0:7:8.374,808.918,102.994,0,0.000885,0,0
0:7:8.768,810.266,103.166,0,0.000885,0,0
0:7:9.169,811.147,103.277,0,0.000885,0,0
0:7:9.576,812.027,103.394,0,0.000885,0,0
0:7:9.979,812.788,103.49,0,0.000885,0,0
0:7:10.382,813.375,103.559,0,0.000885,0,0
0:7:10.789,814.256,103.676,0,0.000885,0,0
0:7:11.188,815.199,103.794,0,0.000885,0,0
0:7:11.586,815.199,103.794,0,0.000885,0,0
0:7:11.980,816.369,103.945,0,0.000885,0,0
0:7:12.376,816.898,104.007,0,0.000885,0,0
0:7:12.774,818.015,104.152,0,0.000885,0,0
0:7:13.182,818.953,104.269,0,0.000885,0,0
0:7:13.599,820.128,104.421,0,0.000885,0,0
0:7:13.991,820.893,104.518,0,0.000885,0,0
0:7:14.397,821.475,104.593,0,0.000885,0,0
0:7:14.801,822.712,104.752,0,0.000885,0,0
0:7:15.204,823.179,104.807,0,0.000885,0,0
0:7:15.605,823.593,104.862,0,0.000885,0,0
0:7:16.002,824.647,105,0,0.000885,0,0
0:7:16.400,825.176,105.062,0,0.000885,0,0
0:7:16.799,825.821,105.145,0,0.000885,0,0
0:7:17.195,827.169,105.317,0,0.000885,0,0
0:7:17.599,828.112,105.442,0,0.000885,0,0
0:7:17.996,828.343,105.469,0,0.000885,0,0
0:7:18.396,829.224,105.579,0,0.000885,0,0
0:7:18.804,830.167,105.697,0,0.000885,0,0
0:7:19.198,830.812,105.779,0,0.000885,0,0
0:7:19.603,831.106,105.821,0,0.000885,0,0
0:7:20.006,832.28,105.966,0,0.000885,0,0
0:7:20.409,833.57,106.131,0,0.000885,0,0
0:7:20.810,833.686,106.152,0,0.000885,0,0
0:7:21.206,834.802,106.29,0,0.000885,0,0
0:7:21.601,834.802,106.29,0,0.000885,0,0
0:7:22.002,835.447,106.372,0,0.000885,0,0
0:7:22.398,836.679,106.531,0,0.000885,0,0
0:7:22.791,837.56,106.641,0,0.000885,0,0
0:7:23.188,838.205,106.724,0,0.000885,0,0
0:7:23.596,839.379,106.876,0,0.000885,0,0
0:7:23.995,840.318,106.993,0,0.000885,0,0
0:7:24.399,841.261,107.11,0,0.000885,0,0
0:7:24.802,842.079,107.22,0,0.000885,0,0
0:7:25.205,842.431,107.262,0,0.000885,0,0
0:7:25.606,843.432,107.386,0,0.000885,0,0
0:7:26.005,844.077,107.469,0,0.000885,0,0
0:7:26.401,845.015,107.593,0,0.000885,0,0
0:7:26.796,845.545,107.655,0,0.000885,0,0
0:7:27.196,846.19,107.737,0,0.000885,0,0
0:7:27.604,847.48,107.903,0,0.000885,0,0
0:7:27.999,847.893,107.958,0,0.000885,0,0
0:7:28.392,848.36,108.02,0,0.000885,0,0
0:7:28.789,849.125,108.117,0,0.000885,0,0
0:7:29.190,849.77,108.199,0,0.000885,0,0
0:7:29.598,851.181,108.379,0,0.000885,0,0
0:7:30.001,851.941,108.475,0,0.000885,0,0
0:7:30.402,852.88,108.592,0,0.000885,0,0
0:7:30.799,853.703,108.696,0,0.000885,0,0
0:7:31.199,854.583,108.806,0,0.000885,0,0
0:7:31.596,854.993,108.861,0,0.000885,0,0
0:7:32.000,855.816,108.965,0,0.000885,0,0
0:7:32.399,856.696,109.075,0,0.000885,0,0
0:7:32.797,857.404,109.165,0,0.000885,0,0
0:7:33.190,856.581,109.061,0,0.000885,0,0
0:7:33.585,857.813,109.22,0,0.000885,0,0
0:7:33.981,858.516,109.309,0,0.000885,0,0
0:7:34.383,859.396,109.42,0,0.000885,0,0
0:7:34.788,860.864,109.606,0,0.000885,0,0
0:7:35.192,862.096,109.765,0,0.000885,0,0
0:7:35.594,862.804,109.854,0,0.000885,0,0
0:7:35.991,864.094,110.02,0,0.000885,0,0
0:7:36.402,865.032,110.137,0,0.000885,0,0
0:7:36.800,865.384,110.185,0,0.000885,0,0
0:7:37.192,866.442,110.316,0,0.000885,0,0
0:7:37.589,867.087,110.399,0,0.000885,0,0
0:7:37.998,868.084,110.53,0,0.000885,0,0
0:7:38.407,868.671,110.606,0,0.000885,0,0
0:7:38.803,869.667,110.73,0,0.000885,0,0
0:7:39.197,869.903,110.757,0,0.000885,0,0
0:7:39.601,871.135,110.916,0,0.000885,0,0
0:7:40.006,871.9,111.012,0,0.000885,0,0
0:7:40.409,872.31,111.068,0,0.000885,0,0
0:7:40.809,873.19,111.178,0,0.000885,0,0
0:7:41.205,873.835,111.261,0,0.000885,0,0
0:7:41.604,875.188,111.433,0,0.000885,0,0
0:7:42.003,875.717,111.502,0,0.000885,0,0
0:7:42.395,876.829,111.64,0,0.000885,0,0
0:7:42.790,877.243,111.695,0,0.000885,0,0
0:7:43.189,877.83,111.771,0,0.000885,0,0
0:7:43.587,878.768,111.888,0,0.000885,0,0
0:7:43.984,880.058,112.054,0,0.000885,0,0
0:7:44.389,880.53,112.116,0,0.000885,0,0
0:7:44.792,880.766,112.143,0,0.000885,0,0
0:7:45.195,882.113,112.316,0,0.000885,0,0
0:7:45.599,882.936,112.419,0,0.000885,0,0
0:7:45.993,883.466,112.488,0,0.000885,0,0
0:7:46.399,883.991,112.55,0,0.000885,0,0
0:7:46.795,885.049,112.688,0,0.000885,0,0
0:7:47.195,885.81,112.784,0,0.000885,0,0
0:7:47.591,886.575,112.881,0,0.000885,0,0
0:7:47.985,886.869,112.922,0,0.000885,0,0
0:7:48.391,887.456,112.991,0,0.000885,0,0
0:7:48.790,888.337,113.108,0,0.000885,0,0
0:7:49.198,866.852,110.371,0,0.000885,0,0
0:7:49.602,869.73,110.737,0,0.000885,0,0
0:7:50.003,874.952,111.405,0,0.000885,0,0
0:7:50.404,878.768,111.888,0,0.000885,0,0
0:7:50.805,882.229,112.329,0,0.000885,0,0
0:7:51.199,886.046,112.812,0,0.000885,0,0
0:7:51.593,889.92,113.308,0,0.000885,0,0
0:7:51.989,893.737,113.791,0,0.000885,0,0
0:7:52.389,896.61,114.163,0,0.000885,0,0
0:7:52.786,896.846,114.191,0,0.000885,0,0
0:7:53.189,892.033,113.577,0,0.000885,0,0
0:7:53.594,892.62,113.653,0,0.000885,0,0
0:7:53.993,893.679,113.784,0,0.000885,0,0
0:7:54.390,874.485,111.343,0,0.000885,0,0
0:7:54.794,877.594,111.736,0,0.000885,0,0
0:7:55.199,880.588,112.123,0,0.000885,0,0
0:7:55.599,873.19,111.178,0,0.000885,0,0
0:7:56.000,850.887,108.337,0,0.000885,0,0
0:7:56.406,854.232,108.765,0,0.000885,0,0
0:7:56.800,858.809,109.344,0,0.000885,0,0
0:7:57.192,863.391,109.93,0,0.000885,0,0
0:7:57.601,867.79,110.488,0,0.000885,0,0
0:7:58.000,868.377,110.564,0,0.000885,0,0
0:7:58.403,863.155,109.902,0,0.000885,0,0
0:7:58.800,865.326,110.178,0,0.000885,0,0
0:7:59.202,867.675,110.475,0,0.000885,0,0
0:7:59.606,871.313,110.937,0,0.000885,0,0
0:8:0.008,874.013,111.281,0,0.000885,0,0
0:8:0.338,630.825,80.317,0,0.000885,0,0