File: DataFile2021-06-08_053338.csv
Test ID:,Date Tested:,Time:,Test Type:,Diameter Avg. (mm):,Cyl. Corr. Factor:,Height (mm):,Age (days):,Weight (kN):,Break Type:,Ramp Rate (MPa/s):,Load at Break (kN):,Stress at Break (MPa):
12,6/8/2021,05:33,Cylinder,150,1,300,0,3.6,6,0.24,908.82,51.43
Sample Time,Load (kN),Stress (MPa),Long. Strain,Trans. Strain,Chan1 Deflection (mm),Chan2 Deflection (mm)
0:0:13.121,8.32707,0.468843,0,0.000885,0,0
0:0:13.320,13.8429,0.786002,0,0.000885,0,0
0:0:13.519,17.9486,1.01353,0,0.000885,0,0
0:0:13.718,17.1835,0.972161,0,0.000885,0,0
0:0:13.917,17.0678,0.965266,0,0.000885,0,0
0:0:14.113,16.8321,0.951477,0,0.000885,0,0
0:0:14.314,16.3027,0.923897,0,0.000885,0,0
0:0:14.510,16.2449,0.917003,0,0.000885,0,0
0:0:14.709,16.5385,0.937687,0,0.000885,0,0
0:0:14.910,16.4807,0.930792,0,0.000885,0,0
0:0:15.104,16.365,0.923897,0,0.000885,0,0
0:0:15.305,16.1871,0.917003,0,0.000885,0,0
0:0:15.502,15.72,0.889424,0,0.000885,0,0
0:0:15.700,16.3027,0.923897,0,0.000885,0,0
0:0:15.901,16.4807,0.930792,0,0.000885,0,0
0:0:16.094,17.5349,0.992845,0,0.000885,0,0
0:0:16.293,18.1799,1.02732,0,0.000885,0,0
0:0:16.493,19.412,1.09627,0,0.000885,0,0
0:0:16.690,20.1193,1.13763,0,0.000885,0,0
0:0:16.892,21.7029,1.22727,0,0.000885,0,0
0:0:17.101,22.1121,1.24795,0,0.000885,0,0
0:0:17.301,23.8692,1.35137,0,0.000885,0,0
0:0:17.500,24.4563,1.38585,0,0.000885,0,0
0:0:17.706,25.6307,1.4479,0,0.000885,0,0
0:0:17.909,26.3913,1.49616,0,0.000885,0,0
0:0:18.105,27.6235,1.56511,0,0.000885,0,0
0:0:18.305,27.917,1.5789,0,0.000885,0,0
0:0:18.507,29.7364,1.68232,0,0.000885,0,0
0:0:18.712,29.9098,1.68922,0,0.000885,0,0
0:0:18.914,31.2621,1.77195,0,0.000885,0,0
0:0:19.117,31.7292,1.79264,0,0.000885,0,0
0:0:19.319,32.6677,1.84779,0,0.000885,0,0
0:0:19.521,33.1393,1.87537,0,0.000885,0,0
0:0:19.721,34.7228,1.96501,0,0.000885,0,0
0:0:19.924,35.0164,1.9788,0,0.000885,0,0
0:0:20.125,36.0128,2.04085,0,0.000885,0,0
0:0:20.326,36.9514,2.08911,0,0.000885,0,0
0:0:20.525,38.2992,2.16495,0,0.000885,0,0
0:0:20.720,38.9442,2.20632,0,0.000885,0,0
0:0:20.924,40.1763,2.27527,0,0.000885,0,0
0:0:21.121,41.1727,2.33043,0,0.000885,0,0
0:0:21.320,42.1113,2.38559,0,0.000885,0,0
0:0:21.521,42.1691,2.38559,0,0.000885,0,0
0:0:21.717,42.9921,2.43385,0,0.000885,0,0
0:0:21.918,43.6949,2.47522,0,0.000885,0,0
0:0:22.117,44.8692,2.53727,0,0.000885,0,0
0:0:22.316,45.3363,2.56485,0,0.000885,0,0
0:0:22.517,46.1592,2.61311,0,0.000885,0,0
0:0:22.712,47.2134,2.67517,0,0.000885,0,0
0:0:22.914,48.0363,2.71653,0,0.000885,0,0
0:0:23.114,49.7356,2.81306,0,0.000885,0,0
0:0:23.311,50.4384,2.85443,0,0.000885,0,0
0:0:23.513,51.3191,2.90269,0,0.000885,0,0
0:0:23.716,51.9063,2.93717,0,0.000885,0,0
0:0:23.920,53.0806,3.00611,0,0.000885,0,0
0:0:24.122,53.3119,3.0199,0,0.000885,0,0
0:0:24.324,54.7798,3.10264,0,0.000885,0,0
0:0:24.526,55.4827,3.13711,0,0.000885,0,0
0:0:24.728,57.3598,3.24743,0,0.000885,0,0
0:0:24.930,57.8892,3.27501,0,0.000885,0,0
0:0:25.130,59.059,3.34396,0,0.000885,0,0
0:0:25.327,58.9434,3.33706,0,0.000885,0,0
0:0:25.529,59.5884,3.37154,0,0.000885,0,0
0:0:25.725,60.2334,3.40601,0,0.000885,0,0
0:0:25.925,61.2876,3.46806,0,0.000885,0,0
0:0:26.125,61.9949,3.50943,0,0.000885,0,0
0:0:26.322,63.4005,3.58527,0,0.000885,0,0
0:0:26.526,64.0455,3.62664,0,0.000885,0,0
0:0:26.721,66.0383,3.73696,0,0.000885,0,0
0:0:26.922,66.8612,3.78522,0,0.000885,0,0
0:0:27.122,68.209,3.86106,0,0.000885,0,0
0:0:27.318,68.9741,3.90243,0,0.000885,0,0
0:0:27.519,68.9741,3.90243,0,0.000885,0,0
0:0:27.717,69.7348,3.9438,0,0.000885,0,0
0:0:27.916,70.3219,3.97827,0,0.000885,0,0
0:0:28.117,70.5577,3.99206,0,0.000885,0,0
0:0:28.311,71.5541,4.04722,0,0.000885,0,0
0:0:28.513,72.7284,4.11617,0,0.000885,0,0
0:0:28.715,73.3734,4.15064,0,0.000885,0,0
0:0:28.919,75.0726,4.24717,0,0.000885,0,0
0:0:29.122,75.8333,4.28854,0,0.000885,0,0
0:0:29.326,77.6526,4.39196,0,0.000885,0,0
0:0:29.527,78.2398,4.42643,0,0.000885,0,0
0:0:29.730,78.7068,4.45401,0,0.000885,0,0
0:0:29.931,79.6454,4.50917,0,0.000885,0,0
0:0:30.134,80.7041,4.56433,0,0.000885,0,0
0:0:30.329,81.4647,4.61259,0,0.000885,0,0
0:0:30.531,82.0519,4.64017,0,0.000885,0,0
0:0:30.730,82.9905,4.69533,0,0.000885,0,0
0:0:30.927,83.7511,4.7367,0,0.000885,0,0
0:0:31.129,84.6897,4.79186,0,0.000885,0,0
0:0:31.325,85.5126,4.84012,0,0.000885,0,0
0:0:31.524,86.2154,4.88149,0,0.000885,0,0
0:0:31.726,87.0962,4.92975,0,0.000885,0,0
0:0:31.920,87.9191,4.97801,0,0.000885,0,0
0:0:32.122,89.5027,5.06765,0,0.000885,0,0
0:0:32.320,89.8541,5.08144,0,0.000885,0,0
0:0:32.519,90.9083,5.14349,0,0.000885,0,0
0:0:32.721,92.0248,5.20554,0,0.000885,0,0
0:0:32.916,92.7855,5.25381,0,0.000885,0,0
0:0:33.118,93.724,5.30207,0,0.000885,0,0
0:0:33.316,94.4847,5.34344,0,0.000885,0,0
0:0:33.514,95.7168,5.41928,0,0.000885,0,0
0:0:33.717,95.7747,5.41928,0,0.000885,0,0
0:0:33.919,96.8912,5.48133,0,0.000885,0,0
0:0:34.124,97.7096,5.5296,0,0.000885,0,0
0:0:34.326,98.6482,5.58475,0,0.000885,0,0
0:0:34.528,99.529,5.63302,0,0.000885,0,0
0:0:34.731,100.174,5.66749,0,0.000885,0,0
0:0:34.932,100.877,5.70886,0,0.000885,0,0
0:0:35.135,101.993,5.77091,0,0.000885,0,0
0:0:35.335,102.932,5.82607,0,0.000885,0,0
0:0:35.530,104.693,5.9226,0,0.000885,0,0
0:0:35.732,105.338,5.96397,0,0.000885,0,0
0:0:35.931,105.983,5.99844,0,0.000885,0,0
0:0:36.129,106.86,6.0467,0,0.000885,0,0
0:0:36.331,108.092,6.11565,0,0.000885,0,0
0:0:36.526,108.857,6.15702,0,0.000885,0,0
0:0:36.727,109.266,6.1846,0,0.000885,0,0
0:0:36.927,110.263,6.23976,0,0.000885,0,0
0:0:37.124,111.495,6.3087,0,0.000885,0,0
0:0:37.326,112.255,6.35007,0,0.000885,0,0
0:0:37.519,112.842,6.38455,0,0.000885,0,0
0:0:37.721,113.781,6.4397,0,0.000885,0,0
0:0:37.920,114.546,6.48107,0,0.000885,0,0
0:0:38.117,115.6,6.54312,0,0.000885,0,0
0:0:38.320,116.361,6.58449,0,0.000885,0,0
0:0:38.522,117.006,6.61897,0,0.000885,0,0
0:0:38.727,118.18,6.68791,0,0.000885,0,0
0:0:38.930,119.88,6.78444,0,0.000885,0,0
0:0:39.132,120.235,6.80513,0,0.000885,0,0
0:0:39.334,121.699,6.88786,0,0.000885,0,0
0:0:39.536,121.992,6.90165,0,0.000885,0,0
0:0:39.738,123.518,6.99128,0,0.000885,0,0
0:0:39.939,123.754,7.00507,0,0.000885,0,0
0:0:40.137,124.808,7.06023,0,0.000885,0,0
0:0:40.337,125.102,7.08092,0,0.000885,0,0
0:0:40.536,125.983,7.12918,0,0.000885,0,0
0:0:40.734,126.743,7.17055,0,0.000885,0,0
0:0:40.936,127.86,7.2326,0,0.000885,0,0
0:0:41.130,128.678,7.28086,0,0.000885,0,0
0:0:41.331,129.91,7.34981,0,0.000885,0,0
0:0:41.531,130.675,7.39118,0,0.000885,0,0
0:0:41.729,131.965,7.46702,0,0.000885,0,0
0:0:41.931,132.784,7.51529,0,0.000885,0,0
0:0:42.126,133.193,7.53597,0,0.000885,0,0
0:0:42.327,134.252,7.59802,0,0.000885,0,0
0:0:42.528,134.31,7.59802,0,0.000885,0,0
0:0:42.722,135.951,7.69455,0,0.000885,0,0
0:0:42.926,136.774,7.74281,0,0.000885,0,0
0:0:43.124,137.712,7.79108,0,0.000885,0,0
0:0:43.321,138.825,7.85313,0,0.000885,0,0
0:0:43.524,139.002,7.86692,0,0.000885,0,0
0:0:43.726,140.292,7.93587,0,0.000885,0,0
0:0:43.930,141.76,8.0186,0,0.000885,0,0
0:0:44.132,141.992,8.03239,0,0.000885,0,0
0:0:44.334,143.753,8.13581,0,0.000885,0,0
0:0:44.536,144.514,8.17718,0,0.000885,0,0
0:0:44.737,144.807,8.19787,0,0.000885,0,0
0:0:44.940,145.63,8.23923,0,0.000885,0,0
0:0:45.140,146.569,8.29439,0,0.000885,0,0
0:0:45.336,147.036,8.32197,0,0.000885,0,0
0:0:45.538,148.032,8.37713,0,0.000885,0,0
0:0:45.736,149.207,8.44608,0,0.000885,0,0
0:0:45.935,150.497,8.51503,0,0.000885,0,0
0:0:46.135,151.613,8.57708,0,0.000885,0,0
0:0:46.331,152.258,8.61845,0,0.000885,0,0
0:0:46.531,153.255,8.6736,0,0.000885,0,0
0:0:46.730,154.367,8.73566,0,0.000885,0,0
0:0:46.928,154.838,8.76324,0,0.000885,0,0
0:0:47.129,155.132,8.77703,0,0.000885,0,0
0:0:47.324,156.012,8.82529,0,0.000885,0,0
0:0:47.525,156.715,8.86666,0,0.000885,0,0
0:0:47.725,157.77,8.92871,0,0.000885,0,0
0:0:47.922,157.947,8.93561,0,0.000885,0,0
0:0:48.126,159.647,9.03213,0,0.000885,0,0
0:0:48.320,160.643,9.08729,0,0.000885,0,0
0:0:48.521,161.697,9.14934,0,0.000885,0,0
0:0:48.722,162.462,9.19071,0,0.000885,0,0
0:0:48.928,163.752,9.26655,0,0.000885,0,0
0:0:49.131,164.691,9.32171,0,0.000885,0,0
0:0:49.333,165.923,9.39066,0,0.000885,0,0
0:0:49.534,166.862,9.44582,0,0.000885,0,0
0:0:49.736,167.329,9.4665,0,0.000885,0,0
0:0:49.937,167.271,9.4665,0,0.000885,0,0
0:0:50.138,168.561,9.53545,0,0.000885,0,0
0:0:50.337,169.206,9.57682,0,0.000885,0,0
0:0:50.536,170.202,9.63198,0,0.000885,0,0
0:0:50.737,171.199,9.68713,0,0.000885,0,0
0:0:50.933,172.079,9.7354,0,0.000885,0,0
0:0:51.134,172.902,9.78366,0,0.000885,0,0
0:0:51.333,174.486,9.87329,0,0.000885,0,0
0:0:51.529,174.428,9.87329,0,0.000885,0,0
0:0:51.731,175.073,9.90777,0,0.000885,0,0
0:0:51.929,176.714,9.9974,0,0.000885,0,0
0:0:52.128,177.359,10.0388,0,0.000885,0,0
0:0:52.328,178.765,10.1146,0,0.000885,0,0
0:0:52.525,179.117,10.1353,0,0.000885,0,0
0:0:52.726,180.642,10.2249,0,0.000885,0,0
0:0:52.924,180.878,10.2387,0,0.000885,0,0
0:0:53.124,181.932,10.2939,0,0.000885,0,0
0:0:53.325,182.346,10.3215,0,0.000885,0,0
0:0:53.529,183.694,10.3973,0,0.000885,0,0
0:0:53.731,184.281,10.4249,0,0.000885,0,0
0:0:53.935,185.807,10.5145,0,0.000885,0,0
0:0:54.136,186.452,10.549,0,0.000885,0,0
0:0:54.338,187.448,10.6041,0,0.000885,0,0
0:0:54.540,188.387,10.6593,0,0.000885,0,0
0:0:54.742,189.441,10.7213,0,0.000885,0,0
0:0:54.941,189.97,10.7489,0,0.000885,0,0
0:0:55.139,191.202,10.8179,0,0.000885,0,0
0:0:55.341,191.202,10.8179,0,0.000885,0,0
0:0:55.537,192.786,10.9075,0,0.000885,0,0
0:0:55.735,193.137,10.9282,0,0.000885,0,0
0:0:55.934,194.369,10.9971,0,0.000885,0,0
0:0:56.129,195.366,11.0523,0,0.000885,0,0
0:0:56.330,195.659,11.073,0,0.000885,0,0
0:0:56.524,196.892,11.1419,0,0.000885,0,0
0:0:56.721,197.123,11.1557,0,0.000885,0,0
0:0:56.922,198.884,11.2522,0,0.000885,0,0
0:0:57.116,199.236,11.2729,0,0.000885,0,0
0:0:57.317,200.584,11.3488,0,0.000885,0,0
0:0:57.513,201.113,11.3832,0,0.000885,0,0
0:0:57.710,202.167,11.4384,0,0.000885,0,0
0:0:57.911,203.106,11.4936,0,0.000885,0,0
0:0:58.104,204.28,11.5625,0,0.000885,0,0
0:0:58.304,205.454,11.6246,0,0.000885,0,0
0:0:58.505,206.037,11.659,0,0.000885,0,0
0:0:58.707,206.802,11.7004,0,0.000885,0,0
0:0:58.909,208.15,11.7762,0,0.000885,0,0
0:0:59.110,208.266,11.7831,0,0.000885,0,0
0:0:59.310,209.324,11.8452,0,0.000885,0,0
0:0:59.510,209.734,11.8659,0,0.000885,0,0
0:0:59.711,210.436,11.9072,0,0.000885,0,0
0:0:59.912,211.553,11.9693,0,0.000885,0,0
0:1:0.107,212.02,11.9969,0,0.000885,0,0
0:1:0.306,213.43,12.0796,0,0.000885,0,0
0:1:0.506,213.955,12.1072,0,0.000885,0,0
0:1:0.709,215.129,12.1761,0,0.000885,0,0
0:1:0.910,215.894,12.2175,0,0.000885,0,0
0:1:1.108,217.242,12.2934,0,0.000885,0,0
0:1:1.302,217.829,12.3278,0,0.000885,0,0
0:1:1.504,219.413,12.4175,0,0.000885,0,0
0:1:1.698,219.764,12.4381,0,0.000885,0,0
0:1:1.896,220.997,12.5071,0,0.000885,0,0
0:1:2.095,221.584,12.5416,0,0.000885,0,0
0:1:2.290,222.638,12.5967,0,0.000885,0,0
0:1:2.490,223.692,12.6588,0,0.000885,0,0
0:1:2.687,224.573,12.707,0,0.000885,0,0
0:1:2.885,225.276,12.7484,0,0.000885,0,0
0:1:3.084,225.685,12.7691,0,0.000885,0,0
0:1:3.297,226.859,12.838,0,0.000885,0,0
0:1:3.498,227.682,12.8863,0,0.000885,0,0
0:1:3.697,228.794,12.9484,0,0.000885,0,0
0:1:3.902,229.617,12.9966,0,0.000885,0,0
0:1:4.104,230.792,13.0587,0,0.000885,0,0
0:1:4.305,231.552,13.1,0,0.000885,0,0
0:1:4.505,232.549,13.1621,0,0.000885,0,0
0:1:4.705,232.669,13.169,0,0.000885,0,0
0:1:4.907,233.603,13.2172,0,0.000885,0,0
0:1:5.108,234.604,13.2724,0,0.000885,0,0
0:1:5.311,235.364,13.3207,0,0.000885,0,0
0:1:5.510,235.249,13.3138,0,0.000885,0,0
0:1:5.708,237.184,13.4241,0,0.000885,0,0
0:1:5.904,237.419,13.4379,0,0.000885,0,0
0:1:6.105,239.586,13.5551,0,0.000885,0,0
0:1:6.309,239.648,13.562,0,0.000885,0,0
0:1:6.508,241.169,13.6447,0,0.000885,0,0
0:1:6.706,241.756,13.6792,0,0.000885,0,0
0:1:6.911,243.104,13.755,0,0.000885,0,0
0:1:7.112,244.221,13.8171,0,0.000885,0,0
0:1:7.307,244.63,13.8447,0,0.000885,0,0
0:1:7.505,245.626,13.8998,0,0.000885,0,0
0:1:7.705,246.979,13.9757,0,0.000885,0,0
0:1:7.909,246.979,13.9757,0,0.000885,0,0
0:1:8.109,247.855,14.0239,0,0.000885,0,0
0:1:8.306,248.971,14.086,0,0.000885,0,0
0:1:8.500,249.968,14.148,0,0.000885,0,0
0:1:8.700,251.022,14.2032,0,0.000885,0,0
0:1:8.903,250.791,14.1894,0,0.000885,0,0
0:1:9.105,252.254,14.2721,0,0.000885,0,0
0:1:9.306,253.255,14.3342,0,0.000885,0,0
0:1:9.507,254.309,14.3894,0,0.000885,0,0
0:1:9.708,254.896,14.4238,0,0.000885,0,0
0:1:9.907,255.599,14.4652,0,0.000885,0,0
0:1:10.108,256.538,14.5204,0,0.000885,0,0
0:1:10.309,257.77,14.5893,0,0.000885,0,0
0:1:10.511,258.588,14.6307,0,0.000885,0,0
0:1:10.712,259.878,14.7065,0,0.000885,0,0
0:1:10.908,260.817,14.7617,0,0.000885,0,0
0:1:11.106,261.991,14.8237,0,0.000885,0,0
0:1:11.306,262.107,14.8306,0,0.000885,0,0
0:1:11.499,263.517,14.9134,0,0.000885,0,0
0:1:11.696,263.517,14.9134,0,0.000885,0,0
0:1:11.895,264.865,14.9892,0,0.000885,0,0
0:1:12.092,265.803,15.0444,0,0.000885,0,0
0:1:12.292,267.214,15.1202,0,0.000885,0,0
0:1:12.497,266.858,15.0995,0,0.000885,0,0
0:1:12.695,268.619,15.2029,0,0.000885,0,0
0:1:12.893,269.086,15.2305,0,0.000885,0,0
0:1:13.098,270.025,15.2788,0,0.000885,0,0
0:1:13.299,271.026,15.3339,0,0.000885,0,0
0:1:13.500,271.319,15.3546,0,0.000885,0,0
0:1:13.706,272.667,15.4305,0,0.000885,0,0
0:1:13.907,273.134,15.458,0,0.000885,0,0
0:1:14.108,273.779,15.4925,0,0.000885,0,0
0:1:14.307,274.953,15.5615,0,0.000885,0,0
0:1:14.507,275.834,15.6097,0,0.000885,0,0
0:1:14.706,276.946,15.6718,0,0.000885,0,0
0:1:14.907,278.005,15.7338,0,0.000885,0,0
0:1:15.110,279.237,15.8028,0,0.000885,0,0
0:1:15.311,279.998,15.8442,0,0.000885,0,0
0:1:15.508,280.936,15.8993,0,0.000885,0,0
0:1:15.704,282.342,15.9752,0,0.000885,0,0
0:1:15.905,282.462,15.982,0,0.000885,0,0
0:1:16.108,283.752,16.0579,0,0.000885,0,0
0:1:16.307,283.81,16.0579,0,0.000885,0,0
0:1:16.508,284.748,16.113,0,0.000885,0,0
0:1:16.710,286.154,16.1958,0,0.000885,0,0
0:1:16.912,287.386,16.2647,0,0.000885,0,0
0:1:17.107,288.383,16.3199,0,0.000885,0,0
0:1:17.305,289.263,16.3682,0,0.000885,0,0
0:1:17.504,289.673,16.3888,0,0.000885,0,0
0:1:17.708,290.967,16.4647,0,0.000885,0,0
0:1:17.909,291.256,16.4785,0,0.000885,0,0
0:1:18.106,292.488,16.5543,0,0.000885,0,0
0:1:18.312,293.018,16.5819,0,0.000885,0,0
0:1:18.513,294.072,16.6439,0,0.000885,0,0
0:1:18.714,295.188,16.706,0,0.000885,0,0
0:1:18.916,296.478,16.7749,0,0.000885,0,0
0:1:19.118,296.714,16.7887,0,0.000885,0,0
0:1:19.318,297.59,16.837,0,0.000885,0,0
0:1:19.519,298.591,16.8991,0,0.000885,0,0
0:1:19.719,299.116,16.9266,0,0.000885,0,0
0:1:19.920,300.175,16.9887,0,0.000885,0,0
0:1:20.118,300.233,16.9887,0,0.000885,0,0
0:1:20.313,301.523,17.0645,0,0.000885,0,0
0:1:20.514,302.577,17.1197,0,0.000885,0,0
0:1:20.710,303.809,17.1955,0,0.000885,0,0
0:1:20.908,304.512,17.23,0,0.000885,0,0
0:1:21.107,305.571,17.2921,0,0.000885,0,0
0:1:21.309,306.216,17.3265,0,0.000885,0,0
0:1:21.510,307.448,17.3955,0,0.000885,0,0
0:1:21.707,307.679,17.4093,0,0.000885,0,0
0:1:21.904,309.383,17.5058,0,0.000885,0,0
0:1:22.105,309.383,17.5058,0,0.000885,0,0
0:1:22.308,310.731,17.5816,0,0.000885,0,0
0:1:22.508,311.669,17.6368,0,0.000885,0,0
0:1:22.706,312.665,17.6919,0,0.000885,0,0
0:1:22.911,313.955,17.7678,0,0.000885,0,0
0:1:23.112,314.658,17.8092,0,0.000885,0,0
0:1:23.306,315.659,17.8643,0,0.000885,0,0
0:1:23.514,316.126,17.8919,0,0.000885,0,0
0:1:23.714,317.123,17.9471,0,0.000885,0,0
0:1:23.916,317.946,17.9953,0,0.000885,0,0
0:1:24.118,318.884,18.0436,0,0.000885,0,0
0:1:24.319,319.823,18.0987,0,0.000885,0,0
0:1:24.519,321.055,18.1677,0,0.000885,0,0
0:1:24.718,320.761,18.1539,0,0.000885,0,0
0:1:24.918,322.051,18.2228,0,0.000885,0,0
0:1:25.120,323.105,18.2849,0,0.000885,0,0
0:1:25.316,323.635,18.3125,0,0.000885,0,0
0:1:25.514,324.867,18.3814,0,0.000885,0,0
0:1:25.714,326.451,18.4711,0,0.000885,0,0
0:1:25.909,326.975,18.5055,0,0.000885,0,0
0:1:26.110,328.092,18.5676,0,0.000885,0,0
0:1:26.307,328.208,18.5745,0,0.000885,0,0
0:1:26.509,328.853,18.6089,0,0.000885,0,0
0:1:26.710,330.2,18.6848,0,0.000885,0,0
0:1:26.906,331.201,18.74,0,0.000885,0,0
0:1:27.114,331.962,18.7882,0,0.000885,0,0
0:1:27.313,333.43,18.871,0,0.000885,0,0
0:1:27.508,333.488,18.871,0,0.000885,0,0
0:1:27.707,334.306,18.9192,0,0.000885,0,0
0:1:27.913,335.129,18.9675,0,0.000885,0,0
0:1:28.112,336.246,19.0295,0,0.000885,0,0
0:1:28.313,337.3,19.0847,0,0.000885,0,0
0:1:28.514,338.06,19.133,0,0.000885,0,0
0:1:28.717,339.702,19.2226,0,0.000885,0,0
0:1:28.917,339.528,19.2157,0,0.000885,0,0
0:1:29.118,341.228,19.3122,0,0.000885,0,0
0:1:29.318,341.463,19.326,0,0.000885,0,0
0:1:29.519,342.46,19.3812,0,0.000885,0,0
0:1:29.719,343.283,19.4225,0,0.000885,0,0
0:1:29.916,344.159,19.4777,0,0.000885,0,0
0:1:30.111,345.453,19.5466,0,0.000885,0,0
0:1:30.312,346.45,19.6018,0,0.000885,0,0
0:1:30.507,346.45,19.6018,0,0.000885,0,0
0:1:30.706,348.033,19.6914,0,0.000885,0,0
0:1:30.902,348.62,19.7259,0,0.000885,0,0
0:1:31.109,349.497,19.7742,0,0.000885,0,0
0:1:31.309,350.729,19.85,0,0.000885,0,0
0:1:31.506,351.494,19.8914,0,0.000885,0,0
0:1:31.712,352.49,19.9465,0,0.000885,0,0
0:1:31.913,353.545,20.0086,0,0.000885,0,0
0:1:32.106,354.19,20.0431,0,0.000885,0,0
0:1:32.306,354.368,20.05,0,0.000885,0,0
0:1:32.502,356.125,20.1534,0,0.000885,0,0
0:1:32.698,356.89,20.1947,0,0.000885,0,0
0:1:32.898,357.357,20.2223,0,0.000885,0,0
0:1:33.092,358.531,20.2913,0,0.000885,0,0
0:1:33.291,359.821,20.3602,0,0.000885,0,0
0:1:33.490,359.995,20.374,0,0.000885,0,0
0:1:33.692,360.933,20.4223,0,0.000885,0,0
0:1:33.892,361.934,20.4843,0,0.000885,0,0
0:1:34.093,362.873,20.5326,0,0.000885,0,0
0:1:34.294,363.927,20.5946,0,0.000885,0,0
0:1:34.493,365.039,20.6567,0,0.000885,0,0
0:1:34.693,365.862,20.705,0,0.000885,0,0
0:1:34.894,366.858,20.7601,0,0.000885,0,0
0:1:35.091,367.036,20.767,0,0.000885,0,0
0:1:35.288,368.09,20.8291,0,0.000885,0,0
0:1:35.488,368.735,20.8635,0,0.000885,0,0
0:1:35.692,369.558,20.9118,0,0.000885,0,0
0:1:35.893,370.964,20.9945,0,0.000885,0,0
0:1:36.091,371.373,21.0152,0,0.000885,0,0
0:1:36.296,372.547,21.0842,0,0.000885,0,0
0:1:36.496,372.841,21.098,0,0.000885,0,0
0:1:36.692,374.54,21.1945,0,0.000885,0,0
0:1:36.891,375.479,21.2496,0,0.000885,0,0
0:1:37.089,376.008,21.2772,0,0.000885,0,0
0:1:37.283,377.183,21.3462,0,0.000885,0,0
0:1:37.484,378.121,21.3944,0,0.000885,0,0
0:1:37.681,378.237,21.4013,0,0.000885,0,0
0:1:37.878,379.291,21.4634,0,0.000885,0,0
0:1:38.079,379.998,21.5047,0,0.000885,0,0
0:1:38.273,381.52,21.5875,0,0.000885,0,0
0:1:38.473,382.049,21.622,0,0.000885,0,0
0:1:38.675,383.339,21.6909,0,0.000885,0,0
0:1:38.875,384.398,21.753,0,0.000885,0,0
0:1:39.076,385.216,21.8012,0,0.000885,0,0
0:1:39.277,386.155,21.8495,0,0.000885,0,0
0:1:39.477,386.155,21.8495,0,0.000885,0,0
0:1:39.677,387.151,21.9115,0,0.000885,0,0
0:1:39.876,388.032,21.9598,0,0.000885,0,0
0:1:40.078,389.086,22.015,0,0.000885,0,0
0:1:40.273,390.145,22.077,0,0.000885,0,0
0:1:40.472,391.435,22.1529,0,0.000885,0,0
0:1:40.670,392.137,22.1873,0,0.000885,0,0
0:1:40.866,393.779,22.2839,0,0.000885,0,0
0:1:41.066,393.721,22.277,0,0.000885,0,0
0:1:41.262,394.775,22.339,0,0.000885,0,0
0:1:41.460,395.892,22.4011,0,0.000885,0,0
0:1:41.659,396.537,22.4424,0,0.000885,0,0
0:1:41.853,397.182,22.4769,0,0.000885,0,0
0:1:42.055,398.294,22.539,0,0.000885,0,0
0:1:42.252,398.356,22.539,0,0.000885,0,0
0:1:42.448,399.704,22.6217,0,0.000885,0,0
0:1:42.648,400.113,22.6424,0,0.000885,0,0
0:1:42.843,401.523,22.7182,0,0.000885,0,0
0:1:43.042,402.52,22.7803,0,0.000885,0,0
0:1:43.240,402.987,22.8079,0,0.000885,0,0
0:1:43.437,404.512,22.8906,0,0.000885,0,0
0:1:43.637,404.984,22.9182,0,0.000885,0,0
0:1:43.838,405.629,22.9526,0,0.000885,0,0
0:1:44.041,406.332,22.994,0,0.000885,0,0
0:1:44.241,407.444,23.0561,0,0.000885,0,0
0:1:44.442,408.325,23.1043,0,0.000885,0,0
0:1:44.643,409.499,23.1733,0,0.000885,0,0
0:1:44.843,410.669,23.2422,0,0.000885,0,0
0:1:45.045,411.843,23.3043,0,0.000885,0,0
0:1:45.243,412.666,23.3525,0,0.000885,0,0
0:1:45.438,413.484,23.4008,0,0.000885,0,0
0:1:45.639,414.25,23.4422,0,0.000885,0,0
0:1:45.834,414.952,23.4835,0,0.000885,0,0
0:1:46.033,415.713,23.5249,0,0.000885,0,0
0:1:46.233,416.887,23.5939,0,0.000885,0,0
0:1:46.427,417.942,23.649,0,0.000885,0,0
0:1:46.627,417.942,23.649,0,0.000885,0,0
0:1:46.821,419,23.7111,0,0.000885,0,0
0:1:47.019,420.17,23.78,0,0.000885,0,0
0:1:47.220,420.757,23.8076,0,0.000885,0,0
0:1:47.413,421.465,23.849,0,0.000885,0,0
0:1:47.614,422.986,23.9386,0,0.000885,0,0
0:1:47.811,423.048,23.9386,0,0.000885,0,0
0:1:48.007,424.338,24.0144,0,0.000885,0,0
0:1:48.208,424.512,24.0213,0,0.000885,0,0
0:1:48.409,425.802,24.0972,0,0.000885,0,0
0:1:48.612,426.74,24.1454,0,0.000885,0,0
0:1:48.812,427.737,24.2075,0,0.000885,0,0
0:1:49.013,428.675,24.2558,0,0.000885,0,0
0:1:49.214,429.792,24.3178,0,0.000885,0,0
0:1:49.413,430.846,24.3799,0,0.000885,0,0
0:1:49.613,431.491,24.4143,0,0.000885,0,0
0:1:49.813,432.959,24.4971,0,0.000885,0,0
0:1:50.008,432.959,24.4971,0,0.000885,0,0
0:1:50.209,434.364,24.5798,0,0.000885,0,0
0:1:50.412,434.894,24.6074,0,0.000885,0,0
0:1:50.612,435.774,24.6625,0,0.000885,0,0
0:1:50.811,437.064,24.7315,0,0.000885,0,0
0:1:51.003,437.945,24.7798,0,0.000885,0,0
0:1:51.204,438.297,24.8004,0,0.000885,0,0
0:1:51.410,439.351,24.8625,0,0.000885,0,0
0:1:51.609,439.88,24.8901,0,0.000885,0,0
0:1:51.810,440.934,24.9521,0,0.000885,0,0
0:1:52.012,441.522,24.9866,0,0.000885,0,0
0:1:52.214,443.047,25.0693,0,0.000885,0,0
0:1:52.408,443.75,25.1107,0,0.000885,0,0
0:1:52.616,445.156,25.1934,0,0.000885,0,0
0:1:52.816,446.214,25.2486,0,0.000885,0,0
0:1:53.009,446.566,25.2693,0,0.000885,0,0
0:1:53.211,447.211,25.3038,0,0.000885,0,0
0:1:53.411,448.207,25.3658,0,0.000885,0,0
0:1:53.615,448.968,25.4072,0,0.000885,0,0
0:1:53.815,449.791,25.4554,0,0.000885,0,0
0:1:54.016,450.903,25.5175,0,0.000885,0,0
0:1:54.216,451.726,25.5658,0,0.000885,0,0
0:1:54.415,453.074,25.6416,0,0.000885,0,0
0:1:54.615,453.309,25.6554,0,0.000885,0,0
0:1:54.816,454.306,25.7105,0,0.000885,0,0
0:1:55.011,454.893,25.745,0,0.000885,0,0
0:1:55.212,456.361,25.8278,0,0.000885,0,0
0:1:55.408,456.886,25.8553,0,0.000885,0,0
0:1:55.614,458.002,25.9174,0,0.000885,0,0
0:1:55.814,459.408,26.0001,0,0.000885,0,0
0:1:56.009,460.115,26.0346,0,0.000885,0,0
0:1:56.210,460.818,26.076,0,0.000885,0,0
0:1:56.415,462.166,26.1518,0,0.000885,0,0
0:1:56.611,462.224,26.1587,0,0.000885,0,0
0:1:56.813,463.634,26.2346,0,0.000885,0,0
0:1:57.008,464.159,26.269,0,0.000885,0,0
0:1:57.207,464.688,26.2966,0,0.000885,0,0
0:1:57.403,465.804,26.3587,0,0.000885,0,0
0:1:57.608,466.449,26.3931,0,0.000885,0,0
0:1:57.810,467.855,26.4759,0,0.000885,0,0
0:1:58.016,468.149,26.4897,0,0.000885,0,0
0:1:58.215,469.554,26.5724,0,0.000885,0,0
0:1:58.416,470.435,26.6207,0,0.000885,0,0
0:1:58.619,471.022,26.6551,0,0.000885,0,0
0:1:58.821,472.139,26.7172,0,0.000885,0,0
0:1:59.020,473.073,26.7723,0,0.000885,0,0
0:1:59.221,473.954,26.8206,0,0.000885,0,0
0:1:59.422,475.186,26.8896,0,0.000885,0,0
0:1:59.622,475.301,26.8964,0,0.000885,0,0
0:1:59.823,476.418,26.9585,0,0.000885,0,0
0:2:0.019,477.005,26.993,0,0.000885,0,0
0:2:0.216,478.001,27.0481,0,0.000885,0,0
0:2:0.415,479.291,27.124,0,0.000885,0,0
0:2:0.610,480.052,27.1653,0,0.000885,0,0
0:2:0.810,481.053,27.2205,0,0.000885,0,0
0:2:1.016,481.929,27.2688,0,0.000885,0,0
0:2:1.215,482.401,27.2963,0,0.000885,0,0
0:2:1.415,483.691,27.3722,0,0.000885,0,0
0:2:1.609,483.926,27.386,0,0.000885,0,0
0:2:1.809,485.804,27.4894,0,0.000885,0,0
0:2:2.015,485.804,27.4894,0,0.000885,0,0
0:2:2.212,488.032,27.6135,0,0.000885,0,0
0:2:2.413,487.796,27.6066,0,0.000885,0,0
0:2:2.615,489.144,27.6825,0,0.000885,0,0
0:2:2.815,490.261,27.7445,0,0.000885,0,0
0:2:3.013,490.434,27.7514,0,0.000885,0,0
0:2:3.208,491.724,27.8272,0,0.000885,0,0
0:2:3.409,491.902,27.8341,0,0.000885,0,0
0:2:3.610,492.899,27.8893,0,0.000885,0,0
0:2:3.812,493.308,27.9169,0,0.000885,0,0
0:2:4.014,495.363,28.0341,0,0.000885,0,0
0:2:4.215,496.244,28.0823,0,0.000885,0,0
0:2:4.416,497.182,28.1375,0,0.000885,0,0
0:2:4.615,497.943,28.1789,0,0.000885,0,0
0:2:4.816,498.997,28.2409,0,0.000885,0,0
0:2:5.016,499.117,28.2409,0,0.000885,0,0
0:2:5.209,500.994,28.3512,0,0.000885,0,0
0:2:5.410,500.932,28.3443,0,0.000885,0,0
0:2:5.616,502.458,28.434,0,0.000885,0,0
0:2:5.813,503.045,28.4685,0,0.000885,0,0
0:2:6.013,503.926,28.5167,0,0.000885,0,0
0:2:6.216,504.393,28.5443,0,0.000885,0,0
0:2:6.417,506.096,28.6408,0,0.000885,0,0
0:2:6.614,506.212,28.6477,0,0.000885,0,0
0:2:6.810,507.093,28.696,0,0.000885,0,0
0:2:7.011,507.738,28.7305,0,0.000885,0,0
0:2:7.214,508.912,28.7994,0,0.000885,0,0
0:2:7.414,509.731,28.8477,0,0.000885,0,0
0:2:7.612,510.789,28.9028,0,0.000885,0,0
0:2:7.806,512.017,28.9718,0,0.000885,0,0
0:2:8.009,512.253,28.9856,0,0.000885,0,0
0:2:8.213,513.956,29.0821,0,0.000885,0,0
0:2:8.412,514.13,29.0959,0,0.000885,0,0
0:2:8.611,515.656,29.1786,0,0.000885,0,0
0:2:8.814,515.771,29.1855,0,0.000885,0,0
0:2:9.016,516.768,29.2407,0,0.000885,0,0
0:2:9.215,517.884,29.3096,0,0.000885,0,0
0:2:9.416,518.996,29.3717,0,0.000885,0,0
0:2:9.616,519.935,29.4199,0,0.000885,0,0
0:2:9.815,520.642,29.4613,0,0.000885,0,0
0:2:10.017,521.638,29.5165,0,0.000885,0,0
0:2:10.213,522.399,29.5647,0,0.000885,0,0
0:2:10.409,523.689,29.6337,0,0.000885,0,0
0:2:10.609,525.331,29.7302,0,0.000885,0,0
0:2:10.814,525.802,29.7509,0,0.000885,0,0
0:2:11.014,526.741,29.806,0,0.000885,0,0
0:2:11.210,526.625,29.7991,0,0.000885,0,0
0:2:11.414,527.386,29.8405,0,0.000885,0,0
0:2:11.615,527.853,29.8681,0,0.000885,0,0
0:2:11.811,529.436,29.9577,0,0.000885,0,0
0:2:12.009,530.081,29.9991,0,0.000885,0,0
0:2:12.206,530.611,30.0267,0,0.000885,0,0
0:2:12.412,532.31,30.1232,0,0.000885,0,0
0:2:12.612,532.546,30.137,0,0.000885,0,0
0:2:12.809,533.956,30.2128,0,0.000885,0,0
0:2:13.015,534.129,30.2266,0,0.000885,0,0
0:2:13.217,536.3,30.3507,0,0.000885,0,0
0:2:13.417,536.709,30.3714,0,0.000885,0,0
0:2:13.620,538.061,30.4472,0,0.000885,0,0
0:2:13.821,538.177,30.4541,0,0.000885,0,0
0:2:14.021,539.409,30.5231,0,0.000885,0,0
0:2:14.221,540.641,30.592,0,0.000885,0,0
0:2:14.421,540.993,30.6127,0,0.000885,0,0
0:2:14.622,541.638,30.6472,0,0.000885,0,0
0:2:14.821,542.928,30.723,0,0.000885,0,0
0:2:15.016,543.043,30.7299,0,0.000885,0,0
0:2:15.217,545.098,30.8471,0,0.000885,0,0
0:2:15.411,545.098,30.8471,0,0.000885,0,0
0:2:15.607,545.565,30.8747,0,0.000885,0,0
0:2:15.806,547.211,30.9644,0,0.000885,0,0
0:2:16.012,547.385,30.9781,0,0.000885,0,0
0:2:16.213,549.026,31.0678,0,0.000885,0,0
0:2:16.418,549.613,31.1023,0,0.000885,0,0
0:2:16.615,550.788,31.1712,0,0.000885,0,0
0:2:16.816,552.02,31.2401,0,0.000885,0,0
0:2:17.007,552.896,31.2884,0,0.000885,0,0
0:2:17.210,553.016,31.2953,0,0.000885,0,0
0:2:17.416,554.715,31.3918,0,0.000885,0,0
0:2:17.612,554.422,31.3711,0,0.000885,0,0
0:2:17.813,556.477,31.4884,0,0.000885,0,0
0:2:18.016,556.535,31.4953,0,0.000885,0,0
0:2:18.217,558.061,31.578,0,0.000885,0,0
0:2:18.417,558.296,31.5918,0,0.000885,0,0
0:2:18.620,559.818,31.6814,0,0.000885,0,0
0:2:18.821,560.698,31.7297,0,0.000885,0,0
0:2:19.022,561.228,31.7573,0,0.000885,0,0
0:2:19.223,562.398,31.8262,0,0.000885,0,0
0:2:19.425,563.047,31.8607,0,0.000885,0,0
0:2:19.625,563.63,31.8951,0,0.000885,0,0
0:2:19.827,565.04,31.9779,0,0.000885,0,0
0:2:20.020,564.982,31.971,0,0.000885,0,0
0:2:20.219,566.739,32.0675,0,0.000885,0,0
0:2:20.418,567.442,32.1089,0,0.000885,0,0
0:2:20.613,568.732,32.1847,0,0.000885,0,0
0:2:20.813,568.91,32.1916,0,0.000885,0,0
0:2:21.018,570.551,32.2881,0,0.000885,0,0
0:2:21.214,570.845,32.3019,0,0.000885,0,0
0:2:21.414,572.37,32.3916,0,0.000885,0,0
0:2:21.618,572.313,32.3847,0,0.000885,0,0
0:2:21.817,573.483,32.4536,0,0.000885,0,0
0:2:22.016,574.248,32.495,0,0.000885,0,0
0:2:22.219,575.36,32.557,0,0.000885,0,0
0:2:22.420,576.77,32.6398,0,0.000885,0,0
0:2:22.616,577.473,32.6811,0,0.000885,0,0
0:2:22.813,578.998,32.7639,0,0.000885,0,0
0:2:23.013,578.94,32.7639,0,0.000885,0,0
0:2:23.216,580.346,32.8397,0,0.000885,0,0
0:2:23.417,580.404,32.8466,0,0.000885,0,0
0:2:23.617,582.517,32.9638,0,0.000885,0,0
0:2:23.819,582.459,32.9638,0,0.000885,0,0
0:2:24.021,583.162,32.9983,0,0.000885,0,0
0:2:24.220,584.158,33.0535,0,0.000885,0,0
0:2:24.421,584.63,33.081,0,0.000885,0,0
0:2:24.620,585.742,33.1431,0,0.000885,0,0
0:2:24.822,586.623,33.1983,0,0.000885,0,0
0:2:25.021,587.561,33.2465,0,0.000885,0,0
0:2:25.218,588.615,33.3086,0,0.000885,0,0
0:2:25.417,589.318,33.3499,0,0.000885,0,0
0:2:25.615,590.257,33.4051,0,0.000885,0,0
0:2:25.811,591.667,33.4809,0,0.000885,0,0
0:2:26.011,592.196,33.5085,0,0.000885,0,0
0:2:26.216,593.308,33.5775,0,0.000885,0,0
0:2:26.414,593.78,33.5982,0,0.000885,0,0
0:2:26.615,595.248,33.6809,0,0.000885,0,0
0:2:26.820,595.773,33.7154,0,0.000885,0,0
0:2:27.022,596.48,33.7567,0,0.000885,0,0
0:2:27.218,597.067,33.7843,0,0.000885,0,0
0:2:27.417,598.179,33.8533,0,0.000885,0,0
0:2:27.617,599.002,33.8946,0,0.000885,0,0
0:2:27.812,599.767,33.9429,0,0.000885,0,0
0:2:28.014,600.706,33.9912,0,0.000885,0,0
0:2:28.219,601.529,34.0394,0,0.000885,0,0
0:2:28.416,603.17,34.129,0,0.000885,0,0
0:2:28.618,603.873,34.1704,0,0.000885,0,0
0:2:28.819,605.047,34.2394,0,0.000885,0,0
0:2:29.023,605.986,34.2945,0,0.000885,0,0
0:2:29.226,606.929,34.3428,0,0.000885,0,0
0:2:29.428,607.222,34.3635,0,0.000885,0,0
0:2:29.629,608.454,34.4324,0,0.000885,0,0
0:2:29.831,609.335,34.4807,0,0.000885,0,0
0:2:30.031,609.922,34.5152,0,0.000885,0,0
0:2:30.233,611.386,34.5979,0,0.000885,0,0
0:2:30.427,611.742,34.6186,0,0.000885,0,0
0:2:30.629,612.738,34.6737,0,0.000885,0,0
0:2:30.825,613.383,34.7082,0,0.000885,0,0
0:2:31.023,614.206,34.7565,0,0.000885,0,0
0:2:31.226,615.26,34.8185,0,0.000885,0,0
0:2:31.419,616.025,34.8599,0,0.000885,0,0
0:2:31.620,616.848,34.9082,0,0.000885,0,0
0:2:31.816,617.845,34.9633,0,0.000885,0,0
0:2:32.015,618.783,35.0185,0,0.000885,0,0
0:2:32.217,619.606,35.0598,0,0.000885,0,0
0:2:32.412,621.19,35.1495,0,0.000885,0,0
0:2:32.612,621.425,35.1633,0,0.000885,0,0
0:2:32.809,622.715,35.2391,0,0.000885,0,0
0:2:33.017,623.067,35.2598,0,0.000885,0,0
0:2:33.219,624.477,35.3356,0,0.000885,0,0
0:2:33.420,624.891,35.3632,0,0.000885,0,0
0:2:33.625,625.829,35.4115,0,0.000885,0,0
0:2:33.826,626.71,35.4666,0,0.000885,0,0
0:2:34.028,628.351,35.5563,0,0.000885,0,0
0:2:34.229,628.178,35.5494,0,0.000885,0,0
0:2:34.430,629.877,35.6459,0,0.000885,0,0
0:2:34.632,630.349,35.6735,0,0.000885,0,0
0:2:34.832,631.759,35.7493,0,0.000885,0,0
0:2:35.027,632.052,35.77,0,0.000885,0,0
0:2:35.228,632.813,35.8114,0,0.000885,0,0
0:2:35.428,633.809,35.8665,0,0.000885,0,0
0:2:35.623,634.045,35.8803,0,0.000885,0,0
0:2:35.826,635.513,35.9631,0,0.000885,0,0
0:2:36.019,635.984,35.9906,0,0.000885,0,0
0:2:36.220,637.626,36.0803,0,0.000885,0,0
0:2:36.420,637.568,36.0803,0,0.000885,0,0
0:2:36.615,639.859,36.2113,0,0.000885,0,0
0:2:36.816,639.565,36.1906,0,0.000885,0,0
0:2:37.012,641.265,36.2871,0,0.000885,0,0
0:2:37.212,642.03,36.3285,0,0.000885,0,0
0:2:37.413,643.498,36.4112,0,0.000885,0,0
0:2:37.617,643.555,36.4181,0,0.000885,0,0
0:2:37.819,645.081,36.5008,0,0.000885,0,0
0:2:38.015,644.672,36.4802,0,0.000885,0,0
0:2:38.213,646.785,36.5974,0,0.000885,0,0
0:2:38.414,646.665,36.5905,0,0.000885,0,0
0:2:38.617,647.723,36.6525,0,0.000885,0,0
0:2:38.820,648.778,36.7146,0,0.000885,0,0
0:2:39.022,649.658,36.7628,0,0.000885,0,0
0:2:39.225,650.597,36.818,0,0.000885,0,0
0:2:39.427,651.362,36.8594,0,0.000885,0,0
0:2:39.626,652.301,36.9145,0,0.000885,0,0
0:2:39.828,652.243,36.9076,0,0.000885,0,0
0:2:40.027,653.533,36.9835,0,0.000885,0,0
0:2:40.225,655.121,37.0731,0,0.000885,0,0
0:2:40.426,656.353,37.1421,0,0.000885,0,0
0:2:40.621,657.114,37.1834,0,0.000885,0,0
0:2:40.822,657.821,37.2248,0,0.000885,0,0
0:2:41.020,658.759,37.28,0,0.000885,0,0
0:2:41.217,659.934,37.342,0,0.000885,0,0
0:2:41.418,660.872,37.3972,0,0.000885,0,0
0:2:41.613,661.459,37.4316,0,0.000885,0,0
0:2:41.813,661.869,37.4523,0,0.000885,0,0
0:2:42.012,663.159,37.5282,0,0.000885,0,0
0:2:42.206,663.159,37.5282,0,0.000885,0,0
0:2:42.408,664.333,37.5902,0,0.000885,0,0
0:2:42.604,664.627,37.6109,0,0.000885,0,0
0:2:42.804,666.388,37.7074,0,0.000885,0,0
0:2:43.002,667.327,37.7626,0,0.000885,0,0
0:2:43.219,669.03,37.8591,0,0.000885,0,0
0:2:43.421,669.088,37.866,0,0.000885,0,0
0:2:43.623,670.85,37.9625,0,0.000885,0,0
0:2:43.826,670.556,37.9487,0,0.000885,0,0
0:2:44.028,672.375,38.0453,0,0.000885,0,0
0:2:44.229,672.024,38.0315,0,0.000885,0,0
0:2:44.431,673.901,38.1349,0,0.000885,0,0
0:2:44.632,673.843,38.1349,0,0.000885,0,0
0:2:44.834,674.724,38.1832,0,0.000885,0,0
0:2:45.035,675.783,38.2383,0,0.000885,0,0
0:2:45.230,676.543,38.2866,0,0.000885,0,0
0:2:45.432,677.073,38.3142,0,0.000885,0,0
0:2:45.628,678.95,38.4176,0,0.000885,0,0
0:2:45.827,679.479,38.4521,0,0.000885,0,0
0:2:46.028,680.244,38.4934,0,0.000885,0,0
0:2:46.222,681.414,38.5624,0,0.000885,0,0
0:2:46.423,682.357,38.6106,0,0.000885,0,0
0:2:46.620,684.114,38.7141,0,0.000885,0,0
0:2:46.819,684.292,38.721,0,0.000885,0,0
0:2:47.020,685.996,38.8175,0,0.000885,0,0
0:2:47.214,685.938,38.8175,0,0.000885,0,0
0:2:47.416,686.992,38.8726,0,0.000885,0,0
0:2:47.621,687.344,38.8933,0,0.000885,0,0
0:2:47.821,688.869,38.983,0,0.000885,0,0
0:2:48.022,689.047,38.9899,0,0.000885,0,0
0:2:48.217,689.808,39.0381,0,0.000885,0,0
0:2:48.418,690.809,39.0933,0,0.000885,0,0
0:2:48.619,692.57,39.1898,0,0.000885,0,0
0:2:48.823,692.98,39.2174,0,0.000885,0,0
0:2:49.025,694.154,39.2794,0,0.000885,0,0
0:2:49.226,694.505,39.3001,0,0.000885,0,0
0:2:49.428,695.622,39.3622,0,0.000885,0,0
0:2:49.630,696.738,39.4242,0,0.000885,0,0
0:2:49.830,697.557,39.4725,0,0.000885,0,0
0:2:50.033,698.206,39.507,0,0.000885,0,0
0:2:50.229,699.083,39.5621,0,0.000885,0,0
0:2:50.428,699.67,39.5966,0,0.000885,0,0
0:2:50.627,701.08,39.6724,0,0.000885,0,0
0:2:50.821,701.373,39.6862,0,0.000885,0,0
0:2:51.022,703.019,39.7827,0,0.000885,0,0
0:2:51.220,703.544,39.8103,0,0.000885,0,0
0:2:51.420,704.131,39.8448,0,0.000885,0,0
0:2:51.619,705.426,39.9206,0,0.000885,0,0
0:2:51.815,706.538,39.9827,0,0.000885,0,0
0:2:52.017,707.89,40.0585,0,0.000885,0,0
0:2:52.214,708.357,40.0861,0,0.000885,0,0
0:2:52.411,709.474,40.1482,0,0.000885,0,0
0:2:52.611,710.119,40.1826,0,0.000885,0,0
0:2:52.816,711.351,40.2516,0,0.000885,0,0
0:2:53.018,711.88,40.2861,0,0.000885,0,0
0:2:53.216,712.703,40.3274,0,0.000885,0,0
0:2:53.416,713.054,40.3481,0,0.000885,0,0
0:2:53.617,713.757,40.3895,0,0.000885,0,0
0:2:53.820,715.109,40.4653,0,0.000885,0,0
0:2:54.023,715.461,40.486,0,0.000885,0,0
0:2:54.226,716.399,40.5412,0,0.000885,0,0
0:2:54.426,718.045,40.6308,0,0.000885,0,0
0:2:54.627,718.632,40.6653,0,0.000885,0,0
0:2:54.829,719.687,40.7273,0,0.000885,0,0
0:2:55.030,720.394,40.7687,0,0.000885,0,0
0:2:55.227,720.981,40.7963,0,0.000885,0,0
0:2:55.423,722.155,40.8652,0,0.000885,0,0
0:2:55.626,722.387,40.879,0,0.000885,0,0
0:2:55.821,723.325,40.9342,0,0.000885,0,0
0:2:56.021,724.913,41.0238,0,0.000885,0,0
0:2:56.221,725.794,41.0721,0,0.000885,0,0
0:2:56.417,726.025,41.0859,0,0.000885,0,0
0:2:56.619,727.671,41.1755,0,0.000885,0,0
0:2:56.815,728.258,41.21,0,0.000885,0,0
0:2:57.015,729.9,41.3065,0,0.000885,0,0
0:2:57.211,730.136,41.3203,0,0.000885,0,0
0:2:57.418,731.016,41.3685,0,0.000885,0,0
0:2:57.620,731.839,41.4168,0,0.000885,0,0
0:2:57.818,732.191,41.4306,0,0.000885,0,0
0:2:58.016,734.01,41.534,0,0.000885,0,0
0:2:58.217,734.361,41.5547,0,0.000885,0,0
0:2:58.421,735.42,41.6168,0,0.000885,0,0
0:2:58.625,736.065,41.6512,0,0.000885,0,0
0:2:58.826,737.475,41.734,0,0.000885,0,0
0:2:59.027,737.706,41.7478,0,0.000885,0,0
0:2:59.229,738.765,41.8029,0,0.000885,0,0
0:2:59.430,739.237,41.8305,0,0.000885,0,0
0:2:59.632,740.936,41.927,0,0.000885,0,0
0:2:59.831,741.643,41.9684,0,0.000885,0,0
0:3:0.029,742.639,42.0235,0,0.000885,0,0
0:3:0.229,743.814,42.0925,0,0.000885,0,0
0:3:0.422,744.459,42.127,0,0.000885,0,0
0:3:0.623,745.282,42.1752,0,0.000885,0,0
0:3:0.823,746.22,42.2304,0,0.000885,0,0
0:3:1.021,747.275,42.2855,0,0.000885,0,0
0:3:1.222,747.924,42.3269,0,0.000885,0,0
0:3:1.416,748.863,42.3752,0,0.000885,0,0
0:3:1.617,750.095,42.4441,0,0.000885,0,0
0:3:1.816,750.21,42.451,0,0.000885,0,0
0:3:2.011,751.385,42.52,0,0.000885,0,0
0:3:2.214,751.972,42.5544,0,0.000885,0,0
0:3:2.420,753.791,42.6579,0,0.000885,0,0
0:3:2.620,753.849,42.6579,0,0.000885,0,0
0:3:2.818,754.614,42.6992,0,0.000885,0,0
0:3:3.016,755.437,42.7475,0,0.000885,0,0
0:3:3.217,756.376,42.8027,0,0.000885,0,0
0:3:3.419,757.372,42.8578,0,0.000885,0,0
0:3:3.622,757.608,42.8716,0,0.000885,0,0
0:3:3.826,759.249,42.9681,0,0.000885,0,0
0:3:4.027,760.072,43.0095,0,0.000885,0,0
0:3:4.228,761.424,43.0853,0,0.000885,0,0
0:3:4.428,761.424,43.0853,0,0.000885,0,0
0:3:4.630,762.95,43.175,0,0.000885,0,0
0:3:4.829,763.066,43.1819,0,0.000885,0,0
0:3:5.026,764.827,43.2784,0,0.000885,0,0
0:3:5.226,765.357,43.3129,0,0.000885,0,0
0:3:5.423,765.766,43.3335,0,0.000885,0,0
0:3:5.622,766.998,43.4025,0,0.000885,0,0
0:3:5.822,768.408,43.4852,0,0.000885,0,0
0:3:6.017,769.053,43.5197,0,0.000885,0,0
0:3:6.219,771.166,43.6369,0,0.000885,0,0
0:3:6.416,771.402,43.6507,0,0.000885,0,0
0:3:6.623,772.282,43.699,0,0.000885,0,0
0:3:6.824,772.518,43.7128,0,0.000885,0,0
0:3:7.019,773.866,43.7886,0,0.000885,0,0
0:3:7.220,774.395,43.8231,0,0.000885,0,0
0:3:7.419,774.747,43.8438,0,0.000885,0,0
0:3:7.616,776.272,43.9265,0,0.000885,0,0
0:3:7.817,776.215,43.9265,0,0.000885,0,0
0:3:8.022,777.505,43.9954,0,0.000885,0,0
0:3:8.221,778.328,44.0437,0,0.000885,0,0
0:3:8.422,779.035,44.0851,0,0.000885,0,0
0:3:8.627,780.205,44.154,0,0.000885,0,0
0:3:8.830,781.321,44.2161,0,0.000885,0,0
0:3:9.031,781.379,44.2161,0,0.000885,0,0
0:3:9.233,783.198,44.3195,0,0.000885,0,0
0:3:9.434,783.906,44.3609,0,0.000885,0,0
0:3:9.635,785.08,44.4298,0,0.000885,0,0
0:3:9.836,785.783,44.4643,0,0.000885,0,0
0:3:10.033,786.312,44.4988,0,0.000885,0,0
0:3:10.231,787.486,44.5608,0,0.000885,0,0
0:3:10.433,788.834,44.6367,0,0.000885,0,0
0:3:10.627,789.364,44.6711,0,0.000885,0,0
0:3:10.829,790.716,44.747,0,0.000885,0,0
0:3:11.027,791.009,44.7608,0,0.000885,0,0
0:3:11.222,792.357,44.8366,0,0.000885,0,0
0:3:11.424,793.002,44.878,0,0.000885,0,0
0:3:11.619,794.003,44.9331,0,0.000885,0,0
0:3:11.820,794.942,44.9814,0,0.000885,0,0
0:3:12.019,795.235,45.0021,0,0.000885,0,0
0:3:12.224,796.054,45.0503,0,0.000885,0,0
0:3:12.426,797.642,45.14,0,0.000885,0,0
0:3:12.623,797.935,45.1538,0,0.000885,0,0
0:3:12.822,798.345,45.1744,0,0.000885,0,0
0:3:13.022,799.87,45.2641,0,0.000885,0,0
0:3:13.217,799.812,45.2572,0,0.000885,0,0
0:3:13.419,802.041,45.3882,0,0.000885,0,0
0:3:13.620,802.455,45.4089,0,0.000885,0,0
0:3:13.824,803.687,45.4778,0,0.000885,0,0
0:3:14.027,804.332,45.5192,0,0.000885,0,0
0:3:14.227,806.093,45.6157,0,0.000885,0,0
0:3:14.429,806.387,45.6295,0,0.000885,0,0
0:3:14.631,807.561,45.6985,0,0.000885,0,0
0:3:14.831,808.091,45.726,0,0.000885,0,0
0:3:15.032,808.736,45.7674,0,0.000885,0,0
0:3:15.227,809.674,45.8157,0,0.000885,0,0
0:3:15.429,810.671,45.8777,0,0.000885,0,0
0:3:15.626,811.378,45.9122,0,0.000885,0,0
0:3:15.823,812.668,45.988,0,0.000885,0,0
0:3:16.026,813.077,46.0087,0,0.000885,0,0
0:3:16.219,814.723,46.1052,0,0.000885,0,0
0:3:16.419,814.896,46.1121,0,0.000885,0,0
0:3:16.619,815.661,46.1604,0,0.000885,0,0
0:3:16.813,816.013,46.1742,0,0.000885,0,0
0:3:17.017,817.423,46.2569,0,0.000885,0,0
0:3:17.213,818.655,46.3259,0,0.000885,0,0
0:3:17.422,818.829,46.3397,0,0.000885,0,0
0:3:17.623,820.417,46.4293,0,0.000885,0,0
0:3:17.818,821.062,46.4638,0,0.000885,0,0
0:3:18.020,821.942,46.512,0,0.000885,0,0
0:3:18.217,822.997,46.5741,0,0.000885,0,0
0:3:18.424,824.171,46.6361,0,0.000885,0,0
0:3:18.626,824.349,46.6499,0,0.000885,0,0
0:3:18.829,825.99,46.7396,0,0.000885,0,0
0:3:19.032,826.577,46.774,0,0.000885,0,0
0:3:19.234,827.343,46.8154,0,0.000885,0,0
0:3:19.436,827.752,46.843,0,0.000885,0,0
0:3:19.637,828.926,46.905,0,0.000885,0,0
0:3:19.837,829.278,46.9257,0,0.000885,0,0
0:3:20.039,831.333,47.0429,0,0.000885,0,0
0:3:20.240,831.746,47.0705,0,0.000885,0,0
0:3:20.436,832.507,47.1119,0,0.000885,0,0
0:3:20.637,833.566,47.167,0,0.000885,0,0
0:3:20.834,834.153,47.2015,0,0.000885,0,0
0:3:21.032,835.207,47.2636,0,0.000885,0,0
0:3:21.233,835.972,47.3049,0,0.000885,0,0
0:3:21.429,836.675,47.3463,0,0.000885,0,0
0:3:21.630,838.085,47.429,0,0.000885,0,0
0:3:21.827,838.494,47.4497,0,0.000885,0,0
0:3:22.024,838.846,47.4704,0,0.000885,0,0
0:3:22.224,840.434,47.56,0,0.000885,0,0
0:3:22.421,841.372,47.6152,0,0.000885,0,0
0:3:22.621,843.014,47.7048,0,0.000885,0,0
0:3:22.820,843.249,47.7186,0,0.000885,0,0
0:3:23.014,844.775,47.8014,0,0.000885,0,0
0:3:23.217,844.895,47.8082,0,0.000885,0,0
0:3:23.418,846.359,47.891,0,0.000885,0,0
0:3:23.621,846.652,47.9117,0,0.000885,0,0
0:3:23.823,848.005,47.9875,0,0.000885,0,0
0:3:24.026,848.414,48.0082,0,0.000885,0,0
0:3:24.228,849.179,48.0565,0,0.000885,0,0
0:3:24.427,849.824,48.0909,0,0.000885,0,0
0:3:24.629,850.998,48.1599,0,0.000885,0,0
0:3:24.831,851.937,48.2081,0,0.000885,0,0
0:3:25.026,852.346,48.2357,0,0.000885,0,0
0:3:25.227,853.347,48.2909,0,0.000885,0,0
0:3:25.426,855.166,48.3943,0,0.000885,0,0
0:3:25.621,855.575,48.415,0,0.000885,0,0
0:3:25.823,856.047,48.4426,0,0.000885,0,0
0:3:26.018,856.634,48.477,0,0.000885,0,0
0:3:26.214,857.688,48.5322,0,0.000885,0,0
0:3:26.417,858.92,48.608,0,0.000885,0,0
0:3:26.622,859.57,48.6425,0,0.000885,0,0
0:3:26.825,861.033,48.7252,0,0.000885,0,0
0:3:27.020,861.741,48.7666,0,0.000885,0,0
0:3:27.219,862.915,48.8287,0,0.000885,0,0
0:3:27.420,863.618,48.87,0,0.000885,0,0
0:3:27.626,864.147,48.8976,0,0.000885,0,0
0:3:27.827,864.792,48.939,0,0.000885,0,0
0:3:28.025,865.966,49.001,0,0.000885,0,0
0:3:28.222,866.669,49.0424,0,0.000885,0,0
0:3:28.424,868.079,49.1251,0,0.000885,0,0
0:3:28.626,868.782,49.1665,0,0.000885,0,0
0:3:28.829,869.605,49.2079,0,0.000885,0,0
0:3:29.030,869.899,49.2286,0,0.000885,0,0
0:3:29.232,871.424,49.3113,0,0.000885,0,0
0:3:29.434,871.718,49.332,0,0.000885,0,0
0:3:29.634,873.479,49.4285,0,0.000885,0,0
0:3:29.836,873.595,49.4354,0,0.000885,0,0
0:3:30.036,875.063,49.5181,0,0.000885,0,0
0:3:30.233,875.419,49.5388,0,0.000885,0,0
0:3:30.434,876.295,49.5871,0,0.000885,0,0
0:3:30.630,877.296,49.6423,0,0.000885,0,0
0:3:30.831,879.115,49.7457,0,0.000885,0,0
0:3:31.031,879.938,49.7939,0,0.000885,0,0
0:3:31.226,880.641,49.8353,0,0.000885,0,0
0:3:31.427,881.228,49.8698,0,0.000885,0,0
0:3:31.625,881.873,49.9043,0,0.000885,0,0
0:3:31.822,882.87,49.9594,0,0.000885,0,0
0:3:32.022,883.226,49.9801,0,0.000885,0,0
0:3:32.227,884.28,50.0421,0,0.000885,0,0
0:3:32.427,884.983,50.0766,0,0.000885,0,0
0:3:32.626,886.806,50.18,0,0.000885,0,0
0:3:32.823,887.331,50.2145,0,0.000885,0,0
0:3:33.024,888.332,50.2697,0,0.000885,0,0
0:3:33.219,888.332,50.2697,0,0.000885,0,0
0:3:33.418,889.916,50.3593,0,0.000885,0,0
0:3:33.619,890.445,50.3869,0,0.000885,0,0
0:3:33.823,891.326,50.442,0,0.000885,0,0
0:3:34.024,892.264,50.4903,0,0.000885,0,0
0:3:34.227,893.554,50.5661,0,0.000885,0,0
0:3:34.428,894.613,50.6213,0,0.000885,0,0
0:3:34.628,895.2,50.6558,0,0.000885,0,0
0:3:34.829,895.725,50.6903,0,0.000885,0,0
0:3:35.032,896.784,50.7454,0,0.000885,0,0
0:3:35.230,897.135,50.7661,0,0.000885,0,0
0:3:35.427,898.719,50.8557,0,0.000885,0,0
0:3:35.628,899.248,50.8902,0,0.000885,0,0
0:3:35.821,899.777,50.9178,0,0.000885,0,0
0:3:36.023,901.187,50.9936,0,0.000885,0,0
0:3:36.222,901.539,51.0143,0,0.000885,0,0
0:3:36.418,902.593,51.0764,0,0.000885,0,0
0:3:36.620,902.945,51.097,0,0.000885,0,0
0:3:36.814,904.003,51.1591,0,0.000885,0,0
0:3:37.012,904.884,51.2074,0,0.000885,0,0
0:3:37.213,905.12,51.2212,0,0.000885,0,0
0:3:37.407,905.707,51.2556,0,0.000885,0,0
0:3:37.609,906.588,51.3039,0,0.000885,0,0
0:3:37.806,906.761,51.3108,0,0.000885,0,0
0:3:38.014,907.762,51.3659,0,0.000885,0,0
0:3:38.216,908.349,51.4004,0,0.000885,0,0
0:3:38.421,908.643,51.4211,0,0.000885,0,0
0:3:38.624,908.816,51.428,0,0.000885,0,0
0:3:38.826,909.168,51.4487,0,0.000885,0,0
0:3:39.026,908.758,51.428,0,0.000885,0,0
0:3:39.227,907.468,51.3522,0,0.000885,0,0
0:3:39.427,906.058,51.2694,0,0.000885,0,0
0:3:39.629,902.242,51.0557,0,0.000885,0,0
0:3:39.827,899.248,50.8902,0,0.000885,0,0
0:3:40.021,894.084,50.5937,0,0.000885,0,0
0:3:40.222,892.086,50.4834,0,0.000885,0,0
0:3:40.428,886.922,50.1869,0,0.000885,0,0
0:3:40.627,883.048,49.9732,0,0.000885,0,0
0:3:40.826,876.825,49.6216,0,0.000885,0,0
0:3:41.019,848.476,48.0151,0,0.000885,0,0
0:3:41.220,817.423,46.2569,0,0.000885,0,0
0:3:41.368,760.366,43.0302,0,0.000885,0,0