File: DataFile2021-06-08_050503.csv
Test ID:,Date Tested:,Time:,Test Type:,Diameter Avg. (mm):,Cyl. Corr. Factor:,Height (mm):,Age (days):,Weight (kN):,Break Type:,Ramp Rate (MPa/s):,Load at Break (kN):,Stress at Break (MPa):
12,6/8/2021,05:05,Cylinder,150,1,301,0,3.6,1,0.24,754.08,42.67
Sample Time,Load (kN),Stress (MPa),Long. Strain,Trans. Strain,Chan1 Deflection (mm),Chan2 Deflection (mm)
0:0:17.495,11.552,0.655002,0,0.000885,0,0
0:0:17.692,17.5349,0.992845,0,0.000885,0,0
0:0:17.888,19.8257,1.12385,0,0.000885,0,0
0:0:18.090,19.7634,1.11695,0,0.000885,0,0
0:0:18.285,19.59,1.11006,0,0.000885,0,0
0:0:18.486,19.6478,1.11006,0,0.000885,0,0
0:0:18.684,19.7634,1.11695,0,0.000885,0,0
0:0:18.880,19.7056,1.11695,0,0.000885,0,0
0:0:19.082,19.2386,1.08937,0,0.000885,0,0
0:0:19.277,19.0606,1.07558,0,0.000885,0,0
0:0:19.476,18.8249,1.06869,0,0.000885,0,0
0:0:19.677,18.5936,1.0549,0,0.000885,0,0
0:0:19.872,18.7092,1.06179,0,0.000885,0,0
0:0:20.073,18.5936,1.0549,0,0.000885,0,0
0:0:20.269,18.8249,1.06869,0,0.000885,0,0
0:0:20.467,18.945,1.06869,0,0.000885,0,0
0:0:20.669,19.0028,1.07558,0,0.000885,0,0
0:0:20.864,20.1771,1.14453,0,0.000885,0,0
0:0:21.065,19.6478,1.11006,0,0.000885,0,0
0:0:21.263,20.6442,1.16521,0,0.000885,0,0
0:0:21.460,21.6406,1.22727,0,0.000885,0,0
0:0:21.662,22.9306,1.29621,0,0.000885,0,0
0:0:21.858,23.6378,1.33758,0,0.000885,0,0
0:0:22.059,25.5728,1.4479,0,0.000885,0,0
0:0:22.259,26.0399,1.47548,0,0.000885,0,0
0:0:22.455,27.5078,1.55822,0,0.000885,0,0
0:0:22.656,28.3886,1.60648,0,0.000885,0,0
0:0:22.858,29.5584,1.67543,0,0.000885,0,0
0:0:23.061,30.0299,1.69611,0,0.000885,0,0
0:0:23.265,31.0842,1.75816,0,0.000885,0,0
0:0:23.467,32.0806,1.81332,0,0.000885,0,0
0:0:23.670,33.6063,1.90295,0,0.000885,0,0
0:0:23.871,33.722,1.90985,0,0.000885,0,0
0:0:24.072,35.0164,1.9788,0,0.000885,0,0
0:0:24.274,35.4835,2.00637,0,0.000885,0,0
0:0:24.471,36.6,2.06843,0,0.000885,0,0
0:0:24.673,37.1249,2.1029,0,0.000885,0,0
0:0:24.872,38.6506,2.18564,0,0.000885,0,0
0:0:25.069,38.6506,2.18564,0,0.000885,0,0
0:0:25.271,39.7671,2.24769,0,0.000885,0,0
0:0:25.467,39.9984,2.26148,0,0.000885,0,0
0:0:25.667,41.3507,2.33732,0,0.000885,0,0
0:0:25.867,41.9334,2.3718,0,0.000885,0,0
0:0:26.063,42.6407,2.41317,0,0.000885,0,0
0:0:26.265,43.9306,2.48901,0,0.000885,0,0
0:0:26.461,45.0427,2.55106,0,0.000885,0,0
0:0:26.661,46.1592,2.61311,0,0.000885,0,0
0:0:26.863,47.0978,2.66827,0,0.000885,0,0
0:0:27.058,48.2098,2.73032,0,0.000885,0,0
0:0:27.260,48.7392,2.7579,0,0.000885,0,0
0:0:27.459,49.6199,2.80617,0,0.000885,0,0
0:0:27.656,50.087,2.83375,0,0.000885,0,0
0:0:27.858,51.2613,2.90269,0,0.000885,0,0
0:0:28.060,52.0798,2.94406,0,0.000885,0,0
0:0:28.264,53.1385,3.00611,0,0.000885,0,0
0:0:28.467,53.6055,3.03369,0,0.000885,0,0
0:0:28.668,54.6019,3.08885,0,0.000885,0,0
0:0:28.871,55.0734,3.11643,0,0.000885,0,0
0:0:29.072,56.657,3.20606,0,0.000885,0,0
0:0:29.274,57.0662,3.22675,0,0.000885,0,0
0:0:29.476,58.0048,3.2819,0,0.000885,0,0
0:0:29.671,59.4149,3.36464,0,0.000885,0,0
0:0:29.873,60.3535,3.4129,0,0.000885,0,0
0:0:30.071,60.8205,3.44048,0,0.000885,0,0
0:0:30.271,62.3463,3.53012,0,0.000885,0,0
0:0:30.472,63.1069,3.57148,0,0.000885,0,0
0:0:30.667,63.6363,3.59906,0,0.000885,0,0
0:0:30.869,64.8684,3.66801,0,0.000885,0,0
0:0:31.069,65.4556,3.70248,0,0.000885,0,0
0:0:31.267,66.2741,3.75075,0,0.000885,0,0
0:0:31.469,66.6877,3.77143,0,0.000885,0,0
0:0:31.664,67.8576,3.84038,0,0.000885,0,0
0:0:31.865,68.2713,3.86106,0,0.000885,0,0
0:0:32.063,69.6769,3.9438,0,0.000885,0,0
0:0:32.262,70.3798,3.98517,0,0.000885,0,0
0:0:32.465,71.7898,4.06101,0,0.000885,0,0
0:0:32.660,72.3147,4.09549,0,0.000885,0,0
0:0:32.861,73.8405,4.17822,0,0.000885,0,0
0:0:33.062,74.4855,4.2127,0,0.000885,0,0
0:0:33.266,75.2506,4.26096,0,0.000885,0,0
0:0:33.469,75.8956,4.29543,0,0.000885,0,0
0:0:33.671,76.5984,4.3368,0,0.000885,0,0
0:0:33.873,77.4791,4.38507,0,0.000885,0,0
0:0:34.074,78.5912,4.44712,0,0.000885,0,0
0:0:34.275,79.0627,4.4747,0,0.000885,0,0
0:0:34.477,80.1747,4.53675,0,0.000885,0,0
0:0:34.676,80.8197,4.57122,0,0.000885,0,0
0:0:34.875,82.5812,4.67465,0,0.000885,0,0
0:0:35.077,83.0483,4.70222,0,0.000885,0,0
0:0:35.272,84.3961,4.77807,0,0.000885,0,0
0:0:35.474,85.1612,4.81944,0,0.000885,0,0
0:0:35.672,85.5126,4.84012,0,0.000885,0,0
0:0:35.869,86.6247,4.90217,0,0.000885,0,0
0:0:36.071,87.154,4.92975,0,0.000885,0,0
0:0:36.267,88.3862,4.9987,0,0.000885,0,0
0:0:36.469,89.0312,5.04007,0,0.000885,0,0
0:0:36.669,90.4412,5.11591,0,0.000885,0,0
0:0:36.864,90.5569,5.1228,0,0.000885,0,0
0:0:37.067,91.6111,5.18486,0,0.000885,0,0
0:0:37.264,92.3762,5.22623,0,0.000885,0,0
0:0:37.465,93.5461,5.29517,0,0.000885,0,0
0:0:37.667,93.9598,5.31586,0,0.000885,0,0
0:0:37.870,95.4811,5.40549,0,0.000885,0,0
0:0:38.072,96.1883,5.43996,0,0.000885,0,0
0:0:38.275,97.3004,5.50891,0,0.000885,0,0
0:0:38.478,98.0655,5.55028,0,0.000885,0,0
0:0:38.679,99.5868,5.63302,0,0.000885,0,0
0:0:38.881,100.761,5.70196,0,0.000885,0,0
0:0:39.084,101.29,5.72954,0,0.000885,0,0
0:0:39.282,101.584,5.75023,0,0.000885,0,0
0:0:39.479,102.403,5.7916,0,0.000885,0,0
0:0:39.681,102.816,5.81918,0,0.000885,0,0
0:0:39.879,103.928,5.88123,0,0.000885,0,0
0:0:40.079,104.751,5.92949,0,0.000885,0,0
0:0:40.278,106.041,5.99844,0,0.000885,0,0
0:0:40.475,106.566,6.03291,0,0.000885,0,0
0:0:40.676,107.211,6.06739,0,0.000885,0,0
0:0:40.875,107.976,6.10875,0,0.000885,0,0
0:0:41.072,108.857,6.15702,0,0.000885,0,0
0:0:41.273,110.556,6.25354,0,0.000885,0,0
0:0:41.468,111.143,6.28802,0,0.000885,0,0
0:0:41.670,112.727,6.37765,0,0.000885,0,0
0:0:41.869,113.43,6.41902,0,0.000885,0,0
0:0:42.067,114.72,6.49486,0,0.000885,0,0
0:0:42.269,115.191,6.51555,0,0.000885,0,0
0:0:42.464,115.952,6.56381,0,0.000885,0,0
0:0:42.664,116.655,6.59828,0,0.000885,0,0
0:0:42.866,117.535,6.65344,0,0.000885,0,0
0:0:43.070,118.532,6.7086,0,0.000885,0,0
0:0:43.273,118.945,6.72928,0,0.000885,0,0
0:0:43.475,119.355,6.75686,0,0.000885,0,0
0:0:43.677,120.938,6.84649,0,0.000885,0,0
0:0:43.879,121.583,6.88097,0,0.000885,0,0
0:0:44.080,122.58,6.93613,0,0.000885,0,0
0:0:44.282,123.109,6.9637,0,0.000885,0,0
0:0:44.480,124.63,7.05334,0,0.000885,0,0
0:0:44.679,125.217,7.08781,0,0.000885,0,0
0:0:44.880,126.276,7.14297,0,0.000885,0,0
0:0:45.077,127.095,7.19123,0,0.000885,0,0
0:0:45.278,128.327,7.26018,0,0.000885,0,0
0:0:45.477,129.381,7.32223,0,0.000885,0,0
0:0:45.674,129.559,7.32913,0,0.000885,0,0
0:0:45.877,131.027,7.41186,0,0.000885,0,0
0:0:46.073,131.61,7.44634,0,0.000885,0,0
0:0:46.275,133.02,7.52907,0,0.000885,0,0
0:0:46.472,133.313,7.54286,0,0.000885,0,0
0:0:46.671,134.545,7.61181,0,0.000885,0,0
0:0:46.873,134.777,7.6256,0,0.000885,0,0
0:0:47.070,135.715,7.68076,0,0.000885,0,0
0:0:47.270,136.071,7.70144,0,0.000885,0,0
0:0:47.471,137.828,7.79797,0,0.000885,0,0
0:0:47.665,137.886,7.80487,0,0.000885,0,0
0:0:47.868,139.238,7.88071,0,0.000885,0,0
0:0:48.070,139.999,7.92208,0,0.000885,0,0
0:0:48.274,141.467,8.00481,0,0.000885,0,0
0:0:48.477,142.637,8.07376,0,0.000885,0,0
0:0:48.680,143.517,8.12202,0,0.000885,0,0
0:0:48.882,143.869,8.14271,0,0.000885,0,0
0:0:49.083,145.217,8.21855,0,0.000885,0,0
0:0:49.285,145.688,8.24613,0,0.000885,0,0
0:0:49.488,147.036,8.32197,0,0.000885,0,0
0:0:49.684,147.917,8.37024,0,0.000885,0,0
0:0:49.884,148.913,8.42539,0,0.000885,0,0
0:0:50.083,149.385,8.45297,0,0.000885,0,0
0:0:50.281,150.381,8.50813,0,0.000885,0,0
0:0:50.483,151.262,8.55639,0,0.000885,0,0
0:0:50.679,151.671,8.58397,0,0.000885,0,0
0:0:50.879,153.134,8.66671,0,0.000885,0,0
0:0:51.079,153.548,8.68739,0,0.000885,0,0
0:0:51.275,155.012,8.77013,0,0.000885,0,0
0:0:51.478,155.074,8.77703,0,0.000885,0,0
0:0:51.676,156.364,8.84597,0,0.000885,0,0
0:0:51.873,156.947,8.88045,0,0.000885,0,0
0:0:52.075,158.53,8.97008,0,0.000885,0,0
0:0:52.269,158.53,8.97008,0,0.000885,0,0
0:0:52.472,159.998,9.05282,0,0.000885,0,0
0:0:52.671,160.234,9.06661,0,0.000885,0,0
0:0:52.868,161.288,9.12866,0,0.000885,0,0
0:0:53.070,161.933,9.16313,0,0.000885,0,0
0:0:53.273,163.343,9.24587,0,0.000885,0,0
0:0:53.477,164.046,9.28034,0,0.000885,0,0
0:0:53.679,165.745,9.37687,0,0.000885,0,0
0:0:53.881,166.039,9.39755,0,0.000885,0,0
0:0:54.083,166.862,9.44582,0,0.000885,0,0
0:0:54.284,167.974,9.50787,0,0.000885,0,0
0:0:54.486,168.912,9.55613,0,0.000885,0,0
0:0:54.688,169.499,9.59061,0,0.000885,0,0
0:0:54.882,170.847,9.66645,0,0.000885,0,0
0:0:55.084,171.261,9.69403,0,0.000885,0,0
0:0:55.282,172.137,9.74229,0,0.000885,0,0
0:0:55.481,173.49,9.81813,0,0.000885,0,0
0:0:55.682,174.135,9.85261,0,0.000885,0,0
0:0:55.878,175.073,9.90777,0,0.000885,0,0
0:0:56.081,175.66,9.94224,0,0.000885,0,0
0:0:56.279,176.83,10.0043,0,0.000885,0,0
0:0:56.477,177.533,10.0457,0,0.000885,0,0
0:0:56.679,178.827,10.1215,0,0.000885,0,0
0:0:56.876,179.882,10.1767,0,0.000885,0,0
0:0:57.076,180.527,10.218,0,0.000885,0,0
0:0:57.274,181.523,10.2732,0,0.000885,0,0
0:0:57.471,182.168,10.3077,0,0.000885,0,0
0:0:57.673,182.929,10.349,0,0.000885,0,0
0:0:57.876,183.636,10.3904,0,0.000885,0,0
0:0:58.079,184.281,10.4249,0,0.000885,0,0
0:0:58.283,185.162,10.48,0,0.000885,0,0
0:0:58.484,185.922,10.5214,0,0.000885,0,0
0:0:58.687,187.328,10.6041,0,0.000885,0,0
0:0:58.887,187.564,10.611,0,0.000885,0,0
0:0:59.090,189.263,10.7076,0,0.000885,0,0
0:0:59.292,189.97,10.7489,0,0.000885,0,0
0:0:59.487,190.731,10.7903,0,0.000885,0,0
0:0:59.689,191.669,10.8455,0,0.000885,0,0
0:0:59.888,192.786,10.9075,0,0.000885,0,0
0:1:0.084,193.431,10.9489,0,0.000885,0,0
0:1:0.285,194.134,10.9833,0,0.000885,0,0
0:1:0.479,195.659,11.073,0,0.000885,0,0
0:1:0.679,195.953,11.0868,0,0.000885,0,0
0:1:0.878,197.243,11.1626,0,0.000885,0,0
0:1:1.073,197.946,11.204,0,0.000885,0,0
0:1:1.274,198.707,11.2453,0,0.000885,0,0
0:1:1.468,199.881,11.3143,0,0.000885,0,0
0:1:1.667,201.113,11.3832,0,0.000885,0,0
0:1:1.866,201.286,11.3901,0,0.000885,0,0
0:1:2.062,202.581,11.466,0,0.000885,0,0
0:1:2.263,202.639,11.466,0,0.000885,0,0
0:1:2.459,204.28,11.5625,0,0.000885,0,0
0:1:2.657,205.099,11.6039,0,0.000885,0,0
0:1:2.857,205.57,11.6315,0,0.000885,0,0
0:1:3.058,206.802,11.7004,0,0.000885,0,0
0:1:3.260,207.212,11.728,0,0.000885,0,0
0:1:3.462,208.795,11.8176,0,0.000885,0,0
0:1:3.662,209.204,11.8383,0,0.000885,0,0
0:1:3.864,210.499,11.9141,0,0.000885,0,0
0:1:4.062,210.966,11.9348,0,0.000885,0,0
0:1:4.264,211.847,11.99,0,0.000885,0,0
0:1:4.461,212.727,12.0382,0,0.000885,0,0
0:1:4.657,213.724,12.0934,0,0.000885,0,0
0:1:4.858,214.778,12.1555,0,0.000885,0,0
0:1:5.053,215.307,12.183,0,0.000885,0,0
0:1:5.253,215.952,12.2175,0,0.000885,0,0
0:1:5.451,217.122,12.2865,0,0.000885,0,0
0:1:5.646,217.887,12.3278,0,0.000885,0,0
0:1:5.847,219.177,12.4037,0,0.000885,0,0
0:1:6.043,219.471,12.4175,0,0.000885,0,0
0:1:6.241,220.174,12.4588,0,0.000885,0,0
0:1:6.442,221.29,12.5209,0,0.000885,0,0
0:1:6.636,221.815,12.5554,0,0.000885,0,0
0:1:6.834,223.456,12.645,0,0.000885,0,0
0:1:7.032,224.164,12.6864,0,0.000885,0,0
0:1:7.229,225.569,12.7622,0,0.000885,0,0
0:1:7.431,225.805,12.776,0,0.000885,0,0
0:1:7.634,226.979,12.8449,0,0.000885,0,0
0:1:7.833,227.624,12.8794,0,0.000885,0,0
0:1:8.034,228.621,12.9346,0,0.000885,0,0
0:1:8.235,229.675,12.9966,0,0.000885,0,0
0:1:8.435,230.907,13.0656,0,0.000885,0,0
0:1:8.637,231.201,13.0862,0,0.000885,0,0
0:1:8.836,232.9,13.1828,0,0.000885,0,0
0:1:9.036,233.429,13.2104,0,0.000885,0,0
0:1:9.237,234.484,13.2724,0,0.000885,0,0
0:1:9.436,234.719,13.2793,0,0.000885,0,0
0:1:9.634,236.067,13.362,0,0.000885,0,0
0:1:9.831,236.419,13.3758,0,0.000885,0,0
0:1:10.030,236.712,13.3965,0,0.000885,0,0
0:1:10.223,238.238,13.4793,0,0.000885,0,0
0:1:10.423,238.767,13.5137,0,0.000885,0,0
0:1:10.621,239.999,13.5827,0,0.000885,0,0
0:1:10.818,240.409,13.6034,0,0.000885,0,0
0:1:11.019,241.876,13.6861,0,0.000885,0,0
0:1:11.220,242.286,13.7137,0,0.000885,0,0
0:1:11.422,243.46,13.7757,0,0.000885,0,0
0:1:11.630,243.811,13.7964,0,0.000885,0,0
0:1:11.823,245.395,13.886,0,0.000885,0,0
0:1:12.026,246.334,13.9412,0,0.000885,0,0
0:1:12.218,246.801,13.9688,0,0.000885,0,0
0:1:12.418,247.917,14.0308,0,0.000885,0,0
0:1:12.618,248.914,14.086,0,0.000885,0,0
0:1:12.821,249.559,14.1205,0,0.000885,0,0
0:1:13.022,251.022,14.2032,0,0.000885,0,0
0:1:13.223,251.671,14.2446,0,0.000885,0,0
0:1:13.429,253.193,14.3273,0,0.000885,0,0
0:1:13.629,253.664,14.3549,0,0.000885,0,0
0:1:13.830,254.483,14.4031,0,0.000885,0,0
0:1:14.029,255.248,14.4445,0,0.000885,0,0
0:1:14.229,255.421,14.4514,0,0.000885,0,0
0:1:14.431,257.183,14.5548,0,0.000885,0,0
0:1:14.630,257.356,14.5617,0,0.000885,0,0
0:1:14.823,259.002,14.6583,0,0.000885,0,0
0:1:15.024,259.233,14.672,0,0.000885,0,0
0:1:15.219,260.466,14.741,0,0.000885,0,0
0:1:15.417,260.879,14.7617,0,0.000885,0,0
0:1:15.618,262.107,14.8306,0,0.000885,0,0
0:1:15.822,262.636,14.8651,0,0.000885,0,0
0:1:16.024,264.162,14.9478,0,0.000885,0,0
0:1:16.220,264.923,14.9892,0,0.000885,0,0
0:1:16.428,265.63,15.0306,0,0.000885,0,0
0:1:16.628,266.626,15.0857,0,0.000885,0,0
0:1:16.821,267.329,15.1271,0,0.000885,0,0
0:1:17.020,268.504,15.196,0,0.000885,0,0
0:1:17.217,269.086,15.2305,0,0.000885,0,0
0:1:17.412,270.087,15.2857,0,0.000885,0,0
0:1:17.613,270.318,15.2995,0,0.000885,0,0
0:1:17.814,271.493,15.3615,0,0.000885,0,0
0:1:18.016,272.609,15.4236,0,0.000885,0,0
0:1:18.217,273.076,15.4512,0,0.000885,0,0
0:1:18.418,275.069,15.5684,0,0.000885,0,0
0:1:18.619,275.131,15.5684,0,0.000885,0,0
0:1:18.818,275.483,15.589,0,0.000885,0,0
0:1:19.019,277.066,15.6787,0,0.000885,0,0
0:1:19.219,277.476,15.6994,0,0.000885,0,0
0:1:19.423,279.117,15.7959,0,0.000885,0,0
0:1:19.623,279.589,15.8235,0,0.000885,0,0
0:1:19.818,281.052,15.9062,0,0.000885,0,0
0:1:20.015,282.168,15.9683,0,0.000885,0,0
0:1:20.217,282.929,16.0096,0,0.000885,0,0
0:1:20.410,284.103,16.0786,0,0.000885,0,0
0:1:20.612,284.748,16.113,0,0.000885,0,0
0:1:20.808,285.629,16.1613,0,0.000885,0,0
0:1:21.016,286.274,16.2027,0,0.000885,0,0
0:1:21.214,286.506,16.2096,0,0.000885,0,0
0:1:21.410,287.916,16.2923,0,0.000885,0,0
0:1:21.611,288.383,16.3199,0,0.000885,0,0
0:1:21.815,289.908,16.4026,0,0.000885,0,0
0:1:22.023,290.086,16.4164,0,0.000885,0,0
0:1:22.223,291.434,16.4923,0,0.000885,0,0
0:1:22.418,291.906,16.5198,0,0.000885,0,0
0:1:22.619,293.311,16.5957,0,0.000885,0,0
0:1:22.819,293.778,16.6233,0,0.000885,0,0
0:1:23.022,294.837,16.6853,0,0.000885,0,0
0:1:23.223,295.362,16.7129,0,0.000885,0,0
0:1:23.423,295.776,16.7405,0,0.000885,0,0
0:1:23.624,297.008,16.8094,0,0.000885,0,0
0:1:23.823,297.239,16.8232,0,0.000885,0,0
0:1:24.024,299.236,16.9335,0,0.000885,0,0
0:1:24.224,299.761,16.9611,0,0.000885,0,0
0:1:24.419,301.113,17.0369,0,0.000885,0,0
0:1:24.620,301.99,17.0921,0,0.000885,0,0
0:1:24.818,303.106,17.1542,0,0.000885,0,0
0:1:25.023,303.751,17.1886,0,0.000885,0,0
0:1:25.223,304.69,17.2438,0,0.000885,0,0
0:1:25.418,305.157,17.2714,0,0.000885,0,0
0:1:25.618,306.74,17.361,0,0.000885,0,0
0:1:25.815,306.976,17.3679,0,0.000885,0,0
0:1:26.020,308.324,17.4506,0,0.000885,0,0
0:1:26.221,308.738,17.4713,0,0.000885,0,0
0:1:26.418,310.086,17.5472,0,0.000885,0,0
0:1:26.616,310.495,17.5678,0,0.000885,0,0
0:1:26.814,311.963,17.6506,0,0.000885,0,0
0:1:27.011,312.488,17.6851,0,0.000885,0,0
0:1:27.210,312.55,17.6851,0,0.000885,0,0
0:1:27.424,313.84,17.7609,0,0.000885,0,0
0:1:27.624,315.717,17.8643,0,0.000885,0,0
0:1:27.824,316.42,17.9057,0,0.000885,0,0
0:1:28.028,317.416,17.9608,0,0.000885,0,0
0:1:28.228,318.177,18.0022,0,0.000885,0,0
0:1:28.430,319.409,18.0781,0,0.000885,0,0
0:1:28.631,319.938,18.1056,0,0.000885,0,0
0:1:28.829,319.881,18.0987,0,0.000885,0,0
0:1:29.030,320.993,18.1677,0,0.000885,0,0
0:1:29.231,321.758,18.2091,0,0.000885,0,0
0:1:29.435,322.696,18.2642,0,0.000885,0,0
0:1:29.635,323.457,18.3056,0,0.000885,0,0
0:1:29.834,324.338,18.3538,0,0.000885,0,0
0:1:30.029,325.04,18.3952,0,0.000885,0,0
0:1:30.230,326.508,18.4779,0,0.000885,0,0
0:1:30.434,326.975,18.5055,0,0.000885,0,0
0:1:30.633,328.386,18.5814,0,0.000885,0,0
0:1:30.832,328.679,18.6021,0,0.000885,0,0
0:1:31.035,330.32,18.6917,0,0.000885,0,0
0:1:31.237,330.908,18.7262,0,0.000885,0,0
0:1:31.433,332.491,18.8158,0,0.000885,0,0
0:1:31.629,332.723,18.8296,0,0.000885,0,0
0:1:31.831,334.075,18.9054,0,0.000885,0,0
0:1:32.035,334.72,18.9399,0,0.000885,0,0
0:1:32.234,336.068,19.0157,0,0.000885,0,0
0:1:32.432,336.77,19.0571,0,0.000885,0,0
0:1:32.623,337.887,19.1192,0,0.000885,0,0
0:1:32.825,338.59,19.1605,0,0.000885,0,0
0:1:33.024,338.825,19.1743,0,0.000885,0,0
0:1:33.229,340.347,19.2571,0,0.000885,0,0
0:1:33.430,340.289,19.2571,0,0.000885,0,0
0:1:33.630,341.521,19.326,0,0.000885,0,0
0:1:33.831,341.873,19.3467,0,0.000885,0,0
0:1:34.032,343.692,19.4501,0,0.000885,0,0
0:1:34.233,343.928,19.4639,0,0.000885,0,0
0:1:34.434,345.218,19.5328,0,0.000885,0,0
0:1:34.637,345.92,19.5742,0,0.000885,0,0
0:1:34.838,347.095,19.6432,0,0.000885,0,0
0:1:35.036,347.504,19.6638,0,0.000885,0,0
0:1:35.233,348.736,19.7328,0,0.000885,0,0
0:1:35.433,349.439,19.7742,0,0.000885,0,0
0:1:35.636,350.435,19.8293,0,0.000885,0,0
0:1:35.836,351.61,19.8983,0,0.000885,0,0
0:1:36.034,352.37,19.9396,0,0.000885,0,0
0:1:36.229,353.487,20.0017,0,0.000885,0,0
0:1:36.431,354.31,20.05,0,0.000885,0,0
0:1:36.635,354.892,20.0844,0,0.000885,0,0
0:1:36.834,355.893,20.1396,0,0.000885,0,0
0:1:37.033,356.77,20.1878,0,0.000885,0,0
0:1:37.238,357.944,20.2568,0,0.000885,0,0
0:1:37.438,358.647,20.2982,0,0.000885,0,0
0:1:37.634,359.292,20.3326,0,0.000885,0,0
0:1:37.831,360.408,20.3947,0,0.000885,0,0
0:1:38.031,360.408,20.3947,0,0.000885,0,0
0:1:38.233,362.05,20.4912,0,0.000885,0,0
0:1:38.436,362.695,20.5257,0,0.000885,0,0
0:1:38.637,363.985,20.5946,0,0.000885,0,0
0:1:38.836,364.572,20.6291,0,0.000885,0,0
0:1:39.038,365.684,20.6912,0,0.000885,0,0
0:1:39.237,366.507,20.7394,0,0.000885,0,0
0:1:39.439,367.33,20.7877,0,0.000885,0,0
0:1:39.636,368.148,20.836,0,0.000885,0,0
0:1:39.831,368.971,20.8773,0,0.000885,0,0
0:1:40.032,370.145,20.9463,0,0.000885,0,0
0:1:40.237,370.728,20.9807,0,0.000885,0,0
0:1:40.436,371.729,21.0359,0,0.000885,0,0
0:1:40.635,372.663,21.0911,0,0.000885,0,0
0:1:40.827,373.722,21.1462,0,0.000885,0,0
0:1:41.030,374.309,21.1807,0,0.000885,0,0
0:1:41.235,375.012,21.2221,0,0.000885,0,0
0:1:41.434,376.066,21.2841,0,0.000885,0,0
0:1:41.634,377.062,21.3393,0,0.000885,0,0
0:1:41.837,378.179,21.4013,0,0.000885,0,0
0:1:42.036,378.646,21.4289,0,0.000885,0,0
0:1:42.233,379.647,21.4841,0,0.000885,0,0
0:1:42.430,380.172,21.5116,0,0.000885,0,0
0:1:42.631,381.582,21.5944,0,0.000885,0,0
0:1:42.833,382.049,21.622,0,0.000885,0,0
0:1:43.036,383.459,21.6978,0,0.000885,0,0
0:1:43.236,383.517,21.7047,0,0.000885,0,0
0:1:43.437,385.452,21.815,0,0.000885,0,0
0:1:43.637,385.567,21.8219,0,0.000885,0,0
0:1:43.836,386.332,21.8633,0,0.000885,0,0
0:1:44.037,387.622,21.9322,0,0.000885,0,0
0:1:44.235,388.325,21.9736,0,0.000885,0,0
0:1:44.430,389.144,22.0219,0,0.000885,0,0
0:1:44.631,389.851,22.0632,0,0.000885,0,0
0:1:44.837,391.199,22.1391,0,0.000885,0,0
0:1:45.033,392.022,22.1804,0,0.000885,0,0
0:1:45.234,393.312,22.2563,0,0.000885,0,0
0:1:45.436,393.663,22.277,0,0.000885,0,0
0:1:45.636,395.011,22.3528,0,0.000885,0,0
0:1:45.835,395.247,22.3666,0,0.000885,0,0
0:1:46.030,396.652,22.4493,0,0.000885,0,0
0:1:46.231,397.004,22.4631,0,0.000885,0,0
0:1:46.436,398.707,22.5596,0,0.000885,0,0
0:1:46.634,399.117,22.5872,0,0.000885,0,0
0:1:46.833,400.522,22.6631,0,0.000885,0,0
0:1:47.025,400.878,22.6838,0,0.000885,0,0
0:1:47.226,402.577,22.7803,0,0.000885,0,0
0:1:47.433,402.399,22.7734,0,0.000885,0,0
0:1:47.631,403.983,22.863,0,0.000885,0,0
0:1:47.832,404.161,22.8699,0,0.000885,0,0
0:1:48.034,404.864,22.9113,0,0.000885,0,0
0:1:48.235,405.567,22.9526,0,0.000885,0,0
0:1:48.436,406.038,22.9802,0,0.000885,0,0
0:1:48.637,407.795,23.0768,0,0.000885,0,0
0:1:48.835,408.44,23.1112,0,0.000885,0,0
0:1:49.036,409.966,23.2009,0,0.000885,0,0
0:1:49.238,410.789,23.2491,0,0.000885,0,0
0:1:49.434,411.607,23.2905,0,0.000885,0,0
0:1:49.630,412.608,23.3456,0,0.000885,0,0
0:1:49.832,413.427,23.3939,0,0.000885,0,0
0:1:50.035,414.543,23.456,0,0.000885,0,0
0:1:50.235,415.13,23.4904,0,0.000885,0,0
0:1:50.433,416.242,23.5525,0,0.000885,0,0
0:1:50.625,416.887,23.5939,0,0.000885,0,0
0:1:50.826,417.884,23.649,0,0.000885,0,0
0:1:51.024,418.413,23.6766,0,0.000885,0,0
0:1:51.221,419.467,23.7386,0,0.000885,0,0
0:1:51.421,420.584,23.8007,0,0.000885,0,0
0:1:51.623,421.58,23.8559,0,0.000885,0,0
0:1:51.823,422.047,23.8834,0,0.000885,0,0
0:1:52.021,423.048,23.9386,0,0.000885,0,0
0:1:52.217,423.515,23.9662,0,0.000885,0,0
0:1:52.418,424.805,24.042,0,0.000885,0,0
0:1:52.612,424.805,24.042,0,0.000885,0,0
0:1:52.812,425.979,24.1041,0,0.000885,0,0
0:1:53.013,427.327,24.1799,0,0.000885,0,0
0:1:53.215,428.382,24.242,0,0.000885,0,0
0:1:53.416,428.911,24.2695,0,0.000885,0,0
0:1:53.617,430.201,24.3454,0,0.000885,0,0
0:1:53.818,430.846,24.3799,0,0.000885,0,0
0:1:54.018,432.429,24.4695,0,0.000885,0,0
0:1:54.219,432.607,24.4833,0,0.000885,0,0
0:1:54.420,434.013,24.5591,0,0.000885,0,0
0:1:54.626,434.249,24.5729,0,0.000885,0,0
0:1:54.834,435.89,24.6694,0,0.000885,0,0
0:1:55.033,436.068,24.6763,0,0.000885,0,0
0:1:55.228,437.709,24.766,0,0.000885,0,0
0:1:55.431,437.883,24.7798,0,0.000885,0,0
0:1:55.636,439.235,24.8556,0,0.000885,0,0
0:1:55.833,439.587,24.8763,0,0.000885,0,0
0:1:56.034,440.992,24.9521,0,0.000885,0,0
0:1:56.238,441.344,24.9728,0,0.000885,0,0
0:1:56.438,442.696,25.0487,0,0.000885,0,0
0:1:56.635,443.279,25.0831,0,0.000885,0,0
0:1:56.827,443.634,25.1038,0,0.000885,0,0
0:1:57.031,445.276,25.2003,0,0.000885,0,0
0:1:57.223,445.449,25.2072,0,0.000885,0,0
0:1:57.424,446.917,25.29,0,0.000885,0,0
0:1:57.622,447.447,25.3175,0,0.000885,0,0
0:1:57.825,448.794,25.3934,0,0.000885,0,0
0:1:58.026,449.439,25.4348,0,0.000885,0,0
0:1:58.228,450.494,25.4899,0,0.000885,0,0
0:1:58.431,451.259,25.5382,0,0.000885,0,0
0:1:58.633,452.255,25.5933,0,0.000885,0,0
0:1:58.834,452.9,25.6278,0,0.000885,0,0
0:1:59.035,453.839,25.683,0,0.000885,0,0
0:1:59.234,454.777,25.7381,0,0.000885,0,0
0:1:59.435,455.947,25.8002,0,0.000885,0,0
0:1:59.636,456.419,25.8278,0,0.000885,0,0
0:1:59.828,457.651,25.8967,0,0.000885,0,0
0:2:0.028,457.944,25.9174,0,0.000885,0,0
0:2:0.236,459.466,26.0001,0,0.000885,0,0
0:2:0.432,459.995,26.0277,0,0.000885,0,0
0:2:0.634,461.636,26.1242,0,0.000885,0,0
0:2:0.827,461.757,26.1311,0,0.000885,0,0
0:2:1.025,462.811,26.1932,0,0.000885,0,0
0:2:1.223,462.869,26.1932,0,0.000885,0,0
0:2:1.418,463.807,26.2483,0,0.000885,0,0
0:2:1.619,464.746,26.2966,0,0.000885,0,0
0:2:1.823,465.804,26.3587,0,0.000885,0,0
0:2:2.022,466.623,26.4069,0,0.000885,0,0
0:2:2.221,467.384,26.4483,0,0.000885,0,0
0:2:2.415,468.384,26.5034,0,0.000885,0,0
0:2:2.615,469.496,26.5655,0,0.000885,0,0
0:2:2.814,470.786,26.6413,0,0.000885,0,0
0:2:3.017,471.374,26.6758,0,0.000885,0,0
0:2:3.219,473.015,26.7654,0,0.000885,0,0
0:2:3.420,473.015,26.7654,0,0.000885,0,0
0:2:3.622,474.483,26.8482,0,0.000885,0,0
0:2:3.820,475.128,26.8896,0,0.000885,0,0
0:2:4.021,476.24,26.9516,0,0.000885,0,0
0:2:4.222,477.472,27.0206,0,0.000885,0,0
0:2:4.416,477.886,27.0412,0,0.000885,0,0
0:2:4.615,478.589,27.0826,0,0.000885,0,0
0:2:4.813,479.291,27.124,0,0.000885,0,0
0:2:5.018,480.23,27.1722,0,0.000885,0,0
0:2:5.220,480.991,27.2205,0,0.000885,0,0
0:2:5.422,482.285,27.2894,0,0.000885,0,0
0:2:5.622,482.574,27.3101,0,0.000885,0,0
0:2:5.820,483.455,27.3584,0,0.000885,0,0
0:2:6.025,484.865,27.4342,0,0.000885,0,0
0:2:6.225,485.51,27.4756,0,0.000885,0,0
0:2:6.420,486.622,27.5377,0,0.000885,0,0
0:2:6.619,487.561,27.5928,0,0.000885,0,0
0:2:6.819,487.739,27.5997,0,0.000885,0,0
0:2:7.023,489.264,27.6893,0,0.000885,0,0
0:2:7.223,489.553,27.7031,0,0.000885,0,0
0:2:7.420,491.137,27.7928,0,0.000885,0,0
0:2:7.617,491.724,27.8272,0,0.000885,0,0
0:2:7.818,492.841,27.8893,0,0.000885,0,0
0:2:8.020,493.134,27.9031,0,0.000885,0,0
0:2:8.223,494.598,27.9858,0,0.000885,0,0
0:2:8.423,495.305,28.0272,0,0.000885,0,0
0:2:8.623,496.123,28.0755,0,0.000885,0,0
0:2:8.822,497.356,28.1444,0,0.000885,0,0
0:2:9.022,498.41,28.2065,0,0.000885,0,0
0:2:9.223,499.055,28.2409,0,0.000885,0,0
0:2:9.421,499.82,28.2823,0,0.000885,0,0
0:2:9.627,500.638,28.3306,0,0.000885,0,0
0:2:9.828,501.226,28.365,0,0.000885,0,0
0:2:10.033,502.049,28.4133,0,0.000885,0,0
0:2:10.234,503.516,28.496,0,0.000885,0,0
0:2:10.429,504.335,28.5374,0,0.000885,0,0
0:2:10.625,505.745,28.6201,0,0.000885,0,0
0:2:10.825,506.096,28.6408,0,0.000885,0,0
0:2:11.029,507.56,28.7236,0,0.000885,0,0
0:2:11.228,507.853,28.7373,0,0.000885,0,0
0:2:11.427,508.089,28.7511,0,0.000885,0,0
0:2:11.622,509.143,28.8132,0,0.000885,0,0
0:2:11.822,509.788,28.8477,0,0.000885,0,0
0:2:12.027,511.314,28.9373,0,0.000885,0,0
0:2:12.224,511.55,28.9511,0,0.000885,0,0
0:2:12.424,512.782,29.02,0,0.000885,0,0
0:2:12.618,513.307,29.0476,0,0.000885,0,0
0:2:12.818,514.833,29.1303,0,0.000885,0,0
0:2:13.020,515.598,29.1786,0,0.000885,0,0
0:2:13.223,516.768,29.2407,0,0.000885,0,0
0:2:13.424,517.475,29.282,0,0.000885,0,0
0:2:13.624,518.236,29.3234,0,0.000885,0,0
0:2:13.824,518.765,29.3579,0,0.000885,0,0
0:2:14.024,519.935,29.4199,0,0.000885,0,0
0:2:14.224,520.642,29.4613,0,0.000885,0,0
0:2:14.424,522.635,29.5785,0,0.000885,0,0
0:2:14.628,522.986,29.5923,0,0.000885,0,0
0:2:14.829,523.867,29.6475,0,0.000885,0,0
0:2:15.024,524.921,29.7026,0,0.000885,0,0
0:2:15.223,525.802,29.7509,0,0.000885,0,0
0:2:15.423,526.447,29.7922,0,0.000885,0,0
0:2:15.626,528.088,29.8819,0,0.000885,0,0
0:2:15.826,528.088,29.8819,0,0.000885,0,0
0:2:16.034,529.672,29.9715,0,0.000885,0,0
0:2:16.229,529.908,29.9853,0,0.000885,0,0
0:2:16.430,530.668,30.0267,0,0.000885,0,0
0:2:16.624,531.665,30.0887,0,0.000885,0,0
0:2:16.824,531.958,30.1025,0,0.000885,0,0
0:2:17.020,533.542,30.1921,0,0.000885,0,0
0:2:17.217,534.129,30.2266,0,0.000885,0,0
0:2:17.418,535.655,30.3094,0,0.000885,0,0
0:2:17.633,535.77,30.3162,0,0.000885,0,0
0:2:17.833,536.945,30.3852,0,0.000885,0,0
0:2:18.034,537.826,30.4335,0,0.000885,0,0
0:2:18.236,538.413,30.4679,0,0.000885,0,0
0:2:18.437,538.88,30.4955,0,0.000885,0,0
0:2:18.639,540.17,30.5645,0,0.000885,0,0
0:2:18.839,541.108,30.6196,0,0.000885,0,0
0:2:19.039,542.047,30.6748,0,0.000885,0,0
0:2:19.240,542.398,30.6955,0,0.000885,0,0
0:2:19.441,544.16,30.792,0,0.000885,0,0
0:2:19.636,544.396,30.8058,0,0.000885,0,0
0:2:19.837,546.153,30.9092,0,0.000885,0,0
0:2:20.033,547.091,30.9575,0,0.000885,0,0
0:2:20.237,547.914,31.0057,0,0.000885,0,0
0:2:20.438,548.559,31.0402,0,0.000885,0,0
0:2:20.630,548.853,31.0609,0,0.000885,0,0
0:2:20.830,550.258,31.1367,0,0.000885,0,0
0:2:21.029,550.73,31.1643,0,0.000885,0,0
0:2:21.236,551.842,31.2264,0,0.000885,0,0
0:2:21.436,552.665,31.2746,0,0.000885,0,0
0:2:21.628,553.661,31.3298,0,0.000885,0,0
0:2:21.827,554.07,31.3574,0,0.000885,0,0
0:2:22.028,555.89,31.4539,0,0.000885,0,0
0:2:22.231,556.477,31.4884,0,0.000885,0,0
0:2:22.434,557.767,31.5642,0,0.000885,0,0
0:2:22.639,558.292,31.5918,0,0.000885,0,0
0:2:22.835,559.115,31.64,0,0.000885,0,0
0:2:23.035,559.76,31.6745,0,0.000885,0,0
0:2:23.236,561.108,31.7504,0,0.000885,0,0
0:2:23.438,561.521,31.7779,0,0.000885,0,0
0:2:23.639,562.927,31.8538,0,0.000885,0,0
0:2:23.839,563.043,31.8607,0,0.000885,0,0
0:2:24.040,564.862,31.9641,0,0.000885,0,0
0:2:24.240,565.276,31.9848,0,0.000885,0,0
0:2:24.440,566.272,32.0468,0,0.000885,0,0
0:2:24.639,566.566,32.0606,0,0.000885,0,0
0:2:24.835,567.735,32.1296,0,0.000885,0,0
0:2:25.036,568.558,32.1709,0,0.000885,0,0
0:2:25.228,568.732,32.1847,0,0.000885,0,0
0:2:25.428,570.493,32.2813,0,0.000885,0,0
0:2:25.625,571.138,32.3226,0,0.000885,0,0
0:2:25.830,571.841,32.3571,0,0.000885,0,0
0:2:26.031,572.9,32.4191,0,0.000885,0,0
0:2:26.238,574.012,32.4812,0,0.000885,0,0
0:2:26.438,574.541,32.5157,0,0.000885,0,0
0:2:26.636,576.24,32.6053,0,0.000885,0,0
0:2:26.829,576.943,32.6467,0,0.000885,0,0
0:2:27.030,577.766,32.6949,0,0.000885,0,0
0:2:27.225,578.647,32.7432,0,0.000885,0,0
0:2:27.425,579.817,32.8121,0,0.000885,0,0
0:2:27.622,580.64,32.8604,0,0.000885,0,0
0:2:27.817,580.875,32.8742,0,0.000885,0,0
0:2:28.018,581.636,32.9156,0,0.000885,0,0
0:2:28.218,582.633,32.9707,0,0.000885,0,0
0:2:28.421,583.34,33.0121,0,0.000885,0,0
0:2:28.623,585.039,33.1086,0,0.000885,0,0
0:2:28.823,585.626,33.1362,0,0.000885,0,0
0:2:29.023,586.796,33.2052,0,0.000885,0,0
0:2:29.224,587.152,33.2258,0,0.000885,0,0
0:2:29.423,587.735,33.2603,0,0.000885,0,0
0:2:29.623,589.145,33.3362,0,0.000885,0,0
0:2:29.839,590.319,33.4051,0,0.000885,0,0
0:2:30.039,590.435,33.412,0,0.000885,0,0
0:2:30.234,591.609,33.4809,0,0.000885,0,0
0:2:30.435,592.254,33.5154,0,0.000885,0,0
0:2:30.635,592.899,33.5499,0,0.000885,0,0
0:2:30.828,594.718,33.6533,0,0.000885,0,0
0:2:31.030,594.776,33.6602,0,0.000885,0,0
0:2:31.227,596.186,33.736,0,0.000885,0,0
0:2:31.425,596.831,33.7705,0,0.000885,0,0
0:2:31.627,597.534,33.8119,0,0.000885,0,0
0:2:31.821,598.708,33.8808,0,0.000885,0,0
0:2:32.023,600.296,33.9705,0,0.000885,0,0
0:2:32.221,600.706,33.9912,0,0.000885,0,0
0:2:32.417,601.644,34.0463,0,0.000885,0,0
0:2:32.618,601.822,34.0532,0,0.000885,0,0
0:2:32.821,603.641,34.1566,0,0.000885,0,0
0:2:33.022,604.171,34.1911,0,0.000885,0,0
0:2:33.224,604.874,34.2256,0,0.000885,0,0
0:2:33.425,605.812,34.2807,0,0.000885,0,0
0:2:33.626,606.809,34.3359,0,0.000885,0,0
0:2:33.828,607.338,34.3704,0,0.000885,0,0
0:2:34.030,608.748,34.4462,0,0.000885,0,0
0:2:34.230,608.984,34.46,0,0.000885,0,0
0:2:34.426,609.802,34.5083,0,0.000885,0,0
0:2:34.628,611.684,34.6117,0,0.000885,0,0
0:2:34.825,612.271,34.6462,0,0.000885,0,0
0:2:35.024,612.916,34.6806,0,0.000885,0,0
0:2:35.222,613.383,34.7082,0,0.000885,0,0
0:2:35.417,614.557,34.7772,0,0.000885,0,0
0:2:35.620,615.202,34.8116,0,0.000885,0,0
0:2:35.817,616.79,34.9013,0,0.000885,0,0
0:2:36.024,617.2,34.9288,0,0.000885,0,0
0:2:36.225,618.374,34.9909,0,0.000885,0,0
0:2:36.420,618.903,35.0254,0,0.000885,0,0
0:2:36.621,620.015,35.0874,0,0.000885,0,0
0:2:36.821,621.016,35.1426,0,0.000885,0,0
0:2:37.017,622.191,35.2115,0,0.000885,0,0
0:2:37.219,622.306,35.2184,0,0.000885,0,0
0:2:37.414,623.832,35.3012,0,0.000885,0,0
0:2:37.614,624.01,35.3149,0,0.000885,0,0
0:2:37.814,624.891,35.3632,0,0.000885,0,0
0:2:38.018,626.71,35.4666,0,0.000885,0,0
0:2:38.219,627.177,35.4942,0,0.000885,0,0
0:2:38.422,627.764,35.5218,0,0.000885,0,0
0:2:38.623,628.707,35.5769,0,0.000885,0,0
0:2:38.824,630.233,35.6666,0,0.000885,0,0
0:2:39.024,630.291,35.6666,0,0.000885,0,0
0:2:39.225,631.874,35.7562,0,0.000885,0,0
0:2:39.423,632.11,35.77,0,0.000885,0,0
0:2:39.620,633.227,35.8321,0,0.000885,0,0
0:2:39.822,633.4,35.8458,0,0.000885,0,0
0:2:40.019,634.459,35.901,0,0.000885,0,0
0:2:40.220,634.752,35.9217,0,0.000885,0,0
0:2:40.419,636.514,36.0182,0,0.000885,0,0
0:2:40.624,637.332,36.0665,0,0.000885,0,0
0:2:40.825,638.155,36.1147,0,0.000885,0,0
0:2:41.022,638.978,36.1561,0,0.000885,0,0
0:2:41.221,640.855,36.2664,0,0.000885,0,0
0:2:41.420,641.62,36.3078,0,0.000885,0,0
0:2:41.616,642.501,36.3561,0,0.000885,0,0
0:2:41.817,643.32,36.4043,0,0.000885,0,0
0:2:42.016,644.73,36.4871,0,0.000885,0,0
0:2:42.214,644.73,36.4871,0,0.000885,0,0
0:2:42.414,645.61,36.5353,0,0.000885,0,0
0:2:42.609,646.549,36.5905,0,0.000885,0,0
0:2:42.809,646.785,36.5974,0,0.000885,0,0
0:2:43.012,648.426,36.6939,0,0.000885,0,0
0:2:43.213,648.253,36.6801,0,0.000885,0,0
0:2:43.417,649.6,36.7628,0,0.000885,0,0
0:2:43.619,650.539,36.8111,0,0.000885,0,0
0:2:43.821,651.482,36.8663,0,0.000885,0,0
0:2:44.022,652.301,36.9145,0,0.000885,0,0
0:2:44.223,653.475,36.9766,0,0.000885,0,0
0:2:44.423,654.182,37.018,0,0.000885,0,0
0:2:44.621,655.472,37.0938,0,0.000885,0,0
0:2:44.820,655.766,37.1076,0,0.000885,0,0
0:2:45.019,657.234,37.1903,0,0.000885,0,0
0:2:45.225,658.057,37.2386,0,0.000885,0,0
0:2:45.427,658.702,37.2731,0,0.000885,0,0
0:2:45.632,659.169,37.3006,0,0.000885,0,0
0:2:45.832,661.05,37.411,0,0.000885,0,0
0:2:46.032,661.869,37.4523,0,0.000885,0,0
0:2:46.228,662.634,37.5006,0,0.000885,0,0
0:2:46.430,663.279,37.5351,0,0.000885,0,0
0:2:46.628,664.16,37.5833,0,0.000885,0,0
0:2:46.825,664.747,37.6178,0,0.000885,0,0
0:2:47.026,665.921,37.6867,0,0.000885,0,0
0:2:47.220,666.86,37.735,0,0.000885,0,0
0:2:47.421,668.385,37.8246,0,0.000885,0,0
0:2:47.621,668.563,37.8315,0,0.000885,0,0
0:2:47.817,668.915,37.8522,0,0.000885,0,0
0:2:48.020,670.498,37.9418,0,0.000885,0,0
0:2:48.222,670.734,37.9556,0,0.000885,0,0
0:2:48.425,671.557,38.0039,0,0.000885,0,0
0:2:48.625,672.495,38.0522,0,0.000885,0,0
0:2:48.827,673.906,38.1349,0,0.000885,0,0
0:2:49.029,674.079,38.1418,0,0.000885,0,0
0:2:49.230,675.547,38.2314,0,0.000885,0,0
0:2:49.430,676.606,38.2866,0,0.000885,0,0
0:2:49.632,677.251,38.3211,0,0.000885,0,0
0:2:49.827,677.544,38.3417,0,0.000885,0,0
0:2:50.030,678.834,38.4176,0,0.000885,0,0
0:2:50.226,679.537,38.4521,0,0.000885,0,0
0:2:50.425,681.063,38.5417,0,0.000885,0,0
0:2:50.625,681.592,38.5693,0,0.000885,0,0
0:2:50.821,683.002,38.652,0,0.000885,0,0
0:2:51.021,683.825,38.6934,0,0.000885,0,0
0:2:51.220,684.47,38.7347,0,0.000885,0,0
0:2:51.417,685.293,38.7761,0,0.000885,0,0
0:2:51.618,686.641,38.8589,0,0.000885,0,0
0:2:51.814,687.112,38.8795,0,0.000885,0,0
0:2:52.014,687.579,38.9071,0,0.000885,0,0
0:2:52.213,688.874,38.983,0,0.000885,0,0
0:2:52.409,689.341,39.0105,0,0.000885,0,0
0:2:52.610,690.4,39.0657,0,0.000885,0,0
0:2:52.811,691.338,39.1209,0,0.000885,0,0
0:2:53.015,692.512,39.1898,0,0.000885,0,0
0:2:53.216,693.1,39.2243,0,0.000885,0,0
0:2:53.419,694.332,39.2932,0,0.000885,0,0
0:2:53.621,694.799,39.3208,0,0.000885,0,0
0:2:53.822,695.737,39.3691,0,0.000885,0,0
0:2:54.024,696.445,39.4104,0,0.000885,0,0
0:2:54.224,697.97,39.5001,0,0.000885,0,0
0:2:54.430,698.673,39.5345,0,0.000885,0,0
0:2:54.629,699.674,39.5966,0,0.000885,0,0
0:2:54.830,700.083,39.6173,0,0.000885,0,0
0:2:55.037,701.142,39.6793,0,0.000885,0,0
0:2:55.238,701.903,39.7207,0,0.000885,0,0
0:2:55.433,703.193,39.7896,0,0.000885,0,0
0:2:55.632,704.073,39.8448,0,0.000885,0,0
0:2:55.833,704.487,39.8655,0,0.000885,0,0
0:2:56.029,705.306,39.9137,0,0.000885,0,0
0:2:56.231,706.658,39.9896,0,0.000885,0,0
0:2:56.427,706.951,40.0034,0,0.000885,0,0
0:2:56.625,708.006,40.0654,0,0.000885,0,0
0:2:56.826,708.655,40.0999,0,0.000885,0,0
0:2:57.021,709.829,40.1689,0,0.000885,0,0
0:2:57.223,710.354,40.1964,0,0.000885,0,0
0:2:57.430,711.649,40.2723,0,0.000885,0,0
0:2:57.640,712.352,40.3136,0,0.000885,0,0
0:2:57.842,714.171,40.4171,0,0.000885,0,0
0:2:58.043,714.816,40.4515,0,0.000885,0,0
0:2:58.245,715.932,40.5136,0,0.000885,0,0
0:2:58.446,716.11,40.5205,0,0.000885,0,0
0:2:58.648,717.165,40.5825,0,0.000885,0,0
0:2:58.850,717.752,40.617,0,0.000885,0,0
0:2:59.050,717.987,40.6308,0,0.000885,0,0
0:2:59.252,719.393,40.7066,0,0.000885,0,0
0:2:59.452,720.336,40.7618,0,0.000885,0,0
0:2:59.647,721.039,40.8032,0,0.000885,0,0
0:2:59.848,721.275,40.817,0,0.000885,0,0
0:3:0.045,722.858,40.9066,0,0.000885,0,0
0:3:0.244,723.445,40.9411,0,0.000885,0,0
0:3:0.445,724.62,41.0031,0,0.000885,0,0
0:3:0.641,725.674,41.0652,0,0.000885,0,0
0:3:0.842,726.261,41.0996,0,0.000885,0,0
0:3:1.039,726.911,41.1341,0,0.000885,0,0
0:3:1.238,727.907,41.1893,0,0.000885,0,0
0:3:1.438,728.436,41.2238,0,0.000885,0,0
0:3:1.631,729.433,41.2789,0,0.000885,0,0
0:3:1.833,730.198,41.3203,0,0.000885,0,0
0:3:2.031,731.074,41.3685,0,0.000885,0,0
0:3:2.228,731.955,41.4237,0,0.000885,0,0
0:3:2.431,733.543,41.5133,0,0.000885,0,0
0:3:2.625,734.01,41.534,0,0.000885,0,0
0:3:2.825,734.539,41.5685,0,0.000885,0,0
0:3:3.026,735.536,41.6236,0,0.000885,0,0
0:3:3.229,736.123,41.6581,0,0.000885,0,0
0:3:3.432,737.355,41.7271,0,0.000885,0,0
0:3:3.634,737.942,41.7615,0,0.000885,0,0
0:3:3.838,739.001,41.8167,0,0.000885,0,0
0:3:4.035,739.237,41.8305,0,0.000885,0,0
0:3:4.239,739.588,41.8512,0,0.000885,0,0
0:3:4.440,739.294,41.8374,0,0.000885,0,0
0:3:4.646,740.291,41.8925,0,0.000885,0,0
0:3:4.843,740.469,41.8994,0,0.000885,0,0
0:3:5.045,741.879,41.9822,0,0.000885,0,0
0:3:5.239,742.466,42.0167,0,0.000885,0,0
0:3:5.441,743.814,42.0925,0,0.000885,0,0
0:3:5.641,744.107,42.1063,0,0.000885,0,0
0:3:5.834,745.691,42.1959,0,0.000885,0,0
0:3:6.035,746.514,42.2442,0,0.000885,0,0
0:3:6.231,748.275,42.3407,0,0.000885,0,0
0:3:6.430,749.156,42.3959,0,0.000885,0,0
0:3:6.631,751.033,42.4993,0,0.000885,0,0
0:3:6.826,751.798,42.5407,0,0.000885,0,0
0:3:7.027,753.146,42.6165,0,0.000885,0,0
0:3:7.225,753.498,42.6372,0,0.000885,0,0
0:3:7.423,754.085,42.6717,0,0.000885,0,0
0:3:7.623,753.969,42.6648,0,0.000885,0,0
0:3:7.824,753.969,42.6648,0,0.000885,0,0
0:3:8.027,753.676,42.651,0,0.000885,0,0
0:3:8.227,753.791,42.6579,0,0.000885,0,0
0:3:8.429,753.911,42.6648,0,0.000885,0,0
0:3:8.630,754.263,42.6854,0,0.000885,0,0
0:3:8.829,754.205,42.6785,0,0.000885,0,0
0:3:9.031,753.618,42.6441,0,0.000885,0,0
0:3:9.229,750.273,42.4579,0,0.000885,0,0
0:3:9.424,746.572,42.2442,0,0.000885,0,0
0:3:9.625,733.894,41.5271,0,0.000885,0,0
0:3:9.822,725.968,41.079,0,0.000885,0,0
0:3:10.020,709.064,40.1275,0,0.000885,0,0
0:3:10.219,699.26,39.569,0,0.000885,0,0
0:3:10.432,672.202,38.0384,0,0.000885,0,0
0:3:10.634,656.353,37.1421,0,0.000885,0,0
0:3:10.830,617.142,34.9219,0,0.000885,0,0
0:3:11.039,587.445,33.2396,0,0.000885,0,0
0:3:11.216,545.859,30.8885,0,0.000885,0,0