File: DataFile2021-06-30_073509.csv
Test ID:,Date Tested:,Time:,Test Type:,Diameter Avg. (mm):,Cyl. Corr. Factor:,Height (mm):,Age (days):,Weight (kN):,Break Type:,Ramp Rate (MPa/s):,Load at Break (kN):,Stress at Break (MPa):
12,6/30/2021,07:35,Cylinder,100,1,200,0,3.6,3,0.25,798.06,101.61
Sample Time,Load (kN),Stress (MPa),Long. Strain,Trans. Strain,Chan1 Deflection (mm),Chan2 Deflection (mm)
0:0:5.125,5.45352,0.69637,0,0.000885,0,0
0:0:5.521,6.44992,0.820476,0,0.000885,0,0
0:0:5.919,6.97926,0.889424,0,0.000885,0,0
0:0:6.319,7.21502,0.917003,0,0.000885,0,0
0:0:6.715,7.86001,0.99974,0,0.000885,0,0
0:0:7.123,8.97206,1.14453,0,0.000885,0,0
0:0:7.520,9.32347,1.1859,0,0.000885,0,0
0:0:7.920,10.44,1.33069,0,0.000885,0,0
0:0:8.329,11.1428,1.42032,0,0.000885,0,0
0:0:8.727,12.1392,1.54443,0,0.000885,0,0
0:0:9.123,12.6107,1.60648,0,0.000885,0,0
0:0:9.522,13.5493,1.72369,0,0.000885,0,0
0:0:9.923,14.43,1.83401,0,0.000885,0,0
0:0:10.321,15.0127,1.90985,0,0.000885,0,0
0:0:10.727,16.0136,2.04085,0,0.000885,0,0
0:0:11.133,16.6586,2.12359,0,0.000885,0,0
0:0:11.536,17.8285,2.26838,0,0.000885,0,0
0:0:11.939,18.7092,2.38559,0,0.000885,0,0
0:0:12.337,19.5321,2.48901,0,0.000885,0,0
0:0:12.732,20.5285,2.61311,0,0.000885,0,0
0:0:13.130,21.4671,2.73032,0,0.000885,0,0
0:0:13.530,21.7607,2.77169,0,0.000885,0,0
0:0:13.928,22.6993,2.8889,0,0.000885,0,0
0:0:14.327,23.4599,2.98543,0,0.000885,0,0
0:0:14.722,24.1627,3.07506,0,0.000885,0,0
0:0:15.122,25.1013,3.19917,0,0.000885,0,0
0:0:15.524,25.6885,3.26811,0,0.000885,0,0
0:0:15.931,26.0399,3.31638,0,0.000885,0,0
0:0:16.336,27.5078,3.50254,0,0.000885,0,0
0:0:16.739,28.0371,3.57148,0,0.000885,0,0
0:0:17.139,28.7978,3.66801,0,0.000885,0,0
0:0:17.541,29.852,3.79901,0,0.000885,0,0
0:0:17.938,30.7328,3.91622,0,0.000885,0,0
0:0:18.335,30.9107,3.93691,0,0.000885,0,0
0:0:18.731,31.5557,4.01964,0,0.000885,0,0
0:0:19.131,32.8457,4.18512,0,0.000885,0,0
0:0:19.532,33.9577,4.32301,0,0.000885,0,0
0:0:19.928,34.1935,4.35059,0,0.000885,0,0
0:0:20.325,34.6027,4.40575,0,0.000885,0,0
0:0:20.729,36.0706,4.59191,0,0.000885,0,0
0:0:21.136,36.6,4.66086,0,0.000885,0,0
0:0:21.540,37.3606,4.75738,0,0.000885,0,0
0:0:21.942,38.2414,4.8677,0,0.000885,0,0
0:0:22.339,38.8285,4.94354,0,0.000885,0,0
0:0:22.740,39.4112,5.01938,0,0.000885,0,0
0:0:23.140,40.4699,5.15038,0,0.000885,0,0
0:0:23.539,41.0571,5.22623,0,0.000885,0,0
0:0:23.936,41.9334,5.33654,0,0.000885,0,0
0:0:24.332,42.9342,5.46754,0,0.000885,0,0
0:0:24.734,43.6949,5.56407,0,0.000885,0,0
0:0:25.133,44.4555,5.6606,0,0.000885,0,0
0:0:25.530,45.3941,5.77781,0,0.000885,0,0
0:0:25.933,45.8656,5.83986,0,0.000885,0,0
0:0:26.339,46.5684,5.92949,0,0.000885,0,0
0:0:26.743,47.507,6.0467,0,0.000885,0,0
0:0:27.147,48.3299,6.15012,0,0.000885,0,0
0:0:27.546,49.3842,6.28802,0,0.000885,0,0
0:0:27.943,49.7356,6.32939,0,0.000885,0,0
0:0:28.343,50.6741,6.45349,0,0.000885,0,0
0:0:28.741,51.7862,6.59139,0,0.000885,0,0
0:0:29.141,52.3734,6.66723,0,0.000885,0,0
0:0:29.537,52.9605,6.74307,0,0.000885,0,0
0:0:29.933,53.6633,6.8327,0,0.000885,0,0
0:0:30.333,54.4863,6.93613,0,0.000885,0,0
0:0:30.733,55.8341,7.10849,0,0.000885,0,0
0:0:31.140,56.3634,7.17744,0,0.000885,0,0
0:0:31.543,57.5377,7.32913,0,0.000885,0,0
0:0:31.947,58.0048,7.38429,0,0.000885,0,0
0:0:32.349,58.8856,7.4946,0,0.000885,0,0
0:0:32.748,59.3526,7.55665,0,0.000885,0,0
0:0:33.141,59.4727,7.57044,0,0.000885,0,0
0:0:33.538,60.6426,7.72213,0,0.000885,0,0
0:0:33.938,61.9949,7.8945,0,0.000885,0,0
0:0:34.340,62.6399,7.97723,0,0.000885,0,0
0:0:34.736,63.5206,8.08755,0,0.000885,0,0
0:0:35.130,63.872,8.12892,0,0.000885,0,0
0:0:35.533,65.162,8.29439,0,0.000885,0,0
0:0:35.942,66.0383,8.4116,0,0.000885,0,0
0:0:36.346,67.0391,8.53571,0,0.000885,0,0
0:0:36.750,67.3327,8.57018,0,0.000885,0,0
0:0:37.147,67.742,8.62534,0,0.000885,0,0
0:0:37.548,68.5026,8.72187,0,0.000885,0,0
0:0:37.948,69.7348,8.88045,0,0.000885,0,0
0:0:38.343,70.4376,8.97008,0,0.000885,0,0
0:0:38.740,71.0826,9.05282,0,0.000885,0,0
0:0:39.137,71.9055,9.15624,0,0.000885,0,0
0:0:39.540,73.3734,9.3424,0,0.000885,0,0
0:0:39.937,73.6047,9.36998,0,0.000885,0,0
0:0:40.332,74.1341,9.43892,0,0.000885,0,0
0:0:40.737,75.0148,9.54924,0,0.000885,0,0
0:0:41.142,75.7755,9.64577,0,0.000885,0,0
0:0:41.547,76.892,9.79056,0,0.000885,0,0
0:0:41.950,77.1855,9.82503,0,0.000885,0,0
0:0:42.346,77.7104,9.89398,0,0.000885,0,0
0:0:42.745,79.0004,10.0595,0,0.000885,0,0
0:0:43.146,79.8812,10.1698,0,0.000885,0,0
0:0:43.544,80.4683,10.2456,0,0.000885,0,0
0:0:43.940,81.0555,10.3215,0,0.000885,0,0
0:0:44.338,82.0519,10.4456,0,0.000885,0,0
0:0:44.738,82.9326,10.5559,0,0.000885,0,0
0:0:45.138,84.0447,10.7007,0,0.000885,0,0
0:0:45.534,84.752,10.7903,0,0.000885,0,0
0:0:45.940,85.0411,10.8248,0,0.000885,0,0
0:0:46.345,86.0998,10.9627,0,0.000885,0,0
0:0:46.748,86.8604,11.0592,0,0.000885,0,0
0:0:47.152,87.799,11.1764,0,0.000885,0,0
0:0:47.547,88.6797,11.2936,0,0.000885,0,0
0:0:47.945,89.7918,11.4315,0,0.000885,0,0
0:0:48.345,89.734,11.4246,0,0.000885,0,0
0:0:48.744,90.7927,11.5625,0,0.000885,0,0
0:0:49.141,91.3175,11.6246,0,0.000885,0,0
0:0:49.536,92.3139,11.7556,0,0.000885,0,0
0:0:49.934,92.9011,11.8314,0,0.000885,0,0
0:0:50.337,94.0176,11.9693,0,0.000885,0,0
0:0:50.743,94.6048,12.0451,0,0.000885,0,0
0:0:51.148,95.8369,12.2037,0,0.000885,0,0
0:0:51.551,96.304,12.2589,0,0.000885,0,0
0:0:51.951,96.8912,12.3347,0,0.000885,0,0
0:0:52.351,97.2426,12.383,0,0.000885,0,0
0:0:52.749,98.6482,12.5622,0,0.000885,0,0
0:0:53.144,99.6491,12.6864,0,0.000885,0,0
0:0:53.543,99.8804,12.7139,0,0.000885,0,0
0:0:53.944,100.997,12.8587,0,0.000885,0,0
0:0:54.340,101.878,12.969,0,0.000885,0,0
0:0:54.737,102.46,13.0449,0,0.000885,0,0
0:0:55.134,103.225,13.1414,0,0.000885,0,0
0:0:55.538,103.87,13.2241,0,0.000885,0,0
0:0:55.944,105.103,13.3827,0,0.000885,0,0
0:0:56.349,105.863,13.4793,0,0.000885,0,0
0:0:56.753,106.86,13.6034,0,0.000885,0,0
0:0:57.151,107.976,13.7481,0,0.000885,0,0
0:0:57.553,108.034,13.755,0,0.000885,0,0
0:0:57.952,108.973,13.8723,0,0.000885,0,0
0:0:58.346,109.44,13.9343,0,0.000885,0,0
0:0:58.743,110.378,14.0515,0,0.000885,0,0
0:0:59.144,111.673,14.217,0,0.000885,0,0
0:0:59.543,112.255,14.2928,0,0.000885,0,0
0:0:59.940,112.727,14.3549,0,0.000885,0,0
0:1:0.335,113.43,14.4445,0,0.000885,0,0
0:1:0.739,114.253,14.5479,0,0.000885,0,0
0:1:1.147,115.013,14.6445,0,0.000885,0,0
0:1:1.551,115.836,14.7479,0,0.000885,0,0
0:1:1.955,116.833,14.8789,0,0.000885,0,0
0:1:2.351,117.3,14.934,0,0.000885,0,0
0:1:2.751,118.238,15.0581,0,0.000885,0,0
0:1:3.153,119.235,15.1823,0,0.000885,0,0
0:1:3.551,119.88,15.265,0,0.000885,0,0
0:1:3.947,120.702,15.3684,0,0.000885,0,0
0:1:4.343,121.757,15.4994,0,0.000885,0,0
0:1:4.743,121.992,15.5339,0,0.000885,0,0
0:1:5.144,123.109,15.6718,0,0.000885,0,0
0:1:5.540,124.048,15.7959,0,0.000885,0,0
0:1:5.947,124.693,15.8786,0,0.000885,0,0
0:1:6.351,125.217,15.9407,0,0.000885,0,0
0:1:6.752,126.098,16.0579,0,0.000885,0,0
0:1:7.157,126.921,16.1613,0,0.000885,0,0
0:1:7.553,127.975,16.2923,0,0.000885,0,0
0:1:7.951,128.678,16.3819,0,0.000885,0,0
0:1:8.351,129.617,16.506,0,0.000885,0,0
0:1:8.749,130.32,16.5957,0,0.000885,0,0
0:1:9.145,131.027,16.6853,0,0.000885,0,0
0:1:9.541,131.552,16.7474,0,0.000885,0,0
0:1:9.940,132.317,16.8439,0,0.000885,0,0
0:1:10.340,133.02,16.9335,0,0.000885,0,0
0:1:10.747,133.958,17.0576,0,0.000885,0,0
0:1:11.152,134.955,17.1817,0,0.000885,0,0
0:1:11.553,135.012,17.1886,0,0.000885,0,0
0:1:11.957,136.129,17.3334,0,0.000885,0,0
0:1:12.354,137.125,17.4575,0,0.000885,0,0
0:1:12.752,137.712,17.5334,0,0.000885,0,0
0:1:13.147,138.709,17.6575,0,0.000885,0,0
0:1:13.548,139.47,17.7609,0,0.000885,0,0
0:1:13.948,140.35,17.8712,0,0.000885,0,0
0:1:14.346,141.231,17.9815,0,0.000885,0,0
0:1:14.743,142.521,18.147,0,0.000885,0,0
0:1:15.139,143.05,18.2159,0,0.000885,0,0
0:1:15.542,143.517,18.2711,0,0.000885,0,0
0:1:15.947,144.34,18.3745,0,0.000885,0,0
0:1:16.351,144.75,18.4297,0,0.000885,0,0
0:1:16.754,145.688,18.5469,0,0.000885,0,0
0:1:17.152,146.978,18.7124,0,0.000885,0,0
0:1:17.552,147.565,18.7882,0,0.000885,0,0
0:1:17.951,148.562,18.9123,0,0.000885,0,0
0:1:18.346,148.74,18.9399,0,0.000885,0,0
0:1:18.745,149.91,19.0847,0,0.000885,0,0
0:1:19.144,150.261,19.133,0,0.000885,0,0
0:1:19.544,151.377,19.2708,0,0.000885,0,0
0:1:19.940,151.907,19.3398,0,0.000885,0,0
0:1:20.336,153.37,19.526,0,0.000885,0,0
0:1:20.740,153.606,19.5604,0,0.000885,0,0
0:1:21.147,154.309,19.6501,0,0.000885,0,0
0:1:21.551,155.074,19.7466,0,0.000885,0,0
0:1:21.955,155.777,19.8362,0,0.000885,0,0
0:1:22.352,156.715,19.9534,0,0.000885,0,0
0:1:22.752,157.654,20.0706,0,0.000885,0,0
0:1:23.150,158.53,20.1878,0,0.000885,0,0
0:1:23.547,159.237,20.2775,0,0.000885,0,0
0:1:23.942,160.056,20.3809,0,0.000885,0,0
0:1:24.343,160.701,20.4636,0,0.000885,0,0
0:1:24.742,161.408,20.5533,0,0.000885,0,0
0:1:25.140,162.111,20.6429,0,0.000885,0,0
0:1:25.536,162.929,20.7463,0,0.000885,0,0
0:1:25.942,163.93,20.8704,0,0.000885,0,0
0:1:26.349,164.691,20.967,0,0.000885,0,0
0:1:26.752,165.572,21.0842,0,0.000885,0,0
0:1:27.158,166.742,21.229,0,0.000885,0,0
0:1:27.553,167.329,21.3048,0,0.000885,0,0
0:1:27.950,168.094,21.4013,0,0.000885,0,0
0:1:28.352,168.912,21.5047,0,0.000885,0,0
0:1:28.749,169.326,21.5599,0,0.000885,0,0
0:1:29.144,170.029,21.6495,0,0.000885,0,0
0:1:29.543,170.91,21.7599,0,0.000885,0,0
0:1:29.943,171.555,21.8426,0,0.000885,0,0
0:1:30.342,172.257,21.9322,0,0.000885,0,0
0:1:30.748,173.138,22.0425,0,0.000885,0,0
0:1:31.151,173.841,22.1322,0,0.000885,0,0
0:1:31.555,174.308,22.1942,0,0.000885,0,0
0:1:31.960,175.131,22.2976,0,0.000885,0,0
0:1:32.357,175.949,22.4011,0,0.000885,0,0
0:1:32.754,177.653,22.6217,0,0.000885,0,0
0:1:33.151,178.356,22.7113,0,0.000885,0,0
0:1:33.550,179.059,22.801,0,0.000885,0,0
0:1:33.952,179.824,22.8975,0,0.000885,0,0
0:1:34.348,180.762,23.0147,0,0.000885,0,0
0:1:34.745,181.639,23.125,0,0.000885,0,0
0:1:35.142,182.226,23.2009,0,0.000885,0,0
0:1:35.544,182.519,23.2422,0,0.000885,0,0
0:1:35.949,183.458,23.3594,0,0.000885,0,0
0:1:36.355,184.223,23.456,0,0.000885,0,0
0:1:36.757,184.984,23.5525,0,0.000885,0,0
0:1:37.159,185.98,23.6766,0,0.000885,0,0
0:1:37.558,186.452,23.7386,0,0.000885,0,0
0:1:37.953,187.27,23.8421,0,0.000885,0,0
0:1:38.351,187.857,23.9179,0,0.000885,0,0
0:1:38.748,188.68,24.0213,0,0.000885,0,0
0:1:39.150,189.677,24.1523,0,0.000885,0,0
0:1:39.546,190.202,24.2144,0,0.000885,0,0
0:1:39.943,191.496,24.3799,0,0.000885,0,0
0:1:40.340,192.199,24.4695,0,0.000885,0,0
0:1:40.739,192.786,24.5453,0,0.000885,0,0
0:1:41.144,193.311,24.6143,0,0.000885,0,0
0:1:41.545,194.307,24.7384,0,0.000885,0,0
0:1:41.944,195.366,24.8763,0,0.000885,0,0
0:1:42.342,196.304,24.9935,0,0.000885,0,0
0:1:42.740,197.185,25.1038,0,0.000885,0,0
0:1:43.134,197.946,25.2003,0,0.000885,0,0
0:1:43.537,198.591,25.2831,0,0.000885,0,0
0:1:43.930,199.294,25.3727,0,0.000885,0,0
0:1:44.328,199.765,25.4348,0,0.000885,0,0
0:1:44.723,200.819,25.5658,0,0.000885,0,0
0:1:45.124,201.229,25.6209,0,0.000885,0,0
0:1:45.520,202.052,25.7243,0,0.000885,0,0
0:1:45.922,203.284,25.8829,0,0.000885,0,0
0:1:46.325,203.635,25.9243,0,0.000885,0,0
0:1:46.729,204.809,26.076,0,0.000885,0,0
0:1:47.129,205.512,26.1656,0,0.000885,0,0
0:1:47.532,206.273,26.2621,0,0.000885,0,0
0:1:47.926,206.744,26.3242,0,0.000885,0,0
0:1:48.334,207.332,26.4,0,0.000885,0,0
0:1:48.729,208.328,26.5241,0,0.000885,0,0
0:1:49.122,209.734,26.7034,0,0.000885,0,0
0:1:49.525,210.143,26.7586,0,0.000885,0,0
0:1:49.923,211.202,26.8896,0,0.000885,0,0
0:1:50.331,212.082,26.9999,0,0.000885,0,0
0:1:50.735,212.607,27.0688,0,0.000885,0,0
0:1:51.136,213.372,27.1653,0,0.000885,0,0
0:1:51.537,214.017,27.2481,0,0.000885,0,0
0:1:51.936,214.894,27.3584,0,0.000885,0,0
0:1:52.332,215.423,27.4273,0,0.000885,0,0
0:1:52.725,216.713,27.5928,0,0.000885,0,0
0:1:53.129,217.651,27.71,0,0.000885,0,0
0:1:53.533,218.239,27.7859,0,0.000885,0,0
0:1:53.931,218.706,27.8479,0,0.000885,0,0
0:1:54.337,219.88,27.9927,0,0.000885,0,0
0:1:54.729,220.352,28.0548,0,0.000885,0,0
0:1:55.121,220.583,28.0823,0,0.000885,0,0
0:1:55.522,221.29,28.172,0,0.000885,0,0
0:1:55.926,222.638,28.3443,0,0.000885,0,0
0:1:56.327,223.399,28.4409,0,0.000885,0,0
0:1:56.729,223.986,28.5167,0,0.000885,0,0
0:1:57.122,225.102,28.6615,0,0.000885,0,0
0:1:57.518,225.979,28.7718,0,0.000885,0,0
0:1:57.916,226.801,28.8752,0,0.000885,0,0
0:1:58.311,227.446,28.958,0,0.000885,0,0
0:1:58.725,228.269,29.0614,0,0.000885,0,0
0:1:59.130,229.266,29.1924,0,0.000885,0,0
0:1:59.537,229.911,29.2751,0,0.000885,0,0
0:1:59.935,231.085,29.4199,0,0.000885,0,0
0:2:0.338,231.788,29.5096,0,0.000885,0,0
0:2:0.739,232.019,29.544,0,0.000885,0,0
0:2:1.142,232.727,29.6337,0,0.000885,0,0
0:2:1.542,233.429,29.7233,0,0.000885,0,0
0:2:1.943,234.426,29.8474,0,0.000885,0,0
0:2:2.339,235.186,29.9439,0,0.000885,0,0
0:2:2.733,236.009,30.0474,0,0.000885,0,0
0:2:3.125,237.064,30.1852,0,0.000885,0,0
0:2:3.523,237.006,30.1784,0,0.000885,0,0
0:2:3.918,238.238,30.33,0,0.000885,0,0
0:2:4.310,239.061,30.4404,0,0.000885,0,0
0:2:4.706,239.937,30.5507,0,0.000885,0,0
0:2:5.103,240.818,30.661,0,0.000885,0,0
0:2:5.499,241.463,30.7437,0,0.000885,0,0
0:2:5.903,242.459,30.8678,0,0.000885,0,0
0:2:6.304,243.46,30.9988,0,0.000885,0,0
0:2:6.704,243.576,31.0126,0,0.000885,0,0
0:2:7.105,244.279,31.1023,0,0.000885,0,0
0:2:7.498,245.337,31.2401,0,0.000885,0,0
0:2:7.891,245.92,31.3091,0,0.000885,0,0
0:2:8.287,247.152,31.4677,0,0.000885,0,0
0:2:8.683,248.326,31.6194,0,0.000885,0,0
0:2:9.080,249.149,31.7228,0,0.000885,0,0
0:2:9.472,249.265,31.7366,0,0.000885,0,0
0:2:9.866,250.439,31.8883,0,0.000885,0,0
0:2:10.264,251.2,31.9848,0,0.000885,0,0
0:2:10.661,251.494,32.0193,0,0.000885,0,0
0:2:11.065,252.196,32.1089,0,0.000885,0,0
0:2:11.466,253.135,32.233,0,0.000885,0,0
0:2:11.866,253.722,32.3019,0,0.000885,0,0
0:2:12.267,254.603,32.4191,0,0.000885,0,0
0:2:12.662,255.248,32.5019,0,0.000885,0,0
0:2:13.057,256.186,32.6191,0,0.000885,0,0
0:2:13.450,256.831,32.7018,0,0.000885,0,0
0:2:13.846,258.064,32.8604,0,0.000885,0,0
0:2:14.244,258.94,32.9707,0,0.000885,0,0
0:2:14.638,259.527,33.0466,0,0.000885,0,0
0:2:15.031,260.466,33.1638,0,0.000885,0,0
0:2:15.428,260.644,33.1845,0,0.000885,0,0
0:2:15.833,261.698,33.3224,0,0.000885,0,0
0:2:16.236,262.636,33.4396,0,0.000885,0,0
0:2:16.637,263.108,33.5016,0,0.000885,0,0
0:2:17.031,264.104,33.6257,0,0.000885,0,0
0:2:17.427,264.749,33.7085,0,0.000885,0,0
0:2:17.821,265.336,33.7843,0,0.000885,0,0
0:2:18.237,266.333,33.9084,0,0.000885,0,0
0:2:18.639,267.214,34.0256,0,0.000885,0,0
0:2:19.035,268.326,34.1635,0,0.000885,0,0
0:2:19.433,268.797,34.2256,0,0.000885,0,0
0:2:19.826,269.558,34.3221,0,0.000885,0,0
0:2:20.239,270.612,34.4531,0,0.000885,0,0
0:2:20.640,271.377,34.5496,0,0.000885,0,0
0:2:21.043,272.196,34.6599,0,0.000885,0,0
0:2:21.446,272.961,34.7565,0,0.000885,0,0
0:2:21.846,273.899,34.8737,0,0.000885,0,0
0:2:22.240,274.251,34.9219,0,0.000885,0,0
0:2:22.636,274.486,34.9495,0,0.000885,0,0
0:2:23.033,275.421,35.0667,0,0.000885,0,0
0:2:23.436,276.243,35.1702,0,0.000885,0,0
0:2:23.838,277.654,35.3494,0,0.000885,0,0
0:2:24.233,278.766,35.4942,0,0.000885,0,0
0:2:24.629,279.411,35.5769,0,0.000885,0,0
0:2:25.026,279.998,35.6528,0,0.000885,0,0
0:2:25.419,280.465,35.7079,0,0.000885,0,0
0:2:25.821,281.11,35.7907,0,0.000885,0,0
0:2:26.222,281.991,35.901,0,0.000885,0,0
0:2:26.621,282.871,36.0182,0,0.000885,0,0
0:2:27.023,284.046,36.163,0,0.000885,0,0
0:2:27.426,284.922,36.2802,0,0.000885,0,0
0:2:27.833,285.509,36.3492,0,0.000885,0,0
0:2:28.228,286.216,36.4388,0,0.000885,0,0
0:2:28.623,287.035,36.5491,0,0.000885,0,0
0:2:29.026,287.8,36.6456,0,0.000885,0,0
0:2:29.429,288.151,36.687,0,0.000885,0,0
0:2:29.837,288.796,36.7697,0,0.000885,0,0
0:2:30.236,289.673,36.8801,0,0.000885,0,0
0:2:30.640,290.847,37.0317,0,0.000885,0,0
0:2:31.042,291.67,37.1352,0,0.000885,0,0
0:2:31.443,292.551,37.2455,0,0.000885,0,0
0:2:31.841,293.663,37.3903,0,0.000885,0,0
0:2:32.237,294.366,37.4799,0,0.000885,0,0
0:2:32.629,295.246,37.5902,0,0.000885,0,0
0:2:33.022,295.776,37.6592,0,0.000885,0,0
0:2:33.419,296.594,37.7626,0,0.000885,0,0
0:2:33.815,297.417,37.866,0,0.000885,0,0
0:2:34.208,297.884,37.9281,0,0.000885,0,0
0:2:34.601,298.298,37.9832,0,0.000885,0,0
0:2:34.997,299.058,38.0797,0,0.000885,0,0
0:2:35.396,300.233,38.2245,0,0.000885,0,0
0:2:35.798,301.051,38.328,0,0.000885,0,0
0:2:36.200,301.638,38.4038,0,0.000885,0,0
0:2:36.600,302.403,38.5003,0,0.000885,0,0
0:2:36.999,303.048,38.5831,0,0.000885,0,0
0:2:37.396,304.574,38.7761,0,0.000885,0,0
0:2:37.791,305.277,38.8657,0,0.000885,0,0
0:2:38.183,305.744,38.9278,0,0.000885,0,0
0:2:38.580,306.803,39.0657,0,0.000885,0,0
0:2:38.978,307.621,39.1691,0,0.000885,0,0
0:2:39.371,308.208,39.245,0,0.000885,0,0
0:2:39.765,308.738,39.307,0,0.000885,0,0
0:2:40.158,309.614,39.4242,0,0.000885,0,0
0:2:40.559,310.615,39.5483,0,0.000885,0,0
0:2:40.963,310.846,39.5759,0,0.000885,0,0
0:2:41.363,311.905,39.7138,0,0.000885,0,0
0:2:41.764,312.021,39.7276,0,0.000885,0,0
0:2:42.158,313.488,39.9137,0,0.000885,0,0
0:2:42.556,314.307,40.0172,0,0.000885,0,0
0:2:42.950,315.01,40.1068,0,0.000885,0,0
0:2:43.345,315.833,40.2102,0,0.000885,0,0
0:2:43.738,316.656,40.3205,0,0.000885,0,0
0:2:44.137,317.474,40.424,0,0.000885,0,0
0:2:44.542,318.413,40.5412,0,0.000885,0,0
0:2:44.936,319.236,40.6446,0,0.000885,0,0
0:2:45.328,319.881,40.7273,0,0.000885,0,0
0:2:45.730,320.232,40.7756,0,0.000885,0,0
0:2:46.134,321.17,40.8928,0,0.000885,0,0
0:2:46.536,322.051,41.0031,0,0.000885,0,0
0:2:46.935,322.46,41.0583,0,0.000885,0,0
0:2:47.329,323.457,41.1824,0,0.000885,0,0
0:2:47.724,324.395,41.3065,0,0.000885,0,0
0:2:48.121,325.57,41.4513,0,0.000885,0,0
0:2:48.515,325.806,41.4858,0,0.000885,0,0
0:2:48.907,325.979,41.5064,0,0.000885,0,0
0:2:49.304,327.153,41.6512,0,0.000885,0,0
0:2:49.700,328.15,41.7822,0,0.000885,0,0
0:2:50.096,328.795,41.865,0,0.000885,0,0
0:2:50.499,330.027,42.0235,0,0.000885,0,0
0:2:50.901,330.788,42.1201,0,0.000885,0,0
0:2:51.302,331.61,42.2235,0,0.000885,0,0
0:2:51.702,332.843,42.3821,0,0.000885,0,0
0:2:52.096,333.43,42.451,0,0.000885,0,0
0:2:52.490,333.781,42.4993,0,0.000885,0,0
0:2:52.885,334.6,42.6027,0,0.000885,0,0
0:2:53.281,335.187,42.6785,0,0.000885,0,0
0:2:53.678,335.952,42.7751,0,0.000885,0,0
0:2:54.071,337.006,42.9061,0,0.000885,0,0
0:2:54.463,337.709,42.9957,0,0.000885,0,0
0:2:54.860,338.412,43.0853,0,0.000885,0,0
0:2:55.258,339.119,43.175,0,0.000885,0,0
0:2:55.662,340.173,43.3129,0,0.000885,0,0
0:2:56.063,340.76,43.3887,0,0.000885,0,0
0:2:56.463,341.521,43.4852,0,0.000885,0,0
0:2:56.862,342.753,43.6438,0,0.000885,0,0
0:2:57.258,343.456,43.7334,0,0.000885,0,0
0:2:57.652,343.985,43.7955,0,0.000885,0,0
0:2:58.044,344.982,43.9265,0,0.000885,0,0
0:2:58.438,345.16,43.9472,0,0.000885,0,0
0:2:58.838,346.272,44.092,0,0.000885,0,0
0:2:59.242,346.917,44.1678,0,0.000885,0,0
0:2:59.633,347.62,44.2574,0,0.000885,0,0
0:3:0.038,347.913,44.2988,0,0.000885,0,0
0:3:0.439,348.972,44.4298,0,0.000885,0,0
0:3:0.843,350.435,44.616,0,0.000885,0,0
0:3:1.243,350.729,44.6573,0,0.000885,0,0
0:3:1.643,351.61,44.7677,0,0.000885,0,0
0:3:2.039,352.842,44.9262,0,0.000885,0,0
0:3:2.444,353.896,45.0572,0,0.000885,0,0
0:3:2.840,354.483,45.1331,0,0.000885,0,0
0:3:3.237,355.364,45.2434,0,0.000885,0,0
0:3:3.639,355.951,45.3192,0,0.000885,0,0
0:3:4.043,356.538,45.3951,0,0.000885,0,0
0:3:4.440,357.415,45.5054,0,0.000885,0,0
0:3:4.833,358.122,45.595,0,0.000885,0,0
0:3:5.240,359.234,45.7398,0,0.000885,0,0
0:3:5.643,359.937,45.8295,0,0.000885,0,0
0:3:6.046,360.466,45.8984,0,0.000885,0,0
0:3:6.446,361.111,45.9811,0,0.000885,0,0
0:3:6.847,361.992,46.0915,0,0.000885,0,0
0:3:7.240,362.459,46.1466,0,0.000885,0,0
0:3:7.643,363.34,46.2638,0,0.000885,0,0
0:3:8.038,364.22,46.3741,0,0.000885,0,0
0:3:8.446,364.923,46.4638,0,0.000885,0,0
0:3:8.839,366.098,46.6155,0,0.000885,0,0
0:3:9.240,366.622,46.6775,0,0.000885,0,0
0:3:9.638,367.267,46.7602,0,0.000885,0,0
0:3:10.043,367.975,46.8499,0,0.000885,0,0
0:3:10.438,368.913,46.974,0,0.000885,0,0
0:3:10.841,369.732,47.0774,0,0.000885,0,0
0:3:11.242,370.728,47.2015,0,0.000885,0,0
0:3:11.642,371.902,47.3532,0,0.000885,0,0
0:3:12.043,372.312,47.4015,0,0.000885,0,0
0:3:12.446,372.899,47.4773,0,0.000885,0,0
0:3:12.839,373.428,47.5462,0,0.000885,0,0
0:3:13.243,374.247,47.6497,0,0.000885,0,0
0:3:13.641,375.363,47.7945,0,0.000885,0,0
0:3:14.046,376.244,47.9048,0,0.000885,0,0
0:3:14.439,376.889,47.9875,0,0.000885,0,0
0:3:14.842,377.65,48.084,0,0.000885,0,0
0:3:15.244,378.472,48.1875,0,0.000885,0,0
0:3:15.649,379.353,48.2978,0,0.000885,0,0
0:3:16.049,379.998,48.3805,0,0.000885,0,0
0:3:16.449,380.817,48.4839,0,0.000885,0,0
0:3:16.843,381.404,48.5598,0,0.000885,0,0
0:3:17.240,382.4,48.6908,0,0.000885,0,0
0:3:17.645,383.103,48.7804,0,0.000885,0,0
0:3:18.039,384.042,48.8976,0,0.000885,0,0
0:3:18.442,384.749,48.9873,0,0.000885,0,0
0:3:18.846,385.394,49.07,0,0.000885,0,0
0:3:19.245,386.097,49.1596,0,0.000885,0,0
0:3:19.638,386.564,49.2217,0,0.000885,0,0
0:3:20.040,387.854,49.3803,0,0.000885,0,0
0:3:20.441,388.561,49.4699,0,0.000885,0,0
0:3:20.844,389.028,49.5319,0,0.000885,0,0
0:3:21.245,390.612,49.7319,0,0.000885,0,0
0:3:21.643,391.021,49.787,0,0.000885,0,0
0:3:22.039,392.022,49.9111,0,0.000885,0,0
0:3:22.446,393.076,50.049,0,0.000885,0,0
0:3:22.844,393.605,50.118,0,0.000885,0,0
0:3:23.247,394.66,50.249,0,0.000885,0,0
0:3:23.638,394.833,50.2697,0,0.000885,0,0
0:3:24.043,395.772,50.3938,0,0.000885,0,0
0:3:24.441,396.479,50.4834,0,0.000885,0,0
0:3:24.836,397.475,50.6075,0,0.000885,0,0
0:3:25.239,397.769,50.642,0,0.000885,0,0
0:3:25.639,398.823,50.7799,0,0.000885,0,0
0:3:26.043,399.877,50.9109,0,0.000885,0,0
0:3:26.444,400.464,50.9867,0,0.000885,0,0
0:3:26.845,401.052,51.0626,0,0.000885,0,0
0:3:27.235,401.523,51.1246,0,0.000885,0,0
0:3:27.644,402.693,51.2694,0,0.000885,0,0
0:3:28.041,403.458,51.3728,0,0.000885,0,0
0:3:28.446,404.161,51.4625,0,0.000885,0,0
0:3:28.840,405.215,51.5935,0,0.000885,0,0
0:3:29.243,406.39,51.7452,0,0.000885,0,0
0:3:29.639,407.035,51.8279,0,0.000885,0,0
0:3:30.047,407.795,51.9244,0,0.000885,0,0
0:3:30.449,408.089,51.9589,0,0.000885,0,0
0:3:30.850,408.618,52.0278,0,0.000885,0,0
0:3:31.251,409.85,52.1864,0,0.000885,0,0
0:3:31.650,410.669,52.2898,0,0.000885,0,0
0:3:32.046,411.607,52.4071,0,0.000885,0,0
0:3:32.446,412.021,52.4622,0,0.000885,0,0
0:3:32.841,412.782,52.5587,0,0.000885,0,0
0:3:33.239,413.898,52.6966,0,0.000885,0,0
0:3:33.644,415.13,52.8552,0,0.000885,0,0
0:3:34.035,415.419,52.8897,0,0.000885,0,0
0:3:34.440,416.185,52.9931,0,0.000885,0,0
0:3:34.845,417.003,53.0965,0,0.000885,0,0
0:3:35.244,417.181,53.1172,0,0.000885,0,0
0:3:35.646,418.235,53.2482,0,0.000885,0,0
0:3:36.049,419.232,53.3792,0,0.000885,0,0
0:3:36.448,420.112,53.4895,0,0.000885,0,0
0:3:36.847,420.877,53.5861,0,0.000885,0,0
0:3:37.244,422.047,53.7377,0,0.000885,0,0
0:3:37.647,422.399,53.7791,0,0.000885,0,0
0:3:38.048,423.048,53.8618,0,0.000885,0,0
0:3:38.446,423.631,53.9377,0,0.000885,0,0
0:3:38.843,424.338,54.0273,0,0.000885,0,0
0:3:39.247,425.686,54.1997,0,0.000885,0,0
0:3:39.649,426.798,54.3445,0,0.000885,0,0
0:3:40.042,427.621,54.4479,0,0.000885,0,0
0:3:40.443,428.266,54.5306,0,0.000885,0,0
0:3:40.846,428.266,54.5306,0,0.000885,0,0
0:3:41.248,429.32,54.6616,0,0.000885,0,0
0:3:41.647,429.907,54.7375,0,0.000885,0,0
0:3:42.043,430.788,54.8478,0,0.000885,0,0
0:3:42.440,431.727,54.9719,0,0.000885,0,0
0:3:42.846,432.429,55.0615,0,0.000885,0,0
0:3:43.249,433.368,55.1787,0,0.000885,0,0
0:3:43.644,434.249,55.2891,0,0.000885,0,0
0:3:44.049,435.009,55.3856,0,0.000885,0,0
0:3:44.446,435.948,55.5097,0,0.000885,0,0
0:3:44.838,436.419,55.5648,0,0.000885,0,0
0:3:45.241,437.358,55.689,0,0.000885,0,0
0:3:45.643,438.119,55.7855,0,0.000885,0,0
0:3:46.045,438.822,55.8751,0,0.000885,0,0
0:3:46.446,439.644,55.9785,0,0.000885,0,0
0:3:46.846,440.877,56.1371,0,0.000885,0,0
0:3:47.241,441.286,56.1854,0,0.000885,0,0
0:3:47.646,442.224,56.3026,0,0.000885,0,0
0:3:48.044,442.402,56.3302,0,0.000885,0,0
0:3:48.446,442.869,56.3853,0,0.000885,0,0
0:3:48.837,444.102,56.5439,0,0.000885,0,0
0:3:49.244,445.098,56.6749,0,0.000885,0,0
0:3:49.641,445.743,56.7507,0,0.000885,0,0
0:3:50.047,446.802,56.8886,0,0.000885,0,0
0:3:50.449,447.327,56.9576,0,0.000885,0,0
0:3:50.850,447.972,57.0403,0,0.000885,0,0
0:3:51.251,448.91,57.1575,0,0.000885,0,0
0:3:51.652,450.142,57.3161,0,0.000885,0,0
0:3:52.043,451.081,57.4333,0,0.000885,0,0
0:3:52.447,452.019,57.5505,0,0.000885,0,0
0:3:52.842,452.429,57.6057,0,0.000885,0,0
0:3:53.237,453.074,57.6884,0,0.000885,0,0
0:3:53.639,453.954,57.7988,0,0.000885,0,0
0:3:54.044,454.893,57.916,0,0.000885,0,0
0:3:54.448,455.538,57.9987,0,0.000885,0,0
0:3:54.845,455.596,58.0056,0,0.000885,0,0
0:3:55.238,456.477,58.1228,0,0.000885,0,0
0:3:55.642,457.473,58.2469,0,0.000885,0,0
0:3:56.043,458.118,58.3296,0,0.000885,0,0
0:3:56.443,459.177,58.4606,0,0.000885,0,0
0:3:56.844,459.995,58.571,0,0.000885,0,0
0:3:57.247,460.818,58.6744,0,0.000885,0,0
0:3:57.650,461.521,58.764,0,0.000885,0,0
0:3:58.044,462.459,58.8812,0,0.000885,0,0
0:3:58.442,463.282,58.9846,0,0.000885,0,0
0:3:58.847,464.101,59.0881,0,0.000885,0,0
0:3:59.250,465.039,59.2122,0,0.000885,0,0
0:3:59.643,465.684,59.2949,0,0.000885,0,0
0:4:0.048,466.623,59.4121,0,0.000885,0,0
0:4:0.445,467.152,59.4811,0,0.000885,0,0
0:4:0.849,468.322,59.6259,0,0.000885,0,0
0:4:1.250,468.909,59.7017,0,0.000885,0,0
0:4:1.649,469.554,59.7844,0,0.000885,0,0
0:4:2.049,470.786,59.943,0,0.000885,0,0
0:4:2.446,471.431,60.0258,0,0.000885,0,0
0:4:2.849,472.019,60.1016,0,0.000885,0,0
0:4:3.250,472.899,60.2119,0,0.000885,0,0
0:4:3.647,473.78,60.3222,0,0.000885,0,0
0:4:4.044,474.131,60.3705,0,0.000885,0,0
0:4:4.448,474.656,60.4325,0,0.000885,0,0
0:4:4.840,475.889,60.5911,0,0.000885,0,0
0:4:5.242,476.418,60.6601,0,0.000885,0,0
0:4:5.646,477.708,60.8255,0,0.000885,0,0
0:4:6.048,478.473,60.9221,0,0.000885,0,0
0:4:6.448,479.056,60.9979,0,0.000885,0,0
0:4:6.852,480.172,61.1358,0,0.000885,0,0
0:4:7.247,480.524,61.1841,0,0.000885,0,0
0:4:7.645,481.64,61.322,0,0.000885,0,0
0:4:8.047,481.814,61.3496,0,0.000885,0,0
0:4:8.450,483.161,61.515,0,0.000885,0,0
0:4:8.845,483.984,61.6253,0,0.000885,0,0
0:4:9.243,484.394,61.6736,0,0.000885,0,0
0:4:9.647,485.216,61.777,0,0.000885,0,0
0:4:10.038,485.568,61.8253,0,0.000885,0,0
0:4:10.439,486.506,61.9425,0,0.000885,0,0
0:4:10.845,487.445,62.0666,0,0.000885,0,0
0:4:11.246,488.032,62.1356,0,0.000885,0,0
0:4:11.647,489.264,62.2941,0,0.000885,0,0
0:4:12.050,490.141,62.4044,0,0.000885,0,0
0:4:12.445,490.728,62.4803,0,0.000885,0,0
0:4:12.851,491.666,62.6044,0,0.000885,0,0
0:4:13.247,493.014,62.7699,0,0.000885,0,0
0:4:13.650,493.659,62.8526,0,0.000885,0,0
0:4:14.052,494.015,62.9009,0,0.000885,0,0
0:4:14.449,494.54,62.9698,0,0.000885,0,0
0:4:14.846,495.243,63.0595,0,0.000885,0,0
0:4:15.250,496.181,63.1767,0,0.000885,0,0
0:4:15.653,497.24,63.3077,0,0.000885,0,0
0:4:16.054,497.707,63.3697,0,0.000885,0,0
0:4:16.455,498.824,63.5145,0,0.000885,0,0
0:4:16.857,499.526,63.6041,0,0.000885,0,0
0:4:17.250,499.878,63.6455,0,0.000885,0,0
0:4:17.644,500.759,63.7558,0,0.000885,0,0
0:4:18.048,501.639,63.873,0,0.000885,0,0
0:4:18.445,502.458,63.9765,0,0.000885,0,0
0:4:18.841,503.632,64.1212,0,0.000885,0,0
0:4:19.247,503.926,64.1626,0,0.000885,0,0
0:4:19.648,504.98,64.2936,0,0.000885,0,0
0:4:20.052,505.918,64.4177,0,0.000885,0,0
0:4:20.452,506.506,64.4936,0,0.000885,0,0
0:4:20.855,507.622,64.6315,0,0.000885,0,0
0:4:21.259,508.325,64.7211,0,0.000885,0,0
0:4:21.658,508.734,64.7762,0,0.000885,0,0
0:4:22.054,509.264,64.8383,0,0.000885,0,0
0:4:22.451,510.26,64.9693,0,0.000885,0,0
0:4:22.845,510.727,65.0314,0,0.000885,0,0
0:4:23.249,511.55,65.1348,0,0.000885,0,0
0:4:23.652,512.489,65.252,0,0.000885,0,0
0:4:24.049,513.836,65.4244,0,0.000885,0,0
0:4:24.445,514.014,65.445,0,0.000885,0,0
0:4:24.848,514.833,65.5485,0,0.000885,0,0
0:4:25.252,515.771,65.6726,0,0.000885,0,0
0:4:25.655,516.536,65.7691,0,0.000885,0,0
0:4:26.058,517.533,65.8932,0,0.000885,0,0
0:4:26.459,518.765,66.0518,0,0.000885,0,0
0:4:26.860,518.996,66.0794,0,0.000885,0,0
0:4:27.253,519.761,66.1759,0,0.000885,0,0
0:4:27.647,520.464,66.2655,0,0.000885,0,0
0:4:28.045,521.167,66.3551,0,0.000885,0,0
0:4:28.441,522.163,66.4861,0,0.000885,0,0
0:4:28.846,522.928,66.5827,0,0.000885,0,0
0:4:29.250,523.867,66.6999,0,0.000885,0,0
0:4:29.646,524.628,66.7964,0,0.000885,0,0
0:4:30.052,525.624,66.9274,0,0.000885,0,0
0:4:30.449,526.153,66.9895,0,0.000885,0,0
0:4:30.853,527.27,67.1343,0,0.000885,0,0
0:4:31.254,527.621,67.1756,0,0.000885,0,0
0:4:31.654,528.382,67.279,0,0.000885,0,0
0:4:32.054,529.73,67.4445,0,0.000885,0,0
0:4:32.447,529.73,67.4445,0,0.000885,0,0
0:4:32.851,530.962,67.6031,0,0.000885,0,0
0:4:33.246,531.371,67.6583,0,0.000885,0,0
0:4:33.653,532.372,67.7824,0,0.000885,0,0
0:4:34.050,533.248,67.8927,0,0.000885,0,0
0:4:34.453,533.778,67.9616,0,0.000885,0,0
0:4:34.847,535.068,68.1271,0,0.000885,0,0
0:4:35.248,536.006,68.2443,0,0.000885,0,0
0:4:35.653,536.242,68.2788,0,0.000885,0,0
0:4:36.053,536.829,68.3477,0,0.000885,0,0
0:4:36.453,537.532,68.4374,0,0.000885,0,0
0:4:36.848,538.586,68.5753,0,0.000885,0,0
0:4:37.252,539.058,68.6373,0,0.000885,0,0
0:4:37.650,540.29,68.789,0,0.000885,0,0
0:4:38.055,540.348,68.7959,0,0.000885,0,0
0:4:38.448,541.522,68.9476,0,0.000885,0,0
0:4:38.840,542.456,69.0648,0,0.000885,0,0
0:4:39.238,543.688,69.2234,0,0.000885,0,0
0:4:39.643,544.275,69.2992,0,0.000885,0,0
0:4:40.050,545.156,69.4095,0,0.000885,0,0
0:4:40.454,545.801,69.4923,0,0.000885,0,0
0:4:40.854,546.446,69.575,0,0.000885,0,0
0:4:41.254,547.207,69.6715,0,0.000885,0,0
0:4:41.653,547.678,69.7336,0,0.000885,0,0
0:4:42.056,548.911,69.8922,0,0.000885,0,0
0:4:42.450,549.671,69.9887,0,0.000885,0,0
0:4:42.847,550.552,70.099,0,0.000885,0,0
0:4:43.254,551.606,70.23,0,0.000885,0,0
0:4:43.647,552.251,70.3127,0,0.000885,0,0
0:4:44.049,552.313,70.3196,0,0.000885,0,0
0:4:44.454,553.719,70.4989,0,0.000885,0,0
0:4:44.850,554.364,70.5816,0,0.000885,0,0
0:4:45.256,554.951,70.6575,0,0.000885,0,0
0:4:45.659,556.126,70.8092,0,0.000885,0,0
0:4:46.061,557.122,70.9333,0,0.000885,0,0
0:4:46.461,557.647,71.0022,0,0.000885,0,0
0:4:46.863,558.292,71.0849,0,0.000885,0,0
0:4:47.256,559.057,71.1815,0,0.000885,0,0
0:4:47.650,559.938,71.2918,0,0.000885,0,0
0:4:48.054,560.405,71.3538,0,0.000885,0,0
0:4:48.454,561.873,71.54,0,0.000885,0,0
0:4:48.858,562.166,71.5745,0,0.000885,0,0
0:4:49.250,563.043,71.6917,0,0.000885,0,0
0:4:49.655,564.275,71.8434,0,0.000885,0,0
0:4:50.051,564.626,71.8916,0,0.000885,0,0
0:4:50.448,564.982,71.933,0,0.000885,0,0
0:4:50.851,565.978,72.064,0,0.000885,0,0
0:4:51.254,566.917,72.1812,0,0.000885,0,0
0:4:51.653,567.735,72.2846,0,0.000885,0,0
0:4:52.054,569.088,72.457,0,0.000885,0,0
0:4:52.448,569.146,72.4639,0,0.000885,0,0
0:4:52.851,569.906,72.5604,0,0.000885,0,0
0:4:53.255,571.023,72.7052,0,0.000885,0,0
0:4:53.653,571.899,72.8155,0,0.000885,0,0
0:4:54.051,572.606,72.9052,0,0.000885,0,0
0:4:54.453,573.131,72.9741,0,0.000885,0,0
0:4:54.845,573.954,73.0775,0,0.000885,0,0
0:4:55.248,574.657,73.1672,0,0.000885,0,0
0:4:55.652,575.422,73.2637,0,0.000885,0,0
0:4:56.052,576.005,73.3395,0,0.000885,0,0
0:4:56.453,576.65,73.4223,0,0.000885,0,0
0:4:56.845,577.415,73.5188,0,0.000885,0,0
0:4:57.254,578.763,73.6912,0,0.000885,0,0
0:4:57.651,579.701,73.8084,0,0.000885,0,0
0:4:58.054,580.404,73.898,0,0.000885,0,0
0:4:58.448,581.343,74.0221,0,0.000885,0,0
0:4:58.852,582.223,74.1324,0,0.000885,0,0
0:4:59.251,582.753,74.2014,0,0.000885,0,0
0:4:59.655,583.34,74.2703,0,0.000885,0,0
0:5:0.058,584.043,74.36,0,0.000885,0,0
0:5:0.462,584.861,74.4703,0,0.000885,0,0
0:5:0.865,585.506,74.5461,0,0.000885,0,0
0:5:1.265,586.387,74.6633,0,0.000885,0,0
0:5:1.668,587.032,74.7461,0,0.000885,0,0
0:5:2.063,588.148,74.884,0,0.000885,0,0
0:5:2.460,589.029,74.9943,0,0.000885,0,0
0:5:2.860,589.79,75.0977,0,0.000885,0,0
0:5:3.258,590.613,75.2011,0,0.000885,0,0
0:5:3.652,591.142,75.2632,0,0.000885,0,0
0:5:4.056,592.081,75.3873,0,0.000885,0,0
0:5:4.456,592.316,75.4149,0,0.000885,0,0
0:5:4.854,593.197,75.5252,0,0.000885,0,0
0:5:5.260,594.371,75.6769,0,0.000885,0,0
0:5:5.664,595.074,75.7665,0,0.000885,0,0
0:5:6.067,596.071,75.8975,0,0.000885,0,0
0:5:6.471,596.658,75.9664,0,0.000885,0,0
0:5:6.873,597.832,76.1181,0,0.000885,0,0
0:5:7.269,598.539,76.2078,0,0.000885,0,0
0:5:7.664,599.127,76.2836,0,0.000885,0,0
0:5:8.064,600.239,76.4284,0,0.000885,0,0
0:5:8.463,601.061,76.5318,0,0.000885,0,0
0:5:8.860,601.591,76.5939,0,0.000885,0,0
0:5:9.253,602.236,76.6766,0,0.000885,0,0
0:5:9.651,602.881,76.7593,0,0.000885,0,0
0:5:10.059,603.704,76.8628,0,0.000885,0,0
0:5:10.455,604.642,76.9869,0,0.000885,0,0
0:5:10.860,604.7,76.9938,0,0.000885,0,0
0:5:11.265,606.052,77.1661,0,0.000885,0,0
0:5:11.667,606.875,77.2695,0,0.000885,0,0
0:5:12.070,607.52,77.3523,0,0.000885,0,0
0:5:12.466,608.517,77.4764,0,0.000885,0,0
0:5:12.862,609.282,77.5729,0,0.000885,0,0
0:5:13.258,610.278,77.7039,0,0.000885,0,0
0:5:13.657,611.101,77.8073,0,0.000885,0,0
0:5:14.055,611.982,77.9177,0,0.000885,0,0
0:5:14.450,612.8,78.0211,0,0.000885,0,0
0:5:14.855,613.272,78.0831,0,0.000885,0,0
0:5:15.258,614.326,78.221,0,0.000885,0,0
0:5:15.663,614.62,78.2555,0,0.000885,0,0
0:5:16.065,615.794,78.4072,0,0.000885,0,0
0:5:16.469,616.501,78.4968,0,0.000885,0,0
0:5:16.864,617.556,78.6278,0,0.000885,0,0
0:5:17.265,617.849,78.6692,0,0.000885,0,0
0:5:17.662,619.259,78.8484,0,0.000885,0,0
0:5:18.056,619.495,78.876,0,0.000885,0,0
0:5:18.451,619.962,78.9381,0,0.000885,0,0
0:5:18.858,621.43,79.1242,0,0.000885,0,0
0:5:19.258,621.608,79.1449,0,0.000885,0,0
0:5:19.655,622.368,79.2414,0,0.000885,0,0
0:5:20.060,623.721,79.4138,0,0.000885,0,0
0:5:20.465,624.072,79.4621,0,0.000885,0,0
0:5:20.868,624.775,79.5517,0,0.000885,0,0
0:5:21.270,625.949,79.6965,0,0.000885,0,0
0:5:21.674,626.421,79.7586,0,0.000885,0,0
0:5:22.069,627.359,79.8758,0,0.000885,0,0
0:5:22.465,627.889,79.9447,0,0.000885,0,0
0:5:22.864,628.827,80.0619,0,0.000885,0,0
0:5:23.263,629.588,80.1584,0,0.000885,0,0
0:5:23.660,630.882,80.3239,0,0.000885,0,0
0:5:24.053,631.585,80.4136,0,0.000885,0,0
0:5:24.461,632.288,80.5032,0,0.000885,0,0
0:5:24.860,633.231,80.6273,0,0.000885,0,0
0:5:25.258,633.934,80.7169,0,0.000885,0,0
0:5:25.662,634.872,80.8341,0,0.000885,0,0
0:5:26.066,635.402,80.9031,0,0.000885,0,0
0:5:26.468,636.518,81.041,0,0.000885,0,0
0:5:26.870,636.985,81.103,0,0.000885,0,0
0:5:27.268,637.866,81.2133,0,0.000885,0,0
0:5:27.663,638.217,81.2616,0,0.000885,0,0
0:5:28.056,638.983,81.3581,0,0.000885,0,0
0:5:28.455,639.921,81.4753,0,0.000885,0,0
0:5:28.855,640.388,81.5374,0,0.000885,0,0
0:5:29.251,641.153,81.6339,0,0.000885,0,0
0:5:29.644,642.034,81.7442,0,0.000885,0,0
0:5:30.054,642.563,81.8132,0,0.000885,0,0
0:5:30.456,644.089,82.0062,0,0.000885,0,0
0:5:30.863,644.792,82.0959,0,0.000885,0,0
0:5:31.265,645.793,82.2269,0,0.000885,0,0
0:5:31.666,646.086,82.2613,0,0.000885,0,0
0:5:32.065,647.025,82.3786,0,0.000885,0,0
0:5:32.465,647.964,82.5027,0,0.000885,0,0
0:5:32.863,648.493,82.5716,0,0.000885,0,0
0:5:33.259,649.605,82.7095,0,0.000885,0,0
0:5:33.652,650.25,82.7922,0,0.000885,0,0
0:5:34.048,651.073,82.8957,0,0.000885,0,0
0:5:34.448,651.78,82.9853,0,0.000885,0,0
0:5:34.855,652.305,83.0542,0,0.000885,0,0
0:5:35.248,653.012,83.1439,0,0.000885,0,0
0:5:35.655,654.538,83.3369,0,0.000885,0,0
0:5:36.059,655.005,83.399,0,0.000885,0,0
0:5:36.462,655.944,83.5162,0,0.000885,0,0
0:5:36.864,656.651,83.6058,0,0.000885,0,0
0:5:37.259,657.474,83.7092,0,0.000885,0,0
0:5:37.655,658.234,83.8058,0,0.000885,0,0
0:5:38.054,658.822,83.8816,0,0.000885,0,0
0:5:38.449,659.587,83.9781,0,0.000885,0,0
0:5:38.844,660.112,84.0471,0,0.000885,0,0
0:5:39.248,661.228,84.1919,0,0.000885,0,0
0:5:39.658,661.873,84.2746,0,0.000885,0,0
0:5:40.055,662.345,84.3298,0,0.000885,0,0
0:5:40.454,663.635,84.4953,0,0.000885,0,0
0:5:40.859,664.106,84.5573,0,0.000885,0,0
0:5:41.262,665.103,84.6814,0,0.000885,0,0
0:5:41.665,666.099,84.8124,0,0.000885,0,0
0:5:42.069,666.922,84.9158,0,0.000885,0,0
0:5:42.465,667.86,85.033,0,0.000885,0,0
0:5:42.860,668.332,85.0951,0,0.000885,0,0
0:5:43.254,669.035,85.1847,0,0.000885,0,0
0:5:43.650,670.036,85.3088,0,0.000885,0,0
0:5:44.061,670.738,85.3985,0,0.000885,0,0
0:5:44.455,671.441,85.4881,0,0.000885,0,0
0:5:44.861,672.38,85.6122,0,0.000885,0,0
0:5:45.265,673.323,85.7294,0,0.000885,0,0
0:5:45.669,673.848,85.7984,0,0.000885,0,0
0:5:46.072,674.786,85.9156,0,0.000885,0,0
0:5:46.475,675.787,86.0466,0,0.000885,0,0
0:5:46.872,676.139,86.0879,0,0.000885,0,0
0:5:47.270,676.374,86.1155,0,0.000885,0,0
0:5:47.668,677.135,86.2189,0,0.000885,0,0
0:5:48.064,678.661,86.412,0,0.000885,0,0
0:5:48.458,679.599,86.5292,0,0.000885,0,0
0:5:48.856,680.186,86.605,0,0.000885,0,0
0:5:49.258,680.894,86.6947,0,0.000885,0,0
0:5:49.664,681.597,86.7843,0,0.000885,0,0
0:5:50.060,682.535,86.9015,0,0.000885,0,0
0:5:50.465,683.474,87.0256,0,0.000885,0,0
0:5:50.867,683.709,87.0532,0,0.000885,0,0
0:5:51.271,684.354,87.1359,0,0.000885,0,0
0:5:51.673,685.235,87.2463,0,0.000885,0,0
0:5:52.068,686.352,87.391,0,0.000885,0,0
0:5:52.467,687.232,87.5014,0,0.000885,0,0
0:5:52.866,688.113,87.6117,0,0.000885,0,0
0:5:53.262,689.167,87.7496,0,0.000885,0,0
0:5:53.655,689.403,87.7772,0,0.000885,0,0
0:5:54.060,690.048,87.8599,0,0.000885,0,0
0:5:54.461,691.222,88.0116,0,0.000885,0,0
0:5:54.859,692.161,88.1288,0,0.000885,0,0
0:5:55.263,692.984,88.2322,0,0.000885,0,0
0:5:55.666,693.865,88.3425,0,0.000885,0,0
0:5:56.069,693.865,88.3425,0,0.000885,0,0
0:5:56.472,694.981,88.4873,0,0.000885,0,0
0:5:56.874,696.213,88.6459,0,0.000885,0,0
0:5:57.268,696.978,88.7424,0,0.000885,0,0
0:5:57.664,697.446,88.8045,0,0.000885,0,0
0:5:58.063,698.148,88.8941,0,0.000885,0,0
0:5:58.462,698.913,88.9906,0,0.000885,0,0
0:5:58.856,699.501,89.0665,0,0.000885,0,0
0:5:59.261,700.324,89.1699,0,0.000885,0,0
0:5:59.660,701.204,89.2802,0,0.000885,0,0
0:6:0.059,701.729,89.3492,0,0.000885,0,0
0:6:0.465,702.846,89.4871,0,0.000885,0,0
0:6:0.867,703.669,89.5905,0,0.000885,0,0
0:6:1.270,704.549,89.7077,0,0.000885,0,0
0:6:1.669,705.546,89.8318,0,0.000885,0,0
0:6:2.069,706.017,89.8938,0,0.000885,0,0
0:6:2.463,706.604,89.9697,0,0.000885,0,0
0:6:2.859,707.543,90.0869,0,0.000885,0,0
0:6:3.256,708.246,90.1765,0,0.000885,0,0
0:6:3.666,709.247,90.3006,0,0.000885,0,0
0:6:4.063,710.185,90.4247,0,0.000885,0,0
0:6:4.457,711.182,90.5488,0,0.000885,0,0
0:6:4.864,711.653,90.6109,0,0.000885,0,0
0:6:5.264,712.356,90.7005,0,0.000885,0,0
0:6:5.670,712.823,90.7626,0,0.000885,0,0
0:6:6.074,713.53,90.8522,0,0.000885,0,0
0:6:6.477,714.527,90.9763,0,0.000885,0,0
0:6:6.876,715.407,91.0866,0,0.000885,0,0
0:6:7.276,715.995,91.1625,0,0.000885,0,0
0:6:7.672,716.818,91.2659,0,0.000885,0,0
0:6:8.066,717.992,91.4176,0,0.000885,0,0
0:6:8.463,718.579,91.4934,0,0.000885,0,0
0:6:8.862,718.873,91.5279,0,0.000885,0,0
0:6:9.260,720.22,91.7003,0,0.000885,0,0
0:6:9.652,721.101,91.8106,0,0.000885,0,0
0:6:10.060,721.515,91.8657,0,0.000885,0,0
0:6:10.462,722.627,92.0105,0,0.000885,0,0
0:6:10.867,723.921,92.1691,0,0.000885,0,0
0:6:11.270,724.153,92.2036,0,0.000885,0,0
0:6:11.672,725.033,92.3139,0,0.000885,0,0
0:6:12.068,725.856,92.4173,0,0.000885,0,0
0:6:12.468,726.795,92.5414,0,0.000885,0,0
0:6:12.866,727.031,92.569,0,0.000885,0,0
0:6:13.260,728.263,92.7276,0,0.000885,0,0
0:6:13.664,728.792,92.7896,0,0.000885,0,0
0:6:14.063,729.495,92.8793,0,0.000885,0,0
0:6:14.461,730.376,92.9965,0,0.000885,0,0
0:6:14.866,730.785,93.0447,0,0.000885,0,0
0:6:15.261,731.55,93.1413,0,0.000885,0,0
0:6:15.665,732.253,93.2309,0,0.000885,0,0
0:6:16.070,733.547,93.3964,0,0.000885,0,0
0:6:16.471,734.072,93.4653,0,0.000885,0,0
0:6:16.873,734.779,93.555,0,0.000885,0,0
0:6:17.269,735.66,93.6653,0,0.000885,0,0
0:6:17.668,736.19,93.7342,0,0.000885,0,0
0:6:18.068,737.422,93.8928,0,0.000885,0,0
0:6:18.462,738.067,93.9755,0,0.000885,0,0
0:6:18.868,739.299,94.1272,0,0.000885,0,0
0:6:19.264,740.122,94.2375,0,0.000885,0,0
0:6:19.661,740.06,94.2306,0,0.000885,0,0
0:6:20.060,741.176,94.3685,0,0.000885,0,0
0:6:20.464,741.705,94.4375,0,0.000885,0,0
0:6:20.868,742.938,94.5961,0,0.000885,0,0
0:6:21.270,743.347,94.6443,0,0.000885,0,0
0:6:21.671,744.521,94.796,0,0.000885,0,0
0:6:22.065,745.402,94.9063,0,0.000885,0,0
0:6:22.460,746.283,95.0167,0,0.000885,0,0
0:6:22.857,746.928,95.0994,0,0.000885,0,0
0:6:23.254,747.515,95.1752,0,0.000885,0,0
0:6:23.651,748.516,95.3062,0,0.000885,0,0
0:6:24.054,748.809,95.3407,0,0.000885,0,0
0:6:24.452,749.334,95.4097,0,0.000885,0,0
0:6:24.850,750.628,95.5751,0,0.000885,0,0
0:6:25.249,751.567,95.6923,0,0.000885,0,0
0:6:25.653,752.448,95.8027,0,0.000885,0,0
0:6:26.058,753.329,95.9199,0,0.000885,0,0
0:6:26.460,753.858,95.9819,0,0.000885,0,0
0:6:26.862,754.734,96.0991,0,0.000885,0,0
0:6:27.259,755.677,96.2163,0,0.000885,0,0
0:6:27.664,756.38,96.306,0,0.000885,0,0
0:6:28.059,756.967,96.3818,0,0.000885,0,0
0:6:28.459,757.612,96.4645,0,0.000885,0,0
0:6:28.868,758.671,96.5955,0,0.000885,0,0
0:6:29.262,759.138,96.6576,0,0.000885,0,0
0:6:29.654,760.548,96.8369,0,0.000885,0,0
0:6:30.051,761.015,96.8989,0,0.000885,0,0
0:6:30.452,761.78,96.9954,0,0.000885,0,0
0:6:30.859,762.839,97.1264,0,0.000885,0,0
0:6:31.261,763.542,97.2161,0,0.000885,0,0
0:6:31.662,764.889,97.3884,0,0.000885,0,0
0:6:32.061,764.832,97.3816,0,0.000885,0,0
0:6:32.469,765.89,97.5194,0,0.000885,0,0
0:6:32.865,766.184,97.5539,0,0.000885,0,0
0:6:33.259,766.829,97.6367,0,0.000885,0,0
0:6:33.654,767.416,97.7125,0,0.000885,0,0
0:6:34.054,768.239,97.8159,0,0.000885,0,0
0:6:34.462,769.587,97.9883,0,0.000885,0,0
0:6:34.856,770.468,98.0986,0,0.000885,0,0
0:6:35.262,771.29,98.202,0,0.000885,0,0
0:6:35.666,771.7,98.2572,0,0.000885,0,0
0:6:36.069,772.932,98.4158,0,0.000885,0,0
0:6:36.471,773.168,98.4433,0,0.000885,0,0
0:6:36.866,773.87,98.533,0,0.000885,0,0
0:6:37.263,774.929,98.664,0,0.000885,0,0
0:6:37.662,775.926,98.795,0,0.000885,0,0
0:6:38.068,777.042,98.9329,0,0.000885,0,0
0:6:38.463,777.745,99.0225,0,0.000885,0,0
0:6:38.867,777.981,99.057,0,0.000885,0,0
0:6:39.268,778.861,99.1673,0,0.000885,0,0
0:6:39.665,779.92,99.3052,0,0.000885,0,0
0:6:40.069,780.623,99.3948,0,0.000885,0,0
0:6:40.472,782.033,99.5741,0,0.000885,0,0
0:6:40.875,778.688,99.1466,0,0.000885,0,0
0:6:41.276,779.333,99.2293,0,0.000885,0,0
0:6:41.678,781.152,99.4569,0,0.000885,0,0
0:6:42.073,783.323,99.7327,0,0.000885,0,0
0:6:42.470,785.027,99.9533,0,0.000885,0,0
0:6:42.867,785.551,100.022,0,0.000885,0,0
0:6:43.266,786.846,100.181,0,0.000885,0,0
0:6:43.663,787.958,100.326,0,0.000885,0,0
0:6:44.067,789.546,100.526,0,0.000885,0,0
0:6:44.464,789.719,100.553,0,0.000885,0,0
0:6:44.864,790.778,100.684,0,0.000885,0,0
0:6:45.270,792.01,100.843,0,0.000885,0,0
0:6:45.674,792.246,100.87,0,0.000885,0,0
0:6:46.077,793.3,101.008,0,0.000885,0,0
0:6:46.480,793.772,101.063,0,0.000885,0,0
0:6:46.883,794.653,101.181,0,0.000885,0,0
0:6:47.279,794.888,101.208,0,0.000885,0,0
0:6:47.674,795.943,101.346,0,0.000885,0,0
0:6:48.070,796.53,101.415,0,0.000885,0,0
0:6:48.468,797.353,101.525,0,0.000885,0,0
0:6:48.866,798.291,101.643,0,0.000885,0,0
0:6:49.269,796.765,101.449,0,0.000885,0,0
0:6:49.664,791.952,100.836,0,0.000885,0,0
0:6:50.062,791.365,100.76,0,0.000885,0,0
0:6:50.470,793.069,100.974,0,0.000885,0,0
0:6:50.874,796.12,101.367,0,0.000885,0,0
0:6:50.974,796.12,101.367,0,0.000885,0,0