File: DataFile2021-06-24_060132.csv
Test ID:,Date Tested:,Time:,Test Type:,Diameter Avg. (mm):,Cyl. Corr. Factor:,Height (mm):,Age (days):,Weight (kN):,Break Type:,Ramp Rate (MPa/s):,Load at Break (kN):,Stress at Break (MPa):
12,6/24/2021,06:01,Cylinder,150,1,300,0,3.6,3,0.21,608.34,34.43
Sample Time,Load (kN),Stress (MPa),Long. Strain,Trans. Strain,Chan1 Deflection (mm),Chan2 Deflection (mm)
0:0:19.581,7.86001,0.448159,0,0.000885,0,0
0:0:19.781,18.6514,1.0549,0,0.000885,0,0
0:0:19.974,19.7634,1.11695,0,0.000885,0,0
0:0:20.175,19.9992,1.13074,0,0.000885,0,0
0:0:20.383,19.59,1.11006,0,0.000885,0,0
0:0:20.592,18.8871,1.06869,0,0.000885,0,0
0:0:20.791,18.8249,1.06869,0,0.000885,0,0
0:0:20.988,18.4735,1.048,0,0.000885,0,0
0:0:21.189,18.4156,1.04111,0,0.000885,0,0
0:0:21.385,18.4156,1.04111,0,0.000885,0,0
0:0:21.583,18.1221,1.02732,0,0.000885,0,0
0:0:21.784,18.1799,1.02732,0,0.000885,0,0
0:0:21.976,18.0642,1.02042,0,0.000885,0,0
0:0:22.178,18.3,1.03421,0,0.000885,0,0
0:0:22.388,17.8863,1.01353,0,0.000885,0,0
0:0:22.583,17.655,0.99974,0,0.000885,0,0
0:0:22.785,18.7092,1.06179,0,0.000885,0,0
0:0:22.989,19.0606,1.07558,0,0.000885,0,0
0:0:23.189,19.0606,1.07558,0,0.000885,0,0
0:0:23.388,19.9414,1.13074,0,0.000885,0,0
0:0:23.583,20.9956,1.1859,0,0.000885,0,0
0:0:23.786,21.7607,1.23416,0,0.000885,0,0
0:0:23.983,23.1663,1.31,0,0.000885,0,0
0:0:24.182,24.2828,1.37206,0,0.000885,0,0
0:0:24.383,25.9821,1.46858,0,0.000885,0,0
0:0:24.575,26.8628,1.51685,0,0.000885,0,0
0:0:24.778,27.917,1.5789,0,0.000885,0,0
0:0:24.983,29.5006,1.66853,0,0.000885,0,0
0:0:25.186,30.3235,1.71679,0,0.000885,0,0
0:0:25.389,31.7292,1.79264,0,0.000885,0,0
0:0:25.590,32.432,1.83401,0,0.000885,0,0
0:0:25.792,33.8999,1.91674,0,0.000885,0,0
0:0:25.994,33.9577,1.92364,0,0.000885,0,0
0:0:26.195,35.5413,2.01327,0,0.000885,0,0
0:0:26.397,36.2441,2.04774,0,0.000885,0,0
0:0:26.594,37.1827,2.1029,0,0.000885,0,0
0:0:26.793,37.5964,2.13048,0,0.000885,0,0
0:0:26.993,38.5349,2.17874,0,0.000885,0,0
0:0:27.190,39.1799,2.22011,0,0.000885,0,0
0:0:27.393,39.8828,2.25459,0,0.000885,0,0
0:0:27.590,40.2342,2.27527,0,0.000885,0,0
0:0:27.789,41.3507,2.33732,0,0.000885,0,0
0:0:27.990,41.9334,2.3718,0,0.000885,0,0
0:0:28.187,43.4591,2.46143,0,0.000885,0,0
0:0:28.389,44.282,2.5028,0,0.000885,0,0
0:0:28.586,45.572,2.57864,0,0.000885,0,0
0:0:28.783,45.9234,2.59932,0,0.000885,0,0
0:0:28.985,47.0355,2.66138,0,0.000885,0,0
0:0:29.178,47.4492,2.68206,0,0.000885,0,0
0:0:29.382,48.152,2.72343,0,0.000885,0,0
0:0:29.578,49.1484,2.77859,0,0.000885,0,0
0:0:29.775,49.7356,2.81306,0,0.000885,0,0
0:0:29.977,51.0255,2.8889,0,0.000885,0,0
0:0:30.183,51.5549,2.91648,0,0.000885,0,0
0:0:30.386,52.787,2.98543,0,0.000885,0,0
0:0:30.589,53.7256,3.04059,0,0.000885,0,0
0:0:30.790,55.1313,3.11643,0,0.000885,0,0
0:0:30.992,55.8341,3.1578,0,0.000885,0,0
0:0:31.194,57.2442,3.24054,0,0.000885,0,0
0:0:31.395,58.0626,3.2888,0,0.000885,0,0
0:0:31.596,58.6498,3.31638,0,0.000885,0,0
0:0:31.792,59.4727,3.36464,0,0.000885,0,0
0:0:31.995,60.6426,3.43359,0,0.000885,0,0
0:0:32.191,61.1141,3.46117,0,0.000885,0,0
0:0:32.392,61.8748,3.50254,0,0.000885,0,0
0:0:32.593,62.9334,3.56459,0,0.000885,0,0
0:0:32.788,64.2234,3.63354,0,0.000885,0,0
0:0:32.990,64.5748,3.65422,0,0.000885,0,0
0:0:33.189,65.8648,3.73006,0,0.000885,0,0
0:0:33.386,66.2741,3.75075,0,0.000885,0,0
0:0:33.588,67.4484,3.8197,0,0.000885,0,0
0:0:33.783,67.742,3.83349,0,0.000885,0,0
0:0:33.983,68.4448,3.87485,0,0.000885,0,0
0:0:34.183,69.6769,3.9438,0,0.000885,0,0
0:0:34.376,70.3798,3.98517,0,0.000885,0,0
0:0:34.578,71.4384,4.04033,0,0.000885,0,0
0:0:34.776,72.4927,4.10238,0,0.000885,0,0
0:0:34.976,73.3734,4.15064,0,0.000885,0,0
0:0:35.178,74.0184,4.18512,0,0.000885,0,0
0:0:35.385,75.2506,4.26096,0,0.000885,0,0
0:0:35.586,75.7176,4.28164,0,0.000885,0,0
0:0:35.789,77.1855,4.36438,0,0.000885,0,0
0:0:35.992,77.8884,4.40575,0,0.000885,0,0
0:0:36.192,79.4141,4.49538,0,0.000885,0,0
0:0:36.394,80.0013,4.52986,0,0.000885,0,0
0:0:36.596,80.8197,4.57122,0,0.000885,0,0
0:0:36.795,81.5848,4.61949,0,0.000885,0,0
0:0:36.992,82.1675,4.64707,0,0.000885,0,0
0:0:37.193,82.5234,4.66775,0,0.000885,0,0
0:0:37.389,84.1648,4.76428,0,0.000885,0,0
0:0:37.589,84.6319,4.79186,0,0.000885,0,0
0:0:37.791,85.6283,4.84701,0,0.000885,0,0
0:0:37.986,86.042,4.8677,0,0.000885,0,0
0:0:38.189,87.6255,4.95733,0,0.000885,0,0
0:0:38.385,88.0926,4.98491,0,0.000885,0,0
0:0:38.585,89.2669,5.05386,0,0.000885,0,0
0:0:38.786,90.1477,5.10212,0,0.000885,0,0
0:0:38.991,91.6111,5.18486,0,0.000885,0,0
0:0:39.193,91.669,5.18486,0,0.000885,0,0
0:0:39.391,92.4919,5.23312,0,0.000885,0,0
0:0:39.589,93.8397,5.30896,0,0.000885,0,0
0:0:39.790,94.4268,5.34344,0,0.000885,0,0
0:0:39.994,95.8369,5.42617,0,0.000885,0,0
0:0:40.196,96.0104,5.43307,0,0.000885,0,0
0:0:40.399,97.4205,5.51581,0,0.000885,0,0
0:0:40.600,97.8876,5.53649,0,0.000885,0,0
0:0:40.802,98.9418,5.59854,0,0.000885,0,0
0:0:41.003,99.7647,5.64681,0,0.000885,0,0
0:0:41.205,100.939,5.70886,0,0.000885,0,0
0:0:41.406,101.348,5.73644,0,0.000885,0,0
0:0:41.602,102.874,5.81918,0,0.000885,0,0
0:0:41.804,103.341,5.84675,0,0.000885,0,0
0:0:42.002,104.925,5.93639,0,0.000885,0,0
0:0:42.201,105.454,5.97086,0,0.000885,0,0
0:0:42.402,106.628,6.03291,0,0.000885,0,0
0:0:42.598,106.98,6.0536,0,0.000885,0,0
0:0:42.799,108.328,6.12944,0,0.000885,0,0
0:0:42.998,108.795,6.15702,0,0.000885,0,0
0:0:43.195,110.147,6.23286,0,0.000885,0,0
0:0:43.397,110.378,6.24665,0,0.000885,0,0
0:0:43.593,111.379,6.30181,0,0.000885,0,0
0:0:43.793,111.846,6.32939,0,0.000885,0,0
0:0:43.993,113.194,6.40523,0,0.000885,0,0
0:0:44.191,113.839,6.4397,0,0.000885,0,0
0:0:44.392,114.546,6.48107,0,0.000885,0,0
0:0:44.589,115.543,6.53623,0,0.000885,0,0
0:0:44.788,116.423,6.59139,0,0.000885,0,0
0:0:44.991,117.126,6.62586,0,0.000885,0,0
0:0:45.194,118.18,6.68791,0,0.000885,0,0
0:0:45.396,119.47,6.76376,0,0.000885,0,0
0:0:45.598,120.058,6.79134,0,0.000885,0,0
0:0:45.801,121.232,6.86028,0,0.000885,0,0
0:0:46.001,121.877,6.89476,0,0.000885,0,0
0:0:46.204,123.225,6.9706,0,0.000885,0,0
0:0:46.406,123.576,6.99128,0,0.000885,0,0
0:0:46.604,125.16,7.08092,0,0.000885,0,0
0:0:46.803,125.569,7.10849,0,0.000885,0,0
0:0:47.005,126.45,7.15676,0,0.000885,0,0
0:0:47.200,127.624,7.21881,0,0.000885,0,0
0:0:47.402,128.563,7.27397,0,0.000885,0,0
0:0:47.600,129.15,7.30844,0,0.000885,0,0
0:0:47.798,130.382,7.37739,0,0.000885,0,0
0:0:48.000,130.907,7.40497,0,0.000885,0,0
0:0:48.196,131.965,7.46702,0,0.000885,0,0
0:0:48.398,132.784,7.51529,0,0.000885,0,0
0:0:48.598,133.958,7.57734,0,0.000885,0,0
0:0:48.792,134.661,7.61871,0,0.000885,0,0
0:0:48.994,135.133,7.64629,0,0.000885,0,0
0:0:49.191,136.48,7.72213,0,0.000885,0,0
0:0:49.391,136.89,7.74971,0,0.000885,0,0
0:0:49.593,137.77,7.79797,0,0.000885,0,0
0:0:49.788,138.531,7.83934,0,0.000885,0,0
0:0:49.989,139.647,7.90139,0,0.000885,0,0
0:0:50.191,140.292,7.93587,0,0.000885,0,0
0:0:50.394,141.405,8.00481,0,0.000885,0,0
0:0:50.597,141.76,8.0186,0,0.000885,0,0
0:0:50.800,143.166,8.10134,0,0.000885,0,0
0:0:51.002,143.633,8.12892,0,0.000885,0,0
0:0:51.202,145.217,8.21855,0,0.000885,0,0
0:0:51.404,145.924,8.25992,0,0.000885,0,0
0:0:51.606,147.445,8.34266,0,0.000885,0,0
0:0:51.802,147.565,8.34955,0,0.000885,0,0
0:0:52.003,148.913,8.42539,0,0.000885,0,0
0:0:52.203,149.558,8.45987,0,0.000885,0,0
0:0:52.399,150.555,8.52192,0,0.000885,0,0
0:0:52.601,151.32,8.56329,0,0.000885,0,0
0:0:52.800,152.552,8.63224,0,0.000885,0,0
0:0:52.997,153.134,8.66671,0,0.000885,0,0
0:0:53.199,154.251,8.72876,0,0.000885,0,0
0:0:53.393,154.367,8.73566,0,0.000885,0,0
0:0:53.595,154.954,8.77013,0,0.000885,0,0
0:0:53.795,156.48,8.85287,0,0.000885,0,0
0:0:53.993,156.947,8.88045,0,0.000885,0,0
0:0:54.194,158.299,8.95629,0,0.000885,0,0
0:0:54.390,158.886,8.99076,0,0.000885,0,0
0:0:54.591,159.589,9.03213,0,0.000885,0,0
0:0:54.791,160.407,9.0804,0,0.000885,0,0
0:0:54.988,161.697,9.14934,0,0.000885,0,0
0:0:55.190,161.933,9.16313,0,0.000885,0,0
0:0:55.393,163.637,9.25966,0,0.000885,0,0
0:0:55.597,163.988,9.28034,0,0.000885,0,0
0:0:55.800,165.158,9.34929,0,0.000885,0,0
0:0:56.002,165.981,9.39066,0,0.000885,0,0
0:0:56.203,167.68,9.48719,0,0.000885,0,0
0:0:56.403,168.387,9.52855,0,0.000885,0,0
0:0:56.606,169.148,9.56992,0,0.000885,0,0
0:0:56.807,169.677,9.6044,0,0.000885,0,0
0:0:57.003,170.789,9.66645,0,0.000885,0,0
0:0:57.205,171.67,9.71471,0,0.000885,0,0
0:0:57.403,172.845,9.78366,0,0.000885,0,0
0:0:57.601,173.076,9.79745,0,0.000885,0,0
0:0:57.803,174.78,9.88708,0,0.000885,0,0
0:0:57.999,175.425,9.92845,0,0.000885,0,0
0:0:58.201,175.892,9.95603,0,0.000885,0,0
0:0:58.399,177.302,10.0319,0,0.000885,0,0
0:0:58.594,177.769,10.0595,0,0.000885,0,0
0:0:58.798,178.885,10.1215,0,0.000885,0,0
0:0:58.995,179.237,10.1422,0,0.000885,0,0
0:0:59.194,180.117,10.1905,0,0.000885,0,0
0:0:59.395,180.584,10.218,0,0.000885,0,0
0:0:59.591,182.11,10.3077,0,0.000885,0,0
0:0:59.792,182.64,10.3352,0,0.000885,0,0
0:0:59.994,183.694,10.3973,0,0.000885,0,0
0:1:0.198,184.223,10.4249,0,0.000885,0,0
0:1:0.400,185.864,10.5145,0,0.000885,0,0
0:1:0.602,186.158,10.5352,0,0.000885,0,0
0:1:0.804,187.622,10.6179,0,0.000885,0,0
0:1:1.007,188.444,10.6662,0,0.000885,0,0
0:1:1.207,189.441,10.7213,0,0.000885,0,0
0:1:1.409,189.912,10.7489,0,0.000885,0,0
0:1:1.607,191.376,10.8317,0,0.000885,0,0
0:1:1.806,192.199,10.873,0,0.000885,0,0
0:1:2.006,193.08,10.9282,0,0.000885,0,0
0:1:2.202,193.547,10.9558,0,0.000885,0,0
0:1:2.403,194.543,11.0109,0,0.000885,0,0
0:1:2.596,195.424,11.0592,0,0.000885,0,0
0:1:2.794,196.011,11.0937,0,0.000885,0,0
0:1:2.994,197.065,11.1488,0,0.000885,0,0
0:1:3.189,197.359,11.1695,0,0.000885,0,0
0:1:3.390,198.769,11.2453,0,0.000885,0,0
0:1:3.586,199.529,11.2936,0,0.000885,0,0
0:1:3.781,200.762,11.3626,0,0.000885,0,0
0:1:3.980,201.464,11.4039,0,0.000885,0,0
0:1:4.175,202.519,11.4591,0,0.000885,0,0
0:1:4.375,203.457,11.5142,0,0.000885,0,0
0:1:4.573,204.632,11.5832,0,0.000885,0,0
0:1:4.768,204.983,11.597,0,0.000885,0,0
0:1:4.970,205.922,11.6521,0,0.000885,0,0
0:1:5.172,206.624,11.6935,0,0.000885,0,0
0:1:5.373,207.505,11.7418,0,0.000885,0,0
0:1:5.575,208.444,11.7969,0,0.000885,0,0
0:1:5.776,209.618,11.859,0,0.000885,0,0
0:1:5.975,210.263,11.9004,0,0.000885,0,0
0:1:6.175,210.908,11.9348,0,0.000885,0,0
0:1:6.376,211.904,11.99,0,0.000885,0,0
0:1:6.577,212.901,12.0451,0,0.000885,0,0
0:1:6.770,214.311,12.1279,0,0.000885,0,0
0:1:6.969,214.778,12.1555,0,0.000885,0,0
0:1:7.176,215.774,12.2106,0,0.000885,0,0
0:1:7.374,216.477,12.252,0,0.000885,0,0
0:1:7.574,217.651,12.314,0,0.000885,0,0
0:1:7.789,217.887,12.3278,0,0.000885,0,0
0:1:7.990,219.293,12.4106,0,0.000885,0,0
0:1:8.187,219.88,12.445,0,0.000885,0,0
0:1:8.393,220.934,12.5002,0,0.000885,0,0
0:1:8.593,221.584,12.5416,0,0.000885,0,0
0:1:8.787,222.874,12.6105,0,0.000885,0,0
0:1:8.987,223.577,12.6519,0,0.000885,0,0
0:1:9.186,224.515,12.707,0,0.000885,0,0
0:1:9.379,225.102,12.7415,0,0.000885,0,0
0:1:9.580,225.921,12.7829,0,0.000885,0,0
0:1:9.787,226.801,12.8311,0,0.000885,0,0
0:1:9.982,227.798,12.8932,0,0.000885,0,0
0:1:10.183,228.501,12.9277,0,0.000885,0,0
0:1:10.388,229.381,12.9828,0,0.000885,0,0
0:1:10.589,230.556,13.0449,0,0.000885,0,0
0:1:10.789,231.846,13.1207,0,0.000885,0,0
0:1:10.990,232.255,13.1414,0,0.000885,0,0
0:1:11.191,233.251,13.1966,0,0.000885,0,0
0:1:11.392,233.839,13.231,0,0.000885,0,0
0:1:11.591,235.249,13.3138,0,0.000885,0,0
0:1:11.790,236.125,13.362,0,0.000885,0,0
0:1:11.983,236.419,13.3758,0,0.000885,0,0
0:1:12.187,237.535,13.4448,0,0.000885,0,0
0:1:12.390,238.296,13.4861,0,0.000885,0,0
0:1:12.589,239.586,13.5551,0,0.000885,0,0
0:1:12.789,240.524,13.6103,0,0.000885,0,0
0:1:12.993,241.463,13.6654,0,0.000885,0,0
0:1:13.193,241.934,13.693,0,0.000885,0,0
0:1:13.389,243.166,13.7619,0,0.000885,0,0
0:1:13.587,243.754,13.7964,0,0.000885,0,0
0:1:13.786,244.75,13.8516,0,0.000885,0,0
0:1:13.979,245.569,13.8998,0,0.000885,0,0
0:1:14.180,246.685,13.9619,0,0.000885,0,0
0:1:14.387,247.566,14.0101,0,0.000885,0,0
0:1:14.583,248.971,14.086,0,0.000885,0,0
0:1:14.783,249.207,14.0998,0,0.000885,0,0
0:1:14.983,250.964,14.2032,0,0.000885,0,0
0:1:15.187,251.316,14.2239,0,0.000885,0,0
0:1:15.389,252.254,14.2721,0,0.000885,0,0
0:1:15.590,252.899,14.3135,0,0.000885,0,0
0:1:15.791,253.78,14.3618,0,0.000885,0,0
0:1:15.990,254.603,14.41,0,0.000885,0,0
0:1:16.191,255.306,14.4445,0,0.000885,0,0
0:1:16.389,256.129,14.4928,0,0.000885,0,0
0:1:16.582,256.711,14.5273,0,0.000885,0,0
0:1:16.783,257.712,14.5824,0,0.000885,0,0
0:1:16.990,258.651,14.6376,0,0.000885,0,0
0:1:17.189,259.469,14.6858,0,0.000885,0,0
0:1:17.389,260.234,14.7272,0,0.000885,0,0
0:1:17.592,261.462,14.7961,0,0.000885,0,0
0:1:17.792,262.049,14.8306,0,0.000885,0,0
0:1:17.989,263.224,14.8927,0,0.000885,0,0
0:1:18.196,264.046,14.9409,0,0.000885,0,0
0:1:18.396,264.807,14.9823,0,0.000885,0,0
0:1:18.589,265.452,15.0237,0,0.000885,0,0
0:1:18.789,266.858,15.0995,0,0.000885,0,0
0:1:18.988,267.681,15.1478,0,0.000885,0,0
0:1:19.193,269.028,15.2236,0,0.000885,0,0
0:1:19.394,269.442,15.2443,0,0.000885,0,0
0:1:19.588,270.906,15.327,0,0.000885,0,0
0:1:19.784,271.377,15.3546,0,0.000885,0,0
0:1:19.987,272.609,15.4236,0,0.000885,0,0
0:1:20.189,273.254,15.4649,0,0.000885,0,0
0:1:20.390,274.424,15.527,0,0.000885,0,0
0:1:20.591,275.189,15.5753,0,0.000885,0,0
0:1:20.792,276.479,15.6442,0,0.000885,0,0
0:1:20.991,276.773,15.6649,0,0.000885,0,0
0:1:21.192,277.654,15.7132,0,0.000885,0,0
0:1:21.392,278.53,15.7614,0,0.000885,0,0
0:1:21.589,278.944,15.7821,0,0.000885,0,0
0:1:21.784,279.82,15.8373,0,0.000885,0,0
0:1:21.988,280.407,15.8648,0,0.000885,0,0
0:1:22.191,281.697,15.9407,0,0.000885,0,0
0:1:22.391,282.284,15.9752,0,0.000885,0,0
0:1:22.589,283.752,16.0579,0,0.000885,0,0
0:1:22.793,284.513,16.0993,0,0.000885,0,0
0:1:22.995,285.687,16.1682,0,0.000885,0,0
0:1:23.189,286.448,16.2096,0,0.000885,0,0
0:1:23.389,287.8,16.2854,0,0.000885,0,0
0:1:23.587,288.151,16.3061,0,0.000885,0,0
0:1:23.791,289.384,16.375,0,0.000885,0,0
0:1:23.992,289.557,16.3888,0,0.000885,0,0
0:1:24.187,290.553,16.444,0,0.000885,0,0
0:1:24.384,291.025,16.4716,0,0.000885,0,0
0:1:24.584,292.431,16.5474,0,0.000885,0,0
0:1:24.789,292.724,16.5681,0,0.000885,0,0
0:1:24.991,294.486,16.6646,0,0.000885,0,0
0:1:25.191,294.953,16.6922,0,0.000885,0,0
0:1:25.394,296.069,16.7543,0,0.000885,0,0
0:1:25.594,296.772,16.7956,0,0.000885,0,0
0:1:25.795,298.178,16.8715,0,0.000885,0,0
0:1:25.994,298.943,16.9197,0,0.000885,0,0
0:1:26.194,299.53,16.9473,0,0.000885,0,0
0:1:26.396,300.936,17.0301,0,0.000885,0,0
0:1:26.594,301.345,17.0507,0,0.000885,0,0
0:1:26.789,302.341,17.1059,0,0.000885,0,0
0:1:26.989,302.928,17.1404,0,0.000885,0,0
0:1:27.195,304.454,17.23,0,0.000885,0,0
0:1:27.391,304.983,17.2576,0,0.000885,0,0
0:1:27.592,306.331,17.3334,0,0.000885,0,0
0:1:27.796,306.74,17.361,0,0.000885,0,0
0:1:27.995,307.679,17.4093,0,0.000885,0,0
0:1:28.193,308.151,17.4368,0,0.000885,0,0
0:1:28.388,309.147,17.492,0,0.000885,0,0
0:1:28.590,309.792,17.5334,0,0.000885,0,0
0:1:28.795,311.198,17.6092,0,0.000885,0,0
0:1:28.992,311.727,17.6368,0,0.000885,0,0
0:1:29.191,312.843,17.7057,0,0.000885,0,0
0:1:29.394,313.662,17.7471,0,0.000885,0,0
0:1:29.596,314.952,17.8229,0,0.000885,0,0
0:1:29.791,315.366,17.8436,0,0.000885,0,0
0:1:29.988,316.829,17.9264,0,0.000885,0,0
0:1:30.189,317.416,17.9608,0,0.000885,0,0
0:1:30.391,318.061,17.9953,0,0.000885,0,0
0:1:30.593,318.648,18.0298,0,0.000885,0,0
0:1:30.793,319.76,18.0918,0,0.000885,0,0
0:1:30.994,320.29,18.1263,0,0.000885,0,0
0:1:31.194,320.877,18.1608,0,0.000885,0,0
0:1:31.394,322.403,18.2435,0,0.000885,0,0
0:1:31.595,323.163,18.2849,0,0.000885,0,0
0:1:31.793,324.631,18.3676,0,0.000885,0,0
0:1:31.990,325.45,18.4159,0,0.000885,0,0
0:1:32.190,326.451,18.4711,0,0.000885,0,0
0:1:32.393,327.153,18.5124,0,0.000885,0,0
0:1:32.592,328.386,18.5814,0,0.000885,0,0
0:1:32.790,328.795,18.6089,0,0.000885,0,0
0:1:32.988,329.733,18.6572,0,0.000885,0,0
0:1:33.185,330.32,18.6917,0,0.000885,0,0
0:1:33.391,331.317,18.7468,0,0.000885,0,0
0:1:33.590,332.14,18.7951,0,0.000885,0,0
0:1:33.788,333.252,18.8572,0,0.000885,0,0
0:1:33.983,334.013,18.8985,0,0.000885,0,0
0:1:34.185,335.187,18.9675,0,0.000885,0,0
0:1:34.389,335.658,18.9951,0,0.000885,0,0
0:1:34.588,336.535,19.0433,0,0.000885,0,0
0:1:34.784,337.3,19.0847,0,0.000885,0,0
0:1:34.980,338.238,19.1398,0,0.000885,0,0
0:1:35.181,338.941,19.1812,0,0.000885,0,0
0:1:35.381,339.995,19.2433,0,0.000885,0,0
0:1:35.583,341.228,19.3122,0,0.000885,0,0
0:1:35.783,341.463,19.326,0,0.000885,0,0
0:1:35.985,342.46,19.3812,0,0.000885,0,0
0:1:36.184,342.931,19.4087,0,0.000885,0,0
0:1:36.384,344.395,19.4915,0,0.000885,0,0
0:1:36.585,345.04,19.526,0,0.000885,0,0
0:1:36.783,346.392,19.6018,0,0.000885,0,0
0:1:36.978,347.326,19.657,0,0.000885,0,0
0:1:37.178,348.443,19.719,0,0.000885,0,0
0:1:37.385,348.852,19.7397,0,0.000885,0,0
0:1:37.582,349.848,19.7948,0,0.000885,0,0
0:1:37.780,350.204,19.8155,0,0.000885,0,0
0:1:37.996,351.903,19.9121,0,0.000885,0,0
0:1:38.196,352.842,19.9672,0,0.000885,0,0
0:1:38.394,353.896,20.0293,0,0.000885,0,0
0:1:38.590,354.425,20.0568,0,0.000885,0,0
0:1:38.790,355.658,20.1258,0,0.000885,0,0
0:1:38.982,356.245,20.1603,0,0.000885,0,0
0:1:39.183,357.241,20.2154,0,0.000885,0,0
0:1:39.379,357.886,20.2499,0,0.000885,0,0
0:1:39.586,358.825,20.3051,0,0.000885,0,0
0:1:39.789,359.234,20.3257,0,0.000885,0,0
0:1:39.991,360.408,20.3947,0,0.000885,0,0
0:1:40.192,361.227,20.443,0,0.000885,0,0
0:1:40.394,361.934,20.4843,0,0.000885,0,0
0:1:40.594,363.282,20.5602,0,0.000885,0,0
0:1:40.793,363.633,20.5809,0,0.000885,0,0
0:1:40.994,364.923,20.6498,0,0.000885,0,0
0:1:41.195,365.684,20.6912,0,0.000885,0,0
0:1:41.393,366.685,20.7532,0,0.000885,0,0
0:1:41.589,367.503,20.7946,0,0.000885,0,0
0:1:41.790,368.62,20.8566,0,0.000885,0,0
0:1:41.993,369.496,20.9118,0,0.000885,0,0
0:1:42.192,370.906,20.9876,0,0.000885,0,0
0:1:42.390,371.493,21.0221,0,0.000885,0,0
0:1:42.595,372.49,21.0773,0,0.000885,0,0
0:1:42.796,372.899,21.1049,0,0.000885,0,0
0:1:42.991,374.073,21.1669,0,0.000885,0,0
0:1:43.189,374.482,21.1945,0,0.000885,0,0
0:1:43.386,375.657,21.2565,0,0.000885,0,0
0:1:43.581,376.008,21.2772,0,0.000885,0,0
0:1:43.782,377.125,21.3393,0,0.000885,0,0
0:1:43.977,377.827,21.3806,0,0.000885,0,0
0:1:44.183,378.94,21.4427,0,0.000885,0,0
0:1:44.383,379.705,21.4841,0,0.000885,0,0
0:1:44.577,380.407,21.5254,0,0.000885,0,0
0:1:44.778,381.755,21.6013,0,0.000885,0,0
0:1:44.979,382.107,21.622,0,0.000885,0,0
0:1:45.180,383.045,21.6771,0,0.000885,0,0
0:1:45.381,383.517,21.7047,0,0.000885,0,0
0:1:45.583,384.513,21.7599,0,0.000885,0,0
0:1:45.782,385.745,21.8288,0,0.000885,0,0
0:1:45.982,386.977,21.8977,0,0.000885,0,0
0:1:46.183,387.622,21.9322,0,0.000885,0,0
0:1:46.382,389.264,22.0287,0,0.000885,0,0
0:1:46.596,389.673,22.0494,0,0.000885,0,0
0:1:46.797,391.141,22.1322,0,0.000885,0,0
0:1:46.995,391.666,22.1666,0,0.000885,0,0
0:1:47.192,393.076,22.2425,0,0.000885,0,0
0:1:47.392,393.605,22.2701,0,0.000885,0,0
0:1:47.583,394.188,22.3045,0,0.000885,0,0
0:1:47.782,394.953,22.3528,0,0.000885,0,0
0:1:47.981,396.243,22.4218,0,0.000885,0,0
0:1:48.174,396.71,22.4493,0,0.000885,0,0
0:1:48.376,397.769,22.5114,0,0.000885,0,0
0:1:48.580,398.472,22.5459,0,0.000885,0,0
0:1:48.780,398.707,22.5596,0,0.000885,0,0
0:1:48.978,399.877,22.6286,0,0.000885,0,0
0:1:49.173,400.522,22.6631,0,0.000885,0,0
0:1:49.374,401.581,22.7251,0,0.000885,0,0
0:1:49.578,402.048,22.7527,0,0.000885,0,0
0:1:49.778,403.458,22.8285,0,0.000885,0,0
0:1:49.977,404.397,22.8837,0,0.000885,0,0
0:1:50.179,405.687,22.9595,0,0.000885,0,0
0:1:50.380,406.447,23.0009,0,0.000885,0,0
0:1:50.580,407.564,23.063,0,0.000885,0,0
0:1:50.780,408.325,23.1043,0,0.000885,0,0
0:1:50.980,409.205,23.1595,0,0.000885,0,0
0:1:51.180,410.144,23.2078,0,0.000885,0,0
0:1:51.381,411.198,23.2698,0,0.000885,0,0
0:1:51.590,411.785,23.3043,0,0.000885,0,0
0:1:51.784,412.666,23.3525,0,0.000885,0,0
0:1:51.984,413.369,23.3939,0,0.000885,0,0
0:1:52.179,414.485,23.456,0,0.000885,0,0
0:1:52.379,415.13,23.4904,0,0.000885,0,0
0:1:52.576,416.42,23.5663,0,0.000885,0,0
0:1:52.781,417.123,23.6076,0,0.000885,0,0
0:1:52.982,417.942,23.649,0,0.000885,0,0
0:1:53.178,418.529,23.6835,0,0.000885,0,0
0:1:53.379,419.174,23.718,0,0.000885,0,0
0:1:53.576,420.642,23.8007,0,0.000885,0,0
0:1:53.782,421.109,23.8283,0,0.000885,0,0
0:1:53.982,422.399,23.9041,0,0.000885,0,0
0:1:54.186,423.222,23.9524,0,0.000885,0,0
0:1:54.386,423.982,23.9938,0,0.000885,0,0
0:1:54.594,424.632,24.0282,0,0.000885,0,0
0:1:54.788,425.566,24.0834,0,0.000885,0,0
0:1:54.990,426.153,24.1179,0,0.000885,0,0
0:1:55.191,427.505,24.1937,0,0.000885,0,0
0:1:55.394,427.857,24.2144,0,0.000885,0,0
0:1:55.594,429.262,24.2902,0,0.000885,0,0
0:1:55.794,429.734,24.3178,0,0.000885,0,0
0:1:55.995,430.966,24.3868,0,0.000885,0,0
0:1:56.194,431.491,24.4143,0,0.000885,0,0
0:1:56.395,433.195,24.5109,0,0.000885,0,0
0:1:56.594,433.719,24.5453,0,0.000885,0,0
0:1:56.786,434.894,24.6074,0,0.000885,0,0
0:1:56.987,435.597,24.6488,0,0.000885,0,0
0:1:57.194,437.238,24.7453,0,0.000885,0,0
0:1:57.392,437.416,24.7522,0,0.000885,0,0
0:1:57.592,438.59,24.8211,0,0.000885,0,0
0:1:57.794,438.884,24.8349,0,0.000885,0,0
0:1:57.994,440.232,24.9108,0,0.000885,0,0
0:1:58.191,440.819,24.9452,0,0.000885,0,0
0:1:58.397,442.224,25.028,0,0.000885,0,0
0:1:58.598,442.812,25.0555,0,0.000885,0,0
0:1:58.793,443.514,25.0969,0,0.000885,0,0
0:1:58.993,444.395,25.1452,0,0.000885,0,0
0:1:59.199,444.924,25.1797,0,0.000885,0,0
0:1:59.395,446.33,25.2555,0,0.000885,0,0
0:1:59.595,447.033,25.2969,0,0.000885,0,0
0:1:59.791,448.092,25.3589,0,0.000885,0,0
0:1:59.988,449.03,25.4072,0,0.000885,0,0
0:2:0.187,450.142,25.4761,0,0.000885,0,0
0:2:0.393,450.787,25.5106,0,0.000885,0,0
0:2:0.593,452.371,25.6002,0,0.000885,0,0
0:2:0.795,452.9,25.6278,0,0.000885,0,0
0:2:0.996,453.661,25.6692,0,0.000885,0,0
0:2:1.195,454.07,25.6968,0,0.000885,0,0
0:2:1.395,455.071,25.7519,0,0.000885,0,0
0:2:1.595,455.889,25.8002,0,0.000885,0,0
0:2:1.793,456.948,25.8553,0,0.000885,0,0
0:2:1.989,457.531,25.8898,0,0.000885,0,0
0:2:2.189,458.999,25.9726,0,0.000885,0,0
0:2:2.393,459.292,25.9932,0,0.000885,0,0
0:2:2.594,460.346,26.0484,0,0.000885,0,0
0:2:2.792,460.818,26.076,0,0.000885,0,0
0:2:2.986,461.463,26.1104,0,0.000885,0,0
0:2:3.187,462.989,26.2001,0,0.000885,0,0
0:2:3.392,463.634,26.2346,0,0.000885,0,0
0:2:3.591,464.746,26.2966,0,0.000885,0,0
0:2:3.789,465.569,26.3449,0,0.000885,0,0
0:2:3.983,466.387,26.3931,0,0.000885,0,0
0:2:4.184,466.801,26.4138,0,0.000885,0,0
0:2:4.380,468.558,26.5172,0,0.000885,0,0
0:2:4.585,468.972,26.5379,0,0.000885,0,0
0:2:4.787,469.968,26.5931,0,0.000885,0,0
0:2:4.988,470.377,26.6207,0,0.000885,0,0
0:2:5.193,472.076,26.7172,0,0.000885,0,0
0:2:5.392,472.784,26.7517,0,0.000885,0,0
0:2:5.593,473.544,26.7999,0,0.000885,0,0
0:2:5.794,474.247,26.8344,0,0.000885,0,0
0:2:5.993,475.715,26.9171,0,0.000885,0,0
0:2:6.195,476.476,26.9654,0,0.000885,0,0
0:2:6.393,477.241,27.0068,0,0.000885,0,0
0:2:6.587,477.65,27.0274,0,0.000885,0,0
0:2:6.788,478.646,27.0826,0,0.000885,0,0
0:2:6.984,479.527,27.1378,0,0.000885,0,0
0:2:7.183,479.994,27.1653,0,0.000885,0,0
0:2:7.382,481.347,27.2412,0,0.000885,0,0
0:2:7.576,481.991,27.2757,0,0.000885,0,0
0:2:7.777,483.046,27.3377,0,0.000885,0,0
0:2:7.973,483.869,27.3791,0,0.000885,0,0
0:2:8.181,485.159,27.4549,0,0.000885,0,0
0:2:8.380,485.741,27.4894,0,0.000885,0,0
0:2:8.584,486.622,27.5377,0,0.000885,0,0
0:2:8.783,487.561,27.5928,0,0.000885,0,0
0:2:8.981,488.851,27.6618,0,0.000885,0,0
0:2:9.177,489.558,27.7031,0,0.000885,0,0
0:2:9.379,490.612,27.7652,0,0.000885,0,0
0:2:9.573,491.257,27.7997,0,0.000885,0,0
0:2:9.772,492.311,27.8617,0,0.000885,0,0
0:2:9.973,492.956,27.8962,0,0.000885,0,0
0:2:10.176,494.073,27.9582,0,0.000885,0,0
0:2:10.377,494.54,27.9858,0,0.000885,0,0
0:2:10.578,496.008,28.0686,0,0.000885,0,0
0:2:10.779,496.537,28.0961,0,0.000885,0,0
0:2:10.980,497.534,28.1513,0,0.000885,0,0
0:2:11.181,498.352,28.1996,0,0.000885,0,0
0:2:11.381,499.411,28.2616,0,0.000885,0,0
0:2:11.586,500.349,28.3168,0,0.000885,0,0
0:2:11.783,500.994,28.3512,0,0.000885,0,0
0:2:11.982,501.813,28.3995,0,0.000885,0,0
0:2:12.178,502.284,28.4202,0,0.000885,0,0
0:2:12.379,503.806,28.5098,0,0.000885,0,0
0:2:12.586,504.161,28.5305,0,0.000885,0,0
0:2:12.793,505.451,28.5995,0,0.000885,0,0
0:2:12.994,506.039,28.6339,0,0.000885,0,0
0:2:13.186,507.208,28.7029,0,0.000885,0,0
0:2:13.387,507.796,28.7373,0,0.000885,0,0
0:2:13.585,508.792,28.7925,0,0.000885,0,0
0:2:13.790,509.615,28.8408,0,0.000885,0,0
0:2:13.992,510.611,28.8959,0,0.000885,0,0
0:2:14.185,511.256,28.9304,0,0.000885,0,0
0:2:14.384,512.253,28.9856,0,0.000885,0,0
0:2:14.583,512.546,29.0062,0,0.000885,0,0
0:2:14.778,513.894,29.0821,0,0.000885,0,0
0:2:14.979,514.481,29.1166,0,0.000885,0,0
0:2:15.181,515.656,29.1786,0,0.000885,0,0
0:2:15.383,516.536,29.2269,0,0.000885,0,0
0:2:15.584,518.12,29.3165,0,0.000885,0,0
0:2:15.784,518.587,29.3441,0,0.000885,0,0
0:2:15.984,519.583,29.3992,0,0.000885,0,0
0:2:16.185,520.055,29.4268,0,0.000885,0,0
0:2:16.384,521.581,29.5165,0,0.000885,0,0
0:2:16.584,521.874,29.5302,0,0.000885,0,0
0:2:16.788,523.222,29.6061,0,0.000885,0,0
0:2:16.988,523.809,29.6406,0,0.000885,0,0
0:2:17.184,524.686,29.6888,0,0.000885,0,0
0:2:17.381,526.038,29.7647,0,0.000885,0,0
0:2:17.581,526.269,29.7785,0,0.000885,0,0
0:2:17.775,527.501,29.8474,0,0.000885,0,0
0:2:17.975,527.973,29.875,0,0.000885,0,0
0:2:18.173,528.911,29.9301,0,0.000885,0,0
0:2:18.377,529.85,29.9853,0,0.000885,0,0
0:2:18.579,531.082,30.0542,0,0.000885,0,0
0:2:18.783,531.549,30.0818,0,0.000885,0,0
0:2:18.983,532.897,30.1577,0,0.000885,0,0
0:2:19.190,534.013,30.2197,0,0.000885,0,0
0:2:19.397,534.774,30.2611,0,0.000885,0,0
0:2:19.598,535.01,30.2749,0,0.000885,0,0
0:2:19.794,536.358,30.3507,0,0.000885,0,0
0:2:19.993,536.593,30.3645,0,0.000885,0,0
0:2:20.194,537.59,30.4197,0,0.000885,0,0
0:2:20.396,538.88,30.4955,0,0.000885,0,0
0:2:20.597,539.703,30.5438,0,0.000885,0,0
0:2:20.798,540.463,30.5851,0,0.000885,0,0
0:2:20.999,541.811,30.661,0,0.000885,0,0
0:2:21.199,542.047,30.6748,0,0.000885,0,0
0:2:21.400,543.337,30.7437,0,0.000885,0,0
0:2:21.600,544.275,30.7989,0,0.000885,0,0
0:2:21.797,545.156,30.8471,0,0.000885,0,0
0:2:21.995,545.917,30.8954,0,0.000885,0,0
0:2:22.194,547.211,30.9644,0,0.000885,0,0
0:2:22.398,548.145,31.0195,0,0.000885,0,0
0:2:22.599,549.026,31.0678,0,0.000885,0,0
0:2:22.795,549.556,31.0954,0,0.000885,0,0
0:2:22.993,550.143,31.1298,0,0.000885,0,0
0:2:23.194,550.961,31.1781,0,0.000885,0,0
0:2:23.398,551.9,31.2333,0,0.000885,0,0
0:2:23.598,553.425,31.316,0,0.000885,0,0
0:2:23.794,553.835,31.3436,0,0.000885,0,0
0:2:23.990,555.187,31.4194,0,0.000885,0,0
0:2:24.191,555.538,31.4401,0,0.000885,0,0
0:2:24.396,556.535,31.4953,0,0.000885,0,0
0:2:24.597,557.002,31.5228,0,0.000885,0,0
0:2:24.790,558.003,31.578,0,0.000885,0,0
0:2:24.998,558.528,31.6056,0,0.000885,0,0
0:2:25.199,559.996,31.6883,0,0.000885,0,0
0:2:25.400,560.876,31.7366,0,0.000885,0,0
0:2:25.603,561.579,31.7779,0,0.000885,0,0
0:2:25.803,562.633,31.84,0,0.000885,0,0
0:2:26.004,563.808,31.902,0,0.000885,0,0
0:2:26.204,564.453,31.9434,0,0.000885,0,0
0:2:26.404,565.565,32.0055,0,0.000885,0,0
0:2:26.604,566.21,32.0399,0,0.000885,0,0
0:2:26.803,567.148,32.0951,0,0.000885,0,0
0:2:26.998,567.62,32.1227,0,0.000885,0,0
0:2:27.199,568.852,32.1916,0,0.000885,0,0
0:2:27.396,569.613,32.233,0,0.000885,0,0
0:2:27.590,570.315,32.2744,0,0.000885,0,0
0:2:27.790,571.432,32.3364,0,0.000885,0,0
0:2:27.984,572.019,32.3709,0,0.000885,0,0
0:2:28.184,572.9,32.4191,0,0.000885,0,0
0:2:28.381,573.896,32.4743,0,0.000885,0,0
0:2:28.577,575.128,32.5433,0,0.000885,0,0
0:2:28.778,575.595,32.5708,0,0.000885,0,0
0:2:28.991,576.885,32.6467,0,0.000885,0,0
0:2:29.190,577.415,32.6743,0,0.000885,0,0
0:2:29.389,578.295,32.7225,0,0.000885,0,0
0:2:29.585,578.998,32.7639,0,0.000885,0,0
0:2:29.785,580.23,32.8328,0,0.000885,0,0
0:2:29.987,580.991,32.8742,0,0.000885,0,0
0:2:30.190,582.339,32.9569,0,0.000885,0,0
0:2:30.390,582.401,32.9569,0,0.000885,0,0
0:2:30.591,583.691,33.0328,0,0.000885,0,0
0:2:30.792,584.278,33.0604,0,0.000885,0,0
0:2:30.994,585.39,33.1293,0,0.000885,0,0
0:2:31.191,586.213,33.1707,0,0.000885,0,0
0:2:31.391,587.152,33.2258,0,0.000885,0,0
0:2:31.586,587.797,33.2603,0,0.000885,0,0
0:2:31.785,588.38,33.2948,0,0.000885,0,0
0:2:31.996,589.323,33.3499,0,0.000885,0,0
0:2:32.203,590.199,33.3982,0,0.000885,0,0
0:2:32.404,591.022,33.4465,0,0.000885,0,0
0:2:32.599,591.787,33.4878,0,0.000885,0,0
0:2:32.801,592.903,33.5499,0,0.000885,0,0
0:2:33.000,593.428,33.5844,0,0.000885,0,0
0:2:33.197,594.429,33.6395,0,0.000885,0,0
0:2:33.398,595.426,33.6947,0,0.000885,0,0
0:2:33.595,596.364,33.7498,0,0.000885,0,0
0:2:33.794,597.303,33.7981,0,0.000885,0,0
0:2:33.992,598.183,33.8533,0,0.000885,0,0
0:2:34.186,598.771,33.8808,0,0.000885,0,0
0:2:34.389,599.829,33.9429,0,0.000885,0,0
0:2:34.586,600.239,33.9636,0,0.000885,0,0
0:2:34.797,601.355,34.0325,0,0.000885,0,0
0:2:34.998,601.649,34.0463,0,0.000885,0,0
0:2:35.202,602.587,34.1015,0,0.000885,0,0
0:2:35.404,603.29,34.1359,0,0.000885,0,0
0:2:35.607,604.291,34.198,0,0.000885,0,0
0:2:35.806,604.936,34.2325,0,0.000885,0,0
0:2:36.008,605.874,34.2876,0,0.000885,0,0
0:2:36.210,606.168,34.3014,0,0.000885,0,0
0:2:36.411,607.164,34.3566,0,0.000885,0,0
0:2:36.609,607.4,34.3704,0,0.000885,0,0
0:2:36.808,607.987,34.4048,0,0.000885,0,0
0:2:37.010,608.454,34.4324,0,0.000885,0,0
0:2:37.204,608.339,34.4255,0,0.000885,0,0
0:2:37.403,608.165,34.4117,0,0.000885,0,0
0:2:37.602,608.397,34.4255,0,0.000885,0,0
0:2:37.798,608.103,34.4117,0,0.000885,0,0
0:2:38.000,607.285,34.3635,0,0.000885,0,0
0:2:38.195,606.755,34.3359,0,0.000885,0,0
0:2:38.390,606.755,34.3359,0,0.000885,0,0
0:2:38.591,607.049,34.3497,0,0.000885,0,0
0:2:38.785,606.991,34.3497,0,0.000885,0,0
0:2:38.987,606.048,34.2945,0,0.000885,0,0
0:2:39.184,605.229,34.2463,0,0.000885,0,0
0:2:39.389,603.526,34.1497,0,0.000885,0,0
0:2:39.591,602.881,34.1153,0,0.000885,0,0
0:2:39.797,601.822,34.0532,0,0.000885,0,0
0:2:39.999,601.529,34.0394,0,0.000885,0,0
0:2:40.200,599.887,33.9498,0,0.000885,0,0
0:2:40.402,598.419,33.8602,0,0.000885,0,0
0:2:40.604,596.249,33.7429,0,0.000885,0,0
0:2:40.804,594.896,33.6671,0,0.000885,0,0
0:2:41.005,592.254,33.5154,0,0.000885,0,0
0:2:41.205,590.67,33.4258,0,0.000885,0,0
0:2:41.406,587.503,33.2465,0,0.000885,0,0
0:2:41.605,586.796,33.2052,0,0.000885,0,0
0:2:41.800,586.093,33.1638,0,0.000885,0,0
0:2:41.997,584.278,33.0604,0,0.000885,0,0
0:2:42.197,583.104,32.9983,0,0.000885,0,0
0:2:42.388,580.64,32.8604,0,0.000885,0,0
0:2:42.588,578.94,32.7639,0,0.000885,0,0
0:2:42.796,576.65,32.6329,0,0.000885,0,0
0:2:42.989,575.008,32.5364,0,0.000885,0,0
0:2:43.189,572.135,32.3778,0,0.000885,0,0
0:2:43.395,571.08,32.3157,0,0.000885,0,0
0:2:43.592,569.67,32.2399,0,0.000885,0,0
0:2:43.789,569.319,32.2192,0,0.000885,0,0
0:2:43.993,568.794,32.1847,0,0.000885,0,0
0:2:44.193,568.38,32.164,0,0.000885,0,0
0:2:44.388,567.793,32.1296,0,0.000885,0,0
0:2:44.587,567.735,32.1296,0,0.000885,0,0
0:2:44.784,567.856,32.1365,0,0.000885,0,0
0:2:44.987,567.09,32.0882,0,0.000885,0,0
0:2:45.188,566.797,32.0744,0,0.000885,0,0
0:2:45.387,564.51,31.9434,0,0.000885,0,0
0:2:45.588,563.336,31.8814,0,0.000885,0,0
0:2:45.790,562.398,31.8262,0,0.000885,0,0
0:2:45.991,562.282,31.8193,0,0.000885,0,0
0:2:46.190,562.166,31.8124,0,0.000885,0,0
0:2:46.390,562.575,31.8331,0,0.000885,0,0
0:2:46.591,562.518,31.8331,0,0.000885,0,0
0:2:46.790,560.463,31.7159,0,0.000885,0,0
0:2:46.984,558.412,31.5987,0,0.000885,0,0
0:2:47.182,558.176,31.5849,0,0.000885,0,0
0:2:47.381,557.94,31.5711,0,0.000885,0,0
0:2:47.574,558.234,31.5918,0,0.000885,0,0
0:2:47.775,557.94,31.5711,0,0.000885,0,0
0:2:47.971,556.886,31.5159,0,0.000885,0,0
0:2:48.167,555.36,31.4263,0,0.000885,0,0
0:2:48.367,552.665,31.2746,0,0.000885,0,0
0:2:48.561,548.795,31.054,0,0.000885,0,0
0:2:48.760,436.771,24.7177,0,0.000885,0,0
0:2:48.957,427.857,24.2144,0,0.000885,0,0
0:2:48.977,427.857,24.2144,0,0.000885,0,0