File: DataFile2021-07-03_080507.csv
Test ID:,Date Tested:,Time:,Test Type:,Diameter Avg. (mm):,Cyl. Corr. Factor:,Height (mm):,Age (days):,Weight (kN):,Break Type:,Ramp Rate (MPa/s):,Load at Break (kN):,Stress at Break (MPa):
12,7/3/2021,08:05,Cylinder,100,1,200,0,3.6,3,0.25,607.16,77.3
Sample Time,Load (kN),Stress (MPa),Long. Strain,Trans. Strain,Chan1 Deflection (mm),Chan2 Deflection (mm)
0:0:17.087,5.10211,0.648107,0,0.000885,0,0
0:0:17.381,5.7471,0.730844,0,0.000885,0,0
0:0:17.683,6.21861,0.792897,0,0.000885,0,0
0:0:17.981,8.21142,1.048,0,0.000885,0,0
0:0:18.277,9.55923,1.22037,0,0.000885,0,0
0:0:18.577,9.61706,1.22727,0,0.000885,0,0
0:0:18.873,10.0307,1.27553,0,0.000885,0,0
0:0:19.175,9.85281,1.25485,0,0.000885,0,0
0:0:19.470,10.907,1.38585,0,0.000885,0,0
0:0:19.769,10.7914,1.37206,0,0.000885,0,0
0:0:20.067,10.8492,1.37895,0,0.000885,0,0
0:0:20.361,11.7878,1.50306,0,0.000885,0,0
0:0:20.662,11.9079,1.51685,0,0.000885,0,0
0:0:20.954,12.3171,1.56511,0,0.000885,0,0
0:0:21.256,13.4292,1.7099,0,0.000885,0,0
0:0:21.565,13.9007,1.77195,0,0.000885,0,0
0:0:21.861,13.9585,1.77885,0,0.000885,0,0
0:0:22.172,14.6613,1.86848,0,0.000885,0,0
0:0:22.475,15.3686,1.95811,0,0.000885,0,0
0:0:22.779,16.0136,2.04085,0,0.000885,0,0
0:0:23.081,16.365,2.08222,0,0.000885,0,0
0:0:23.385,17.3614,2.21322,0,0.000885,0,0
0:0:23.687,17.7706,2.26148,0,0.000885,0,0
0:0:23.985,18.2422,2.32353,0,0.000885,0,0
0:0:24.285,18.8249,2.39938,0,0.000885,0,0
0:0:24.582,19.59,2.4959,0,0.000885,0,0
0:0:24.881,19.9414,2.53727,0,0.000885,0,0
0:0:25.178,20.7643,2.64069,0,0.000885,0,0
0:0:25.478,21.6406,2.7579,0,0.000885,0,0
0:0:25.777,21.5828,2.75101,0,0.000885,0,0
0:0:26.071,22.3479,2.84753,0,0.000885,0,0
0:0:26.375,23.5756,2.99922,0,0.000885,0,0
0:0:26.669,23.7535,3.0268,0,0.000885,0,0
0:0:26.970,24.3407,3.09575,0,0.000885,0,0
0:0:27.267,25.2792,3.21985,0,0.000885,0,0
0:0:27.571,26.3335,3.35085,0,0.000885,0,0
0:0:27.875,27.0986,3.44738,0,0.000885,0,0
0:0:28.178,27.917,3.55769,0,0.000885,0,0
0:0:28.480,28.3263,3.60596,0,0.000885,0,0
0:0:28.783,28.7978,3.66801,0,0.000885,0,0
0:0:29.082,29.9098,3.80591,0,0.000885,0,0
0:0:29.382,29.9098,3.80591,0,0.000885,0,0
0:0:29.678,30.2657,3.85417,0,0.000885,0,0
0:0:29.979,31.2621,3.97827,0,0.000885,0,0
0:0:30.273,31.4934,4.01275,0,0.000885,0,0
0:0:30.573,32.3163,4.11617,0,0.000885,0,0
0:0:30.873,33.1393,4.21959,0,0.000885,0,0
0:0:31.168,33.4907,4.26096,0,0.000885,0,0
0:0:31.470,34.1357,4.3437,0,0.000885,0,0
0:0:31.765,34.1357,4.3437,0,0.000885,0,0
0:0:32.066,34.8385,4.43333,0,0.000885,0,0
0:0:32.362,35.4835,4.51607,0,0.000885,0,0
0:0:32.666,35.777,4.55743,0,0.000885,0,0
0:0:32.970,36.3064,4.61949,0,0.000885,0,0
0:0:33.275,37.1249,4.7298,0,0.000885,0,0
0:0:33.577,37.5964,4.78496,0,0.000885,0,0
0:0:33.879,38.1213,4.85391,0,0.000885,0,0
0:0:34.179,38.8864,4.95044,0,0.000885,0,0
0:0:34.477,39.2378,4.9987,0,0.000885,0,0
0:0:34.775,39.647,5.04696,0,0.000885,0,0
0:0:35.077,40.7012,5.18486,0,0.000885,0,0
0:0:35.371,41.2306,5.24691,0,0.000885,0,0
0:0:35.673,41.6398,5.30207,0,0.000885,0,0
0:0:35.971,42.5206,5.41238,0,0.000885,0,0
0:0:36.268,42.9921,5.47444,0,0.000885,0,0
0:0:36.568,43.7527,5.57096,0,0.000885,0,0
0:0:36.865,44.282,5.63991,0,0.000885,0,0
0:0:37.167,44.8692,5.71575,0,0.000885,0,0
0:0:37.461,45.6877,5.81918,0,0.000885,0,0
0:0:37.763,45.9234,5.84675,0,0.000885,0,0
0:0:38.069,46.3327,5.90191,0,0.000885,0,0
0:0:38.372,46.9198,5.97086,0,0.000885,0,0
0:0:38.676,47.6227,6.06049,0,0.000885,0,0
0:0:38.976,47.8584,6.09497,0,0.000885,0,0
0:0:39.280,48.5034,6.1777,0,0.000885,0,0
0:0:39.575,49.442,6.29491,0,0.000885,0,0
0:0:39.873,49.7934,6.34318,0,0.000885,0,0
0:0:40.173,50.9677,6.48797,0,0.000885,0,0
0:0:40.468,50.9099,6.48107,0,0.000885,0,0
0:0:40.770,51.6705,6.5776,0,0.000885,0,0
0:0:41.066,52.1421,6.63965,0,0.000885,0,0
0:0:41.367,52.4935,6.68102,0,0.000885,0,0
0:0:41.665,54.077,6.88786,0,0.000885,0,0
0:0:41.972,54.6642,6.95681,0,0.000885,0,0
0:0:42.273,54.8377,6.98439,0,0.000885,0,0
0:0:42.577,55.4827,7.06713,0,0.000885,0,0
0:0:42.881,56.3056,7.17055,0,0.000885,0,0
0:0:43.183,56.657,7.21192,0,0.000885,0,0
0:0:43.485,57.2442,7.28776,0,0.000885,0,0
0:0:43.787,57.4176,7.30844,0,0.000885,0,0
0:0:44.082,57.7691,7.35671,0,0.000885,0,0
0:0:44.383,58.592,7.46013,0,0.000885,0,0
0:0:44.680,59.237,7.54286,0,0.000885,0,0
0:0:44.980,59.5884,7.58423,0,0.000885,0,0
0:0:45.279,60.527,7.70834,0,0.000885,0,0
0:0:45.577,61.4077,7.81865,0,0.000885,0,0
0:0:45.877,61.5812,7.83934,0,0.000885,0,0
0:0:46.171,62.4619,7.94966,0,0.000885,0,0
0:0:46.475,62.8712,8.00481,0,0.000885,0,0
0:0:46.770,63.4583,8.08066,0,0.000885,0,0
0:0:47.069,64.3969,8.19787,0,0.000885,0,0
0:0:47.369,64.7483,8.24613,0,0.000885,0,0
0:0:47.670,64.9262,8.26681,0,0.000885,0,0
0:0:47.975,65.3355,8.32197,0,0.000885,0,0
0:0:48.279,66.5676,8.47366,0,0.000885,0,0
0:0:48.580,67.2126,8.55639,0,0.000885,0,0
0:0:48.884,67.564,8.60466,0,0.000885,0,0
0:0:49.182,68.209,8.68739,0,0.000885,0,0
0:0:49.482,68.7962,8.75634,0,0.000885,0,0
0:0:49.780,69.6769,8.87355,0,0.000885,0,0
0:0:50.081,70.3798,8.96318,0,0.000885,0,0
0:0:50.378,71.2027,9.06661,0,0.000885,0,0
0:0:50.676,71.0826,9.05282,0,0.000885,0,0
0:0:50.977,71.6697,9.12866,0,0.000885,0,0
0:0:51.270,71.9633,9.16313,0,0.000885,0,0
0:0:51.572,72.8441,9.27345,0,0.000885,0,0
0:0:51.870,73.667,9.37687,0,0.000885,0,0
0:0:52.169,74.312,9.45961,0,0.000885,0,0
0:0:52.467,75.1305,9.56303,0,0.000885,0,0
0:0:52.768,75.0148,9.54924,0,0.000885,0,0
0:0:53.073,75.6598,9.63198,0,0.000885,0,0
0:0:53.376,76.1891,9.70092,0,0.000885,0,0
0:0:53.679,76.4204,9.7285,0,0.000885,0,0
0:0:53.983,77.5948,9.88019,0,0.000885,0,0
0:0:54.281,78.2398,9.96292,0,0.000885,0,0
0:0:54.581,79.1205,10.0732,0,0.000885,0,0
0:0:54.878,79.6454,10.1422,0,0.000885,0,0
0:0:55.179,80.2326,10.218,0,0.000885,0,0
0:0:55.475,80.9977,10.3146,0,0.000885,0,0
0:0:55.774,81.4647,10.3697,0,0.000885,0,0
0:0:56.072,81.874,10.4249,0,0.000885,0,0
0:0:56.370,82.0519,10.4456,0,0.000885,0,0
0:0:56.670,83.2841,10.6041,0,0.000885,0,0
0:0:56.965,83.3419,10.611,0,0.000885,0,0
0:0:57.267,84.4584,10.7558,0,0.000885,0,0
0:0:57.571,84.3383,10.7351,0,0.000885,0,0
0:0:57.875,85.2769,10.8592,0,0.000885,0,0
0:0:58.178,85.6283,10.9006,0,0.000885,0,0
0:0:58.479,86.3934,10.9971,0,0.000885,0,0
0:0:58.783,87.0962,11.0868,0,0.000885,0,0
0:0:59.078,87.6255,11.1557,0,0.000885,0,0
0:0:59.379,88.2082,11.2316,0,0.000885,0,0
0:0:59.678,88.6219,11.2867,0,0.000885,0,0
0:0:59.972,89.3826,11.3832,0,0.000885,0,0
0:1:0.275,90.2055,11.4867,0,0.000885,0,0
0:1:0.570,90.4412,11.5142,0,0.000885,0,0
0:1:0.872,91.669,11.6728,0,0.000885,0,0
0:1:1.169,91.669,11.6728,0,0.000885,0,0
0:1:1.466,92.6075,11.79,0,0.000885,0,0
0:1:1.768,93.079,11.8521,0,0.000885,0,0
0:1:2.072,94.0754,11.9762,0,0.000885,0,0
0:1:2.375,94.1333,11.9831,0,0.000885,0,0
0:1:2.679,94.2534,12.0038,0,0.000885,0,0
0:1:2.983,94.5425,12.0382,0,0.000885,0,0
0:1:3.286,95.7168,12.1899,0,0.000885,0,0
0:1:3.588,96.304,12.2589,0,0.000885,0,0
0:1:3.891,97.1847,12.3761,0,0.000885,0,0
0:1:4.188,97.7096,12.4381,0,0.000885,0,0
0:1:4.486,98.2968,12.514,0,0.000885,0,0
0:1:4.787,98.7105,12.5691,0,0.000885,0,0
0:1:5.083,99.2354,12.6381,0,0.000885,0,0
0:1:5.384,100,12.7346,0,0.000885,0,0
0:1:5.682,100.877,12.8449,0,0.000885,0,0
0:1:5.981,101.406,12.9139,0,0.000885,0,0
0:1:6.281,101.878,12.969,0,0.000885,0,0
0:1:6.577,102.403,13.038,0,0.000885,0,0
0:1:6.880,102.58,13.0587,0,0.000885,0,0
0:1:7.175,103.341,13.1552,0,0.000885,0,0
0:1:7.477,104.222,13.2724,0,0.000885,0,0
0:1:7.782,105.103,13.3827,0,0.000885,0,0
0:1:8.085,105.16,13.3896,0,0.000885,0,0
0:1:8.386,105.748,13.4655,0,0.000885,0,0
0:1:8.689,106.508,13.562,0,0.000885,0,0
0:1:8.991,107.038,13.6309,0,0.000885,0,0
0:1:9.288,108.034,13.755,0,0.000885,0,0
0:1:9.583,108.212,13.7757,0,0.000885,0,0
0:1:9.885,108.737,13.8447,0,0.000885,0,0
0:1:10.182,109.208,13.9067,0,0.000885,0,0
0:1:10.482,109.911,13.9964,0,0.000885,0,0
0:1:10.779,110.556,14.0791,0,0.000885,0,0
0:1:11.079,111.317,14.1756,0,0.000885,0,0
0:1:11.380,112.082,14.2721,0,0.000885,0,0
0:1:11.673,112.491,14.3204,0,0.000885,0,0
0:1:11.976,112.607,14.3411,0,0.000885,0,0
0:1:12.273,113.372,14.4376,0,0.000885,0,0
0:1:12.574,113.901,14.4997,0,0.000885,0,0
0:1:12.880,114.662,14.5962,0,0.000885,0,0
0:1:13.183,115.485,14.7065,0,0.000885,0,0
0:1:13.487,116.13,14.7893,0,0.000885,0,0
0:1:13.788,116.423,14.8237,0,0.000885,0,0
0:1:14.090,117.3,14.934,0,0.000885,0,0
0:1:14.389,117.651,14.9823,0,0.000885,0,0
0:1:14.686,118.123,15.0375,0,0.000885,0,0
0:1:14.987,118.883,15.134,0,0.000885,0,0
0:1:15.283,119.942,15.2719,0,0.000885,0,0
0:1:15.583,120.173,15.2995,0,0.000885,0,0
0:1:15.880,120.88,15.3891,0,0.000885,0,0
0:1:16.179,121.29,15.4443,0,0.000885,0,0
0:1:16.480,121.935,15.527,0,0.000885,0,0
0:1:16.774,122.402,15.5822,0,0.000885,0,0
0:1:17.076,123.282,15.6994,0,0.000885,0,0
0:1:17.373,123.576,15.7338,0,0.000885,0,0
0:1:17.677,123.985,15.789,0,0.000885,0,0
0:1:17.982,124.515,15.851,0,0.000885,0,0
0:1:18.285,124.924,15.9062,0,0.000885,0,0
0:1:18.586,125.862,16.0234,0,0.000885,0,0
0:1:18.889,126.859,16.1544,0,0.000885,0,0
0:1:19.187,127.273,16.2027,0,0.000885,0,0
0:1:19.486,127.797,16.2716,0,0.000885,0,0
0:1:19.782,128.563,16.3682,0,0.000885,0,0
0:1:20.084,128.678,16.3819,0,0.000885,0,0
0:1:20.381,129.443,16.4785,0,0.000885,0,0
0:1:20.681,130.088,16.5612,0,0.000885,0,0
0:1:20.980,130.675,16.637,0,0.000885,0,0
0:1:21.276,131.552,16.7474,0,0.000885,0,0
0:1:21.576,131.965,16.8025,0,0.000885,0,0
0:1:21.872,132.548,16.8784,0,0.000885,0,0
0:1:22.173,132.842,16.9128,0,0.000885,0,0
0:1:22.469,133.722,17.0232,0,0.000885,0,0
0:1:22.772,133.958,17.0576,0,0.000885,0,0
0:1:23.078,134.603,17.1404,0,0.000885,0,0
0:1:23.382,135.07,17.1955,0,0.000885,0,0
0:1:23.683,135.542,17.2576,0,0.000885,0,0
0:1:23.987,136.423,17.3679,0,0.000885,0,0
0:1:24.288,137.01,17.4437,0,0.000885,0,0
0:1:24.586,137.655,17.5265,0,0.000885,0,0
0:1:24.884,138.415,17.623,0,0.000885,0,0
0:1:25.186,139.06,17.7057,0,0.000885,0,0
0:1:25.480,139.763,17.7954,0,0.000885,0,0
0:1:25.781,139.941,17.8161,0,0.000885,0,0
0:1:26.079,140.88,17.9402,0,0.000885,0,0
0:1:26.377,141.525,18.016,0,0.000885,0,0
0:1:26.677,142.343,18.1263,0,0.000885,0,0
0:1:26.971,142.815,18.1815,0,0.000885,0,0
0:1:27.274,143.166,18.2297,0,0.000885,0,0
0:1:27.578,143.753,18.3056,0,0.000885,0,0
0:1:27.882,144.278,18.3676,0,0.000885,0,0
0:1:28.184,144.928,18.4504,0,0.000885,0,0
0:1:28.487,145.217,18.4917,0,0.000885,0,0
0:1:28.788,145.862,18.5745,0,0.000885,0,0
0:1:29.084,145.982,18.5883,0,0.000885,0,0
0:1:29.384,147.214,18.7468,0,0.000885,0,0
0:1:29.683,147.681,18.802,0,0.000885,0,0
0:1:29.979,148.21,18.871,0,0.000885,0,0
0:1:30.281,149.5,19.0364,0,0.000885,0,0
0:1:30.576,149.736,19.064,0,0.000885,0,0
0:1:30.878,150.381,19.1467,0,0.000885,0,0
0:1:31.174,150.968,19.2226,0,0.000885,0,0
0:1:31.472,151.435,19.2846,0,0.000885,0,0
0:1:31.771,151.907,19.3398,0,0.000885,0,0
0:1:32.068,152.374,19.4018,0,0.000885,0,0
0:1:32.370,152.961,19.4777,0,0.000885,0,0
0:1:32.676,153.49,19.5397,0,0.000885,0,0
0:1:32.979,153.957,19.6018,0,0.000885,0,0
0:1:33.282,154.66,19.6914,0,0.000885,0,0
0:1:33.583,155.363,19.7811,0,0.000885,0,0
0:1:33.887,156.012,19.8638,0,0.000885,0,0
0:1:34.180,156.657,19.9465,0,0.000885,0,0
0:1:34.483,157.36,20.0362,0,0.000885,0,0
0:1:34.778,157.654,20.0706,0,0.000885,0,0
0:1:35.078,158.241,20.1465,0,0.000885,0,0
0:1:35.377,158.944,20.2361,0,0.000885,0,0
0:1:35.673,159.531,20.312,0,0.000885,0,0
0:1:35.975,159.94,20.3671,0,0.000885,0,0
0:1:36.270,160.527,20.4361,0,0.000885,0,0
0:1:36.573,161.466,20.5602,0,0.000885,0,0
0:1:36.869,161.991,20.6222,0,0.000885,0,0
0:1:37.177,162.227,20.6567,0,0.000885,0,0
0:1:37.477,163.165,20.7739,0,0.000885,0,0
0:1:37.779,163.637,20.836,0,0.000885,0,0
0:1:38.083,164.219,20.9118,0,0.000885,0,0
0:1:38.386,164.691,20.967,0,0.000885,0,0
0:1:38.689,165.452,21.0635,0,0.000885,0,0
0:1:38.992,166.39,21.1876,0,0.000885,0,0
0:1:39.288,166.626,21.2152,0,0.000885,0,0
0:1:39.589,167.093,21.2772,0,0.000885,0,0
0:1:39.886,167.916,21.3806,0,0.000885,0,0
0:1:40.187,168.561,21.4634,0,0.000885,0,0
0:1:40.483,169.557,21.5875,0,0.000885,0,0
0:1:40.782,169.909,21.6357,0,0.000885,0,0
0:1:41.081,170.144,21.6633,0,0.000885,0,0
0:1:41.376,170.789,21.7461,0,0.000885,0,0
0:1:41.678,171.141,21.7874,0,0.000885,0,0
0:1:41.974,171.199,21.8012,0,0.000885,0,0
0:1:42.273,172.022,21.9046,0,0.000885,0,0
0:1:42.570,172.667,21.9874,0,0.000885,0,0
0:1:42.874,173.49,22.0908,0,0.000885,0,0
0:1:43.178,174.077,22.1666,0,0.000885,0,0
0:1:43.481,174.895,22.2701,0,0.000885,0,0
0:1:43.783,174.953,22.277,0,0.000885,0,0
0:1:44.085,175.776,22.3804,0,0.000885,0,0
0:1:44.385,176.657,22.4907,0,0.000885,0,0
0:1:44.685,177.947,22.6562,0,0.000885,0,0
0:1:44.981,177.947,22.6562,0,0.000885,0,0
0:1:45.283,178.943,22.7803,0,0.000885,0,0
0:1:45.576,178.707,22.7527,0,0.000885,0,0
0:1:45.877,179.939,22.9113,0,0.000885,0,0
0:1:46.175,180.584,22.994,0,0.000885,0,0
0:1:46.472,180.762,23.0147,0,0.000885,0,0
0:1:46.772,181.407,23.0974,0,0.000885,0,0
0:1:47.077,182.168,23.194,0,0.000885,0,0
0:1:47.379,182.871,23.2836,0,0.000885,0,0
0:1:47.685,182.991,23.2974,0,0.000885,0,0
0:1:47.987,183.809,23.4008,0,0.000885,0,0
0:1:48.290,184.223,23.456,0,0.000885,0,0
0:1:48.593,184.806,23.5318,0,0.000885,0,0
0:1:48.896,185.099,23.5663,0,0.000885,0,0
0:1:49.192,186.038,23.6904,0,0.000885,0,0
0:1:49.492,186.158,23.7042,0,0.000885,0,0
0:1:49.790,187.097,23.8214,0,0.000885,0,0
0:1:50.088,188.329,23.98,0,0.000885,0,0
0:1:50.390,188.56,24.0075,0,0.000885,0,0
0:1:50.686,189.147,24.0834,0,0.000885,0,0
0:1:50.987,189.263,24.0972,0,0.000885,0,0
0:1:51.282,190.202,24.2144,0,0.000885,0,0
0:1:51.581,190.557,24.2627,0,0.000885,0,0
0:1:51.880,191.318,24.3592,0,0.000885,0,0
0:1:52.176,191.785,24.4212,0,0.000885,0,0
0:1:52.478,192.257,24.4764,0,0.000885,0,0
0:1:52.781,193.195,24.6005,0,0.000885,0,0
0:1:53.083,193.898,24.6901,0,0.000885,0,0
0:1:53.383,194.427,24.7522,0,0.000885,0,0
0:1:53.683,194.543,24.7729,0,0.000885,0,0
0:1:53.984,195.188,24.8556,0,0.000885,0,0
0:1:54.278,196.184,24.9797,0,0.000885,0,0
0:1:54.577,196.829,25.0624,0,0.000885,0,0
0:1:54.872,197.417,25.1383,0,0.000885,0,0
0:1:55.168,197.652,25.1659,0,0.000885,0,0
0:1:55.474,197.946,25.2003,0,0.000885,0,0
0:1:55.769,199.236,25.3658,0,0.000885,0,0
0:1:56.069,199.414,25.3865,0,0.000885,0,0
0:1:56.371,200.704,25.552,0,0.000885,0,0
0:1:56.670,200.877,25.5795,0,0.000885,0,0
0:1:56.975,201.58,25.6692,0,0.000885,0,0
0:1:57.269,201.931,25.7105,0,0.000885,0,0
0:1:57.577,202.581,25.7933,0,0.000885,0,0
0:1:57.877,202.639,25.8002,0,0.000885,0,0
0:1:58.179,203.635,25.9243,0,0.000885,0,0
0:1:58.481,204.338,26.0139,0,0.000885,0,0
0:1:58.780,204.689,26.0622,0,0.000885,0,0
0:1:59.081,205.454,26.1587,0,0.000885,0,0
0:1:59.376,206.037,26.2346,0,0.000885,0,0
0:1:59.676,206.624,26.3104,0,0.000885,0,0
0:1:59.969,207.269,26.3931,0,0.000885,0,0
0:2:0.266,207.621,26.4345,0,0.000885,0,0
0:2:0.573,208.501,26.5448,0,0.000885,0,0
0:2:0.869,209.031,26.6138,0,0.000885,0,0
0:2:1.177,209.734,26.7034,0,0.000885,0,0
0:2:1.468,210.027,26.7448,0,0.000885,0,0
0:2:1.769,210.908,26.8551,0,0.000885,0,0
0:2:2.073,211.202,26.8896,0,0.000885,0,0
0:2:2.372,212.082,26.9999,0,0.000885,0,0
0:2:2.675,212.314,27.0343,0,0.000885,0,0
0:2:2.976,213.194,27.1447,0,0.000885,0,0
0:2:3.275,213.666,27.2067,0,0.000885,0,0
0:2:3.575,213.955,27.2412,0,0.000885,0,0
0:2:3.873,215.249,27.4067,0,0.000885,0,0
0:2:4.169,215.365,27.4204,0,0.000885,0,0
0:2:4.474,216.304,27.5377,0,0.000885,0,0
0:2:4.772,216.361,27.5515,0,0.000885,0,0
0:2:5.063,216.833,27.6066,0,0.000885,0,0
0:2:5.364,217.536,27.6962,0,0.000885,0,0
0:2:5.670,218.123,27.7721,0,0.000885,0,0
0:2:5.975,219.177,27.9031,0,0.000885,0,0
0:2:6.273,219.822,27.9858,0,0.000885,0,0
0:2:6.576,220.583,28.0823,0,0.000885,0,0
0:2:6.877,221.17,28.1582,0,0.000885,0,0
0:2:7.170,221.521,28.2065,0,0.000885,0,0
0:2:7.472,222.402,28.3168,0,0.000885,0,0
0:2:7.774,222.58,28.3375,0,0.000885,0,0
0:2:8.076,222.989,28.3926,0,0.000885,0,0
0:2:8.376,223.812,28.496,0,0.000885,0,0
0:2:8.675,224.573,28.5926,0,0.000885,0,0
0:2:8.975,224.751,28.6132,0,0.000885,0,0
0:2:9.270,225.511,28.7098,0,0.000885,0,0
0:2:9.577,226.508,28.8408,0,0.000885,0,0
0:2:9.873,226.859,28.8821,0,0.000885,0,0
0:2:10.176,226.979,28.9028,0,0.000885,0,0
0:2:10.475,228.091,29.0407,0,0.000885,0,0
0:2:10.766,228.149,29.0476,0,0.000885,0,0
0:2:11.077,228.914,29.1441,0,0.000885,0,0
0:2:11.370,229.617,29.2338,0,0.000885,0,0
0:2:11.666,230.084,29.2958,0,0.000885,0,0
0:2:11.974,230.729,29.3786,0,0.000885,0,0
0:2:12.267,231.143,29.4268,0,0.000885,0,0
0:2:12.566,231.668,29.4958,0,0.000885,0,0
0:2:12.867,232.433,29.5923,0,0.000885,0,0
0:2:13.172,232.606,29.6199,0,0.000885,0,0
0:2:13.471,233.429,29.7233,0,0.000885,0,0
0:2:13.772,234.31,29.8336,0,0.000885,0,0
0:2:14.072,234.897,29.9095,0,0.000885,0,0
0:2:14.376,235.774,30.0198,0,0.000885,0,0
0:2:14.674,236.245,30.0818,0,0.000885,0,0
0:2:14.971,236.539,30.1163,0,0.000885,0,0
0:2:15.277,237.419,30.2266,0,0.000885,0,0
0:2:15.574,237.593,30.2542,0,0.000885,0,0
0:2:15.876,238.354,30.3507,0,0.000885,0,0
0:2:16.177,238.998,30.4335,0,0.000885,0,0
0:2:16.467,239.586,30.5024,0,0.000885,0,0
0:2:16.767,239.937,30.5507,0,0.000885,0,0
0:2:17.075,240.938,30.6748,0,0.000885,0,0
0:2:17.367,241.169,30.7092,0,0.000885,0,0
0:2:17.664,241.876,30.7989,0,0.000885,0,0
0:2:17.968,242.521,30.8816,0,0.000885,0,0
0:2:18.271,243.224,30.9712,0,0.000885,0,0
0:2:18.571,243.634,31.0195,0,0.000885,0,0
0:2:18.872,244.514,31.1298,0,0.000885,0,0
0:2:19.172,244.688,31.1574,0,0.000885,0,0
0:2:19.474,245.044,31.1988,0,0.000885,0,0
0:2:19.776,246.098,31.3367,0,0.000885,0,0
0:2:20.067,246.271,31.3574,0,0.000885,0,0
0:2:20.377,247.036,31.4539,0,0.000885,0,0
0:2:20.672,248.384,31.6263,0,0.000885,0,0
0:2:20.977,248.914,31.6952,0,0.000885,0,0
0:2:21.276,249.381,31.7504,0,0.000885,0,0
0:2:21.566,249.438,31.7573,0,0.000885,0,0
0:2:21.866,250.261,31.8676,0,0.000885,0,0
0:2:22.172,251.2,31.9848,0,0.000885,0,0
0:2:22.472,251.961,32.0813,0,0.000885,0,0
0:2:22.775,251.729,32.0537,0,0.000885,0,0
0:2:23.075,252.254,32.1158,0,0.000885,0,0
0:2:23.377,253.251,32.2468,0,0.000885,0,0
0:2:23.676,253.429,32.2675,0,0.000885,0,0
0:2:23.973,254.189,32.364,0,0.000885,0,0
0:2:24.267,254.483,32.4054,0,0.000885,0,0
0:2:24.574,255.248,32.5019,0,0.000885,0,0
0:2:24.873,255.773,32.5639,0,0.000885,0,0
0:2:25.174,256.48,32.6536,0,0.000885,0,0
0:2:25.474,257.241,32.7501,0,0.000885,0,0
0:2:25.766,257.298,32.757,0,0.000885,0,0
0:2:26.063,258.531,32.9156,0,0.000885,0,0
0:2:26.360,259.176,32.9983,0,0.000885,0,0
0:2:26.677,259.763,33.0742,0,0.000885,0,0
0:2:26.975,260.466,33.1638,0,0.000885,0,0
0:2:27.267,260.937,33.2258,0,0.000885,0,0
0:2:27.568,261.876,33.343,0,0.000885,0,0
0:2:27.874,262.463,33.4189,0,0.000885,0,0
0:2:28.176,263.166,33.5085,0,0.000885,0,0
0:2:28.476,263.691,33.5775,0,0.000885,0,0
0:2:28.776,264.278,33.6464,0,0.000885,0,0
0:2:29.074,264.571,33.6878,0,0.000885,0,0
0:2:29.367,264.456,33.674,0,0.000885,0,0
0:2:29.674,265.336,33.7843,0,0.000885,0,0
0:2:29.972,265.746,33.8326,0,0.000885,0,0
0:2:30.276,266.391,33.9153,0,0.000885,0,0
0:2:30.575,266.92,33.9843,0,0.000885,0,0
0:2:30.869,267.565,34.067,0,0.000885,0,0
0:2:31.177,268.152,34.1428,0,0.000885,0,0
0:2:31.474,268.619,34.2049,0,0.000885,0,0
0:2:31.779,269.264,34.2807,0,0.000885,0,0
0:2:32.078,270.145,34.3979,0,0.000885,0,0
0:2:32.369,270.67,34.46,0,0.000885,0,0
0:2:32.674,271.551,34.5772,0,0.000885,0,0
0:2:32.974,271.902,34.6186,0,0.000885,0,0
0:2:33.277,272.783,34.7289,0,0.000885,0,0
0:2:33.577,273.37,34.8047,0,0.000885,0,0
0:2:33.878,274.193,34.9082,0,0.000885,0,0
0:2:34.175,274.073,34.8944,0,0.000885,0,0
0:2:34.469,275.069,35.0254,0,0.000885,0,0
0:2:34.775,275.892,35.1288,0,0.000885,0,0
0:2:35.073,276.07,35.1495,0,0.000885,0,0
0:2:35.366,276.831,35.246,0,0.000885,0,0
0:2:35.675,277.591,35.3425,0,0.000885,0,0
0:2:35.981,278.063,35.4046,0,0.000885,0,0
0:2:36.277,278.708,35.4873,0,0.000885,0,0
0:2:36.576,279.059,35.5287,0,0.000885,0,0
0:2:36.877,279.468,35.5838,0,0.000885,0,0
0:2:37.178,280.291,35.6873,0,0.000885,0,0
0:2:37.472,280.113,35.6666,0,0.000885,0,0
0:2:37.775,281.23,35.8045,0,0.000885,0,0
0:2:38.078,281.755,35.8734,0,0.000885,0,0
0:2:38.378,282.756,36.0044,0,0.000885,0,0
0:2:38.679,283.049,36.0389,0,0.000885,0,0
0:2:38.978,283.926,36.1492,0,0.000885,0,0
0:2:39.275,284.219,36.1906,0,0.000885,0,0
0:2:39.574,285.216,36.3147,0,0.000885,0,0
0:2:39.876,285.803,36.3905,0,0.000885,0,0
0:2:40.176,286.332,36.4595,0,0.000885,0,0
0:2:40.480,286.919,36.5284,0,0.000885,0,0
0:2:40.776,287.155,36.5629,0,0.000885,0,0
0:2:41.070,287.973,36.6663,0,0.000885,0,0
0:2:41.367,288.445,36.7284,0,0.000885,0,0
0:2:41.666,289.263,36.8318,0,0.000885,0,0
0:2:41.969,289.384,36.8456,0,0.000885,0,0
0:2:42.278,290.26,36.9559,0,0.000885,0,0
0:2:42.576,290.967,37.0455,0,0.000885,0,0
0:2:42.876,291.198,37.08,0,0.000885,0,0
0:2:43.180,291.434,37.1076,0,0.000885,0,0
0:2:43.480,292.782,37.28,0,0.000885,0,0
0:2:43.781,292.608,37.2593,0,0.000885,0,0
0:2:44.081,293.956,37.4247,0,0.000885,0,0
0:2:44.376,294.192,37.4592,0,0.000885,0,0
0:2:44.676,295.482,37.6247,0,0.000885,0,0
0:2:44.977,296.069,37.6936,0,0.000885,0,0
0:2:45.277,296.656,37.7695,0,0.000885,0,0
0:2:45.568,296.714,37.7764,0,0.000885,0,0
0:2:45.867,298.004,37.9418,0,0.000885,0,0
0:2:46.176,297.946,37.935,0,0.000885,0,0
0:2:46.467,298.12,37.9556,0,0.000885,0,0
0:2:46.767,299.058,38.0797,0,0.000885,0,0
0:2:47.070,299.703,38.1625,0,0.000885,0,0
0:2:47.370,300.406,38.2521,0,0.000885,0,0
0:2:47.676,300.7,38.2866,0,0.000885,0,0
0:2:47.975,301.345,38.3693,0,0.000885,0,0
0:2:48.275,302.226,38.4796,0,0.000885,0,0
0:2:48.575,302.813,38.5555,0,0.000885,0,0
0:2:48.871,302.991,38.5762,0,0.000885,0,0
0:2:49.169,303.693,38.6658,0,0.000885,0,0
0:2:49.474,304.281,38.7416,0,0.000885,0,0
0:2:49.774,304.983,38.8313,0,0.000885,0,0
0:2:50.077,305.277,38.8657,0,0.000885,0,0
0:2:50.376,305.802,38.9347,0,0.000885,0,0
0:2:50.669,306.509,39.0243,0,0.000885,0,0
0:2:50.965,307.448,39.1484,0,0.000885,0,0
0:2:51.276,307.621,39.1691,0,0.000885,0,0
0:2:51.579,308.266,39.2519,0,0.000885,0,0
0:2:51.876,308.969,39.3415,0,0.000885,0,0
0:2:52.171,309.614,39.4242,0,0.000885,0,0
0:2:52.471,310.846,39.5759,0,0.000885,0,0
0:2:52.777,311.26,39.6311,0,0.000885,0,0
0:2:53.076,311.669,39.6862,0,0.000885,0,0
0:2:53.376,311.669,39.6862,0,0.000885,0,0
0:2:53.676,312.723,39.8172,0,0.000885,0,0
0:2:53.970,313.137,39.8724,0,0.000885,0,0
0:2:54.267,314.013,39.9827,0,0.000885,0,0
0:2:54.570,314.485,40.0448,0,0.000885,0,0
0:2:54.870,314.894,40.093,0,0.000885,0,0
0:2:55.162,315.597,40.1826,0,0.000885,0,0
0:2:55.461,315.775,40.2033,0,0.000885,0,0
0:2:55.757,317.243,40.3895,0,0.000885,0,0
0:2:56.071,317.652,40.4446,0,0.000885,0,0
0:2:56.370,317.888,40.4722,0,0.000885,0,0
0:2:56.674,318.47,40.5481,0,0.000885,0,0
0:2:56.972,319.178,40.6377,0,0.000885,0,0
0:2:57.279,319.178,40.6377,0,0.000885,0,0
0:2:57.578,320.468,40.8032,0,0.000885,0,0
0:2:57.882,320.699,40.8308,0,0.000885,0,0
0:2:58.182,321.406,40.9204,0,0.000885,0,0
0:2:58.483,321.873,40.9824,0,0.000885,0,0
0:2:58.783,322.225,41.0238,0,0.000885,0,0
0:2:59.080,323.515,41.1893,0,0.000885,0,0
0:2:59.376,323.808,41.2306,0,0.000885,0,0
0:2:59.681,324.222,41.2789,0,0.000885,0,0
0:2:59.980,324.925,41.3685,0,0.000885,0,0
0:3:0.270,325.743,41.472,0,0.000885,0,0
0:3:0.572,326.388,41.5547,0,0.000885,0,0
0:3:0.877,326.74,41.603,0,0.000885,0,0
0:3:1.172,327.563,41.7064,0,0.000885,0,0
0:3:1.469,327.798,41.734,0,0.000885,0,0
0:3:1.776,328.737,41.8581,0,0.000885,0,0
0:3:2.073,329.675,41.9753,0,0.000885,0,0
0:3:2.364,330.027,42.0235,0,0.000885,0,0
0:3:2.664,330.2,42.0442,0,0.000885,0,0
0:3:2.968,331.023,42.1477,0,0.000885,0,0
0:3:3.270,331.726,42.2373,0,0.000885,0,0
0:3:3.571,332.255,42.3062,0,0.000885,0,0
0:3:3.871,332.313,42.3131,0,0.000885,0,0
0:3:4.170,333.194,42.4234,0,0.000885,0,0
0:3:4.475,333.368,42.4441,0,0.000885,0,0
0:3:4.771,334.542,42.5958,0,0.000885,0,0
0:3:5.068,334.6,42.6027,0,0.000885,0,0
0:3:5.382,335.307,42.6923,0,0.000885,0,0
0:3:5.683,336.535,42.8509,0,0.000885,0,0
0:3:5.976,337.006,42.9061,0,0.000885,0,0
0:3:6.282,337.358,42.9543,0,0.000885,0,0
0:3:6.579,338.474,43.0922,0,0.000885,0,0
0:3:6.872,338.354,43.0784,0,0.000885,0,0
0:3:7.171,338.825,43.1405,0,0.000885,0,0
0:3:7.473,340.058,43.2991,0,0.000885,0,0
0:3:7.777,340.467,43.3473,0,0.000885,0,0
0:3:8.078,341.641,43.499,0,0.000885,0,0
0:3:8.380,341.699,43.5059,0,0.000885,0,0
0:3:8.680,342.869,43.6576,0,0.000885,0,0
0:3:8.982,343.225,43.699,0,0.000885,0,0
0:3:9.282,343.807,43.7748,0,0.000885,0,0
0:3:9.583,343.456,43.7334,0,0.000885,0,0
0:3:9.881,344.63,43.8782,0,0.000885,0,0
0:3:10.179,345.097,43.9403,0,0.000885,0,0
0:3:10.482,345.275,43.961,0,0.000885,0,0
0:3:10.781,345.863,44.0368,0,0.000885,0,0
0:3:11.084,346.681,44.1402,0,0.000885,0,0
0:3:11.383,347.268,44.2161,0,0.000885,0,0
0:3:11.677,348.265,44.3402,0,0.000885,0,0
0:3:11.971,348.678,44.3953,0,0.000885,0,0
0:3:12.268,349.439,44.4919,0,0.000885,0,0
0:3:12.570,349.733,44.5263,0,0.000885,0,0
0:3:12.872,350.378,44.6091,0,0.000885,0,0
0:3:13.173,350.787,44.6642,0,0.000885,0,0
0:3:13.473,351.725,44.7814,0,0.000885,0,0
0:3:13.771,351.725,44.7814,0,0.000885,0,0
0:3:14.068,352.784,44.9193,0,0.000885,0,0
0:3:14.377,353.251,44.9745,0,0.000885,0,0
0:3:14.681,354.247,45.1055,0,0.000885,0,0
0:3:14.981,353.954,45.0641,0,0.000885,0,0
0:3:15.272,355.013,45.202,0,0.000885,0,0
0:3:15.569,355.422,45.2503,0,0.000885,0,0
0:3:15.879,356.827,45.4296,0,0.000885,0,0
0:3:16.181,357.241,45.4847,0,0.000885,0,0
0:3:16.480,357.593,45.533,0,0.000885,0,0
0:3:16.772,358.531,45.6502,0,0.000885,0,0
0:3:17.069,358.411,45.6364,0,0.000885,0,0
0:3:17.377,359.176,45.7329,0,0.000885,0,0
0:3:17.674,359.412,45.7605,0,0.000885,0,0
0:3:17.979,360.057,45.8432,0,0.000885,0,0
0:3:18.280,360.644,45.9191,0,0.000885,0,0
0:3:18.580,361.578,46.0363,0,0.000885,0,0
0:3:18.881,362.579,46.1673,0,0.000885,0,0
0:3:19.177,362.988,46.2156,0,0.000885,0,0
0:3:19.483,363.518,46.2845,0,0.000885,0,0
0:3:19.778,363.811,46.319,0,0.000885,0,0
0:3:20.078,365.101,46.4845,0,0.000885,0,0
0:3:20.380,364.981,46.4707,0,0.000885,0,0
0:3:20.680,365.977,46.5948,0,0.000885,0,0
0:3:20.984,366.271,46.6361,0,0.000885,0,0
0:3:21.280,366.8,46.7051,0,0.000885,0,0
0:3:21.586,367.503,46.7947,0,0.000885,0,0
0:3:21.880,367.623,46.8085,0,0.000885,0,0
0:3:22.180,368.442,46.9119,0,0.000885,0,0
0:3:22.472,368.678,46.9395,0,0.000885,0,0
0:3:22.772,369.38,47.0291,0,0.000885,0,0
0:3:23.075,370.377,47.1601,0,0.000885,0,0
0:3:23.379,370.964,47.236,0,0.000885,0,0
0:3:23.679,371.551,47.3049,0,0.000885,0,0
0:3:23.979,372.547,47.4359,0,0.000885,0,0
0:3:24.280,373.428,47.5462,0,0.000885,0,0
0:3:24.584,373.192,47.5187,0,0.000885,0,0
0:3:24.879,374.073,47.629,0,0.000885,0,0
0:3:25.179,374.54,47.691,0,0.000885,0,0
0:3:25.481,375.127,47.76,0,0.000885,0,0
0:3:25.782,375.95,47.8703,0,0.000885,0,0
0:3:26.085,376.008,47.8772,0,0.000885,0,0
0:3:26.382,377.062,48.0082,0,0.000885,0,0
0:3:26.678,377.414,48.0565,0,0.000885,0,0
0:3:26.982,377.534,48.0702,0,0.000885,0,0
0:3:27.282,378.53,48.1944,0,0.000885,0,0
0:3:27.586,379.117,48.2702,0,0.000885,0,0
0:3:27.886,379.291,48.2909,0,0.000885,0,0
0:3:28.187,380.056,48.3874,0,0.000885,0,0
0:3:28.487,380.759,48.477,0,0.000885,0,0
0:3:28.787,381.462,48.5667,0,0.000885,0,0
0:3:29.080,381.813,48.6149,0,0.000885,0,0
0:3:29.380,383.103,48.7804,0,0.000885,0,0
0:3:29.682,383.397,48.8149,0,0.000885,0,0
0:3:29.979,384.513,48.9597,0,0.000885,0,0
0:3:30.286,385.043,49.0217,0,0.000885,0,0
0:3:30.579,385.803,49.1251,0,0.000885,0,0
0:3:30.879,386.212,49.1734,0,0.000885,0,0
0:3:31.180,385.977,49.1458,0,0.000885,0,0
0:3:31.479,386.39,49.1941,0,0.000885,0,0
0:3:31.773,387.035,49.2768,0,0.000885,0,0
0:3:32.075,387.56,49.3458,0,0.000885,0,0
0:3:32.379,388.677,49.4906,0,0.000885,0,0
0:3:32.681,388.735,49.4975,0,0.000885,0,0
0:3:32.982,390.025,49.6629,0,0.000885,0,0
0:3:33.282,390.26,49.6905,0,0.000885,0,0
0:3:33.582,391.435,49.8422,0,0.000885,0,0
0:3:33.883,391.728,49.8767,0,0.000885,0,0
0:3:34.176,392.431,49.9663,0,0.000885,0,0
0:3:34.473,392.604,49.987,0,0.000885,0,0
0:3:34.771,393.312,50.0766,0,0.000885,0,0
0:3:35.075,394.072,50.1731,0,0.000885,0,0
0:3:35.373,394.482,50.2283,0,0.000885,0,0
0:3:35.678,394.833,50.2697,0,0.000885,0,0
0:3:35.975,395.247,50.3248,0,0.000885,0,0
0:3:36.281,396.595,50.4972,0,0.000885,0,0
0:3:36.576,397.24,50.5799,0,0.000885,0,0
0:3:36.873,397.355,50.5937,0,0.000885,0,0
0:3:37.168,398.062,50.6834,0,0.000885,0,0
0:3:37.467,398.587,50.7523,0,0.000885,0,0
0:3:37.770,399.468,50.8626,0,0.000885,0,0
0:3:38.072,399.94,50.9247,0,0.000885,0,0
0:3:38.371,399.94,50.9247,0,0.000885,0,0
0:3:38.672,400.522,50.9936,0,0.000885,0,0
0:3:38.971,401.461,51.1177,0,0.000885,0,0
0:3:39.267,402.168,51.2074,0,0.000885,0,0
0:3:39.573,403.338,51.3522,0,0.000885,0,0
0:3:39.881,403.396,51.359,0,0.000885,0,0
0:3:40.186,404.103,51.4487,0,0.000885,0,0
0:3:40.485,404.922,51.559,0,0.000885,0,0
0:3:40.775,404.806,51.5383,0,0.000885,0,0
0:3:41.075,405.335,51.6073,0,0.000885,0,0
0:3:41.371,406.038,51.6969,0,0.000885,0,0
0:3:41.674,406.741,51.7865,0,0.000885,0,0
0:3:41.974,407.795,51.9244,0,0.000885,0,0
0:3:42.276,407.973,51.9451,0,0.000885,0,0
0:3:42.580,408.796,52.0485,0,0.000885,0,0
0:3:42.881,408.796,52.0485,0,0.000885,0,0
0:3:43.183,409.614,52.1519,0,0.000885,0,0
0:3:43.484,410.495,52.2692,0,0.000885,0,0
0:3:43.784,410.789,52.3036,0,0.000885,0,0
0:3:44.083,411.376,52.3795,0,0.000885,0,0
0:3:44.377,411.963,52.4553,0,0.000885,0,0
0:3:44.684,413.369,52.6346,0,0.000885,0,0
0:3:44.982,414.014,52.7173,0,0.000885,0,0
0:3:45.285,413.898,52.6966,0,0.000885,0,0
0:3:45.585,414.307,52.7518,0,0.000885,0,0
0:3:45.876,415.068,52.8483,0,0.000885,0,0
0:3:46.174,415.775,52.9379,0,0.000885,0,0
0:3:46.472,416.652,53.0483,0,0.000885,0,0
0:3:46.774,416.887,53.0827,0,0.000885,0,0
0:3:47.075,417.768,53.1931,0,0.000885,0,0
0:3:47.380,418.471,53.2827,0,0.000885,0,0
0:3:47.682,418.822,53.3241,0,0.000885,0,0
0:3:47.983,419.058,53.3585,0,0.000885,0,0
0:3:48.285,419.645,53.4275,0,0.000885,0,0
0:3:48.584,420.054,53.4826,0,0.000885,0,0
0:3:48.883,420.699,53.5654,0,0.000885,0,0
0:3:49.182,421.638,53.6826,0,0.000885,0,0
0:3:49.475,422.047,53.7377,0,0.000885,0,0
0:3:49.773,422.341,53.7722,0,0.000885,0,0
0:3:50.071,423.515,53.9239,0,0.000885,0,0
0:3:50.374,423.751,53.9515,0,0.000885,0,0
0:3:50.674,424.747,54.0825,0,0.000885,0,0
0:3:50.990,425.157,54.1307,0,0.000885,0,0
0:3:51.284,425.099,54.1238,0,0.000885,0,0
0:3:51.583,426.389,54.2893,0,0.000885,0,0
0:3:51.875,427.149,54.3858,0,0.000885,0,0
0:3:52.175,427.563,54.441,0,0.000885,0,0
0:3:52.467,427.857,54.4755,0,0.000885,0,0
0:3:52.769,428.675,54.5789,0,0.000885,0,0
0:3:53.071,429.498,54.6823,0,0.000885,0,0
0:3:53.373,429.965,54.7444,0,0.000885,0,0
0:3:53.673,430.437,54.8064,0,0.000885,0,0
0:3:53.973,430.73,54.8409,0,0.000885,0,0
0:3:54.272,431.669,54.965,0,0.000885,0,0
0:3:54.567,432.078,55.0133,0,0.000885,0,0
0:3:54.873,432.487,55.0684,0,0.000885,0,0
0:3:55.173,433.777,55.227,0,0.000885,0,0
0:3:55.465,434.133,55.2753,0,0.000885,0,0
0:3:55.773,434.952,55.3787,0,0.000885,0,0
0:3:56.081,435.129,55.3994,0,0.000885,0,0
0:3:56.385,435.832,55.489,0,0.000885,0,0
0:3:56.683,436.006,55.5166,0,0.000885,0,0
0:3:56.976,436.593,55.5855,0,0.000885,0,0
0:3:57.275,436.944,55.6338,0,0.000885,0,0
0:3:57.581,437.532,55.7096,0,0.000885,0,0
0:3:57.881,438.119,55.7855,0,0.000885,0,0
0:3:58.183,439.235,55.9234,0,0.000885,0,0
0:3:58.482,439.88,56.0061,0,0.000885,0,0
0:3:58.782,440.467,56.082,0,0.000885,0,0
0:3:59.085,440.992,56.1509,0,0.000885,0,0
0:3:59.385,441.401,56.1992,0,0.000885,0,0
0:3:59.678,442.812,56.3784,0,0.000885,0,0
0:3:59.974,442.869,56.3853,0,0.000885,0,0
0:4:0.283,443.572,56.475,0,0.000885,0,0
0:4:0.586,444.159,56.5508,0,0.000885,0,0
0:4:0.885,444.569,56.606,0,0.000885,0,0
0:4:1.179,445.218,56.6887,0,0.000885,0,0
0:4:1.475,445.743,56.7507,0,0.000885,0,0
0:4:1.773,446.037,56.7921,0,0.000885,0,0
0:4:2.087,446.566,56.8611,0,0.000885,0,0
0:4:2.388,447.856,57.0196,0,0.000885,0,0
0:4:2.690,448.323,57.0817,0,0.000885,0,0
0:4:2.992,448.323,57.0817,0,0.000885,0,0
0:4:3.293,449.204,57.192,0,0.000885,0,0
0:4:3.593,449.906,57.2816,0,0.000885,0,0
0:4:3.894,450.729,57.392,0,0.000885,0,0
0:4:4.188,451.548,57.4954,0,0.000885,0,0
0:4:4.487,451.49,57.4885,0,0.000885,0,0
0:4:4.783,451.726,57.5161,0,0.000885,0,0
0:4:5.088,452.255,57.585,0,0.000885,0,0
0:4:5.386,453.661,57.7643,0,0.000885,0,0
0:4:5.677,453.897,57.7919,0,0.000885,0,0
0:4:5.978,454.364,57.8539,0,0.000885,0,0
0:4:6.279,455.071,57.9435,0,0.000885,0,0
0:4:6.579,455.832,58.0401,0,0.000885,0,0
0:4:6.874,456.361,58.1021,0,0.000885,0,0
0:4:7.170,457.299,58.2262,0,0.000885,0,0
0:4:7.468,457.593,58.2607,0,0.000885,0,0
0:4:7.771,457.766,58.2814,0,0.000885,0,0
0:4:8.073,458.821,58.4193,0,0.000885,0,0
0:4:8.374,459.408,58.4951,0,0.000885,0,0
0:4:8.674,459.937,58.5641,0,0.000885,0,0
0:4:8.974,460.404,58.6192,0,0.000885,0,0
0:4:9.278,461.227,58.7226,0,0.000885,0,0
0:4:9.578,462.05,58.833,0,0.000885,0,0
0:4:9.872,462.575,58.895,0,0.000885,0,0
0:4:10.170,462.989,58.9502,0,0.000885,0,0
0:4:10.474,463.398,58.9984,0,0.000885,0,0
0:4:10.772,463.807,59.0536,0,0.000885,0,0
0:4:11.071,464.159,59.1019,0,0.000885,0,0
0:4:11.372,465.155,59.226,0,0.000885,0,0
0:4:11.672,465.626,59.288,0,0.000885,0,0
0:4:11.967,466.214,59.357,0,0.000885,0,0
0:4:12.274,466.859,59.4397,0,0.000885,0,0
0:4:12.570,467.326,59.5018,0,0.000885,0,0
0:4:12.873,467.855,59.5707,0,0.000885,0,0
0:4:13.175,468.149,59.6052,0,0.000885,0,0
0:4:13.477,468.909,59.7017,0,0.000885,0,0
0:4:13.777,470.084,59.8534,0,0.000885,0,0
0:4:14.078,470.844,59.9499,0,0.000885,0,0
0:4:14.384,471.316,60.012,0,0.000885,0,0
0:4:14.683,471.667,60.0533,0,0.000885,0,0
0:4:14.986,472.428,60.1499,0,0.000885,0,0
0:4:15.286,473.135,60.2395,0,0.000885,0,0
0:4:15.578,473.486,60.2878,0,0.000885,0,0
0:4:15.886,474.247,60.3843,0,0.000885,0,0
0:4:16.184,474.719,60.4394,0,0.000885,0,0
0:4:16.476,475.07,60.4877,0,0.000885,0,0
0:4:16.776,475.421,60.5291,0,0.000885,0,0
0:4:17.079,476.418,60.6601,0,0.000885,0,0
0:4:17.380,476.947,60.729,0,0.000885,0,0
0:4:17.686,477.592,60.8118,0,0.000885,0,0
0:4:17.985,477.886,60.8462,0,0.000885,0,0
0:4:18.286,478.531,60.929,0,0.000885,0,0
0:4:18.585,478.998,60.991,0,0.000885,0,0
0:4:18.885,479.936,61.1082,0,0.000885,0,0
0:4:19.178,480.639,61.1979,0,0.000885,0,0
0:4:19.476,481.169,61.2668,0,0.000885,0,0
0:4:19.784,481.756,61.3358,0,0.000885,0,0
0:4:20.086,482.049,61.3771,0,0.000885,0,0
0:4:20.387,483.219,61.5288,0,0.000885,0,0
0:4:20.690,483.691,61.584,0,0.000885,0,0
0:4:20.988,484.1,61.6391,0,0.000885,0,0
0:4:21.283,484.278,61.6598,0,0.000885,0,0
0:4:21.590,485.568,61.8253,0,0.000885,0,0
0:4:21.887,485.741,61.846,0,0.000885,0,0
0:4:22.178,485.977,61.8736,0,0.000885,0,0
0:4:22.479,486.742,61.977,0,0.000885,0,0
0:4:22.781,487.151,62.0252,0,0.000885,0,0
0:4:23.084,488.09,62.1424,0,0.000885,0,0
0:4:23.385,489.086,62.2734,0,0.000885,0,0
0:4:23.685,489.144,62.2803,0,0.000885,0,0
0:4:23.986,489.909,62.3769,0,0.000885,0,0
0:4:24.277,490.492,62.4527,0,0.000885,0,0
0:4:24.575,491.137,62.5354,0,0.000885,0,0
0:4:24.873,491.786,62.6182,0,0.000885,0,0
0:4:25.188,492.254,62.6733,0,0.000885,0,0
0:4:25.486,492.841,62.7492,0,0.000885,0,0
0:4:25.777,493.192,62.7974,0,0.000885,0,0
0:4:26.077,494.015,62.9009,0,0.000885,0,0
0:4:26.379,494.131,62.9147,0,0.000885,0,0
0:4:26.689,494.776,62.9974,0,0.000885,0,0
0:4:26.988,495.599,63.1008,0,0.000885,0,0
0:4:27.288,496.244,63.1836,0,0.000885,0,0
0:4:27.588,496.711,63.2456,0,0.000885,0,0
0:4:27.890,497.534,63.349,0,0.000885,0,0
0:4:28.193,498.294,63.4456,0,0.000885,0,0
0:4:28.493,498.703,63.4938,0,0.000885,0,0
0:4:28.795,499.704,63.6248,0,0.000885,0,0
0:4:29.094,500.581,63.7351,0,0.000885,0,0
0:4:29.388,500.638,63.742,0,0.000885,0,0
0:4:29.687,500.994,63.7903,0,0.000885,0,0
0:4:29.992,501.813,63.8937,0,0.000885,0,0
0:4:30.289,502.284,63.9558,0,0.000885,0,0
0:4:30.587,502.929,64.0316,0,0.000885,0,0
0:4:30.888,503.045,64.0523,0,0.000885,0,0
0:4:31.188,503.868,64.1557,0,0.000885,0,0
0:4:31.480,504.335,64.2109,0,0.000885,0,0
0:4:31.778,504.806,64.2729,0,0.000885,0,0
0:4:32.073,505.745,64.3901,0,0.000885,0,0
0:4:32.370,506.328,64.466,0,0.000885,0,0
0:4:32.668,506.563,64.5005,0,0.000885,0,0
0:4:32.972,507.738,64.6452,0,0.000885,0,0
0:4:33.273,507.911,64.6728,0,0.000885,0,0
0:4:33.573,508.619,64.7625,0,0.000885,0,0
0:4:33.873,509.379,64.859,0,0.000885,0,0
0:4:34.173,509.909,64.921,0,0.000885,0,0
0:4:34.469,510.669,65.0176,0,0.000885,0,0
0:4:34.769,511.256,65.0934,0,0.000885,0,0
0:4:35.072,511.256,65.0934,0,0.000885,0,0
0:4:35.370,511.959,65.183,0,0.000885,0,0
0:4:35.675,512.956,65.314,0,0.000885,0,0
0:4:35.990,512.782,65.2865,0,0.000885,0,0
0:4:36.289,513.778,65.4175,0,0.000885,0,0
0:4:36.580,514.246,65.4726,0,0.000885,0,0
0:4:36.880,514.539,65.514,0,0.000885,0,0
0:4:37.174,515.54,65.6381,0,0.000885,0,0
0:4:37.474,516.243,65.7277,0,0.000885,0,0
0:4:37.776,517.124,65.8449,0,0.000885,0,0
0:4:38.077,517.769,65.9208,0,0.000885,0,0
0:4:38.377,518,65.9552,0,0.000885,0,0
0:4:38.678,518.587,66.0311,0,0.000885,0,0
0:4:38.977,519.29,66.1207,0,0.000885,0,0
0:4:39.282,519.526,66.1483,0,0.000885,0,0
0:4:39.578,520.228,66.2379,0,0.000885,0,0
0:4:39.877,520.994,66.3345,0,0.000885,0,0
0:4:40.170,521.287,66.3689,0,0.000885,0,0
0:4:40.469,521.932,66.4517,0,0.000885,0,0
0:4:40.782,522.693,66.5482,0,0.000885,0,0
0:4:41.080,523.338,66.6309,0,0.000885,0,0
0:4:41.376,523.809,66.693,0,0.000885,0,0
0:4:41.681,524.512,66.7826,0,0.000885,0,0
0:4:41.982,525.041,66.8516,0,0.000885,0,0
0:4:42.285,525.566,66.9205,0,0.000885,0,0
0:4:42.586,526.389,67.0239,0,0.000885,0,0
0:4:42.887,526.856,67.0791,0,0.000885,0,0
0:4:43.190,527.208,67.1274,0,0.000885,0,0
0:4:43.489,527.679,67.1894,0,0.000885,0,0
0:4:43.790,528.733,67.3204,0,0.000885,0,0
0:4:44.090,529.378,67.4031,0,0.000885,0,0
0:4:44.383,529.85,67.4652,0,0.000885,0,0
0:4:44.678,530.201,67.5066,0,0.000885,0,0
0:4:44.977,530.846,67.5893,0,0.000885,0,0
0:4:45.280,531.491,67.672,0,0.000885,0,0
0:4:45.580,532.021,67.741,0,0.000885,0,0
0:4:45.883,533.017,67.8651,0,0.000885,0,0
0:4:46.182,533.133,67.8789,0,0.000885,0,0
0:4:46.477,533.956,67.9823,0,0.000885,0,0
0:4:46.773,534.307,68.0306,0,0.000885,0,0
0:4:47.071,534.952,68.1133,0,0.000885,0,0
0:4:47.375,535.419,68.1685,0,0.000885,0,0
0:4:47.676,536.122,68.2581,0,0.000885,0,0
0:4:47.980,536.358,68.2926,0,0.000885,0,0
0:4:48.281,536.593,68.3201,0,0.000885,0,0
0:4:48.581,537.59,68.4512,0,0.000885,0,0
0:4:48.881,537.883,68.4856,0,0.000885,0,0
0:4:49.181,538.644,68.5822,0,0.000885,0,0
0:4:49.476,539.409,68.6787,0,0.000885,0,0
0:4:49.773,539.818,68.7338,0,0.000885,0,0
0:4:50.068,540.641,68.8373,0,0.000885,0,0
0:4:50.374,541.051,68.8855,0,0.000885,0,0
0:4:50.673,541.873,68.9958,0,0.000885,0,0
0:4:50.987,542.576,69.0855,0,0.000885,0,0
0:4:51.288,543.163,69.1544,0,0.000885,0,0
0:4:51.580,543.457,69.1958,0,0.000885,0,0
0:4:51.877,543.808,69.2372,0,0.000885,0,0
0:4:52.182,544.805,69.3682,0,0.000885,0,0
0:4:52.483,545.272,69.4233,0,0.000885,0,0
0:4:52.787,545.859,69.4992,0,0.000885,0,0
0:4:53.088,546.388,69.5681,0,0.000885,0,0
0:4:53.389,547.269,69.6784,0,0.000885,0,0
0:4:53.689,547.5,69.7129,0,0.000885,0,0
0:4:53.983,548.675,69.8577,0,0.000885,0,0
0:4:54.280,548.853,69.8853,0,0.000885,0,0
0:4:54.584,549.671,69.9887,0,0.000885,0,0
0:4:54.883,549.965,70.0232,0,0.000885,0,0
0:4:55.178,550.258,70.0645,0,0.000885,0,0
0:4:55.475,551.023,70.1611,0,0.000885,0,0
0:4:55.773,551.606,70.23,0,0.000885,0,0
0:4:56.076,552.429,70.3403,0,0.000885,0,0
0:4:56.375,553.368,70.4575,0,0.000885,0,0
0:4:56.678,553.897,70.5265,0,0.000885,0,0
0:4:56.978,554.191,70.5609,0,0.000885,0,0
0:4:57.281,554.6,70.6161,0,0.000885,0,0
0:4:57.582,555.245,70.6988,0,0.000885,0,0
0:4:57.884,555.596,70.7402,0,0.000885,0,0
0:4:58.185,556.299,70.8298,0,0.000885,0,0
0:4:58.484,556.65,70.8781,0,0.000885,0,0
0:4:58.784,557.295,70.9539,0,0.000885,0,0
0:4:59.082,558.003,71.0436,0,0.000885,0,0
0:4:59.390,558.648,71.1263,0,0.000885,0,0
0:4:59.694,559.351,71.2159,0,0.000885,0,0
0:4:59.993,558.941,71.1677,0,0.000885,0,0
0:5:0.287,560.231,71.3332,0,0.000885,0,0
0:5:0.583,560.756,71.3952,0,0.000885,0,0
0:5:0.879,560.756,71.3952,0,0.000885,0,0
0:5:1.184,561.579,71.5055,0,0.000885,0,0
0:5:1.484,562.108,71.5676,0,0.000885,0,0
0:5:1.785,563.22,71.7124,0,0.000885,0,0
0:5:2.084,563.572,71.7537,0,0.000885,0,0
0:5:2.379,564.217,71.8365,0,0.000885,0,0
0:5:2.681,564.626,71.8916,0,0.000885,0,0
0:5:2.983,565.627,72.0157,0,0.000885,0,0
0:5:3.284,565.685,72.0226,0,0.000885,0,0
0:5:3.583,566.503,72.133,0,0.000885,0,0
0:5:3.885,566.739,72.1605,0,0.000885,0,0
0:5:4.192,567.793,72.2915,0,0.000885,0,0
0:5:4.492,568.501,72.3812,0,0.000885,0,0
0:5:4.793,569.025,72.4501,0,0.000885,0,0
0:5:5.094,570.022,72.5811,0,0.000885,0,0
0:5:5.389,570.493,72.6363,0,0.000885,0,0
0:5:5.685,570.96,72.6983,0,0.000885,0,0
0:5:5.979,570.729,72.6707,0,0.000885,0,0
0:5:6.284,571.08,72.7121,0,0.000885,0,0
0:5:6.583,572.077,72.8362,0,0.000885,0,0
0:5:6.877,572.428,72.8845,0,0.000885,0,0
0:5:7.175,573.073,72.9672,0,0.000885,0,0
0:5:7.472,574.363,73.1327,0,0.000885,0,0
0:5:7.774,574.95,73.2016,0,0.000885,0,0
0:5:8.077,576.183,73.3602,0,0.000885,0,0
0:5:8.377,576.476,73.4016,0,0.000885,0,0
0:5:8.676,577.473,73.5257,0,0.000885,0,0
0:5:8.977,577.824,73.574,0,0.000885,0,0
0:5:9.272,578.233,73.6222,0,0.000885,0,0
0:5:9.571,579.234,73.7532,0,0.000885,0,0
0:5:9.874,579.292,73.7601,0,0.000885,0,0
0:5:10.173,579.528,73.7877,0,0.000885,0,0
0:5:10.477,580.173,73.8704,0,0.000885,0,0
0:5:10.782,581.227,74.0014,0,0.000885,0,0
0:5:11.080,581.988,74.098,0,0.000885,0,0
0:5:11.382,582.459,74.16,0,0.000885,0,0
0:5:11.684,582.984,74.229,0,0.000885,0,0
0:5:11.989,583.629,74.3117,0,0.000885,0,0
0:5:12.284,584.688,74.4427,0,0.000885,0,0
0:5:12.580,584.981,74.4841,0,0.000885,0,0
0:5:12.881,585.626,74.5668,0,0.000885,0,0
0:5:13.184,586.329,74.6564,0,0.000885,0,0
0:5:13.484,587.268,74.7736,0,0.000885,0,0
0:5:13.784,587.855,74.8495,0,0.000885,0,0
0:5:14.084,588.558,74.9391,0,0.000885,0,0
0:5:14.381,589.26,75.0287,0,0.000885,0,0
0:5:14.682,589.848,75.1046,0,0.000885,0,0
0:5:14.977,590.435,75.1735,0,0.000885,0,0
0:5:15.278,590.493,75.1873,0,0.000885,0,0
0:5:15.574,591.431,75.3045,0,0.000885,0,0
0:5:15.872,592.081,75.3873,0,0.000885,0,0
0:5:16.172,592.374,75.4217,0,0.000885,0,0
0:5:16.475,592.899,75.4907,0,0.000885,0,0
0:5:16.778,593.548,75.5734,0,0.000885,0,0
0:5:17.083,594.309,75.67,0,0.000885,0,0
0:5:17.385,594.718,75.7251,0,0.000885,0,0
0:5:17.691,595.368,75.801,0,0.000885,0,0
0:5:17.994,595.955,75.8768,0,0.000885,0,0
0:5:18.295,596.894,76.0009,0,0.000885,0,0
0:5:18.598,597.774,76.1112,0,0.000885,0,0
0:5:18.895,598.006,76.1388,0,0.000885,0,0
0:5:19.196,598.593,76.2146,0,0.000885,0,0
0:5:19.490,599.242,76.2974,0,0.000885,0,0
0:5:19.793,599.945,76.387,0,0.000885,0,0
0:5:20.086,599.709,76.3594,0,0.000885,0,0
0:5:20.384,599.536,76.3319,0,0.000885,0,0
0:5:20.693,599.767,76.3663,0,0.000885,0,0
0:5:20.986,599.829,76.3732,0,0.000885,0,0
0:5:21.287,599.473,76.325,0,0.000885,0,0
0:5:21.580,598.241,76.1733,0,0.000885,0,0
0:5:21.880,598.126,76.1526,0,0.000885,0,0
0:5:22.176,598.713,76.2284,0,0.000885,0,0
0:5:22.478,599.709,76.3594,0,0.000885,0,0
0:5:22.783,600.532,76.4629,0,0.000885,0,0
0:5:23.086,601.177,76.5456,0,0.000885,0,0
0:5:23.387,601.764,76.6214,0,0.000885,0,0
0:5:23.691,602.236,76.6766,0,0.000885,0,0
0:5:23.996,602.236,76.6766,0,0.000885,0,0
0:5:24.296,602.823,76.7524,0,0.000885,0,0
0:5:24.591,603.641,76.8559,0,0.000885,0,0
0:5:24.892,604.171,76.9248,0,0.000885,0,0
0:5:25.185,605.229,77.0627,0,0.000885,0,0
0:5:25.484,605.697,77.1179,0,0.000885,0,0
0:5:25.783,606.284,77.1937,0,0.000885,0,0
0:5:26.077,606.813,77.2627,0,0.000885,0,0
0:5:26.377,606.284,77.1937,0,0.000885,0,0
0:5:26.694,607.164,77.304,0,0.000885,0,0
0:5:26.992,606.226,77.1868,0,0.000885,0,0
0:5:27.288,603.877,76.8903,0,0.000885,0,0
0:5:27.590,603.468,76.8352,0,0.000885,0,0
0:5:27.895,602.351,76.6904,0,0.000885,0,0
0:5:28.196,601.649,76.6008,0,0.000885,0,0
0:5:28.497,601.764,76.6214,0,0.000885,0,0
0:5:28.797,602.174,76.6697,0,0.000885,0,0
0:5:29.095,603.117,76.7938,0,0.000885,0,0
0:5:29.394,603.348,76.8214,0,0.000885,0,0
0:5:29.688,602.058,76.6559,0,0.000885,0,0
0:5:29.986,599.006,76.2698,0,0.000885,0,0
0:5:30.293,598.299,76.1802,0,0.000885,0,0
0:5:30.588,595.661,75.8423,0,0.000885,0,0
0:5:30.887,593.371,75.5528,0,0.000885,0,0
0:5:31.192,591.667,75.3321,0,0.000885,0,0
0:5:31.492,590.083,75.1322,0,0.000885,0,0
0:5:31.785,590.025,75.1253,0,0.000885,0,0
0:5:32.092,582.401,74.1531,0,0.000885,0,0
0:5:32.397,578.998,73.7187,0,0.000885,0,0
0:5:32.698,576.183,73.3602,0,0.000885,0,0
0:5:33.000,576.005,73.3395,0,0.000885,0,0
0:5:33.300,574.07,73.0913,0,0.000885,0,0
0:5:33.600,573.66,73.0431,0,0.000885,0,0
0:5:33.899,571.254,72.7328,0,0.000885,0,0
0:5:34.195,571.196,72.7259,0,0.000885,0,0
0:5:34.491,571.196,72.7259,0,0.000885,0,0
0:5:34.782,569.733,72.5397,0,0.000885,0,0
0:5:35.082,567.442,72.2502,0,0.000885,0,0
0:5:35.385,563.572,71.7537,0,0.000885,0,0
0:5:35.681,560.756,71.3952,0,0.000885,0,0
0:5:35.986,558.528,71.1125,0,0.000885,0,0
0:5:36.291,553.425,70.4644,0,0.000885,0,0
0:5:36.588,547.207,69.6715,0,0.000885,0,0
0:5:36.892,542.105,69.0234,0,0.000885,0,0
0:5:37.191,539.058,68.6373,0,0.000885,0,0
0:5:37.495,522.283,66.4999,0,0.000885,0,0
0:5:37.794,513.663,65.4037,0,0.000885,0,0
0:5:38.097,508.205,64.7073,0,0.000885,0,0
0:5:38.396,504.041,64.1764,0,0.000885,0,0
0:5:38.695,494.366,62.9422,0,0.000885,0,0
0:5:38.995,488.326,62.1769,0,0.000885,0,0
0:5:39.292,483.575,61.5702,0,0.000885,0,0
0:5:39.598,477.766,60.8324,0,0.000885,0,0
0:5:39.899,467.388,59.5087,0,0.000885,0,0