File: DataFile2021-06-08_071356.csv
Test ID:,Date Tested:,Time:,Test Type:,Diameter Avg. (mm):,Cyl. Corr. Factor:,Height (mm):,Age (days):,Weight (kN):,Break Type:,Ramp Rate (MPa/s):,Load at Break (kN):,Stress at Break (MPa):
12,6/8/2021,07:13,Cylinder,100,1,200,0,3.6,3,0.23,274.07,34.89
Sample Time,Load (kN),Stress (MPa),Long. Strain,Trans. Strain,Chan1 Deflection (mm),Chan2 Deflection (mm)
0:0:22.876,7.68208,0.979056,0,0.000885,0,0
0:0:23.072,14.6035,1.86158,0,0.000885,0,0
0:0:23.273,14.5457,1.85469,0,0.000885,0,0
0:0:23.470,14.3678,1.82711,0,0.000885,0,0
0:0:23.669,13.785,1.75816,0,0.000885,0,0
0:0:23.869,13.5493,1.72369,0,0.000885,0,0
0:0:24.065,13.0199,1.65474,0,0.000885,0,0
0:0:24.266,13.1356,1.67543,0,0.000885,0,0
0:0:24.462,12.6685,1.61337,0,0.000885,0,0
0:0:24.660,12.6685,1.61337,0,0.000885,0,0
0:0:24.861,12.5529,1.59958,0,0.000885,0,0
0:0:25.057,12.5529,1.59958,0,0.000885,0,0
0:0:25.258,12.2015,1.55132,0,0.000885,0,0
0:0:25.454,12.2593,1.55822,0,0.000885,0,0
0:0:25.651,12.3171,1.56511,0,0.000885,0,0
0:0:25.852,12.4906,1.59269,0,0.000885,0,0
0:0:26.048,12.2015,1.55132,0,0.000885,0,0
0:0:26.248,12.1392,1.54443,0,0.000885,0,0
0:0:26.447,12.1392,1.54443,0,0.000885,0,0
0:0:26.641,12.5529,1.59958,0,0.000885,0,0
0:0:26.843,12.9621,1.64785,0,0.000885,0,0
0:0:27.041,13.4915,1.71679,0,0.000885,0,0
0:0:27.239,13.2557,1.68922,0,0.000885,0,0
0:0:27.440,13.6649,1.73748,0,0.000885,0,0
0:0:27.634,13.0778,1.66853,0,0.000885,0,0
0:0:27.835,14.0742,1.79264,0,0.000885,0,0
0:0:28.032,14.1943,1.80643,0,0.000885,0,0
0:0:28.230,14.8971,1.89606,0,0.000885,0,0
0:0:28.432,15.075,1.91674,0,0.000885,0,0
0:0:28.634,15.5421,1.9788,0,0.000885,0,0
0:0:28.838,16.0714,2.04774,0,0.000885,0,0
0:0:29.041,16.7742,2.13737,0,0.000885,0,0
0:0:29.243,17.1835,2.18564,0,0.000885,0,0
0:0:29.445,17.655,2.24769,0,0.000885,0,0
0:0:29.647,18.1799,2.31664,0,0.000885,0,0
0:0:29.849,18.7092,2.38559,0,0.000885,0,0
0:0:30.050,18.945,2.41317,0,0.000885,0,0
0:0:30.247,20.235,2.57864,0,0.000885,0,0
0:0:30.449,20.88,2.66138,0,0.000885,0,0
0:0:30.647,21.1735,2.69585,0,0.000885,0,0
0:0:30.847,21.2892,2.70964,0,0.000885,0,0
0:0:31.047,22.1121,2.81306,0,0.000885,0,0
0:0:31.242,22.2278,2.82685,0,0.000885,0,0
0:0:31.444,22.2856,2.84064,0,0.000885,0,0
0:0:31.642,22.3479,2.84753,0,0.000885,0,0
0:0:31.843,23.1663,2.95096,0,0.000885,0,0
0:0:32.043,23.3443,2.97164,0,0.000885,0,0
0:0:32.237,23.7535,3.0268,0,0.000885,0,0
0:0:32.440,24.3407,3.09575,0,0.000885,0,0
0:0:32.639,24.6343,3.13711,0,0.000885,0,0
0:0:32.837,24.8077,3.1578,0,0.000885,0,0
0:0:33.039,24.87,3.16469,0,0.000885,0,0
0:0:33.242,25.8041,3.2888,0,0.000885,0,0
0:0:33.447,25.9821,3.30948,0,0.000885,0,0
0:0:33.649,26.3913,3.35775,0,0.000885,0,0
0:0:33.851,26.9206,3.42669,0,0.000885,0,0
0:0:34.052,27.2142,3.46806,0,0.000885,0,0
0:0:34.254,27.3877,3.48875,0,0.000885,0,0
0:0:34.456,27.8592,3.54391,0,0.000885,0,0
0:0:34.655,27.917,3.55769,0,0.000885,0,0
0:0:34.853,28.7978,3.66801,0,0.000885,0,0
0:0:35.054,29.0335,3.69559,0,0.000885,0,0
0:0:35.248,29.9098,3.80591,0,0.000885,0,0
0:0:35.450,29.9098,3.80591,0,0.000885,0,0
0:0:35.650,30.3814,3.86796,0,0.000885,0,0
0:0:35.848,30.7906,3.92312,0,0.000885,0,0
0:0:36.050,31.2621,3.97827,0,0.000885,0,0
0:0:36.245,31.4356,4.00585,0,0.000885,0,0
0:0:36.445,31.787,4.04722,0,0.000885,0,0
0:0:36.646,32.0227,4.0748,0,0.000885,0,0
0:0:36.845,32.7834,4.17133,0,0.000885,0,0
0:0:37.047,32.9035,4.19201,0,0.000885,0,0
0:0:37.241,33.4907,4.26096,0,0.000885,0,0
0:0:37.442,33.6063,4.28164,0,0.000885,0,0
0:0:37.642,34.1935,4.35059,0,0.000885,0,0
0:0:37.839,34.5449,4.39886,0,0.000885,0,0
0:0:38.042,35.3055,4.49538,0,0.000885,0,0
0:0:38.244,35.4835,4.51607,0,0.000885,0,0
0:0:38.447,35.6614,4.54365,0,0.000885,0,0
0:0:38.651,36.7734,4.68154,0,0.000885,0,0
0:0:38.853,36.8891,4.69533,0,0.000885,0,0
0:0:39.055,36.9514,4.70222,0,0.000885,0,0
0:0:39.256,37.3606,4.75738,0,0.000885,0,0
0:0:39.460,38.0056,4.84012,0,0.000885,0,0
0:0:39.660,38.1835,4.8608,0,0.000885,0,0
0:0:39.856,39.0598,4.97112,0,0.000885,0,0
0:0:40.058,39.0598,4.97112,0,0.000885,0,0
0:0:40.256,39.9406,5.08833,0,0.000885,0,0
0:0:40.455,40.292,5.1297,0,0.000885,0,0
0:0:40.655,40.4699,5.15038,0,0.000885,0,0
0:0:40.851,40.5277,5.15728,0,0.000885,0,0
0:0:41.052,40.937,5.21244,0,0.000885,0,0
0:0:41.251,41.1727,5.24002,0,0.000885,0,0
0:0:41.450,41.2306,5.24691,0,0.000885,0,0
0:0:41.652,41.9957,5.34344,0,0.000885,0,0
0:0:41.846,42.3471,5.3917,0,0.000885,0,0
0:0:42.048,42.6407,5.42617,0,0.000885,0,0
0:0:42.248,43.2856,5.50891,0,0.000885,0,0
0:0:42.445,44.0463,5.60544,0,0.000885,0,0
0:0:42.647,43.9306,5.59165,0,0.000885,0,0
0:0:42.843,44.5178,5.66749,0,0.000885,0,0
0:0:43.045,44.7491,5.69507,0,0.000885,0,0
0:0:43.245,45.4519,5.7847,0,0.000885,0,0
0:0:43.449,45.8078,5.83296,0,0.000885,0,0
0:0:43.653,46.0391,5.86054,0,0.000885,0,0
0:0:43.855,46.3905,5.90881,0,0.000885,0,0
0:0:44.058,46.862,5.96397,0,0.000885,0,0
0:0:44.260,47.507,6.0467,0,0.000885,0,0
0:0:44.459,47.507,6.0467,0,0.000885,0,0
0:0:44.661,47.5648,6.0536,0,0.000885,0,0
0:0:44.861,48.3878,6.16391,0,0.000885,0,0
0:0:45.062,48.9749,6.23286,0,0.000885,0,0
0:0:45.262,48.6813,6.19839,0,0.000885,0,0
0:0:45.456,49.2685,6.27423,0,0.000885,0,0
0:0:45.660,50.087,6.37765,0,0.000885,0,0
0:0:45.856,50.3806,6.41212,0,0.000885,0,0
0:0:46.055,50.3806,6.41212,0,0.000885,0,0
0:0:46.255,51.0255,6.49486,0,0.000885,0,0
0:0:46.451,51.2035,6.52244,0,0.000885,0,0
0:0:46.654,51.6705,6.5776,0,0.000885,0,0
0:0:46.850,52.2577,6.65344,0,0.000885,0,0
0:0:47.050,53.0184,6.74997,0,0.000885,0,0
0:0:47.251,53.1963,6.77065,0,0.000885,0,0
0:0:47.448,53.7256,6.8396,0,0.000885,0,0
0:0:47.651,53.7834,6.84649,0,0.000885,0,0
0:0:47.849,54.6019,6.94992,0,0.000885,0,0
0:0:48.045,54.5441,6.94302,0,0.000885,0,0
0:0:48.248,54.9533,6.99818,0,0.000885,0,0
0:0:48.451,55.4248,7.06023,0,0.000885,0,0
0:0:48.654,56.012,7.12918,0,0.000885,0,0
0:0:48.858,56.3634,7.17744,0,0.000885,0,0
0:0:49.060,56.5992,7.20502,0,0.000885,0,0
0:0:49.262,57.0084,7.26018,0,0.000885,0,0
0:0:49.464,57.4755,7.31534,0,0.000885,0,0
0:0:49.664,57.4755,7.31534,0,0.000885,0,0
0:0:49.865,58.0626,7.39118,0,0.000885,0,0
0:0:50.064,58.7699,7.48081,0,0.000885,0,0
0:0:50.265,58.8856,7.4946,0,0.000885,0,0
0:0:50.460,59.3526,7.55665,0,0.000885,0,0
0:0:50.662,59.9398,7.6325,0,0.000885,0,0
0:0:50.862,60.1177,7.65318,0,0.000885,0,0
0:0:51.059,60.4113,7.69455,0,0.000885,0,0
0:0:51.262,61.2876,7.80487,0,0.000885,0,0
0:0:51.456,61.8169,7.87381,0,0.000885,0,0
0:0:51.659,61.937,7.8876,0,0.000885,0,0
0:0:51.859,61.9949,7.8945,0,0.000885,0,0
0:0:52.056,62.5198,7.96344,0,0.000885,0,0
0:0:52.259,62.8712,8.00481,0,0.000885,0,0
0:0:52.453,63.5784,8.09445,0,0.000885,0,0
0:0:52.654,63.4583,8.08066,0,0.000885,0,0
0:0:52.855,64.0455,8.1565,0,0.000885,0,0
0:0:53.051,64.517,8.21166,0,0.000885,0,0
0:0:53.254,65.0419,8.2806,0,0.000885,0,0
0:0:53.455,65.1042,8.2875,0,0.000885,0,0
0:0:53.660,65.807,8.37713,0,0.000885,0,0
0:0:53.862,65.9805,8.39781,0,0.000885,0,0
0:0:54.064,66.452,8.45987,0,0.000885,0,0
0:0:54.266,66.8612,8.51503,0,0.000885,0,0
0:0:54.467,67.6219,8.61155,0,0.000885,0,0
0:0:54.669,67.2126,8.55639,0,0.000885,0,0
0:0:54.870,67.7998,8.63224,0,0.000885,0,0
0:0:55.065,67.7998,8.63224,0,0.000885,0,0
0:0:55.268,68.6227,8.73566,0,0.000885,0,0
0:0:55.464,68.7962,8.75634,0,0.000885,0,0
0:0:55.662,69.2677,8.81839,0,0.000885,0,0
0:0:55.864,70.2641,8.94939,0,0.000885,0,0
0:0:56.059,70.7312,9.00455,0,0.000885,0,0
0:0:56.261,70.9669,9.03903,0,0.000885,0,0
0:0:56.460,71.2605,9.0735,0,0.000885,0,0
0:0:56.658,71.8477,9.14934,0,0.000885,0,0
0:0:56.861,72.1413,9.18382,0,0.000885,0,0
0:0:57.056,72.2569,9.19761,0,0.000885,0,0
0:0:57.258,72.9019,9.28034,0,0.000885,0,0
0:0:57.458,73.2533,9.32861,0,0.000885,0,0
0:0:57.654,73.4312,9.34929,0,0.000885,0,0
0:0:57.855,73.7248,9.38376,0,0.000885,0,0
0:0:58.053,74.0184,9.42513,0,0.000885,0,0
0:0:58.252,74.312,9.45961,0,0.000885,0,0
0:0:58.454,74.8369,9.52855,0,0.000885,0,0
0:0:58.658,75.7176,9.63887,0,0.000885,0,0
0:0:58.862,75.9534,9.67334,0,0.000885,0,0
0:0:59.065,76.4204,9.7285,0,0.000885,0,0
0:0:59.265,76.6562,9.76298,0,0.000885,0,0
0:0:59.467,77.0654,9.81124,0,0.000885,0,0
0:0:59.669,77.4168,9.8595,0,0.000885,0,0
0:0:59.872,78.1819,9.95603,0,0.000885,0,0
0:1:0.070,78.4177,9.98361,0,0.000885,0,0
0:1:0.268,78.8848,10.0457,0,0.000885,0,0
0:1:0.470,79.0627,10.0663,0,0.000885,0,0
0:1:0.666,79.5876,10.1353,0,0.000885,0,0
0:1:0.866,80.0591,10.1905,0,0.000885,0,0
0:1:1.066,80.2904,10.2249,0,0.000885,0,0
0:1:1.265,80.5262,10.2525,0,0.000885,0,0
0:1:1.467,80.9398,10.3077,0,0.000885,0,0
0:1:1.661,80.9977,10.3146,0,0.000885,0,0
0:1:1.862,81.5226,10.3766,0,0.000885,0,0
0:1:2.062,81.9362,10.4318,0,0.000885,0,0
0:1:2.259,82.3455,10.4869,0,0.000885,0,0
0:1:2.462,82.9326,10.5559,0,0.000885,0,0
0:1:2.659,83.1684,10.5903,0,0.000885,0,0
0:1:2.856,83.8712,10.68,0,0.000885,0,0
0:1:3.059,83.8712,10.68,0,0.000885,0,0
0:1:3.262,84.752,10.7903,0,0.000885,0,0
0:1:3.465,85.1034,10.8386,0,0.000885,0,0
0:1:3.668,85.219,10.8523,0,0.000885,0,0
0:1:3.870,85.5704,10.8937,0,0.000885,0,0
0:1:4.073,86.3934,10.9971,0,0.000885,0,0
0:1:4.274,86.3934,10.9971,0,0.000885,0,0
0:1:4.476,87.2118,11.1075,0,0.000885,0,0
0:1:4.676,87.7412,11.1695,0,0.000885,0,0
0:1:4.874,87.6255,11.1557,0,0.000885,0,0
0:1:5.074,87.9769,11.204,0,0.000885,0,0
0:1:5.270,88.0348,11.2109,0,0.000885,0,0
0:1:5.470,88.5018,11.266,0,0.000885,0,0
0:1:5.671,89.089,11.3419,0,0.000885,0,0
0:1:5.868,89.6761,11.4177,0,0.000885,0,0
0:1:6.069,89.6183,11.4108,0,0.000885,0,0
0:1:6.266,90.3211,11.5005,0,0.000885,0,0
0:1:6.465,90.5569,11.528,0,0.000885,0,0
0:1:6.667,91.2597,11.6177,0,0.000885,0,0
0:1:6.862,91.669,11.6728,0,0.000885,0,0
0:1:7.064,92.2561,11.7487,0,0.000885,0,0
0:1:7.262,92.3139,11.7556,0,0.000885,0,0
0:1:7.460,92.9589,11.8383,0,0.000885,0,0
0:1:7.662,93.5461,11.9141,0,0.000885,0,0
0:1:7.860,93.6662,11.9279,0,0.000885,0,0
0:1:8.060,93.9598,11.9624,0,0.000885,0,0
0:1:8.260,95.1875,12.121,0,0.000885,0,0
0:1:8.464,95.1875,12.121,0,0.000885,0,0
0:1:8.666,95.3076,12.1348,0,0.000885,0,0
0:1:8.869,95.3654,12.1417,0,0.000885,0,0
0:1:9.071,96.0104,12.2244,0,0.000885,0,0
0:1:9.271,96.1261,12.2382,0,0.000885,0,0
0:1:9.473,96.6554,12.3071,0,0.000885,0,0
0:1:9.675,96.8912,12.3347,0,0.000885,0,0
0:1:9.874,97.4205,12.4037,0,0.000885,0,0
0:1:10.071,97.594,12.4244,0,0.000885,0,0
0:1:10.273,97.8876,12.4657,0,0.000885,0,0
0:1:10.469,98.5326,12.5485,0,0.000885,0,0
0:1:10.671,98.9418,12.5967,0,0.000885,0,0
0:1:10.870,99.2932,12.645,0,0.000885,0,0
0:1:11.066,99.6491,12.6864,0,0.000885,0,0
0:1:11.269,100.352,12.776,0,0.000885,0,0
0:1:11.465,100.703,12.8242,0,0.000885,0,0
0:1:11.664,100.997,12.8587,0,0.000885,0,0
0:1:11.865,101.522,12.9277,0,0.000885,0,0
0:1:12.062,101.878,12.969,0,0.000885,0,0
0:1:12.262,101.935,12.9759,0,0.000885,0,0
0:1:12.459,102.345,13.0311,0,0.000885,0,0
0:1:12.659,102.696,13.0725,0,0.000885,0,0
0:1:12.861,103.577,13.1897,0,0.000885,0,0
0:1:13.055,103.813,13.2172,0,0.000885,0,0
0:1:13.258,104.4,13.2931,0,0.000885,0,0
0:1:13.460,104.164,13.2655,0,0.000885,0,0
0:1:13.665,104.982,13.3689,0,0.000885,0,0
0:1:13.868,105.57,13.4448,0,0.000885,0,0
0:1:14.069,105.921,13.4861,0,0.000885,0,0
0:1:14.271,106.099,13.5068,0,0.000885,0,0
0:1:14.472,106.157,13.5137,0,0.000885,0,0
0:1:14.673,107.095,13.6378,0,0.000885,0,0
0:1:14.876,107.331,13.6654,0,0.000885,0,0
0:1:15.074,107.856,13.7344,0,0.000885,0,0
0:1:15.276,108.15,13.7688,0,0.000885,0,0
0:1:15.474,108.621,13.8309,0,0.000885,0,0
0:1:15.672,108.737,13.8447,0,0.000885,0,0
0:1:15.874,109.03,13.8791,0,0.000885,0,0
0:1:16.070,109.324,13.9205,0,0.000885,0,0
0:1:16.271,109.853,13.9895,0,0.000885,0,0
0:1:16.471,110.027,14.0101,0,0.000885,0,0
0:1:16.665,110.498,14.0722,0,0.000885,0,0
0:1:16.868,111.201,14.1618,0,0.000885,0,0
0:1:17.066,111.788,14.2308,0,0.000885,0,0
0:1:17.266,112.491,14.3204,0,0.000885,0,0
0:1:17.468,112.727,14.3549,0,0.000885,0,0
0:1:17.662,112.9,14.3756,0,0.000885,0,0
0:1:17.864,113.194,14.41,0,0.000885,0,0
0:1:18.062,113.665,14.4721,0,0.000885,0,0
0:1:18.261,113.959,14.5066,0,0.000885,0,0
0:1:18.464,114.484,14.5755,0,0.000885,0,0
0:1:18.666,114.662,14.5962,0,0.000885,0,0
0:1:18.868,114.955,14.6376,0,0.000885,0,0
0:1:19.072,115.836,14.7479,0,0.000885,0,0
0:1:19.274,116.01,14.7686,0,0.000885,0,0
0:1:19.476,116.361,14.8168,0,0.000885,0,0
0:1:19.677,116.423,14.8237,0,0.000885,0,0
0:1:19.880,116.833,14.8789,0,0.000885,0,0
0:1:20.079,117.068,14.9065,0,0.000885,0,0
0:1:20.275,117.771,14.9961,0,0.000885,0,0
0:1:20.477,118.065,15.0306,0,0.000885,0,0
0:1:20.675,118.296,15.065,0,0.000885,0,0
0:1:20.874,119.297,15.1892,0,0.000885,0,0
0:1:21.075,119.355,15.196,0,0.000885,0,0
0:1:21.269,120.173,15.2995,0,0.000885,0,0
0:1:21.470,120.409,15.3339,0,0.000885,0,0
0:1:21.671,120.938,15.396,0,0.000885,0,0
0:1:21.867,121.463,15.4649,0,0.000885,0,0
0:1:22.070,122.228,15.5615,0,0.000885,0,0
0:1:22.266,122.344,15.5753,0,0.000885,0,0
0:1:22.468,123.167,15.6787,0,0.000885,0,0
0:1:22.666,122.637,15.6166,0,0.000885,0,0
0:1:22.862,122.989,15.658,0,0.000885,0,0
0:1:23.064,123.282,15.6994,0,0.000885,0,0
0:1:23.265,123.518,15.7269,0,0.000885,0,0
0:1:23.469,123.927,15.7821,0,0.000885,0,0
0:1:23.672,124.63,15.8717,0,0.000885,0,0
0:1:23.874,125.102,15.9269,0,0.000885,0,0
0:1:24.076,125.395,15.9683,0,0.000885,0,0
0:1:24.277,125.805,16.0165,0,0.000885,0,0
0:1:24.479,126.214,16.0717,0,0.000885,0,0
0:1:24.681,126.507,16.1062,0,0.000885,0,0
0:1:24.876,126.334,16.0855,0,0.000885,0,0
0:1:25.078,127.388,16.2165,0,0.000885,0,0
0:1:25.276,127.797,16.2716,0,0.000885,0,0
0:1:25.474,128.211,16.3268,0,0.000885,0,0
0:1:25.675,128.442,16.3544,0,0.000885,0,0
0:1:25.873,128.798,16.3957,0,0.000885,0,0
0:1:26.075,128.972,16.4233,0,0.000885,0,0
0:1:26.273,129.559,16.4992,0,0.000885,0,0
0:1:26.470,129.737,16.5198,0,0.000885,0,0
0:1:26.673,130.204,16.575,0,0.000885,0,0
0:1:26.869,130.733,16.6439,0,0.000885,0,0
0:1:27.069,131.32,16.7198,0,0.000885,0,0
0:1:27.269,131.845,16.7887,0,0.000885,0,0
0:1:27.464,132.023,16.8094,0,0.000885,0,0
0:1:27.666,132.317,16.8439,0,0.000885,0,0
0:1:27.865,133.193,16.9611,0,0.000885,0,0
0:1:28.064,133.487,16.9956,0,0.000885,0,0
0:1:28.266,133.607,17.0094,0,0.000885,0,0
0:1:28.467,134.016,17.0645,0,0.000885,0,0
0:1:28.672,134.252,17.0921,0,0.000885,0,0
0:1:28.875,134.719,17.1542,0,0.000885,0,0
0:1:29.075,134.897,17.1748,0,0.000885,0,0
0:1:29.277,135.364,17.2369,0,0.000885,0,0
0:1:29.479,135.951,17.3127,0,0.000885,0,0
0:1:29.682,136.302,17.3541,0,0.000885,0,0
0:1:29.881,136.48,17.3748,0,0.000885,0,0
0:1:30.080,136.947,17.4368,0,0.000885,0,0
0:1:30.283,137.241,17.4713,0,0.000885,0,0
0:1:30.478,138.18,17.5954,0,0.000885,0,0
0:1:30.678,138.593,17.6437,0,0.000885,0,0
0:1:30.879,139.47,17.7609,0,0.000885,0,0
0:1:31.075,139.176,17.7195,0,0.000885,0,0
0:1:31.276,139.821,17.8023,0,0.000885,0,0
0:1:31.475,140.177,17.8505,0,0.000885,0,0
0:1:31.672,140.35,17.8712,0,0.000885,0,0
0:1:31.874,140.528,17.8919,0,0.000885,0,0
0:1:32.070,141.231,17.9815,0,0.000885,0,0
0:1:32.271,141.582,18.0298,0,0.000885,0,0
0:1:32.470,142.112,18.0918,0,0.000885,0,0
0:1:32.665,142.227,18.1056,0,0.000885,0,0
0:1:32.868,142.405,18.1332,0,0.000885,0,0
0:1:33.064,142.521,18.147,0,0.000885,0,0
0:1:33.266,143.166,18.2297,0,0.000885,0,0
0:1:33.468,143.695,18.2987,0,0.000885,0,0
0:1:33.672,143.989,18.3332,0,0.000885,0,0
0:1:33.874,144.634,18.4159,0,0.000885,0,0
0:1:34.075,144.75,18.4297,0,0.000885,0,0
0:1:34.278,145.159,18.4848,0,0.000885,0,0
0:1:34.479,145.452,18.5193,0,0.000885,0,0
0:1:34.682,146.391,18.6365,0,0.000885,0,0
0:1:34.884,146.627,18.671,0,0.000885,0,0
0:1:35.082,147.036,18.7193,0,0.000885,0,0
0:1:35.280,147.094,18.7262,0,0.000885,0,0
0:1:35.482,147.623,18.7951,0,0.000885,0,0
0:1:35.679,147.859,18.8227,0,0.000885,0,0
0:1:35.881,148.62,18.9261,0,0.000885,0,0
0:1:36.078,149.265,19.002,0,0.000885,0,0
0:1:36.276,149.207,18.9951,0,0.000885,0,0
0:1:36.478,149.967,19.0916,0,0.000885,0,0
0:1:36.676,150.203,19.1261,0,0.000885,0,0
0:1:36.875,150.323,19.1398,0,0.000885,0,0
0:1:37.075,151.084,19.2364,0,0.000885,0,0
0:1:37.271,151.262,19.2571,0,0.000885,0,0
0:1:37.472,152.022,19.3536,0,0.000885,0,0
0:1:37.671,151.907,19.3398,0,0.000885,0,0
0:1:37.869,152.432,19.4087,0,0.000885,0,0
0:1:38.071,152.845,19.4639,0,0.000885,0,0
0:1:38.274,153.37,19.526,0,0.000885,0,0
0:1:38.478,153.722,19.5742,0,0.000885,0,0
0:1:38.680,153.842,19.588,0,0.000885,0,0
0:1:38.882,154.193,19.6294,0,0.000885,0,0
0:1:39.084,154.602,19.6845,0,0.000885,0,0
0:1:39.286,154.954,19.7328,0,0.000885,0,0
0:1:39.488,155.305,19.7742,0,0.000885,0,0
0:1:39.688,155.719,19.8293,0,0.000885,0,0
0:1:39.887,156.595,19.9396,0,0.000885,0,0
0:1:40.089,156.831,19.9672,0,0.000885,0,0
0:1:40.283,156.947,19.981,0,0.000885,0,0
0:1:40.484,158.063,20.1258,0,0.000885,0,0
0:1:40.684,158.063,20.1258,0,0.000885,0,0
0:1:40.881,158.65,20.2016,0,0.000885,0,0
0:1:41.083,158.766,20.2154,0,0.000885,0,0
0:1:41.280,159.295,20.2844,0,0.000885,0,0
0:1:41.480,159.353,20.2913,0,0.000885,0,0
0:1:41.680,160.234,20.4016,0,0.000885,0,0
0:1:41.876,160.234,20.4016,0,0.000885,0,0
0:1:42.080,160.643,20.4567,0,0.000885,0,0
0:1:42.276,160.585,20.443,0,0.000885,0,0
0:1:42.474,160.879,20.4843,0,0.000885,0,0
0:1:42.675,161.817,20.6015,0,0.000885,0,0
0:1:42.872,162.347,20.6705,0,0.000885,0,0
0:1:43.072,162.872,20.7394,0,0.000885,0,0
0:1:43.274,162.756,20.7256,0,0.000885,0,0
0:1:43.478,163.695,20.8429,0,0.000885,0,0
0:1:43.682,164.046,20.8842,0,0.000885,0,0
0:1:43.884,164.282,20.9187,0,0.000885,0,0
0:1:44.086,164.455,20.9394,0,0.000885,0,0
0:1:44.288,164.749,20.9739,0,0.000885,0,0
0:1:44.490,165.22,21.0359,0,0.000885,0,0
0:1:44.693,166.097,21.1462,0,0.000885,0,0
0:1:44.888,166.275,21.1738,0,0.000885,0,0
0:1:45.090,166.626,21.2152,0,0.000885,0,0
0:1:45.290,167.097,21.2772,0,0.000885,0,0
0:1:45.486,167.213,21.291,0,0.000885,0,0
0:1:45.688,167.507,21.3255,0,0.000885,0,0
0:1:45.885,167.68,21.3531,0,0.000885,0,0
0:1:46.086,168.094,21.4013,0,0.000885,0,0
0:1:46.286,169.148,21.5392,0,0.000885,0,0
0:1:46.482,169.557,21.5875,0,0.000885,0,0
0:1:46.682,170.029,21.6495,0,0.000885,0,0
0:1:46.881,170.674,21.7323,0,0.000885,0,0
0:1:47.079,170.789,21.7461,0,0.000885,0,0
0:1:47.281,171.261,21.8081,0,0.000885,0,0
0:1:47.478,171.786,21.8702,0,0.000885,0,0
0:1:47.678,172.257,21.9322,0,0.000885,0,0
0:1:47.877,172.493,21.9598,0,0.000885,0,0
0:1:48.074,172.96,22.0219,0,0.000885,0,0
0:1:48.276,172.902,22.015,0,0.000885,0,0
0:1:48.478,173.605,22.1046,0,0.000885,0,0
0:1:48.682,173.605,22.1046,0,0.000885,0,0
0:1:48.885,174.308,22.1942,0,0.000885,0,0
0:1:49.088,174.366,22.2011,0,0.000885,0,0
0:1:49.290,174.486,22.2149,0,0.000885,0,0
0:1:49.491,174.953,22.277,0,0.000885,0,0
0:1:49.694,175.304,22.3183,0,0.000885,0,0
0:1:49.895,175.482,22.3459,0,0.000885,0,0
0:1:50.100,176.185,22.4355,0,0.000885,0,0
0:1:50.302,176.537,22.4769,0,0.000885,0,0
0:1:50.510,177.533,22.601,0,0.000885,0,0
0:1:50.721,177.827,22.6424,0,0.000885,0,0
0:1:50.921,178.182,22.6838,0,0.000885,0,0
0:1:51.125,178.182,22.6838,0,0.000885,0,0
0:1:51.328,179.059,22.801,0,0.000885,0,0
0:1:51.526,179.059,22.801,0,0.000885,0,0
0:1:51.725,179.882,22.9044,0,0.000885,0,0
0:1:51.926,179.646,22.8699,0,0.000885,0,0
0:1:52.122,180.527,22.9871,0,0.000885,0,0
0:1:52.323,180.469,22.9802,0,0.000885,0,0
0:1:52.523,181.114,23.063,0,0.000885,0,0
0:1:52.719,181.407,23.0974,0,0.000885,0,0
0:1:52.922,182.052,23.1802,0,0.000885,0,0
0:1:53.118,182.284,23.2078,0,0.000885,0,0
0:1:53.319,182.871,23.2836,0,0.000885,0,0
0:1:53.520,183.107,23.3112,0,0.000885,0,0
0:1:53.724,184.045,23.4353,0,0.000885,0,0
0:1:53.927,183.809,23.4008,0,0.000885,0,0
0:1:54.129,184.397,23.4766,0,0.000885,0,0
0:1:54.331,184.512,23.4904,0,0.000885,0,0
0:1:54.533,184.868,23.5387,0,0.000885,0,0
0:1:54.734,185.513,23.6214,0,0.000885,0,0
0:1:54.938,185.807,23.6559,0,0.000885,0,0
0:1:55.135,186.389,23.7318,0,0.000885,0,0
0:1:55.334,186.803,23.7869,0,0.000885,0,0
0:1:55.535,187.097,23.8214,0,0.000885,0,0
0:1:55.731,187.742,23.9041,0,0.000885,0,0
0:1:55.932,187.679,23.8972,0,0.000885,0,0
0:1:56.130,188.093,23.9455,0,0.000885,0,0
0:1:56.327,188.854,24.0489,0,0.000885,0,0
0:1:56.528,188.68,24.0213,0,0.000885,0,0
0:1:56.724,189.441,24.1179,0,0.000885,0,0
0:1:56.925,190.144,24.2075,0,0.000885,0,0
0:1:57.125,190.379,24.242,0,0.000885,0,0
0:1:57.320,190.495,24.2558,0,0.000885,0,0
0:1:57.523,191.26,24.3523,0,0.000885,0,0
0:1:57.721,191.434,24.373,0,0.000885,0,0
0:1:57.920,191.847,24.4281,0,0.000885,0,0
0:1:58.122,192.372,24.4971,0,0.000885,0,0
0:1:58.324,193.017,24.5729,0,0.000885,0,0
0:1:58.526,193.195,24.6005,0,0.000885,0,0
0:1:58.728,193.724,24.6625,0,0.000885,0,0
0:1:58.928,194.134,24.7177,0,0.000885,0,0
0:1:59.128,194.192,24.7246,0,0.000885,0,0
0:1:59.329,194.837,24.8073,0,0.000885,0,0
0:1:59.530,195.246,24.8625,0,0.000885,0,0
0:1:59.726,195.308,24.8694,0,0.000885,0,0
0:1:59.924,196.069,24.9659,0,0.000885,0,0
0:2:0.124,196.069,24.9659,0,0.000885,0,0
0:2:0.318,196.598,25.0349,0,0.000885,0,0
0:2:0.515,196.772,25.0555,0,0.000885,0,0
0:2:0.712,196.892,25.0693,0,0.000885,0,0
0:2:0.909,197.359,25.1314,0,0.000885,0,0
0:2:1.108,198.062,25.221,0,0.000885,0,0
0:2:1.305,198.297,25.2486,0,0.000885,0,0
0:2:1.501,198.297,25.2486,0,0.000885,0,0
0:2:1.701,199.058,25.3451,0,0.000885,0,0
0:2:1.895,199.529,25.4072,0,0.000885,0,0
0:2:2.095,200.059,25.4692,0,0.000885,0,0
0:2:2.293,200.584,25.5382,0,0.000885,0,0
0:2:2.488,200.641,25.5451,0,0.000885,0,0
0:2:2.689,201.055,25.6002,0,0.000885,0,0
0:2:2.883,201.407,25.6416,0,0.000885,0,0
0:2:3.082,202.167,25.7381,0,0.000885,0,0
0:2:3.283,202.461,25.7795,0,0.000885,0,0
0:2:3.486,202.87,25.8278,0,0.000885,0,0
0:2:3.687,202.99,25.8484,0,0.000885,0,0
0:2:3.889,203.751,25.945,0,0.000885,0,0
0:2:4.090,203.751,25.945,0,0.000885,0,0
0:2:4.289,204.925,26.0898,0,0.000885,0,0
0:2:4.489,204.983,26.0967,0,0.000885,0,0
0:2:4.691,205.392,26.1518,0,0.000885,0,0
0:2:4.887,205.922,26.2208,0,0.000885,0,0
0:2:5.086,206.393,26.2759,0,0.000885,0,0
0:2:5.284,206.624,26.3104,0,0.000885,0,0
0:2:5.479,207.212,26.3862,0,0.000885,0,0
0:2:5.678,206.918,26.3449,0,0.000885,0,0
0:2:5.874,207.269,26.3931,0,0.000885,0,0
0:2:6.071,207.563,26.4276,0,0.000885,0,0
0:2:6.271,207.683,26.4414,0,0.000885,0,0
0:2:6.466,208.679,26.5724,0,0.000885,0,0
0:2:6.665,208.795,26.5862,0,0.000885,0,0
0:2:6.863,209.382,26.662,0,0.000885,0,0
0:2:7.058,209.267,26.6413,0,0.000885,0,0
0:2:7.257,209.912,26.7241,0,0.000885,0,0
0:2:7.453,210.205,26.7654,0,0.000885,0,0
0:2:7.654,210.966,26.862,0,0.000885,0,0
0:2:7.851,211.259,26.8964,0,0.000885,0,0
0:2:8.047,211.375,26.9102,0,0.000885,0,0
0:2:8.248,211.847,26.9723,0,0.000885,0,0
0:2:8.449,211.847,26.9723,0,0.000885,0,0
0:2:8.652,212.256,27.0274,0,0.000885,0,0
0:2:8.854,212.901,27.1102,0,0.000885,0,0
0:2:9.053,213.666,27.2067,0,0.000885,0,0
0:2:9.255,214.075,27.255,0,0.000885,0,0
0:2:9.454,214.542,27.317,0,0.000885,0,0
0:2:9.655,214.894,27.3584,0,0.000885,0,0
0:2:9.856,215.365,27.4204,0,0.000885,0,0
0:2:10.050,215.601,27.448,0,0.000885,0,0
0:2:10.251,216.01,27.5032,0,0.000885,0,0
0:2:10.446,216.304,27.5377,0,0.000885,0,0
0:2:10.644,217.006,27.6273,0,0.000885,0,0
0:2:10.844,217.006,27.6273,0,0.000885,0,0
0:2:11.039,217.887,27.7445,0,0.000885,0,0
0:2:11.238,218.181,27.779,0,0.000885,0,0
0:2:11.435,218.59,27.8341,0,0.000885,0,0
0:2:11.634,219.062,27.8893,0,0.000885,0,0
0:2:11.835,219.235,27.9169,0,0.000885,0,0
0:2:12.028,219.177,27.9031,0,0.000885,0,0
0:2:12.227,219.764,27.9789,0,0.000885,0,0
0:2:12.424,219.938,28.0065,0,0.000885,0,0
0:2:12.621,220.583,28.0823,0,0.000885,0,0
0:2:12.822,221.17,28.1582,0,0.000885,0,0
0:2:13.025,221.17,28.1582,0,0.000885,0,0
0:2:13.225,221.935,28.2547,0,0.000885,0,0
0:2:13.425,221.935,28.2547,0,0.000885,0,0
0:2:13.628,222.696,28.3512,0,0.000885,0,0
0:2:13.829,223.167,28.4133,0,0.000885,0,0
0:2:14.031,223.519,28.4616,0,0.000885,0,0
0:2:14.230,223.75,28.4891,0,0.000885,0,0
0:2:14.431,223.928,28.5098,0,0.000885,0,0
0:2:14.631,224.101,28.5305,0,0.000885,0,0
0:2:14.833,225.102,28.6615,0,0.000885,0,0
0:2:15.028,225.102,28.6615,0,0.000885,0,0
0:2:15.226,225.627,28.7305,0,0.000885,0,0
0:2:15.424,226.041,28.7787,0,0.000885,0,0
0:2:15.620,226.334,28.8201,0,0.000885,0,0
0:2:15.820,226.686,28.8615,0,0.000885,0,0
0:2:16.016,227.446,28.958,0,0.000885,0,0
0:2:16.225,227.74,28.9993,0,0.000885,0,0
0:2:16.425,228.207,29.0545,0,0.000885,0,0
0:2:16.616,228.501,29.0959,0,0.000885,0,0
0:2:16.817,229.03,29.1579,0,0.000885,0,0
0:2:17.016,229.675,29.2407,0,0.000885,0,0
0:2:17.211,229.911,29.2751,0,0.000885,0,0
0:2:17.412,230.556,29.3579,0,0.000885,0,0
0:2:17.615,230.729,29.3786,0,0.000885,0,0
0:2:17.815,230.965,29.4061,0,0.000885,0,0
0:2:18.013,231.494,29.4751,0,0.000885,0,0
0:2:18.210,231.552,29.482,0,0.000885,0,0
0:2:18.411,231.846,29.5165,0,0.000885,0,0
0:2:18.611,232.491,29.5992,0,0.000885,0,0
0:2:18.813,232.375,29.5854,0,0.000885,0,0
0:2:19.016,233.251,29.6957,0,0.000885,0,0
0:2:19.216,233.078,29.675,0,0.000885,0,0
0:2:19.417,233.603,29.744,0,0.000885,0,0
0:2:19.616,234.19,29.8198,0,0.000885,0,0
0:2:19.820,234.955,29.9164,0,0.000885,0,0
0:2:20.015,235.422,29.9784,0,0.000885,0,0
0:2:20.223,235.658,30.006,0,0.000885,0,0
0:2:20.424,236.009,30.0474,0,0.000885,0,0
0:2:20.627,236.539,30.1163,0,0.000885,0,0
0:2:20.826,237.064,30.1852,0,0.000885,0,0
0:2:21.024,237.241,30.2059,0,0.000885,0,0
0:2:21.218,237.535,30.2404,0,0.000885,0,0
0:2:21.421,238.18,30.3231,0,0.000885,0,0
0:2:21.615,238.589,30.3783,0,0.000885,0,0
0:2:21.813,238.416,30.3576,0,0.000885,0,0
0:2:22.012,239.412,30.4817,0,0.000885,0,0
0:2:22.206,239.47,30.4886,0,0.000885,0,0
0:2:22.406,239.586,30.5024,0,0.000885,0,0
0:2:22.603,239.937,30.5507,0,0.000885,0,0
0:2:22.800,240.466,30.6196,0,0.000885,0,0
0:2:23.001,240.996,30.6817,0,0.000885,0,0
0:2:23.202,241.347,30.7299,0,0.000885,0,0
0:2:23.403,241.756,30.7782,0,0.000885,0,0
0:2:23.605,242.521,30.8816,0,0.000885,0,0
0:2:23.805,242.579,30.8885,0,0.000885,0,0
0:2:24.005,242.931,30.9299,0,0.000885,0,0
0:2:24.206,243.282,30.9781,0,0.000885,0,0
0:2:24.407,243.691,31.0264,0,0.000885,0,0
0:2:24.604,244.043,31.0747,0,0.000885,0,0
0:2:24.810,244.336,31.1091,0,0.000885,0,0
0:2:25.011,245.044,31.1988,0,0.000885,0,0
0:2:25.212,244.981,31.1919,0,0.000885,0,0
0:2:25.414,245.453,31.2539,0,0.000885,0,0
0:2:25.611,246.098,31.3367,0,0.000885,0,0
0:2:25.807,246.04,31.3298,0,0.000885,0,0
0:2:26.008,246.156,31.3436,0,0.000885,0,0
0:2:26.211,247.33,31.4884,0,0.000885,0,0
0:2:26.410,247.681,31.5366,0,0.000885,0,0
0:2:26.610,248.148,31.5987,0,0.000885,0,0
0:2:26.805,248.269,31.6125,0,0.000885,0,0
0:2:27.006,248.793,31.6745,0,0.000885,0,0
0:2:27.220,248.914,31.6952,0,0.000885,0,0
0:2:27.417,249.674,31.7917,0,0.000885,0,0
0:2:27.616,250.146,31.8469,0,0.000885,0,0
0:2:27.812,250.319,31.8745,0,0.000885,0,0
0:2:28.013,250.733,31.9227,0,0.000885,0,0
0:2:28.215,251.084,31.971,0,0.000885,0,0
0:2:28.416,251.316,31.9986,0,0.000885,0,0
0:2:28.622,252.139,32.102,0,0.000885,0,0
0:2:28.818,252.432,32.1434,0,0.000885,0,0
0:2:29.021,252.726,32.1778,0,0.000885,0,0
0:2:29.222,253.193,32.2399,0,0.000885,0,0
0:2:29.421,253.722,32.3019,0,0.000885,0,0
0:2:29.621,254.016,32.3433,0,0.000885,0,0
0:2:29.815,254.367,32.3847,0,0.000885,0,0
0:2:30.013,255.012,32.4674,0,0.000885,0,0
0:2:30.222,255.306,32.5088,0,0.000885,0,0
0:2:30.429,255.599,32.5433,0,0.000885,0,0
0:2:30.628,255.893,32.5846,0,0.000885,0,0
0:2:30.823,256.186,32.6191,0,0.000885,0,0
0:2:31.023,256.538,32.6605,0,0.000885,0,0
0:2:31.218,257.298,32.757,0,0.000885,0,0
0:2:31.414,257.419,32.7777,0,0.000885,0,0
0:2:31.615,258.001,32.8466,0,0.000885,0,0
0:2:31.809,258.709,32.9363,0,0.000885,0,0
0:2:32.009,259.233,33.0052,0,0.000885,0,0
0:2:32.207,259.296,33.0121,0,0.000885,0,0
0:2:32.402,260.114,33.1155,0,0.000885,0,0
0:2:32.603,260.172,33.1293,0,0.000885,0,0
0:2:32.798,260.292,33.1431,0,0.000885,0,0
0:2:32.997,260.408,33.1569,0,0.000885,0,0
0:2:33.198,261.111,33.2465,0,0.000885,0,0
0:2:33.397,261.053,33.2396,0,0.000885,0,0
0:2:33.599,261.111,33.2465,0,0.000885,0,0
0:2:33.802,261.934,33.3499,0,0.000885,0,0
0:2:34.000,262.285,33.3982,0,0.000885,0,0
0:2:34.202,262.93,33.474,0,0.000885,0,0
0:2:34.401,263.224,33.5154,0,0.000885,0,0
0:2:34.600,263.281,33.5223,0,0.000885,0,0
0:2:34.799,263.869,33.5982,0,0.000885,0,0
0:2:35.004,264.456,33.674,0,0.000885,0,0
0:2:35.204,264.571,33.6878,0,0.000885,0,0
0:2:35.409,264.456,33.674,0,0.000885,0,0
0:2:35.607,264.923,33.7292,0,0.000885,0,0
0:2:35.807,265.688,33.8257,0,0.000885,0,0
0:2:36.009,265.688,33.8257,0,0.000885,0,0
0:2:36.209,266.039,33.8739,0,0.000885,0,0
0:2:36.408,266.213,33.8946,0,0.000885,0,0
0:2:36.603,266.858,33.9774,0,0.000885,0,0
0:2:36.804,267.036,33.998,0,0.000885,0,0
0:2:37.017,267.503,34.0601,0,0.000885,0,0
0:2:37.217,267.681,34.0808,0,0.000885,0,0
0:2:37.416,268.383,34.1704,0,0.000885,0,0
0:2:37.622,268.561,34.1911,0,0.000885,0,0
0:2:37.823,268.797,34.2256,0,0.000885,0,0
0:2:38.027,269.086,34.26,0,0.000885,0,0
0:2:38.227,269.322,34.2945,0,0.000885,0,0
0:2:38.425,270.025,34.3842,0,0.000885,0,0
0:2:38.628,270.496,34.4393,0,0.000885,0,0
0:2:38.830,270.906,34.4945,0,0.000885,0,0
0:2:39.031,271.141,34.522,0,0.000885,0,0
0:2:39.231,271.551,34.5772,0,0.000885,0,0
0:2:39.432,272.022,34.6324,0,0.000885,0,0
0:2:39.632,272.196,34.6599,0,0.000885,0,0
0:2:39.833,272.547,34.7013,0,0.000885,0,0
0:2:40.029,272.609,34.7082,0,0.000885,0,0
0:2:40.227,272.961,34.7565,0,0.000885,0,0
0:2:40.427,273.134,34.7772,0,0.000885,0,0
0:2:40.629,273.192,34.7841,0,0.000885,0,0
0:2:40.830,273.837,34.8668,0,0.000885,0,0
0:2:41.028,273.957,34.8806,0,0.000885,0,0
0:2:41.223,274.015,34.8875,0,0.000885,0,0
0:2:41.425,274.073,34.8944,0,0.000885,0,0
0:2:41.618,274.131,34.9013,0,0.000885,0,0
0:2:41.816,274.193,34.9082,0,0.000885,0,0
0:2:42.014,273.721,34.853,0,0.000885,0,0
0:2:42.207,273.312,34.7978,0,0.000885,0,0
0:2:42.408,272.196,34.6599,0,0.000885,0,0
0:2:42.604,271.729,34.5979,0,0.000885,0,0
0:2:42.800,269.967,34.3704,0,0.000885,0,0
0:2:43.000,268.855,34.2325,0,0.000885,0,0
0:2:43.202,267.329,34.0394,0,0.000885,0,0
0:2:43.404,264.336,33.6533,0,0.000885,0,0
0:2:43.604,263.046,33.4947,0,0.000885,0,0
0:2:43.804,259.354,33.019,0,0.000885,0,0
0:2:44.003,256.711,32.688,0,0.000885,0,0
0:2:44.203,248.384,31.6263,0,0.000885,0,0
0:2:44.404,243.576,31.0126,0,0.000885,0,0
0:2:44.601,235.6,29.9991,0,0.000885,0,0
0:2:44.796,232.606,29.6199,0,0.000885,0,0
0:2:44.996,227.976,29.0269,0,0.000885,0,0
0:2:45.190,225.747,28.7442,0,0.000885,0,0
0:2:45.389,219.586,27.9582,0,0.000885,0,0
0:2:45.586,216.655,27.5859,0,0.000885,0,0
0:2:45.782,209.618,26.6896,0,0.000885,0,0
0:2:45.981,205.864,26.2139,0,0.000885,0,0
0:2:46.177,202.287,25.7588,0,0.000885,0,0
0:2:46.372,195.188,24.8556,0,0.000885,0,0
0:2:46.452,195.188,24.8556,0,0.000885,0,0