File: DataFile2021-06-08_051845.csv
Test ID:,Date Tested:,Time:,Test Type:,Diameter Avg. (mm):,Cyl. Corr. Factor:,Height (mm):,Age (days):,Weight (kN):,Break Type:,Ramp Rate (MPa/s):,Load at Break (kN):,Stress at Break (MPa):
12,6/8/2021,05:18,Cylinder,150,1,300,0,3.6,1,0.24,884.46,50.05
Sample Time,Load (kN),Stress (MPa),Long. Strain,Trans. Strain,Chan1 Deflection (mm),Chan2 Deflection (mm)
0:0:13.884,5.98286,0.337843,0,0.000885,0,0
0:0:14.085,15.4843,0.875634,0,0.000885,0,0
0:0:14.281,17.3614,0.979056,0,0.000885,0,0
0:0:14.480,17.1835,0.972161,0,0.000885,0,0
0:0:14.682,16.7742,0.951477,0,0.000885,0,0
0:0:14.876,16.365,0.923897,0,0.000885,0,0
0:0:15.078,15.8935,0.896318,0,0.000885,0,0
0:0:15.274,15.72,0.889424,0,0.000885,0,0
0:0:15.472,15.4264,0.875634,0,0.000885,0,0
0:0:15.673,15.3686,0.868739,0,0.000885,0,0
0:0:15.868,15.3063,0.868739,0,0.000885,0,0
0:0:16.068,15.3686,0.868739,0,0.000885,0,0
0:0:16.266,15.4264,0.875634,0,0.000885,0,0
0:0:16.461,15.8935,0.896318,0,0.000885,0,0
0:0:16.663,16.2449,0.917003,0,0.000885,0,0
0:0:16.859,17.1257,0.972161,0,0.000885,0,0
0:0:17.059,17.655,0.99974,0,0.000885,0,0
0:0:17.259,19.0028,1.07558,0,0.000885,0,0
0:0:17.453,19.9414,1.13074,0,0.000885,0,0
0:0:17.656,21.347,1.20658,0,0.000885,0,0
0:0:17.855,22.1699,1.25485,0,0.000885,0,0
0:0:18.052,22.9929,1.30311,0,0.000885,0,0
0:0:18.254,23.6378,1.33758,0,0.000885,0,0
0:0:18.448,25.3949,1.43411,0,0.000885,0,0
0:0:18.651,25.6885,1.45479,0,0.000885,0,0
0:0:18.851,27.7436,1.572,0,0.000885,0,0
0:0:19.047,28.4464,1.60648,0,0.000885,0,0
0:0:19.249,30.2034,1.7099,0,0.000885,0,0
0:0:19.453,30.7328,1.73748,0,0.000885,0,0
0:0:19.655,31.6713,1.79264,0,0.000885,0,0
0:0:19.858,32.3742,1.83401,0,0.000885,0,0
0:0:20.061,33.3706,1.88916,0,0.000885,0,0
0:0:20.262,33.7842,1.90985,0,0.000885,0,0
0:0:20.464,35.4256,2.00637,0,0.000885,0,0
0:0:20.666,35.6614,2.02016,0,0.000885,0,0
0:0:20.868,36.422,2.06153,0,0.000885,0,0
0:0:21.064,36.7156,2.07532,0,0.000885,0,0
0:0:21.267,37.8277,2.13737,0,0.000885,0,0
0:0:21.463,38.7084,2.19253,0,0.000885,0,0
0:0:21.662,39.8828,2.25459,0,0.000885,0,0
0:0:21.864,40.0562,2.26838,0,0.000885,0,0
0:0:22.060,41.1149,2.32353,0,0.000885,0,0
0:0:22.261,42.2848,2.39248,0,0.000885,0,0
0:0:22.460,43.0499,2.43385,0,0.000885,0,0
0:0:22.657,44.5756,2.52348,0,0.000885,0,0
0:0:22.859,45.2206,2.55795,0,0.000885,0,0
0:0:23.056,45.6877,2.58553,0,0.000885,0,0
0:0:23.256,46.1014,2.60622,0,0.000885,0,0
0:0:23.456,47.2713,2.67517,0,0.000885,0,0
0:0:23.651,47.9162,2.70964,0,0.000885,0,0
0:0:23.853,49.3842,2.79238,0,0.000885,0,0
0:0:24.052,49.9135,2.82685,0,0.000885,0,0
0:0:24.249,51.7862,2.93027,0,0.000885,0,0
0:0:24.452,52.1999,2.95096,0,0.000885,0,0
0:0:24.656,53.3698,3.0199,0,0.000885,0,0
0:0:24.857,53.7834,3.04059,0,0.000885,0,0
0:0:25.061,55.0156,3.11643,0,0.000885,0,0
0:0:25.262,55.2469,3.12333,0,0.000885,0,0
0:0:25.463,56.3056,3.18538,0,0.000885,0,0
0:0:25.666,57.0662,3.22675,0,0.000885,0,0
0:0:25.868,58.6498,3.31638,0,0.000885,0,0
0:0:26.067,59.237,3.35085,0,0.000885,0,0
0:0:26.265,60.7049,3.43359,0,0.000885,0,0
0:0:26.467,61.1719,3.46117,0,0.000885,0,0
0:0:26.663,61.5812,3.48185,0,0.000885,0,0
0:0:26.862,62.6399,3.54391,0,0.000885,0,0
0:0:27.063,62.8712,3.55769,0,0.000885,0,0
0:0:27.261,63.9877,3.61975,0,0.000885,0,0
0:0:27.463,64.6327,3.65422,0,0.000885,0,0
0:0:27.659,66.2162,3.74385,0,0.000885,0,0
0:0:27.860,67.1548,3.79901,0,0.000885,0,0
0:0:28.060,68.387,3.86796,0,0.000885,0,0
0:0:28.256,68.6805,3.88864,0,0.000885,0,0
0:0:28.460,69.6769,3.9438,0,0.000885,0,0
0:0:28.656,70.6733,3.99896,0,0.000885,0,0
0:0:28.856,71.9633,4.0748,0,0.000885,0,0
0:0:29.058,72.4348,4.09549,0,0.000885,0,0
0:0:29.261,73.7248,4.17133,0,0.000885,0,0
0:0:29.464,74.0184,4.18512,0,0.000885,0,0
0:0:29.668,74.6056,4.21959,0,0.000885,0,0
0:0:29.868,75.5397,4.27475,0,0.000885,0,0
0:0:30.070,76.714,4.3437,0,0.000885,0,0
0:0:30.271,77.359,4.37817,0,0.000885,0,0
0:0:30.472,78.7068,4.45401,0,0.000885,0,0
0:0:30.673,79.1783,4.48159,0,0.000885,0,0
0:0:30.870,80.5262,4.55743,0,0.000885,0,0
0:0:31.071,81.0555,4.58501,0,0.000885,0,0
0:0:31.268,82.1097,4.64707,0,0.000885,0,0
0:0:31.468,82.6969,4.68154,0,0.000885,0,0
0:0:31.671,84.0447,4.75738,0,0.000885,0,0
0:0:31.865,84.6897,4.79186,0,0.000885,0,0
0:0:32.068,85.4548,4.83322,0,0.000885,0,0
0:0:32.264,86.3355,4.88838,0,0.000885,0,0
0:0:32.463,87.3319,4.94354,0,0.000885,0,0
0:0:32.666,88.3283,4.9987,0,0.000885,0,0
0:0:32.862,89.3247,5.05386,0,0.000885,0,0
0:0:33.064,90.6147,5.1297,0,0.000885,0,0
0:0:33.261,90.7304,5.13659,0,0.000885,0,0
0:0:33.458,91.669,5.18486,0,0.000885,0,0
0:0:33.661,92.3139,5.22623,0,0.000885,0,0
0:0:33.859,93.6662,5.30207,0,0.000885,0,0
0:0:34.058,94.0176,5.32275,0,0.000885,0,0
0:0:34.259,95.014,5.37791,0,0.000885,0,0
0:0:34.463,95.7747,5.41928,0,0.000885,0,0
0:0:34.667,96.6554,5.46754,0,0.000885,0,0
0:0:34.867,98.1811,5.55717,0,0.000885,0,0
0:0:35.070,99.5868,5.63302,0,0.000885,0,0
0:0:35.271,100.174,5.66749,0,0.000885,0,0
0:0:35.471,101.348,5.73644,0,0.000885,0,0
0:0:35.674,102.051,5.77781,0,0.000885,0,0
0:0:35.873,103.341,5.84675,0,0.000885,0,0
0:0:36.071,103.461,5.85365,0,0.000885,0,0
0:0:36.273,104.515,5.9157,0,0.000885,0,0
0:0:36.467,105.045,5.94328,0,0.000885,0,0
0:0:36.669,105.396,5.96397,0,0.000885,0,0
0:0:36.869,106.628,6.03291,0,0.000885,0,0
0:0:37.065,107.331,6.07428,0,0.000885,0,0
0:0:37.267,108.385,6.13633,0,0.000885,0,0
0:0:37.463,108.973,6.16391,0,0.000885,0,0
0:0:37.663,109.911,6.21907,0,0.000885,0,0
0:0:37.863,110.672,6.26044,0,0.000885,0,0
0:0:38.061,112.082,6.34318,0,0.000885,0,0
0:0:38.261,112.842,6.38455,0,0.000885,0,0
0:0:38.459,114.19,6.46039,0,0.000885,0,0
0:0:38.657,114.955,6.50176,0,0.000885,0,0
0:0:38.859,116.361,6.58449,0,0.000885,0,0
0:0:39.055,117.126,6.62586,0,0.000885,0,0
0:0:39.256,117.535,6.65344,0,0.000885,0,0
0:0:39.458,118.238,6.68791,0,0.000885,0,0
0:0:39.663,119.061,6.73618,0,0.000885,0,0
0:0:39.865,119.942,6.78444,0,0.000885,0,0
0:0:40.066,121.054,6.85339,0,0.000885,0,0
0:0:40.268,121.29,6.86028,0,0.000885,0,0
0:0:40.470,122.58,6.93613,0,0.000885,0,0
0:0:40.672,123.34,6.97749,0,0.000885,0,0
0:0:40.873,124.986,7.07402,0,0.000885,0,0
0:0:41.070,125.217,7.08781,0,0.000885,0,0
0:0:41.271,125.689,7.11539,0,0.000885,0,0
0:0:41.470,127.215,7.19813,0,0.000885,0,0
0:0:41.667,127.797,7.2326,0,0.000885,0,0
0:0:41.869,129.092,7.30155,0,0.000885,0,0
0:0:42.066,129.795,7.34292,0,0.000885,0,0
0:0:42.265,130.733,7.39807,0,0.000885,0,0
0:0:42.467,131.903,7.46702,0,0.000885,0,0
0:0:42.662,132.375,7.48771,0,0.000885,0,0
0:0:42.864,133.077,7.52907,0,0.000885,0,0
0:0:43.062,134.132,7.59113,0,0.000885,0,0
0:0:43.261,134.545,7.61181,0,0.000885,0,0
0:0:43.463,136.071,7.70144,0,0.000885,0,0
0:0:43.659,136.89,7.74971,0,0.000885,0,0
0:0:43.860,138.122,7.81865,0,0.000885,0,0
0:0:44.058,138.709,7.84623,0,0.000885,0,0
0:0:44.257,139.883,7.91518,0,0.000885,0,0
0:0:44.459,140.35,7.94276,0,0.000885,0,0
0:0:44.661,140.822,7.97034,0,0.000885,0,0
0:0:44.865,141.992,8.03239,0,0.000885,0,0
0:0:45.068,143.108,8.10134,0,0.000885,0,0
0:0:45.268,143.989,8.1496,0,0.000885,0,0
0:0:45.468,144.928,8.19787,0,0.000885,0,0
0:0:45.671,145.573,8.23923,0,0.000885,0,0
0:0:45.874,146.511,8.2875,0,0.000885,0,0
0:0:46.075,147.214,8.32887,0,0.000885,0,0
0:0:46.269,147.801,8.36334,0,0.000885,0,0
0:0:46.471,148.971,8.43229,0,0.000885,0,0
0:0:46.670,149.322,8.45297,0,0.000885,0,0
0:0:46.868,150.968,8.5426,0,0.000885,0,0
0:0:47.070,151.493,8.57018,0,0.000885,0,0
0:0:47.266,152.316,8.61845,0,0.000885,0,0
0:0:47.466,153.664,8.69429,0,0.000885,0,0
0:0:47.667,154.896,8.76324,0,0.000885,0,0
0:0:47.864,155.425,8.79771,0,0.000885,0,0
0:0:48.066,156.831,8.87355,0,0.000885,0,0
0:0:48.262,157.476,8.90803,0,0.000885,0,0
0:0:48.462,158.472,8.97008,0,0.000885,0,0
0:0:48.663,159.237,9.01145,0,0.000885,0,0
0:0:48.859,159.94,9.05282,0,0.000885,0,0
0:0:49.061,160.643,9.08729,0,0.000885,0,0
0:0:49.263,161.408,9.13555,0,0.000885,0,0
0:0:49.467,162.636,9.2045,0,0.000885,0,0
0:0:49.670,163.165,9.23208,0,0.000885,0,0
0:0:49.871,163.93,9.27345,0,0.000885,0,0
0:0:50.073,165.1,9.3424,0,0.000885,0,0
0:0:50.274,165.803,9.38376,0,0.000885,0,0
0:0:50.475,166.51,9.42513,0,0.000885,0,0
0:0:50.677,167.213,9.45961,0,0.000885,0,0
0:0:50.873,168.094,9.51477,0,0.000885,0,0
0:0:51.075,169.206,9.57682,0,0.000885,0,0
0:0:51.272,169.615,9.5975,0,0.000885,0,0
0:0:51.473,171.141,9.68713,0,0.000885,0,0
0:0:51.672,172.431,9.75608,0,0.000885,0,0
0:0:51.870,173.783,9.83192,0,0.000885,0,0
0:0:52.072,173.721,9.83192,0,0.000885,0,0
0:0:52.267,175.247,9.91466,0,0.000885,0,0
0:0:52.466,176.07,9.96292,0,0.000885,0,0
0:0:52.668,177.008,10.0181,0,0.000885,0,0
0:0:52.865,177.595,10.0526,0,0.000885,0,0
0:0:53.068,178.707,10.1146,0,0.000885,0,0
0:0:53.265,179.762,10.1698,0,0.000885,0,0
0:0:53.464,180.291,10.2042,0,0.000885,0,0
0:0:53.665,181.172,10.2525,0,0.000885,0,0
0:0:53.862,181.701,10.2801,0,0.000885,0,0
0:0:54.064,183.049,10.3559,0,0.000885,0,0
0:0:54.264,183.049,10.3559,0,0.000885,0,0
0:0:54.469,184.223,10.4249,0,0.000885,0,0
0:0:54.672,185.099,10.4731,0,0.000885,0,0
0:0:54.874,185.687,10.5076,0,0.000885,0,0
0:0:55.075,186.625,10.5628,0,0.000885,0,0
0:0:55.277,187.799,10.6248,0,0.000885,0,0
0:0:55.478,188.796,10.6869,0,0.000885,0,0
0:0:55.680,189.97,10.7489,0,0.000885,0,0
0:0:55.876,190.495,10.7765,0,0.000885,0,0
0:0:56.078,191.669,10.8455,0,0.000885,0,0
0:0:56.277,192.199,10.873,0,0.000885,0,0
0:0:56.473,193.898,10.9696,0,0.000885,0,0
0:0:56.674,194.485,11.004,0,0.000885,0,0
0:0:56.868,195.072,11.0385,0,0.000885,0,0
0:0:57.067,196.184,11.1006,0,0.000885,0,0
0:0:57.267,197.123,11.1557,0,0.000885,0,0
0:0:57.462,198.004,11.204,0,0.000885,0,0
0:0:57.663,199.294,11.2798,0,0.000885,0,0
0:0:57.857,199.765,11.3074,0,0.000885,0,0
0:0:58.056,200.704,11.3557,0,0.000885,0,0
0:0:58.257,201.522,11.4039,0,0.000885,0,0
0:0:58.449,201.931,11.4246,0,0.000885,0,0
0:0:58.652,202.697,11.4729,0,0.000885,0,0
0:0:58.847,203.226,11.5005,0,0.000885,0,0
0:0:59.041,204.632,11.5832,0,0.000885,0,0
0:0:59.242,205.392,11.6246,0,0.000885,0,0
0:0:59.445,206.509,11.6866,0,0.000885,0,0
0:0:59.648,207.563,11.7487,0,0.000885,0,0
0:0:59.849,208.266,11.7831,0,0.000885,0,0
0:1:0.051,209.031,11.8314,0,0.000885,0,0
0:1:0.249,210.672,11.921,0,0.000885,0,0
0:1:0.450,210.908,11.9348,0,0.000885,0,0
0:1:0.649,212.492,12.0245,0,0.000885,0,0
0:1:0.848,212.549,12.0245,0,0.000885,0,0
0:1:1.045,213.839,12.1003,0,0.000885,0,0
0:1:1.246,214.075,12.1141,0,0.000885,0,0
0:1:1.451,215.832,12.2106,0,0.000885,0,0
0:1:1.649,216.126,12.2313,0,0.000885,0,0
0:1:1.848,217.416,12.3002,0,0.000885,0,0
0:1:2.042,217.651,12.314,0,0.000885,0,0
0:1:2.242,218.474,12.3623,0,0.000885,0,0
0:1:2.451,219.644,12.4312,0,0.000885,0,0
0:1:2.647,220.761,12.4933,0,0.000885,0,0
0:1:2.846,221.521,12.5347,0,0.000885,0,0
0:1:3.051,222.46,12.5898,0,0.000885,0,0
0:1:3.252,222.932,12.6174,0,0.000885,0,0
0:1:3.447,223.812,12.6657,0,0.000885,0,0
0:1:3.656,224.924,12.7277,0,0.000885,0,0
0:1:3.855,225.863,12.7829,0,0.000885,0,0
0:1:4.049,226.624,12.8242,0,0.000885,0,0
0:1:4.249,227.389,12.8656,0,0.000885,0,0
0:1:4.452,228.327,12.9208,0,0.000885,0,0
0:1:4.652,229.088,12.9621,0,0.000885,0,0
0:1:4.855,230.671,13.0518,0,0.000885,0,0
0:1:5.055,231.143,13.0794,0,0.000885,0,0
0:1:5.255,231.961,13.1276,0,0.000885,0,0
0:1:5.455,232.549,13.1621,0,0.000885,0,0
0:1:5.656,233.839,13.231,0,0.000885,0,0
0:1:5.857,234.368,13.2655,0,0.000885,0,0
0:1:6.051,236.067,13.362,0,0.000885,0,0
0:1:6.252,236.596,13.3896,0,0.000885,0,0
0:1:6.447,238.238,13.4793,0,0.000885,0,0
0:1:6.654,238.531,13.4999,0,0.000885,0,0
0:1:6.856,239.879,13.5758,0,0.000885,0,0
0:1:7.048,240.876,13.6309,0,0.000885,0,0
0:1:7.248,240.76,13.624,0,0.000885,0,0
0:1:7.446,242.17,13.7068,0,0.000885,0,0
0:1:7.650,242.579,13.7275,0,0.000885,0,0
0:1:7.852,244.279,13.824,0,0.000885,0,0
0:1:8.047,244.63,13.8447,0,0.000885,0,0
0:1:8.247,245.626,13.8998,0,0.000885,0,0
0:1:8.454,245.689,13.8998,0,0.000885,0,0
0:1:8.651,247.681,14.017,0,0.000885,0,0
0:1:8.851,247.446,14.0033,0,0.000885,0,0
0:1:9.046,249.381,14.1136,0,0.000885,0,0
0:1:9.256,249.732,14.1343,0,0.000885,0,0
0:1:9.456,251.494,14.2308,0,0.000885,0,0
0:1:9.659,251.729,14.2446,0,0.000885,0,0
0:1:9.859,252.668,14.2997,0,0.000885,0,0
0:1:10.060,253.135,14.3273,0,0.000885,0,0
0:1:10.261,254.661,14.41,0,0.000885,0,0
0:1:10.462,255.19,14.4376,0,0.000885,0,0
0:1:10.663,256.066,14.4928,0,0.000885,0,0
0:1:10.863,256.596,14.5204,0,0.000885,0,0
0:1:11.059,258.001,14.6031,0,0.000885,0,0
0:1:11.258,258.709,14.6376,0,0.000885,0,0
0:1:11.456,259.763,14.6996,0,0.000885,0,0
0:1:11.651,260.234,14.7272,0,0.000885,0,0
0:1:11.852,261.111,14.7755,0,0.000885,0,0
0:1:12.047,261.934,14.8237,0,0.000885,0,0
0:1:12.242,262.521,14.8582,0,0.000885,0,0
0:1:12.442,263.984,14.9409,0,0.000885,0,0
0:1:12.647,264.807,14.9823,0,0.000885,0,0
0:1:12.848,265.746,15.0375,0,0.000885,0,0
0:1:13.056,266.448,15.0788,0,0.000885,0,0
0:1:13.253,267.565,15.1409,0,0.000885,0,0
0:1:13.453,268.561,15.196,0,0.000885,0,0
0:1:13.657,269.206,15.2305,0,0.000885,0,0
0:1:13.856,269.967,15.2788,0,0.000885,0,0
0:1:14.055,270.963,15.3339,0,0.000885,0,0
0:1:14.251,272.08,15.396,0,0.000885,0,0
0:1:14.452,272.725,15.4305,0,0.000885,0,0
0:1:14.653,273.606,15.4856,0,0.000885,0,0
0:1:14.856,274.424,15.527,0,0.000885,0,0
0:1:15.058,275.363,15.5822,0,0.000885,0,0
0:1:15.259,276.07,15.6235,0,0.000885,0,0
0:1:15.459,277.124,15.6787,0,0.000885,0,0
0:1:15.659,278.299,15.7476,0,0.000885,0,0
0:1:15.858,278.944,15.7821,0,0.000885,0,0
0:1:16.057,280.349,15.8648,0,0.000885,0,0
0:1:16.253,280.758,15.8855,0,0.000885,0,0
0:1:16.454,281.933,15.9545,0,0.000885,0,0
0:1:16.649,282.52,15.9889,0,0.000885,0,0
0:1:16.844,283.458,16.0372,0,0.000885,0,0
0:1:17.044,283.988,16.0717,0,0.000885,0,0
0:1:17.251,284.806,16.1199,0,0.000885,0,0
0:1:17.452,285.861,16.1751,0,0.000885,0,0
0:1:17.647,286.919,16.2372,0,0.000885,0,0
0:1:17.853,288.031,16.2992,0,0.000885,0,0
0:1:18.054,288.854,16.3475,0,0.000885,0,0
0:1:18.248,289.908,16.4026,0,0.000885,0,0
0:1:18.447,290.26,16.4233,0,0.000885,0,0
0:1:18.644,291.376,16.4854,0,0.000885,0,0
0:1:18.850,292.079,16.5267,0,0.000885,0,0
0:1:19.052,293.196,16.5888,0,0.000885,0,0
0:1:19.253,294.192,16.6508,0,0.000885,0,0
0:1:19.454,295.011,16.6922,0,0.000885,0,0
0:1:19.655,296.3,16.768,0,0.000885,0,0
0:1:19.856,296.772,16.7956,0,0.000885,0,0
0:1:20.057,297.417,16.8301,0,0.000885,0,0
0:1:20.257,298.591,16.8991,0,0.000885,0,0
0:1:20.456,299.294,16.9335,0,0.000885,0,0
0:1:20.658,300.406,17.0025,0,0.000885,0,0
0:1:20.851,301.229,17.0438,0,0.000885,0,0
0:1:21.052,301.816,17.0783,0,0.000885,0,0
0:1:21.248,302.991,17.1473,0,0.000885,0,0
0:1:21.454,302.991,17.1473,0,0.000885,0,0
0:1:21.656,304.863,17.2507,0,0.000885,0,0
0:1:21.849,305.277,17.2783,0,0.000885,0,0
0:1:22.048,306.447,17.3403,0,0.000885,0,0
0:1:22.244,307.034,17.3748,0,0.000885,0,0
0:1:22.452,308.444,17.4575,0,0.000885,0,0
0:1:22.652,308.796,17.4713,0,0.000885,0,0
0:1:22.848,309.97,17.5403,0,0.000885,0,0
0:1:23.056,310.259,17.5541,0,0.000885,0,0
0:1:23.257,311.553,17.6299,0,0.000885,0,0
0:1:23.449,312.314,17.6713,0,0.000885,0,0
0:1:23.652,313.662,17.7471,0,0.000885,0,0
0:1:23.847,314.133,17.7747,0,0.000885,0,0
0:1:24.056,315.717,17.8643,0,0.000885,0,0
0:1:24.256,316.068,17.885,0,0.000885,0,0
0:1:24.457,317.358,17.9608,0,0.000885,0,0
0:1:24.659,317.825,17.9884,0,0.000885,0,0
0:1:24.861,319,18.0505,0,0.000885,0,0
0:1:25.062,319.529,18.0849,0,0.000885,0,0
0:1:25.260,320.29,18.1263,0,0.000885,0,0
0:1:25.460,321.113,18.1746,0,0.000885,0,0
0:1:25.661,322.167,18.2297,0,0.000885,0,0
0:1:25.861,322.928,18.2711,0,0.000885,0,0
0:1:26.055,323.399,18.2987,0,0.000885,0,0
0:1:26.256,324.631,18.3676,0,0.000885,0,0
0:1:26.451,325.45,18.4159,0,0.000885,0,0
0:1:26.649,326.566,18.4779,0,0.000885,0,0
0:1:26.849,327.327,18.5262,0,0.000885,0,0
0:1:27.053,328.323,18.5814,0,0.000885,0,0
0:1:27.253,329.44,18.6434,0,0.000885,0,0
0:1:27.449,330.2,18.6848,0,0.000885,0,0
0:1:27.656,331.139,18.74,0,0.000885,0,0
0:1:27.857,332.02,18.7882,0,0.000885,0,0
0:1:28.052,333.136,18.8503,0,0.000885,0,0
0:1:28.249,333.545,18.8778,0,0.000885,0,0
0:1:28.445,334.662,18.9399,0,0.000885,0,0
0:1:28.652,335.774,19.002,0,0.000885,0,0
0:1:28.853,336.713,19.0571,0,0.000885,0,0
0:1:29.048,337.358,19.0916,0,0.000885,0,0
0:1:29.243,337.945,19.1261,0,0.000885,0,0
0:1:29.444,339.293,19.2019,0,0.000885,0,0
0:1:29.649,339.702,19.2226,0,0.000885,0,0
0:1:29.852,341.348,19.3191,0,0.000885,0,0
0:1:30.052,342.224,19.3674,0,0.000885,0,0
0:1:30.252,342.811,19.4018,0,0.000885,0,0
0:1:30.452,343.456,19.4363,0,0.000885,0,0
0:1:30.652,344.924,19.5191,0,0.000885,0,0
0:1:30.853,345.569,19.5535,0,0.000885,0,0
0:1:31.050,346.214,19.5949,0,0.000885,0,0
0:1:31.255,347.21,19.6501,0,0.000885,0,0
0:1:31.456,347.388,19.657,0,0.000885,0,0
0:1:31.650,349.03,19.7535,0,0.000885,0,0
0:1:31.849,349.088,19.7535,0,0.000885,0,0
0:1:32.049,350.729,19.85,0,0.000885,0,0
0:1:32.253,350.965,19.8638,0,0.000885,0,0
0:1:32.455,352.312,19.9396,0,0.000885,0,0
0:1:32.649,352.9,19.9672,0,0.000885,0,0
0:1:32.845,354.132,20.0431,0,0.000885,0,0
0:1:33.044,354.425,20.0568,0,0.000885,0,0
0:1:33.240,356.067,20.1465,0,0.000885,0,0
0:1:33.440,356.654,20.181,0,0.000885,0,0
0:1:33.648,357.944,20.2568,0,0.000885,0,0
0:1:33.855,358.295,20.2775,0,0.000885,0,0
0:1:34.056,359.879,20.3671,0,0.000885,0,0
0:1:34.257,360.23,20.3878,0,0.000885,0,0
0:1:34.459,361.992,20.4843,0,0.000885,0,0
0:1:34.659,361.872,20.4774,0,0.000885,0,0
0:1:34.859,363.34,20.5602,0,0.000885,0,0
0:1:35.060,363.397,20.5671,0,0.000885,0,0
0:1:35.260,364.278,20.6153,0,0.000885,0,0
0:1:35.461,365.275,20.6705,0,0.000885,0,0
0:1:35.659,366.098,20.7187,0,0.000885,0,0
0:1:35.856,367.094,20.7739,0,0.000885,0,0
0:1:36.057,368.5,20.8497,0,0.000885,0,0
0:1:36.251,368.793,20.8704,0,0.000885,0,0
0:1:36.450,369.852,20.9325,0,0.000885,0,0
0:1:36.658,370.906,20.9876,0,0.000885,0,0
0:1:36.852,371.787,21.0359,0,0.000885,0,0
0:1:37.053,372.432,21.0773,0,0.000885,0,0
0:1:37.257,373.428,21.1324,0,0.000885,0,0
0:1:37.456,373.958,21.16,0,0.000885,0,0
0:1:37.656,375.127,21.229,0,0.000885,0,0
0:1:37.849,376.244,21.291,0,0.000885,0,0
0:1:38.049,377.356,21.3531,0,0.000885,0,0
0:1:38.245,378.237,21.4013,0,0.000885,0,0
0:1:38.454,378.997,21.4496,0,0.000885,0,0
0:1:38.655,380.114,21.5116,0,0.000885,0,0
0:1:38.858,380.701,21.5461,0,0.000885,0,0
0:1:39.058,381.697,21.6013,0,0.000885,0,0
0:1:39.259,382.52,21.6495,0,0.000885,0,0
0:1:39.461,383.045,21.6771,0,0.000885,0,0
0:1:39.663,383.926,21.7254,0,0.000885,0,0
0:1:39.864,385.1,21.7943,0,0.000885,0,0
0:1:40.065,386.097,21.8495,0,0.000885,0,0
0:1:40.264,386.39,21.8633,0,0.000885,0,0
0:1:40.465,388.09,21.9598,0,0.000885,0,0
0:1:40.666,388.561,21.9874,0,0.000885,0,0
0:1:40.862,389.967,22.0701,0,0.000885,0,0
0:1:41.060,390.025,22.0701,0,0.000885,0,0
0:1:41.260,391.377,22.146,0,0.000885,0,0
0:1:41.453,392.253,22.1942,0,0.000885,0,0
0:1:41.655,393.37,22.2632,0,0.000885,0,0
0:1:41.852,393.663,22.277,0,0.000885,0,0
0:1:42.058,395.127,22.3597,0,0.000885,0,0
0:1:42.258,395.482,22.3804,0,0.000885,0,0
0:1:42.451,396.479,22.4355,0,0.000885,0,0
0:1:42.651,397.182,22.4769,0,0.000885,0,0
0:1:42.850,398.294,22.539,0,0.000885,0,0
0:1:43.054,398.823,22.5665,0,0.000885,0,0
0:1:43.255,399.762,22.6217,0,0.000885,0,0
0:1:43.450,401.109,22.6975,0,0.000885,0,0
0:1:43.645,401.345,22.7113,0,0.000885,0,0
0:1:43.846,402.226,22.7596,0,0.000885,0,0
0:1:44.053,403.338,22.8216,0,0.000885,0,0
0:1:44.253,404.045,22.863,0,0.000885,0,0
0:1:44.453,405.273,22.932,0,0.000885,0,0
0:1:44.657,405.918,22.9733,0,0.000885,0,0
0:1:44.858,406.741,23.0147,0,0.000885,0,0
0:1:45.058,407.328,23.0492,0,0.000885,0,0
0:1:45.258,408.267,23.1043,0,0.000885,0,0
0:1:45.459,409.792,23.1871,0,0.000885,0,0
0:1:45.659,410.789,23.2491,0,0.000885,0,0
0:1:45.860,411.434,23.2836,0,0.000885,0,0
0:1:46.054,412.43,23.3388,0,0.000885,0,0
0:1:46.255,413.369,23.3939,0,0.000885,0,0
0:1:46.452,413.956,23.4284,0,0.000885,0,0
0:1:46.656,415.068,23.4904,0,0.000885,0,0
0:1:46.857,415.775,23.5249,0,0.000885,0,0
0:1:47.053,416.945,23.5939,0,0.000885,0,0
0:1:47.250,417.59,23.6283,0,0.000885,0,0
0:1:47.458,419.058,23.7111,0,0.000885,0,0
0:1:47.655,419.525,23.7386,0,0.000885,0,0
0:1:47.855,420.757,23.8076,0,0.000885,0,0
0:1:48.050,420.935,23.8214,0,0.000885,0,0
0:1:48.247,422.167,23.8903,0,0.000885,0,0
0:1:48.457,422.812,23.9248,0,0.000885,0,0
0:1:48.652,423.982,23.9938,0,0.000885,0,0
0:1:48.853,424.632,24.0282,0,0.000885,0,0
0:1:49.058,425.566,24.0834,0,0.000885,0,0
0:1:49.257,426.447,24.1317,0,0.000885,0,0
0:1:49.457,427.443,24.1868,0,0.000885,0,0
0:1:49.659,428.208,24.2282,0,0.000885,0,0
0:1:49.860,429.382,24.2971,0,0.000885,0,0
0:1:50.062,430.317,24.3523,0,0.000885,0,0
0:1:50.262,430.966,24.3868,0,0.000885,0,0
0:1:50.462,432.136,24.4557,0,0.000885,0,0
0:1:50.662,432.839,24.4971,0,0.000885,0,0
0:1:50.863,434.249,24.5729,0,0.000885,0,0
0:1:51.059,434.658,24.5936,0,0.000885,0,0
0:1:51.258,435.654,24.6557,0,0.000885,0,0
0:1:51.458,435.539,24.6488,0,0.000885,0,0
0:1:51.652,437.122,24.7384,0,0.000885,0,0
0:1:51.852,437.238,24.7453,0,0.000885,0,0
0:1:52.057,438.706,24.828,0,0.000885,0,0
0:1:52.254,438.942,24.8418,0,0.000885,0,0
0:1:52.455,440.525,24.9314,0,0.000885,0,0
0:1:52.647,440.992,24.9521,0,0.000885,0,0
0:1:52.846,441.757,25.0004,0,0.000885,0,0
0:1:53.044,442.985,25.0693,0,0.000885,0,0
0:1:53.239,443.514,25.0969,0,0.000885,0,0
0:1:53.440,445.218,25.1934,0,0.000885,0,0
0:1:53.645,445.334,25.2003,0,0.000885,0,0
0:1:53.843,447.033,25.2969,0,0.000885,0,0
0:1:54.053,447.856,25.3451,0,0.000885,0,0
0:1:54.258,449.555,25.4417,0,0.000885,0,0
0:1:54.459,449.613,25.4417,0,0.000885,0,0
0:1:54.659,450.614,25.4968,0,0.000885,0,0
0:1:54.862,450.903,25.5175,0,0.000885,0,0
0:1:55.064,452.664,25.614,0,0.000885,0,0
0:1:55.265,452.842,25.6278,0,0.000885,0,0
0:1:55.465,454.364,25.7105,0,0.000885,0,0
0:1:55.666,454.484,25.7174,0,0.000885,0,0
0:1:55.866,455.832,25.7933,0,0.000885,0,0
0:1:56.066,456.241,25.8209,0,0.000885,0,0
0:1:56.262,457.766,25.9036,0,0.000885,0,0
0:1:56.462,458.238,25.9312,0,0.000885,0,0
0:1:56.658,459.937,26.0277,0,0.000885,0,0
0:1:56.855,460.173,26.0415,0,0.000885,0,0
0:1:57.055,461.636,26.1242,0,0.000885,0,0
0:1:57.258,461.699,26.1242,0,0.000885,0,0
0:1:57.459,462.989,26.2001,0,0.000885,0,0
0:1:57.655,463.456,26.2277,0,0.000885,0,0
0:1:57.853,464.394,26.2759,0,0.000885,0,0
0:1:58.053,465.217,26.3242,0,0.000885,0,0
0:1:58.255,466.271,26.3862,0,0.000885,0,0
0:1:58.457,467.388,26.4483,0,0.000885,0,0
0:1:58.653,467.677,26.4621,0,0.000885,0,0
0:1:58.861,468.909,26.5379,0,0.000885,0,0
0:1:59.061,469.617,26.5724,0,0.000885,0,0
0:1:59.263,470.729,26.6344,0,0.000885,0,0
0:1:59.464,471.725,26.6965,0,0.000885,0,0
0:1:59.666,472.664,26.7448,0,0.000885,0,0
0:1:59.866,473.429,26.793,0,0.000885,0,0
0:2:0.065,474.305,26.8413,0,0.000885,0,0
0:2:0.266,475.306,26.8964,0,0.000885,0,0
0:2:0.468,475.951,26.9309,0,0.000885,0,0
0:2:0.664,477.121,26.9999,0,0.000885,0,0
0:2:0.861,477.824,27.0412,0,0.000885,0,0
0:2:1.062,478.646,27.0826,0,0.000885,0,0
0:2:1.256,479.349,27.124,0,0.000885,0,0
0:2:1.456,480.114,27.1722,0,0.000885,0,0
0:2:1.653,481.404,27.2412,0,0.000885,0,0
0:2:1.860,481.991,27.2757,0,0.000885,0,0
0:2:2.061,484.22,27.3998,0,0.000885,0,0
0:2:2.255,484.336,27.4067,0,0.000885,0,0
0:2:2.454,484.981,27.4411,0,0.000885,0,0
0:2:2.652,485.919,27.4963,0,0.000885,0,0
0:2:2.857,486.916,27.5515,0,0.000885,0,0
0:2:3.058,487.267,27.5721,0,0.000885,0,0
0:2:3.254,488.09,27.6204,0,0.000885,0,0
0:2:3.462,488.735,27.6549,0,0.000885,0,0
0:2:3.659,489.847,27.7169,0,0.000885,0,0
0:2:3.855,490.906,27.779,0,0.000885,0,0
0:2:4.055,491.724,27.8272,0,0.000885,0,0
0:2:4.256,493.076,27.9031,0,0.000885,0,0
0:2:4.458,493.428,27.9238,0,0.000885,0,0
0:2:4.659,494.482,27.9789,0,0.000885,0,0
0:2:4.860,495.536,28.041,0,0.000885,0,0
0:2:5.059,496.244,28.0823,0,0.000885,0,0
0:2:5.260,497.182,28.1375,0,0.000885,0,0
0:2:5.461,498.294,28.1996,0,0.000885,0,0
0:2:5.661,499.175,28.2478,0,0.000885,0,0
0:2:5.856,500.056,28.2961,0,0.000885,0,0
0:2:6.056,501.226,28.365,0,0.000885,0,0
0:2:6.253,501.577,28.3857,0,0.000885,0,0
0:2:6.459,502.694,28.4478,0,0.000885,0,0
0:2:6.659,504.041,28.5236,0,0.000885,0,0
0:2:6.853,504.393,28.5443,0,0.000885,0,0
0:2:7.053,505.038,28.5788,0,0.000885,0,0
0:2:7.261,505.918,28.627,0,0.000885,0,0
0:2:7.458,506.684,28.6753,0,0.000885,0,0
0:2:7.658,507.974,28.7442,0,0.000885,0,0
0:2:7.862,508.205,28.758,0,0.000885,0,0
0:2:8.061,509.731,28.8477,0,0.000885,0,0
0:2:8.259,510.26,28.8752,0,0.000885,0,0
0:2:8.455,511.078,28.9235,0,0.000885,0,0
0:2:8.655,512.431,28.9993,0,0.000885,0,0
0:2:8.859,513.076,29.0338,0,0.000885,0,0
0:2:9.057,514.188,29.0959,0,0.000885,0,0
0:2:9.259,514.891,29.1372,0,0.000885,0,0
0:2:9.460,515.829,29.1924,0,0.000885,0,0
0:2:9.661,516.652,29.2338,0,0.000885,0,0
0:2:9.862,517.591,29.2889,0,0.000885,0,0
0:2:10.063,518.414,29.3372,0,0.000885,0,0
0:2:10.262,519.468,29.3992,0,0.000885,0,0
0:2:10.463,520.055,29.4268,0,0.000885,0,0
0:2:10.664,521.167,29.4889,0,0.000885,0,0
0:2:10.861,521.87,29.5302,0,0.000885,0,0
0:2:11.060,522.283,29.5578,0,0.000885,0,0
0:2:11.258,523.983,29.6544,0,0.000885,0,0
0:2:11.450,524.686,29.6888,0,0.000885,0,0
0:2:11.654,525.451,29.7371,0,0.000885,0,0
0:2:11.859,526.389,29.7854,0,0.000885,0,0
0:2:12.056,527.386,29.8405,0,0.000885,0,0
0:2:12.256,528.204,29.8888,0,0.000885,0,0
0:2:12.462,529.321,29.9508,0,0.000885,0,0
0:2:12.662,530.081,29.9991,0,0.000885,0,0
0:2:12.858,531.02,30.0474,0,0.000885,0,0
0:2:13.055,531.785,30.0956,0,0.000885,0,0
0:2:13.255,532.839,30.1508,0,0.000885,0,0
0:2:13.458,533.311,30.1784,0,0.000885,0,0
0:2:13.657,534.365,30.2404,0,0.000885,0,0
0:2:13.856,535.068,30.2818,0,0.000885,0,0
0:2:14.062,536.064,30.3369,0,0.000885,0,0
0:2:14.262,536.945,30.3852,0,0.000885,0,0
0:2:14.463,537.416,30.4128,0,0.000885,0,0
0:2:14.666,538.586,30.4748,0,0.000885,0,0
0:2:14.867,539.058,30.5024,0,0.000885,0,0
0:2:15.067,540.054,30.5576,0,0.000885,0,0
0:2:15.267,540.993,30.6127,0,0.000885,0,0
0:2:15.467,542.812,30.7161,0,0.000885,0,0
0:2:15.669,543.457,30.7506,0,0.000885,0,0
0:2:15.867,544.333,30.8058,0,0.000885,0,0
0:2:16.063,545.45,30.8678,0,0.000885,0,0
0:2:16.263,546.388,30.9161,0,0.000885,0,0
0:2:16.457,546.798,30.9437,0,0.000885,0,0
0:2:16.656,547.736,30.9988,0,0.000885,0,0
0:2:16.856,548.439,31.0333,0,0.000885,0,0
0:2:17.059,549.44,31.0885,0,0.000885,0,0
0:2:17.260,550.494,31.1505,0,0.000885,0,0
0:2:17.456,551.081,31.185,0,0.000885,0,0
0:2:17.663,552.371,31.2608,0,0.000885,0,0
0:2:17.864,552.607,31.2677,0,0.000885,0,0
0:2:18.058,553.719,31.3367,0,0.000885,0,0
0:2:18.258,554.248,31.3643,0,0.000885,0,0
0:2:18.455,555.538,31.4401,0,0.000885,0,0
0:2:18.660,555.948,31.4608,0,0.000885,0,0
0:2:18.862,557.589,31.5504,0,0.000885,0,0
0:2:19.055,557.94,31.5711,0,0.000885,0,0
0:2:19.255,558.821,31.6263,0,0.000885,0,0
0:2:19.455,559.875,31.6814,0,0.000885,0,0
0:2:19.657,560.525,31.7159,0,0.000885,0,0
0:2:19.859,561.401,31.771,0,0.000885,0,0
0:2:20.060,563.105,31.8676,0,0.000885,0,0
0:2:20.260,563.75,31.902,0,0.000885,0,0
0:2:20.459,565.565,32.0055,0,0.000885,0,0
0:2:20.660,565.743,32.0124,0,0.000885,0,0
0:2:20.859,566.272,32.0468,0,0.000885,0,0
0:2:21.056,567.442,32.1089,0,0.000885,0,0
0:2:21.254,568.087,32.1503,0,0.000885,0,0
0:2:21.449,568.91,32.1916,0,0.000885,0,0
0:2:21.655,569.733,32.2399,0,0.000885,0,0
0:2:21.856,570.435,32.2813,0,0.000885,0,0
0:2:22.062,571.548,32.3433,0,0.000885,0,0
0:2:22.259,572.255,32.3847,0,0.000885,0,0
0:2:22.459,573.483,32.4536,0,0.000885,0,0
0:2:22.663,573.776,32.4674,0,0.000885,0,0
0:2:22.860,574.657,32.5157,0,0.000885,0,0
0:2:23.059,575.773,32.5846,0,0.000885,0,0
0:2:23.255,576.24,32.6053,0,0.000885,0,0
0:2:23.456,577.237,32.6674,0,0.000885,0,0
0:2:23.661,578.175,32.7156,0,0.000885,0,0
0:2:23.858,579.35,32.7846,0,0.000885,0,0
0:2:24.058,579.995,32.819,0,0.000885,0,0
0:2:24.259,581.169,32.888,0,0.000885,0,0
0:2:24.459,581.988,32.9363,0,0.000885,0,0
0:2:24.660,582.868,32.9845,0,0.000885,0,0
0:2:24.862,583.629,33.0259,0,0.000885,0,0
0:2:25.061,584.394,33.0673,0,0.000885,0,0
0:2:25.261,585.39,33.1293,0,0.000885,0,0
0:2:25.461,587.09,33.2258,0,0.000885,0,0
0:2:25.658,587.152,33.2258,0,0.000885,0,0
0:2:25.854,588.206,33.2879,0,0.000885,0,0
0:2:26.056,589.496,33.3568,0,0.000885,0,0
0:2:26.258,589.674,33.3706,0,0.000885,0,0
0:2:26.459,591.258,33.4603,0,0.000885,0,0
0:2:26.657,591.667,33.4809,0,0.000885,0,0
0:2:26.862,593.308,33.5775,0,0.000885,0,0
0:2:27.063,593.428,33.5844,0,0.000885,0,0
0:2:27.260,594.483,33.6395,0,0.000885,0,0
0:2:27.459,594.718,33.6533,0,0.000885,0,0
0:2:27.661,596.186,33.736,0,0.000885,0,0
0:2:27.855,596.48,33.7567,0,0.000885,0,0
0:2:28.057,598.183,33.8533,0,0.000885,0,0
0:2:28.255,598.299,33.8602,0,0.000885,0,0
0:2:28.449,599.883,33.9498,0,0.000885,0,0
0:2:28.654,600.412,33.9774,0,0.000885,0,0
0:2:28.859,601.822,34.0532,0,0.000885,0,0
0:2:29.060,602.467,34.0946,0,0.000885,0,0
0:2:29.260,603.584,34.1566,0,0.000885,0,0
0:2:29.464,604.402,34.2049,0,0.000885,0,0
0:2:29.666,605.634,34.2738,0,0.000885,0,0
0:2:29.868,605.928,34.2876,0,0.000885,0,0
0:2:30.069,607.102,34.3566,0,0.000885,0,0
0:2:30.269,607.632,34.3842,0,0.000885,0,0
0:2:30.471,608.628,34.4393,0,0.000885,0,0
0:2:30.672,609.629,34.4945,0,0.000885,0,0
0:2:30.869,610.683,34.5565,0,0.000885,0,0
0:2:31.069,611.564,34.6048,0,0.000885,0,0
0:2:31.269,612.444,34.6599,0,0.000885,0,0
0:2:31.463,613.152,34.6944,0,0.000885,0,0
0:2:31.665,613.855,34.7358,0,0.000885,0,0
0:2:31.863,615.087,34.8047,0,0.000885,0,0
0:2:32.060,615.496,34.8323,0,0.000885,0,0
0:2:32.261,616.67,34.8944,0,0.000885,0,0
0:2:32.455,617.435,34.9426,0,0.000885,0,0
0:2:32.656,618.374,34.9909,0,0.000885,0,0
0:2:32.855,619.428,35.0529,0,0.000885,0,0
0:2:33.060,620.251,35.1012,0,0.000885,0,0
0:2:33.262,620.838,35.1357,0,0.000885,0,0
0:2:33.457,621.777,35.1839,0,0.000885,0,0
0:2:33.656,623.009,35.2529,0,0.000885,0,0
0:2:33.858,623.716,35.2943,0,0.000885,0,0
0:2:34.063,624.713,35.3494,0,0.000885,0,0
0:2:34.264,625.184,35.377,0,0.000885,0,0
0:2:34.465,626.065,35.4253,0,0.000885,0,0
0:2:34.669,626.946,35.4804,0,0.000885,0,0
0:2:34.871,627.884,35.5287,0,0.000885,0,0
0:2:35.072,629.352,35.6114,0,0.000885,0,0
0:2:35.273,629.526,35.6252,0,0.000885,0,0
0:2:35.473,630.936,35.7011,0,0.000885,0,0
0:2:35.675,631.581,35.7424,0,0.000885,0,0
0:2:35.877,633.227,35.8321,0,0.000885,0,0
0:2:36.071,633.284,35.8389,0,0.000885,0,0
0:2:36.273,634.926,35.9286,0,0.000885,0,0
0:2:36.471,635.397,35.9562,0,0.000885,0,0
0:2:36.667,635.455,35.9562,0,0.000885,0,0
0:2:36.869,636.981,36.0458,0,0.000885,0,0
0:2:37.064,637.217,36.0596,0,0.000885,0,0
0:2:37.265,638.742,36.1423,0,0.000885,0,0
0:2:37.465,639.33,36.1768,0,0.000885,0,0
0:2:37.659,640.855,36.2664,0,0.000885,0,0
0:2:37.861,641.265,36.2871,0,0.000885,0,0
0:2:38.059,642.675,36.3698,0,0.000885,0,0
0:2:38.257,642.617,36.3629,0,0.000885,0,0
0:2:38.458,644.085,36.4457,0,0.000885,0,0
0:2:38.662,644.908,36.494,0,0.000885,0,0
0:2:38.862,646.313,36.5767,0,0.000885,0,0
0:2:39.061,646.549,36.5905,0,0.000885,0,0
0:2:39.258,647.839,36.6594,0,0.000885,0,0
0:2:39.460,648.488,36.6939,0,0.000885,0,0
0:2:39.662,649.191,36.7353,0,0.000885,0,0
0:2:39.865,650.188,36.7904,0,0.000885,0,0
0:2:40.067,650.833,36.8318,0,0.000885,0,0
0:2:40.268,651.776,36.8801,0,0.000885,0,0
0:2:40.470,652.594,36.9283,0,0.000885,0,0
0:2:40.671,653.359,36.9697,0,0.000885,0,0
0:2:40.872,654.591,37.0455,0,0.000885,0,0
0:2:41.070,654.943,37.0593,0,0.000885,0,0
0:2:41.266,656.175,37.1352,0,0.000885,0,0
0:2:41.469,657.056,37.1834,0,0.000885,0,0
0:2:41.665,657.879,37.2317,0,0.000885,0,0
0:2:41.864,659.876,37.342,0,0.000885,0,0
0:2:42.063,659.814,37.3351,0,0.000885,0,0
0:2:42.260,661.869,37.4523,0,0.000885,0,0
0:2:42.460,662.398,37.4868,0,0.000885,0,0
0:2:42.658,663.101,37.5213,0,0.000885,0,0
0:2:42.853,663.101,37.5213,0,0.000885,0,0
0:2:43.057,664.16,37.5833,0,0.000885,0,0
0:2:43.262,664.627,37.6109,0,0.000885,0,0
0:2:43.463,666.33,37.7074,0,0.000885,0,0
0:2:43.661,666.33,37.7074,0,0.000885,0,0
0:2:43.858,668.092,37.804,0,0.000885,0,0
0:2:44.059,668.501,37.8315,0,0.000885,0,0
0:2:44.262,670.031,37.9143,0,0.000885,0,0
0:2:44.462,670.205,37.9281,0,0.000885,0,0
0:2:44.665,671.437,37.997,0,0.000885,0,0
0:2:44.867,671.673,38.0108,0,0.000885,0,0
0:2:45.067,673.083,38.0866,0,0.000885,0,0
0:2:45.268,673.55,38.1142,0,0.000885,0,0
0:2:45.470,674.079,38.1418,0,0.000885,0,0
0:2:45.670,675.783,38.2383,0,0.000885,0,0
0:2:45.865,676.486,38.2797,0,0.000885,0,0
0:2:46.066,677.66,38.3486,0,0.000885,0,0
0:2:46.264,678.541,38.3969,0,0.000885,0,0
0:2:46.462,679.364,38.4452,0,0.000885,0,0
0:2:46.663,680.36,38.5003,0,0.000885,0,0
0:2:46.858,681.063,38.5417,0,0.000885,0,0
0:2:47.058,681.65,38.5762,0,0.000885,0,0
0:2:47.257,682.709,38.6313,0,0.000885,0,0
0:2:47.450,683.296,38.6658,0,0.000885,0,0
0:2:47.653,684.706,38.7485,0,0.000885,0,0
0:2:47.860,684.879,38.7554,0,0.000885,0,0
0:2:48.059,686.347,38.8382,0,0.000885,0,0
0:2:48.260,687.228,38.8864,0,0.000885,0,0
0:2:48.452,688.696,38.9692,0,0.000885,0,0
0:2:48.654,689.283,39.0036,0,0.000885,0,0
0:2:48.856,690.106,39.0519,0,0.000885,0,0
0:2:49.062,690.924,39.1002,0,0.000885,0,0
0:2:49.264,691.863,39.1484,0,0.000885,0,0
0:2:49.466,692.922,39.2105,0,0.000885,0,0
0:2:49.669,693.745,39.2587,0,0.000885,0,0
0:2:49.870,694.447,39.3001,0,0.000885,0,0
0:2:50.071,695.328,39.3484,0,0.000885,0,0
0:2:50.272,695.915,39.3829,0,0.000885,0,0
0:2:50.473,696.738,39.4242,0,0.000885,0,0
0:2:50.675,697.735,39.4863,0,0.000885,0,0
0:2:50.873,698.086,39.507,0,0.000885,0,0
0:2:51.070,699.087,39.5621,0,0.000885,0,0
0:2:51.271,699.905,39.6035,0,0.000885,0,0
0:2:51.466,701.022,39.6724,0,0.000885,0,0
0:2:51.666,701.609,39.7,0,0.000885,0,0
0:2:51.866,703.255,39.7965,0,0.000885,0,0
0:2:52.060,703.664,39.8172,0,0.000885,0,0
0:2:52.263,705.19,39.9069,0,0.000885,0,0
0:2:52.459,705.835,39.9413,0,0.000885,0,0
0:2:52.658,706.716,39.9896,0,0.000885,0,0
0:2:52.858,707.774,40.0516,0,0.000885,0,0
0:2:53.053,708.886,40.1137,0,0.000885,0,0
0:2:53.253,709.3,40.1413,0,0.000885,0,0
0:2:53.464,710.648,40.2171,0,0.000885,0,0
0:2:53.659,711.413,40.2585,0,0.000885,0,0
0:2:53.862,712.529,40.3205,0,0.000885,0,0
0:2:54.054,712.587,40.3274,0,0.000885,0,0
0:2:54.254,713.584,40.3826,0,0.000885,0,0
0:2:54.458,714.816,40.4515,0,0.000885,0,0
0:2:54.660,715.287,40.4791,0,0.000885,0,0
0:2:54.864,717.107,40.5825,0,0.000885,0,0
0:2:55.064,717.28,40.5894,0,0.000885,0,0
0:2:55.266,718.455,40.6584,0,0.000885,0,0
0:2:55.466,718.632,40.6653,0,0.000885,0,0
0:2:55.668,720.216,40.7549,0,0.000885,0,0
0:2:55.870,720.923,40.7963,0,0.000885,0,0
0:2:56.067,721.626,40.8376,0,0.000885,0,0
0:2:56.266,722.155,40.8652,0,0.000885,0,0
0:2:56.467,723.21,40.9273,0,0.000885,0,0
0:2:56.662,723.797,40.9618,0,0.000885,0,0
0:2:56.863,724.62,41.0031,0,0.000885,0,0
0:2:57.059,726.088,41.0859,0,0.000885,0,0
0:2:57.258,726.848,41.1341,0,0.000885,0,0
0:2:57.459,727.791,41.1824,0,0.000885,0,0
0:2:57.663,728.668,41.2375,0,0.000885,0,0
0:2:57.863,728.961,41.2513,0,0.000885,0,0
0:2:58.063,730.491,41.3341,0,0.000885,0,0
0:2:58.259,730.723,41.3479,0,0.000885,0,0
0:2:58.461,732.133,41.4306,0,0.000885,0,0
0:2:58.658,732.426,41.4444,0,0.000885,0,0
0:2:58.854,734.13,41.5409,0,0.000885,0,0
0:2:59.057,734.539,41.5685,0,0.000885,0,0
0:2:59.258,735.656,41.6305,0,0.000885,0,0
0:2:59.462,736.888,41.6995,0,0.000885,0,0
0:2:59.664,737.649,41.7409,0,0.000885,0,0
0:2:59.864,738.649,41.796,0,0.000885,0,0
0:3:0.066,739.117,41.8236,0,0.000885,0,0
0:3:0.268,740.762,41.9201,0,0.000885,0,0
0:3:0.468,741.229,41.9477,0,0.000885,0,0
0:3:0.668,742.582,42.0235,0,0.000885,0,0
0:3:0.864,743.405,42.0649,0,0.000885,0,0
0:3:1.066,743.992,42.0994,0,0.000885,0,0
0:3:1.261,744.81,42.1477,0,0.000885,0,0
0:3:1.461,745.811,42.2028,0,0.000885,0,0
0:3:1.660,746.105,42.2235,0,0.000885,0,0
0:3:1.854,747.395,42.2924,0,0.000885,0,0
0:3:2.057,747.746,42.3131,0,0.000885,0,0
0:3:2.253,749.508,42.4165,0,0.000885,0,0
0:3:2.449,749.743,42.4234,0,0.000885,0,0
0:3:2.650,750.975,42.4993,0,0.000885,0,0
0:3:2.846,751.447,42.52,0,0.000885,0,0
0:3:3.047,752.853,42.6027,0,0.000885,0,0
0:3:3.255,753.204,42.6234,0,0.000885,0,0
0:3:3.453,753.56,42.6441,0,0.000885,0,0
0:3:3.653,755.086,42.7268,0,0.000885,0,0
0:3:3.862,756.611,42.8164,0,0.000885,0,0
0:3:4.062,756.669,42.8164,0,0.000885,0,0
0:3:4.262,757.492,42.8647,0,0.000885,0,0
0:3:4.466,758.373,42.913,0,0.000885,0,0
0:3:4.668,759.133,42.9612,0,0.000885,0,0
0:3:4.870,760.601,43.044,0,0.000885,0,0
0:3:5.071,761.598,43.0991,0,0.000885,0,0
0:3:5.271,762.305,43.1405,0,0.000885,0,0
0:3:5.472,763.008,43.175,0,0.000885,0,0
0:3:5.674,764.476,43.2577,0,0.000885,0,0
0:3:5.870,764.769,43.2784,0,0.000885,0,0
0:3:6.069,766.295,43.3611,0,0.000885,0,0
0:3:6.270,766.709,43.3887,0,0.000885,0,0
0:3:6.464,767.527,43.4301,0,0.000885,0,0
0:3:6.667,768.88,43.5128,0,0.000885,0,0
0:3:6.865,769.347,43.5335,0,0.000885,0,0
0:3:7.063,770.112,43.5818,0,0.000885,0,0
0:3:7.264,771.344,43.6507,0,0.000885,0,0
0:3:7.456,771.989,43.6852,0,0.000885,0,0
0:3:7.659,773.399,43.7679,0,0.000885,0,0
0:3:7.856,774.16,43.8093,0,0.000885,0,0
0:3:8.051,774.102,43.8024,0,0.000885,0,0
0:3:8.253,775.57,43.8851,0,0.000885,0,0
0:3:8.460,776.393,43.9334,0,0.000885,0,0
0:3:8.660,776.86,43.961,0,0.000885,0,0
0:3:8.860,778.034,44.0299,0,0.000885,0,0
0:3:9.053,779.444,44.1058,0,0.000885,0,0
0:3:9.255,779.853,44.1333,0,0.000885,0,0
0:3:9.456,781.441,44.223,0,0.000885,0,0
0:3:9.662,781.263,44.2092,0,0.000885,0,0
0:3:9.865,782.496,44.2781,0,0.000885,0,0
0:3:10.065,783.434,44.3333,0,0.000885,0,0
0:3:10.267,784.257,44.3816,0,0.000885,0,0
0:3:10.468,784.729,44.4091,0,0.000885,0,0
0:3:10.668,785.961,44.4781,0,0.000885,0,0
0:3:10.869,786.428,44.5057,0,0.000885,0,0
0:3:11.066,787.429,44.5608,0,0.000885,0,0
0:3:11.266,788.425,44.616,0,0.000885,0,0
0:3:11.465,789.657,44.6849,0,0.000885,0,0
0:3:11.660,790.187,44.7125,0,0.000885,0,0
0:3:11.862,791.948,44.8159,0,0.000885,0,0
0:3:12.059,792.651,44.8573,0,0.000885,0,0
0:3:12.259,793.358,44.8918,0,0.000885,0,0
0:3:12.456,794.59,44.9676,0,0.000885,0,0
0:3:12.664,795.702,45.0297,0,0.000885,0,0
0:3:12.865,796.41,45.0641,0,0.000885,0,0
0:3:13.062,797.17,45.1124,0,0.000885,0,0
0:3:13.260,797.464,45.1262,0,0.000885,0,0
0:3:13.461,798.696,45.1951,0,0.000885,0,0
0:3:13.653,799.345,45.2365,0,0.000885,0,0
0:3:13.854,799.812,45.2572,0,0.000885,0,0
0:3:14.065,801.223,45.3399,0,0.000885,0,0
0:3:14.262,801.983,45.3813,0,0.000885,0,0
0:3:14.463,802.57,45.4158,0,0.000885,0,0
0:3:14.666,803.509,45.4709,0,0.000885,0,0
0:3:14.869,804.568,45.5261,0,0.000885,0,0
0:3:15.072,805.097,45.5606,0,0.000885,0,0
0:3:15.272,806.329,45.6295,0,0.000885,0,0
0:3:15.474,807.152,45.6778,0,0.000885,0,0
0:3:15.676,808.442,45.7467,0,0.000885,0,0
0:3:15.877,809.323,45.795,0,0.000885,0,0
0:3:16.076,810.906,45.8846,0,0.000885,0,0
0:3:16.273,811.551,45.926,0,0.000885,0,0
0:3:16.475,812.49,45.9742,0,0.000885,0,0
0:3:16.670,813.313,46.0225,0,0.000885,0,0
0:3:16.869,813.727,46.0501,0,0.000885,0,0
0:3:17.070,814.194,46.0708,0,0.000885,0,0
0:3:17.265,815.719,46.1604,0,0.000885,0,0
0:3:17.467,816.306,46.1949,0,0.000885,0,0
0:3:17.666,817.423,46.2569,0,0.000885,0,0
0:3:17.862,818.01,46.2914,0,0.000885,0,0
0:3:18.063,818.597,46.3259,0,0.000885,0,0
0:3:18.267,819.358,46.3672,0,0.000885,0,0
0:3:18.467,819.652,46.381,0,0.000885,0,0
0:3:18.667,821.004,46.4569,0,0.000885,0,0
0:3:18.863,821.827,46.5051,0,0.000885,0,0
0:3:19.065,823.232,46.5879,0,0.000885,0,0
0:3:19.267,823.997,46.6292,0,0.000885,0,0
0:3:19.471,824.7,46.6706,0,0.000885,0,0
0:3:19.672,825.523,46.712,0,0.000885,0,0
0:3:19.874,826.64,46.7809,0,0.000885,0,0
0:3:20.075,827.4,46.8223,0,0.000885,0,0
0:3:20.276,828.459,46.8843,0,0.000885,0,0
0:3:20.477,829.22,46.9257,0,0.000885,0,0
0:3:20.678,830.866,47.0153,0,0.000885,0,0
0:3:20.874,831.511,47.0567,0,0.000885,0,0
0:3:21.075,832.685,47.1188,0,0.000885,0,0
0:3:21.273,833.566,47.167,0,0.000885,0,0
0:3:21.470,834.62,47.2291,0,0.000885,0,0
0:3:21.671,835.443,47.2774,0,0.000885,0,0
0:3:21.866,835.914,47.3049,0,0.000885,0,0
0:3:22.067,836.968,47.3601,0,0.000885,0,0
0:3:22.266,837.791,47.4084,0,0.000885,0,0
0:3:22.462,837.849,47.4152,0,0.000885,0,0
0:3:22.664,838.321,47.4359,0,0.000885,0,0
0:3:22.861,839.789,47.5256,0,0.000885,0,0
0:3:23.057,840.491,47.56,0,0.000885,0,0
0:3:23.257,841.608,47.6221,0,0.000885,0,0
0:3:23.464,842.311,47.6635,0,0.000885,0,0
0:3:23.666,843.721,47.7462,0,0.000885,0,0
0:3:23.862,844.25,47.7738,0,0.000885,0,0
0:3:24.063,844.775,47.8014,0,0.000885,0,0
0:3:24.263,845.482,47.8427,0,0.000885,0,0
0:3:24.466,847.182,47.9392,0,0.000885,0,0
0:3:24.669,847.595,47.9668,0,0.000885,0,0
0:3:24.871,848.592,48.022,0,0.000885,0,0
0:3:25.072,849.001,48.0427,0,0.000885,0,0
0:3:25.273,850.002,48.0978,0,0.000885,0,0
0:3:25.473,850.998,48.1599,0,0.000885,0,0
0:3:25.675,852.524,48.2426,0,0.000885,0,0
0:3:25.874,853.169,48.2771,0,0.000885,0,0
0:3:26.072,854.815,48.3736,0,0.000885,0,0
0:3:26.272,854.988,48.3805,0,0.000885,0,0
0:3:26.467,855.989,48.4357,0,0.000885,0,0
0:3:26.669,857.043,48.4977,0,0.000885,0,0
0:3:26.867,857.63,48.5322,0,0.000885,0,0
0:3:27.065,858.338,48.5736,0,0.000885,0,0
0:3:27.266,859.156,48.6218,0,0.000885,0,0
0:3:27.470,859.979,48.6632,0,0.000885,0,0
0:3:27.671,860.682,48.7046,0,0.000885,0,0
0:3:27.868,861.625,48.7597,0,0.000885,0,0
0:3:28.067,862.386,48.8011,0,0.000885,0,0
0:3:28.268,863.324,48.8563,0,0.000885,0,0
0:3:28.463,864.031,48.8907,0,0.000885,0,0
0:3:28.664,865.206,48.9597,0,0.000885,0,0
0:3:28.862,865.379,48.9735,0,0.000885,0,0
0:3:29.056,867.083,49.07,0,0.000885,0,0
0:3:29.260,867.55,49.0907,0,0.000885,0,0
0:3:29.463,868.787,49.1665,0,0.000885,0,0
0:3:29.666,868.787,49.1665,0,0.000885,0,0
0:3:29.869,869.725,49.2148,0,0.000885,0,0
0:3:30.069,870.606,49.263,0,0.000885,0,0
0:3:30.270,871.545,49.3182,0,0.000885,0,0
0:3:30.472,872.834,49.394,0,0.000885,0,0
0:3:30.674,874.009,49.4561,0,0.000885,0,0
0:3:30.872,874.302,49.4768,0,0.000885,0,0
0:3:31.070,875.357,49.5319,0,0.000885,0,0
0:3:31.270,876.006,49.5733,0,0.000885,0,0
0:3:31.467,876.887,49.6216,0,0.000885,0,0
0:3:31.668,877.59,49.6629,0,0.000885,0,0
0:3:31.867,877.768,49.6698,0,0.000885,0,0
0:3:32.062,878.822,49.7319,0,0.000885,0,0
0:3:32.263,879.409,49.7664,0,0.000885,0,0
0:3:32.471,880.174,49.8077,0,0.000885,0,0
0:3:32.669,880.819,49.8422,0,0.000885,0,0
0:3:32.869,881.522,49.8836,0,0.000885,0,0
0:3:33.065,882.167,49.918,0,0.000885,0,0
0:3:33.267,883.341,49.987,0,0.000885,0,0
0:3:33.464,883.461,49.9939,0,0.000885,0,0
0:3:33.664,884.631,50.0628,0,0.000885,0,0
0:3:33.864,884.458,50.049,0,0.000885,0,0
0:3:34.056,884.693,50.0628,0,0.000885,0,0
0:3:34.258,884.693,50.0628,0,0.000885,0,0
0:3:34.457,883.635,50.0008,0,0.000885,0,0
0:3:34.662,882.345,49.9318,0,0.000885,0,0
0:3:34.864,879.115,49.7457,0,0.000885,0,0
0:3:35.064,875.65,49.5526,0,0.000885,0,0
0:3:35.265,854.401,48.346,0,0.000885,0,0
0:3:35.466,795.765,45.0297,0,0.000885,0,0
0:3:35.667,623.716,35.2943,0,0.000885,0,0
0:3:35.778,623.716,35.2943,0,0.000885,0,0