File: DataFile2021-06-29_071719.csv
Test ID:,Date Tested:,Time:,Test Type:,Diameter Avg. (mm):,Cyl. Corr. Factor:,Height (mm):,Age (days):,Weight (kN):,Break Type:,Ramp Rate (MPa/s):,Load at Break (kN):,Stress at Break (MPa):
12,6/29/2021,07:17,Cylinder,100,1,200,0,3.6,3,0.24,368.91,46.97
Sample Time,Load (kN),Stress (MPa),Long. Strain,Trans. Strain,Chan1 Deflection (mm),Chan2 Deflection (mm)
0:0:15.859,5.98286,0.758423,0,0.000885,0,0
0:0:16.060,12.6107,1.60648,0,0.000885,0,0
0:0:16.269,14.3099,1.82022,0,0.000885,0,0
0:0:16.469,13.9007,1.77195,0,0.000885,0,0
0:0:16.668,13.5493,1.72369,0,0.000885,0,0
0:0:16.873,13.3714,1.70301,0,0.000885,0,0
0:0:17.075,13.1356,1.67543,0,0.000885,0,0
0:0:17.272,13.1356,1.67543,0,0.000885,0,0
0:0:17.471,13.0199,1.65474,0,0.000885,0,0
0:0:17.670,13.0199,1.65474,0,0.000885,0,0
0:0:17.862,12.8465,1.63406,0,0.000885,0,0
0:0:18.067,13.1356,1.67543,0,0.000885,0,0
0:0:18.262,12.9043,1.64095,0,0.000885,0,0
0:0:18.471,12.7842,1.62716,0,0.000885,0,0
0:0:18.673,12.6107,1.60648,0,0.000885,0,0
0:0:18.867,12.6107,1.60648,0,0.000885,0,0
0:0:19.067,12.4906,1.59269,0,0.000885,0,0
0:0:19.262,12.375,1.5789,0,0.000885,0,0
0:0:19.459,12.1392,1.54443,0,0.000885,0,0
0:0:19.660,12.1392,1.54443,0,0.000885,0,0
0:0:19.856,12.5529,1.59958,0,0.000885,0,0
0:0:20.055,12.8465,1.63406,0,0.000885,0,0
0:0:20.254,12.6107,1.60648,0,0.000885,0,0
0:0:20.460,13.5493,1.72369,0,0.000885,0,0
0:0:20.661,13.5493,1.72369,0,0.000885,0,0
0:0:20.869,13.8429,1.76506,0,0.000885,0,0
0:0:21.069,14.43,1.83401,0,0.000885,0,0
0:0:21.271,14.6035,1.86158,0,0.000885,0,0
0:0:21.472,15.6577,1.99258,0,0.000885,0,0
0:0:21.676,15.72,1.99948,0,0.000885,0,0
0:0:21.878,16.1293,2.05464,0,0.000885,0,0
0:0:22.079,16.5385,2.1029,0,0.000885,0,0
0:0:22.282,17.8863,2.27527,0,0.000885,0,0
0:0:22.483,18.0064,2.29595,0,0.000885,0,0
0:0:22.684,18.945,2.41317,0,0.000885,0,0
0:0:22.886,19.6478,2.5028,0,0.000885,0,0
0:0:23.083,19.9414,2.53727,0,0.000885,0,0
0:0:23.285,20.3506,2.59243,0,0.000885,0,0
0:0:23.480,20.6442,2.6269,0,0.000885,0,0
0:0:23.682,20.9956,2.67517,0,0.000885,0,0
0:0:23.881,21.4093,2.72343,0,0.000885,0,0
0:0:24.078,21.8185,2.77859,0,0.000885,0,0
0:0:24.281,22.2278,2.82685,0,0.000885,0,0
0:0:24.478,22.5792,2.87511,0,0.000885,0,0
0:0:24.678,22.6993,2.8889,0,0.000885,0,0
0:0:24.881,23.5177,2.99232,0,0.000885,0,0
0:0:25.076,23.7535,3.0268,0,0.000885,0,0
0:0:25.278,23.9893,3.05438,0,0.000885,0,0
0:0:25.474,24.2828,3.08885,0,0.000885,0,0
0:0:25.672,24.2206,3.08196,0,0.000885,0,0
0:0:25.875,24.5764,3.13022,0,0.000885,0,0
0:0:26.070,24.8077,3.1578,0,0.000885,0,0
0:0:26.272,25.2214,3.21296,0,0.000885,0,0
0:0:26.473,25.3371,3.22675,0,0.000885,0,0
0:0:26.678,25.3949,3.23364,0,0.000885,0,0
0:0:26.879,26.4536,3.36464,0,0.000885,0,0
0:0:27.082,26.5692,3.38533,0,0.000885,0,0
0:0:27.284,27.2142,3.46806,0,0.000885,0,0
0:0:27.484,27.5656,3.50943,0,0.000885,0,0
0:0:27.686,28.562,3.63354,0,0.000885,0,0
0:0:27.888,28.74,3.66112,0,0.000885,0,0
0:0:28.086,29.5006,3.75764,0,0.000885,0,0
0:0:28.286,29.9721,3.8128,0,0.000885,0,0
0:0:28.485,30.6171,3.89554,0,0.000885,0,0
0:0:28.681,30.9107,3.93691,0,0.000885,0,0
0:0:28.883,30.9685,3.9438,0,0.000885,0,0
0:0:29.082,31.0263,3.9507,0,0.000885,0,0
0:0:29.279,31.6135,4.02654,0,0.000885,0,0
0:0:29.481,32.3163,4.11617,0,0.000885,0,0
0:0:29.677,32.3742,4.12306,0,0.000885,0,0
0:0:29.877,32.9035,4.19201,0,0.000885,0,0
0:0:30.077,32.9613,4.19891,0,0.000885,0,0
0:0:30.274,33.6063,4.28164,0,0.000885,0,0
0:0:30.476,33.8421,4.30922,0,0.000885,0,0
0:0:30.672,34.6605,4.41264,0,0.000885,0,0
0:0:30.871,34.6605,4.41264,0,0.000885,0,0
0:0:31.073,35.1899,4.48159,0,0.000885,0,0
0:0:31.268,35.4256,4.50917,0,0.000885,0,0
0:0:31.470,35.3055,4.49538,0,0.000885,0,0
0:0:31.672,36.0128,4.58501,0,0.000885,0,0
0:0:31.875,36.4799,4.64707,0,0.000885,0,0
0:0:32.078,36.7734,4.68154,0,0.000885,0,0
0:0:32.280,37.1249,4.7298,0,0.000885,0,0
0:0:32.482,37.1827,4.7367,0,0.000885,0,0
0:0:32.682,37.5964,4.78496,0,0.000885,0,0
0:0:32.884,38.6506,4.92286,0,0.000885,0,0
0:0:33.086,39.1221,4.97801,0,0.000885,0,0
0:0:33.282,39.5313,5.03317,0,0.000885,0,0
0:0:33.484,39.9406,5.08833,0,0.000885,0,0
0:0:33.682,40.292,5.1297,0,0.000885,0,0
0:0:33.879,40.4699,5.15038,0,0.000885,0,0
0:0:34.081,41.2884,5.25381,0,0.000885,0,0
0:0:34.277,41.582,5.29517,0,0.000885,0,0
0:0:34.478,41.7599,5.31586,0,0.000885,0,0
0:0:34.678,42.1113,5.36412,0,0.000885,0,0
0:0:34.873,42.4049,5.39859,0,0.000885,0,0
0:0:35.075,42.7563,5.44686,0,0.000885,0,0
0:0:35.274,43.1077,5.48823,0,0.000885,0,0
0:0:35.472,43.2856,5.50891,0,0.000885,0,0
0:0:35.673,43.9306,5.59165,0,0.000885,0,0
0:0:35.865,44.1619,5.62612,0,0.000885,0,0
0:0:36.069,44.8069,5.70196,0,0.000885,0,0
0:0:36.272,45.3941,5.77781,0,0.000885,0,0
0:0:36.475,45.5142,5.7916,0,0.000885,0,0
0:0:36.677,46.0391,5.86054,0,0.000885,0,0
0:0:36.879,46.1014,5.86744,0,0.000885,0,0
0:0:37.081,46.9198,5.97086,0,0.000885,0,0
0:0:37.282,47.1556,6.00533,0,0.000885,0,0
0:0:37.484,47.6849,6.07428,0,0.000885,0,0
0:0:37.686,48.2098,6.13633,0,0.000885,0,0
0:0:37.883,48.5034,6.1777,0,0.000885,0,0
0:0:38.083,48.797,6.21218,0,0.000885,0,0
0:0:38.282,49.442,6.29491,0,0.000885,0,0
0:0:38.479,49.3842,6.28802,0,0.000885,0,0
0:0:38.682,49.5576,6.3087,0,0.000885,0,0
0:0:38.878,49.7356,6.32939,0,0.000885,0,0
0:0:39.077,50.1448,6.38455,0,0.000885,0,0
0:0:39.278,50.732,6.46039,0,0.000885,0,0
0:0:39.475,52.0798,6.63276,0,0.000885,0,0
0:0:39.677,52.1999,6.64655,0,0.000885,0,0
0:0:39.876,52.6669,6.7086,0,0.000885,0,0
0:0:40.072,53.0184,6.74997,0,0.000885,0,0
0:0:40.274,53.5477,6.81891,0,0.000885,0,0
0:0:40.470,53.6633,6.8327,0,0.000885,0,0
0:0:40.672,54.077,6.88786,0,0.000885,0,0
0:0:40.871,54.0192,6.88097,0,0.000885,0,0
0:0:41.063,54.5441,6.94302,0,0.000885,0,0
0:0:41.268,54.8955,6.99128,0,0.000885,0,0
0:0:41.470,55.4248,7.06023,0,0.000885,0,0
0:0:41.674,55.7763,7.1016,0,0.000885,0,0
0:0:41.876,56.0698,7.13607,0,0.000885,0,0
0:0:42.078,56.2478,7.16365,0,0.000885,0,0
0:0:42.280,56.3634,7.17744,0,0.000885,0,0
0:0:42.481,57.5956,7.33602,0,0.000885,0,0
0:0:42.683,57.8313,7.3636,0,0.000885,0,0
0:0:42.885,58.0048,7.38429,0,0.000885,0,0
0:0:43.081,58.7076,7.47392,0,0.000885,0,0
0:0:43.281,58.8856,7.4946,0,0.000885,0,0
0:0:43.480,59.4727,7.57044,0,0.000885,0,0
0:0:43.678,59.704,7.60492,0,0.000885,0,0
0:0:43.878,60.1177,7.65318,0,0.000885,0,0
0:0:44.076,60.7049,7.72902,0,0.000885,0,0
0:0:44.278,61.1141,7.78418,0,0.000885,0,0
0:0:44.476,61.5234,7.83244,0,0.000885,0,0
0:0:44.673,61.5812,7.83934,0,0.000885,0,0
0:0:44.874,61.8169,7.87381,0,0.000885,0,0
0:0:45.072,62.1683,7.91518,0,0.000885,0,0
0:0:45.273,62.8712,8.00481,0,0.000885,0,0
0:0:45.472,62.9334,8.01171,0,0.000885,0,0
0:0:45.666,63.872,8.12892,0,0.000885,0,0
0:0:45.870,64.1033,8.16339,0,0.000885,0,0
0:0:46.077,64.9262,8.26681,0,0.000885,0,0
0:0:46.275,65.5712,8.34955,0,0.000885,0,0
0:0:46.478,65.9805,8.39781,0,0.000885,0,0
0:0:46.680,65.7492,8.37024,0,0.000885,0,0
0:0:46.883,65.6869,8.36334,0,0.000885,0,0
0:0:47.086,66.0383,8.4116,0,0.000885,0,0
0:0:47.287,66.5676,8.47366,0,0.000885,0,0
0:0:47.488,66.8034,8.50813,0,0.000885,0,0
0:0:47.692,67.6841,8.61845,0,0.000885,0,0
0:0:47.894,68.1512,8.6805,0,0.000885,0,0
0:0:48.093,68.3291,8.70118,0,0.000885,0,0
0:0:48.290,69.1476,8.80461,0,0.000885,0,0
0:0:48.492,69.3255,8.82529,0,0.000885,0,0
0:0:48.687,69.4412,8.83908,0,0.000885,0,0
0:0:48.888,70.0862,8.92182,0,0.000885,0,0
0:0:49.089,70.4999,8.97697,0,0.000885,0,0
0:0:49.285,70.6155,8.99076,0,0.000885,0,0
0:0:49.486,70.789,9.01145,0,0.000885,0,0
0:0:49.683,71.2605,9.0735,0,0.000885,0,0
0:0:49.881,71.6119,9.11487,0,0.000885,0,0
0:0:50.083,72.1991,9.19071,0,0.000885,0,0
0:0:50.280,72.9019,9.28034,0,0.000885,0,0
0:0:50.482,73.2533,9.32861,0,0.000885,0,0
0:0:50.680,74.1919,9.44582,0,0.000885,0,0
0:0:50.878,74.0184,9.42513,0,0.000885,0,0
0:0:51.080,73.9561,9.41824,0,0.000885,0,0
0:0:51.282,74.0184,9.42513,0,0.000885,0,0
0:0:51.486,74.3698,9.4665,0,0.000885,0,0
0:0:51.688,74.8369,9.52855,0,0.000885,0,0
0:0:51.891,76.3048,9.71471,0,0.000885,0,0
0:0:52.092,76.5405,9.74229,0,0.000885,0,0
0:0:52.293,77.359,9.85261,0,0.000885,0,0
0:0:52.496,77.7104,9.89398,0,0.000885,0,0
0:0:52.696,77.3012,9.84571,0,0.000885,0,0
0:0:52.891,78.0618,9.94224,0,0.000885,0,0
0:0:53.094,78.2976,9.96982,0,0.000885,0,0
0:0:53.291,79.0627,10.0663,0,0.000885,0,0
0:0:53.490,79.3563,10.1008,0,0.000885,0,0
0:0:53.692,79.5298,10.1284,0,0.000885,0,0
0:0:53.886,79.3563,10.1008,0,0.000885,0,0
0:0:54.089,79.8812,10.1698,0,0.000885,0,0
0:0:54.285,80.0013,10.1836,0,0.000885,0,0
0:0:54.485,80.4683,10.2456,0,0.000885,0,0
0:0:54.687,81.1711,10.3352,0,0.000885,0,0
0:0:54.882,82.2298,10.4662,0,0.000885,0,0
0:0:55.084,82.2877,10.48,0,0.000885,0,0
0:0:55.282,82.8125,10.5421,0,0.000885,0,0
0:0:55.479,83.0483,10.5766,0,0.000885,0,0
0:0:55.682,83.4575,10.6248,0,0.000885,0,0
0:0:55.877,83.8134,10.6731,0,0.000885,0,0
0:0:56.077,83.929,10.6869,0,0.000885,0,0
0:0:56.279,84.752,10.7903,0,0.000885,0,0
0:0:56.481,84.9254,10.811,0,0.000885,0,0
0:0:56.685,85.5126,10.8868,0,0.000885,0,0
0:0:56.888,85.6905,10.9075,0,0.000885,0,0
0:0:57.090,86.2733,10.9833,0,0.000885,0,0
0:0:57.290,86.5668,11.0247,0,0.000885,0,0
0:0:57.492,86.9183,11.0661,0,0.000885,0,0
0:0:57.695,86.9183,11.0661,0,0.000885,0,0
0:0:57.893,87.6833,11.1626,0,0.000885,0,0
0:0:58.090,87.9191,11.1971,0,0.000885,0,0
0:0:58.293,88.6797,11.2936,0,0.000885,0,0
0:0:58.487,88.9733,11.3281,0,0.000885,0,0
0:0:58.690,89.089,11.3419,0,0.000885,0,0
0:0:58.889,89.734,11.4246,0,0.000885,0,0
0:0:59.086,90.1477,11.4798,0,0.000885,0,0
0:0:59.288,90.5569,11.528,0,0.000885,0,0
0:0:59.484,90.6725,11.5418,0,0.000885,0,0
0:0:59.684,90.6147,11.5349,0,0.000885,0,0
0:0:59.885,91.3754,11.6315,0,0.000885,0,0
0:1:0.080,91.6111,11.6659,0,0.000885,0,0
0:1:0.282,92.4919,11.7762,0,0.000885,0,0
0:1:0.480,92.9011,11.8314,0,0.000885,0,0
0:1:0.679,93.0212,11.8452,0,0.000885,0,0
0:1:0.881,93.9598,11.9624,0,0.000885,0,0
0:1:1.076,94.3112,12.0107,0,0.000885,0,0
0:1:1.277,94.6048,12.0451,0,0.000885,0,0
0:1:1.478,94.3112,12.0107,0,0.000885,0,0
0:1:1.683,94.8984,12.0796,0,0.000885,0,0
0:1:1.885,95.1297,12.1141,0,0.000885,0,0
0:1:2.087,96.1883,12.2451,0,0.000885,0,0
0:1:2.288,96.4819,12.2865,0,0.000885,0,0
0:1:2.489,97.1269,12.3692,0,0.000885,0,0
0:1:2.691,97.9454,12.4726,0,0.000885,0,0
0:1:2.891,96.8333,12.3278,0,0.000885,0,0
0:1:3.089,97.0646,12.3623,0,0.000885,0,0
0:1:3.289,97.4205,12.4037,0,0.000885,0,0
0:1:3.489,98.1811,12.5002,0,0.000885,0,0
0:1:3.684,99.2354,12.6381,0,0.000885,0,0
0:1:3.886,99.2354,12.6381,0,0.000885,0,0
0:1:4.085,99.4133,12.6588,0,0.000885,0,0
0:1:4.284,100.116,12.7484,0,0.000885,0,0
0:1:4.484,100.761,12.8311,0,0.000885,0,0
0:1:4.680,101.642,12.9415,0,0.000885,0,0
0:1:4.881,102.229,13.0173,0,0.000885,0,0
0:1:5.080,101.935,12.9759,0,0.000885,0,0
0:1:5.276,101.584,12.9346,0,0.000885,0,0
0:1:5.477,102.229,13.0173,0,0.000885,0,0
0:1:5.674,102.816,13.0931,0,0.000885,0,0
0:1:5.874,103.461,13.1759,0,0.000885,0,0
0:1:6.074,103.635,13.1966,0,0.000885,0,0
0:1:6.271,104.044,13.2448,0,0.000885,0,0
0:1:6.474,104.689,13.3276,0,0.000885,0,0
0:1:6.675,104.809,13.3414,0,0.000885,0,0
0:1:6.879,104.982,13.3689,0,0.000885,0,0
0:1:7.082,105.627,13.4517,0,0.000885,0,0
0:1:7.284,105.983,13.493,0,0.000885,0,0
0:1:7.485,106.272,13.5344,0,0.000885,0,0
0:1:7.686,106.686,13.5827,0,0.000885,0,0
0:1:7.888,107.567,13.693,0,0.000885,0,0
0:1:8.090,108.328,13.7895,0,0.000885,0,0
0:1:8.285,108.27,13.7826,0,0.000885,0,0
0:1:8.487,108.328,13.7895,0,0.000885,0,0
0:1:8.685,108.27,13.7826,0,0.000885,0,0
0:1:8.882,108.857,13.8585,0,0.000885,0,0
0:1:9.084,109.733,13.9688,0,0.000885,0,0
0:1:9.281,110.027,14.0101,0,0.000885,0,0
0:1:9.481,110.614,14.086,0,0.000885,0,0
0:1:9.681,111.023,14.1343,0,0.000885,0,0
0:1:9.876,110.792,14.1067,0,0.000885,0,0
0:1:10.078,111.259,14.1687,0,0.000885,0,0
0:1:10.276,111.788,14.2308,0,0.000885,0,0
0:1:10.475,112.549,14.3273,0,0.000885,0,0
0:1:10.676,112.963,14.3825,0,0.000885,0,0
0:1:10.872,113.256,14.4169,0,0.000885,0,0
0:1:11.073,113.372,14.4376,0,0.000885,0,0
0:1:11.275,113.959,14.5066,0,0.000885,0,0
0:1:11.478,114.546,14.5824,0,0.000885,0,0
0:1:11.680,114.72,14.61,0,0.000885,0,0
0:1:11.882,115.307,14.6789,0,0.000885,0,0
0:1:12.083,116.067,14.7755,0,0.000885,0,0
0:1:12.284,115.778,14.741,0,0.000885,0,0
0:1:12.485,115.952,14.7617,0,0.000885,0,0
0:1:12.687,116.13,14.7893,0,0.000885,0,0
0:1:12.884,116.712,14.8582,0,0.000885,0,0
0:1:13.084,117.126,14.9134,0,0.000885,0,0
0:1:13.283,118.007,15.0237,0,0.000885,0,0
0:1:13.481,118.416,15.0788,0,0.000885,0,0
0:1:13.683,119.003,15.1547,0,0.000885,0,0
0:1:13.880,119.235,15.1823,0,0.000885,0,0
0:1:14.078,120,15.2788,0,0.000885,0,0
0:1:14.279,119.648,15.2305,0,0.000885,0,0
0:1:14.475,120.467,15.3408,0,0.000885,0,0
0:1:14.677,120.818,15.3822,0,0.000885,0,0
0:1:14.875,121.405,15.458,0,0.000885,0,0
0:1:15.080,121.405,15.458,0,0.000885,0,0
0:1:15.281,121.935,15.527,0,0.000885,0,0
0:1:15.478,122.695,15.6235,0,0.000885,0,0
0:1:15.679,122.931,15.6511,0,0.000885,0,0
0:1:15.878,122.815,15.6373,0,0.000885,0,0
0:1:16.075,122.344,15.5753,0,0.000885,0,0
0:1:16.277,123.34,15.7063,0,0.000885,0,0
0:1:16.479,123.634,15.7407,0,0.000885,0,0
0:1:16.682,124.221,15.8166,0,0.000885,0,0
0:1:16.885,124.866,15.8993,0,0.000885,0,0
0:1:17.087,125.925,16.0303,0,0.000885,0,0
0:1:17.287,126.098,16.0579,0,0.000885,0,0
0:1:17.489,126.334,16.0855,0,0.000885,0,0
0:1:17.690,126.801,16.1475,0,0.000885,0,0
0:1:17.891,126.801,16.1475,0,0.000885,0,0
0:1:18.087,126.921,16.1613,0,0.000885,0,0
0:1:18.289,128.033,16.2992,0,0.000885,0,0
0:1:18.486,128.798,16.3957,0,0.000885,0,0
0:1:18.684,128.678,16.3819,0,0.000885,0,0
0:1:18.884,129.795,16.5267,0,0.000885,0,0
0:1:19.081,129.15,16.444,0,0.000885,0,0
0:1:19.282,130.32,16.5957,0,0.000885,0,0
0:1:19.480,130.026,16.5543,0,0.000885,0,0
0:1:19.676,129.737,16.5198,0,0.000885,0,0
0:1:19.878,130.204,16.575,0,0.000885,0,0
0:1:20.076,131.258,16.7129,0,0.000885,0,0
0:1:20.276,131.32,16.7198,0,0.000885,0,0
0:1:20.476,132.139,16.8232,0,0.000885,0,0
0:1:20.669,132.197,16.8301,0,0.000885,0,0
0:1:20.874,132.61,16.8853,0,0.000885,0,0
0:1:21.082,133.487,16.9956,0,0.000885,0,0
0:1:21.279,133.958,17.0576,0,0.000885,0,0
0:1:21.480,133.549,17.0025,0,0.000885,0,0
0:1:21.683,134.367,17.1059,0,0.000885,0,0
0:1:21.886,134.31,17.099,0,0.000885,0,0
0:1:22.089,134.897,17.1748,0,0.000885,0,0
0:1:22.290,135.542,17.2576,0,0.000885,0,0
0:1:22.491,135.835,17.2921,0,0.000885,0,0
0:1:22.694,136.071,17.3265,0,0.000885,0,0
0:1:22.895,136.654,17.4024,0,0.000885,0,0
0:1:23.094,137.241,17.4713,0,0.000885,0,0
0:1:23.292,137.886,17.5541,0,0.000885,0,0
0:1:23.493,138.006,17.5747,0,0.000885,0,0
0:1:23.689,138.651,17.6506,0,0.000885,0,0
0:1:23.888,139.176,17.7195,0,0.000885,0,0
0:1:24.090,138.651,17.6506,0,0.000885,0,0
0:1:24.285,139.238,17.7264,0,0.000885,0,0
0:1:24.487,140.292,17.8643,0,0.000885,0,0
0:1:24.684,140.408,17.8781,0,0.000885,0,0
0:1:24.882,141.053,17.9608,0,0.000885,0,0
0:1:25.084,140.995,17.9539,0,0.000885,0,0
0:1:25.279,141.347,17.9953,0,0.000885,0,0
0:1:25.480,141.76,18.0505,0,0.000885,0,0
0:1:25.679,141.76,18.0505,0,0.000885,0,0
0:1:25.875,142.579,18.1539,0,0.000885,0,0
0:1:26.078,143.166,18.2297,0,0.000885,0,0
0:1:26.279,143.166,18.2297,0,0.000885,0,0
0:1:26.483,143.344,18.2504,0,0.000885,0,0
0:1:26.686,144.692,18.4228,0,0.000885,0,0
0:1:26.887,144.34,18.3745,0,0.000885,0,0
0:1:27.088,144.928,18.4504,0,0.000885,0,0
0:1:27.289,145.159,18.4848,0,0.000885,0,0
0:1:27.492,145.51,18.5262,0,0.000885,0,0
0:1:27.694,146.155,18.6089,0,0.000885,0,0
0:1:27.889,146.391,18.6365,0,0.000885,0,0
0:1:28.091,146.569,18.6641,0,0.000885,0,0
0:1:28.289,147.623,18.7951,0,0.000885,0,0
0:1:28.487,148.21,18.871,0,0.000885,0,0
0:1:28.689,148.562,18.9123,0,0.000885,0,0
0:1:28.885,148.504,18.9054,0,0.000885,0,0
0:1:29.085,149.029,18.9744,0,0.000885,0,0
0:1:29.283,148.913,18.9606,0,0.000885,0,0
0:1:29.480,149.558,19.0433,0,0.000885,0,0
0:1:29.683,150.261,19.133,0,0.000885,0,0
0:1:29.879,150.555,19.1674,0,0.000885,0,0
0:1:30.080,150.906,19.2157,0,0.000885,0,0
0:1:30.278,150.675,19.1812,0,0.000885,0,0
0:1:30.476,151.493,19.2915,0,0.000885,0,0
0:1:30.677,151.907,19.3398,0,0.000885,0,0
0:1:30.875,152.961,19.4777,0,0.000885,0,0
0:1:31.069,152.783,19.4501,0,0.000885,0,0
0:1:31.275,153.312,19.5191,0,0.000885,0,0
0:1:31.477,153.197,19.5053,0,0.000885,0,0
0:1:31.680,153.779,19.5811,0,0.000885,0,0
0:1:31.882,154.251,19.6432,0,0.000885,0,0
0:1:32.084,154.838,19.7121,0,0.000885,0,0
0:1:32.286,155.132,19.7535,0,0.000885,0,0
0:1:32.487,155.483,19.7948,0,0.000885,0,0
0:1:32.689,156.07,19.8707,0,0.000885,0,0
0:1:32.890,156.831,19.9672,0,0.000885,0,0
0:1:33.086,156.831,19.9672,0,0.000885,0,0
0:1:33.288,158.121,20.1327,0,0.000885,0,0
0:1:33.484,157.712,20.0775,0,0.000885,0,0
0:1:33.684,158.53,20.1878,0,0.000885,0,0
0:1:33.884,158.241,20.1465,0,0.000885,0,0
0:1:34.079,158.708,20.2085,0,0.000885,0,0
0:1:34.281,158.65,20.2016,0,0.000885,0,0
0:1:34.478,159.531,20.312,0,0.000885,0,0
0:1:34.678,159.002,20.243,0,0.000885,0,0
0:1:34.879,159.705,20.3326,0,0.000885,0,0
0:1:35.071,160.701,20.4636,0,0.000885,0,0
0:1:35.277,160.763,20.4705,0,0.000885,0,0
0:1:35.475,161.115,20.5119,0,0.000885,0,0
0:1:35.669,161.991,20.6222,0,0.000885,0,0
0:1:35.874,162.284,20.6636,0,0.000885,0,0
0:1:36.079,162.929,20.7463,0,0.000885,0,0
0:1:36.280,163.401,20.8015,0,0.000885,0,0
0:1:36.482,164.455,20.9394,0,0.000885,0,0
0:1:36.686,163.517,20.8222,0,0.000885,0,0
0:1:36.887,164.046,20.8842,0,0.000885,0,0
0:1:37.089,163.517,20.8222,0,0.000885,0,0
0:1:37.291,164.575,20.9532,0,0.000885,0,0
0:1:37.491,165.1,21.0221,0,0.000885,0,0
0:1:37.693,165.452,21.0635,0,0.000885,0,0
0:1:37.895,165.687,21.098,0,0.000885,0,0
0:1:38.092,166.862,21.2427,0,0.000885,0,0
0:1:38.291,167.565,21.3324,0,0.000885,0,0
0:1:38.493,167.093,21.2772,0,0.000885,0,0
0:1:38.688,167.858,21.3737,0,0.000885,0,0
0:1:38.890,168.503,21.4565,0,0.000885,0,0
0:1:39.089,169.148,21.5392,0,0.000885,0,0
0:1:39.288,168.97,21.5116,0,0.000885,0,0
0:1:39.488,169.206,21.5461,0,0.000885,0,0
0:1:39.684,169.326,21.5599,0,0.000885,0,0
0:1:39.885,170.144,21.6633,0,0.000885,0,0
0:1:40.084,170.554,21.7185,0,0.000885,0,0
0:1:40.281,171.199,21.8012,0,0.000885,0,0
0:1:40.483,171.67,21.8564,0,0.000885,0,0
0:1:40.678,171.377,21.8219,0,0.000885,0,0
0:1:40.878,172.022,21.9046,0,0.000885,0,0
0:1:41.079,172.431,21.9529,0,0.000885,0,0
0:1:41.275,172.96,22.0219,0,0.000885,0,0
0:1:41.477,173.957,22.146,0,0.000885,0,0
0:1:41.679,174.25,22.1873,0,0.000885,0,0
0:1:41.882,173.547,22.0977,0,0.000885,0,0
0:1:42.085,174.837,22.2632,0,0.000885,0,0
0:1:42.287,174.659,22.2356,0,0.000885,0,0
0:1:42.488,175.482,22.3459,0,0.000885,0,0
0:1:42.689,175.189,22.3045,0,0.000885,0,0
0:1:42.892,175.834,22.3873,0,0.000885,0,0
0:1:43.093,176.537,22.4769,0,0.000885,0,0
0:1:43.289,177.244,22.5665,0,0.000885,0,0
0:1:43.490,176.888,22.5252,0,0.000885,0,0
0:1:43.688,177.711,22.6286,0,0.000885,0,0
0:1:43.886,178.182,22.6838,0,0.000885,0,0
0:1:44.086,178.12,22.6769,0,0.000885,0,0
0:1:44.283,178.707,22.7527,0,0.000885,0,0
0:1:44.484,179.059,22.801,0,0.000885,0,0
0:1:44.684,179.882,22.9044,0,0.000885,0,0
0:1:44.880,179.294,22.8285,0,0.000885,0,0
0:1:45.082,180.233,22.9458,0,0.000885,0,0
0:1:45.279,180.584,22.994,0,0.000885,0,0
0:1:45.478,181.35,23.0905,0,0.000885,0,0
0:1:45.679,181.817,23.1526,0,0.000885,0,0
0:1:45.883,181.701,23.1319,0,0.000885,0,0
0:1:46.084,181.817,23.1526,0,0.000885,0,0
0:1:46.287,182.933,23.2905,0,0.000885,0,0
0:1:46.491,182.813,23.2767,0,0.000885,0,0
0:1:46.693,182.871,23.2836,0,0.000885,0,0
0:1:46.894,183.809,23.4008,0,0.000885,0,0
0:1:47.097,183.987,23.4284,0,0.000885,0,0
0:1:47.298,184.512,23.4904,0,0.000885,0,0
0:1:47.499,185.629,23.6352,0,0.000885,0,0
0:1:47.701,185.687,23.6421,0,0.000885,0,0
0:1:47.897,185.277,23.587,0,0.000885,0,0
0:1:48.098,186.1,23.6973,0,0.000885,0,0
0:1:48.297,186.452,23.7386,0,0.000885,0,0
0:1:48.494,187.097,23.8214,0,0.000885,0,0
0:1:48.698,188.151,23.9593,0,0.000885,0,0
0:1:48.893,188.035,23.9386,0,0.000885,0,0
0:1:49.092,188.444,23.9938,0,0.000885,0,0
0:1:49.292,188.329,23.98,0,0.000885,0,0
0:1:49.488,189.383,24.111,0,0.000885,0,0
0:1:49.691,189.267,24.0972,0,0.000885,0,0
0:1:49.888,190.322,24.2351,0,0.000885,0,0
0:1:50.085,189.677,24.1523,0,0.000885,0,0
0:1:50.287,190.379,24.242,0,0.000885,0,0
0:1:50.482,190.495,24.2558,0,0.000885,0,0
0:1:50.684,190.846,24.2971,0,0.000885,0,0
0:1:50.883,191.669,24.4074,0,0.000885,0,0
0:1:51.080,191.963,24.4419,0,0.000885,0,0
0:1:51.282,192.199,24.4695,0,0.000885,0,0
0:1:51.484,191.963,24.4419,0,0.000885,0,0
0:1:51.686,192.959,24.566,0,0.000885,0,0
0:1:51.887,193.724,24.6625,0,0.000885,0,0
0:1:52.088,193.898,24.6901,0,0.000885,0,0
0:1:52.289,194.369,24.7453,0,0.000885,0,0
0:1:52.488,194.721,24.7935,0,0.000885,0,0
0:1:52.689,194.427,24.7522,0,0.000885,0,0
0:1:52.889,195.366,24.8763,0,0.000885,0,0
0:1:53.082,196.069,24.9659,0,0.000885,0,0
0:1:53.283,195.953,24.9521,0,0.000885,0,0
0:1:53.480,196.656,25.0418,0,0.000885,0,0
0:1:53.677,197.065,25.09,0,0.000885,0,0
0:1:53.877,197.888,25.1934,0,0.000885,0,0
0:1:54.080,197.888,25.1934,0,0.000885,0,0
0:1:54.279,198.533,25.2762,0,0.000885,0,0
0:1:54.476,199.178,25.3589,0,0.000885,0,0
0:1:54.670,199.472,25.4003,0,0.000885,0,0
0:1:54.870,200.468,25.5244,0,0.000885,0,0
0:1:55.078,200.468,25.5244,0,0.000885,0,0
0:1:55.275,200.232,25.4968,0,0.000885,0,0
0:1:55.472,201.349,25.6347,0,0.000885,0,0
0:1:55.677,201.055,25.6002,0,0.000885,0,0
0:1:55.876,201.229,25.6209,0,0.000885,0,0
0:1:56.071,201.58,25.6692,0,0.000885,0,0
0:1:56.267,202.639,25.8002,0,0.000885,0,0
0:1:56.468,203.342,25.8898,0,0.000885,0,0
0:1:56.670,202.99,25.8484,0,0.000885,0,0
0:1:56.870,204.222,26.0001,0,0.000885,0,0
0:1:57.071,203.577,25.9174,0,0.000885,0,0
0:1:57.272,203.751,25.945,0,0.000885,0,0
0:1:57.471,203.987,25.9726,0,0.000885,0,0
0:1:57.672,204.809,26.076,0,0.000885,0,0
0:1:57.872,204.396,26.0277,0,0.000885,0,0
0:1:58.070,205.334,26.1449,0,0.000885,0,0
0:1:58.266,206.273,26.2621,0,0.000885,0,0
0:1:58.467,206.976,26.3518,0,0.000885,0,0
0:1:58.670,206.918,26.3449,0,0.000885,0,0
0:1:58.869,207.269,26.3931,0,0.000885,0,0
0:1:59.068,207.096,26.3656,0,0.000885,0,0
0:1:59.262,207.683,26.4414,0,0.000885,0,0
0:1:59.463,208.092,26.4966,0,0.000885,0,0
0:1:59.668,209.031,26.6138,0,0.000885,0,0
0:1:59.865,209.324,26.6551,0,0.000885,0,0
0:2:0.066,210.379,26.7861,0,0.000885,0,0
0:2:0.269,210.321,26.7792,0,0.000885,0,0
0:2:0.470,210.379,26.7861,0,0.000885,0,0
0:2:0.667,211.259,26.8964,0,0.000885,0,0
0:2:0.870,211.433,26.924,0,0.000885,0,0
0:2:1.071,211.847,26.9723,0,0.000885,0,0
0:2:1.272,212.256,27.0274,0,0.000885,0,0
0:2:1.476,212.434,27.0481,0,0.000885,0,0
0:2:1.678,212.959,27.1171,0,0.000885,0,0
0:2:1.879,213.016,27.124,0,0.000885,0,0
0:2:2.078,214.075,27.255,0,0.000885,0,0
0:2:2.279,214.662,27.3308,0,0.000885,0,0
0:2:2.479,213.897,27.2343,0,0.000885,0,0
0:2:2.678,215.601,27.448,0,0.000885,0,0
0:2:2.882,215.365,27.4204,0,0.000885,0,0
0:2:3.083,215.659,27.4618,0,0.000885,0,0
0:2:3.278,215.774,27.4756,0,0.000885,0,0
0:2:3.478,216.477,27.5652,0,0.000885,0,0
0:2:3.678,216.304,27.5377,0,0.000885,0,0
0:2:3.870,216.949,27.6204,0,0.000885,0,0
0:2:4.070,217.887,27.7445,0,0.000885,0,0
0:2:4.276,217.829,27.7376,0,0.000885,0,0
0:2:4.471,217.887,27.7445,0,0.000885,0,0
0:2:4.672,218.826,27.8617,0,0.000885,0,0
0:2:4.877,218.648,27.841,0,0.000885,0,0
0:2:5.077,219.471,27.9445,0,0.000885,0,0
0:2:5.273,219.764,27.9789,0,0.000885,0,0
0:2:5.469,219.529,27.9513,0,0.000885,0,0
0:2:5.670,220.819,28.1168,0,0.000885,0,0
0:2:5.864,221.29,28.172,0,0.000885,0,0
0:2:6.061,221.054,28.1444,0,0.000885,0,0
0:2:6.262,221.935,28.2547,0,0.000885,0,0
0:2:6.464,222.402,28.3168,0,0.000885,0,0
0:2:6.665,222.518,28.3306,0,0.000885,0,0
0:2:6.866,222.811,28.3719,0,0.000885,0,0
0:2:7.066,223.692,28.4822,0,0.000885,0,0
0:2:7.265,224.044,28.5236,0,0.000885,0,0
0:2:7.466,224.457,28.5788,0,0.000885,0,0
0:2:7.668,224.982,28.6477,0,0.000885,0,0
0:2:7.865,224.222,28.5512,0,0.000885,0,0
0:2:8.061,225.685,28.7373,0,0.000885,0,0
0:2:8.263,225.921,28.7649,0,0.000885,0,0
0:2:8.457,226.45,28.8339,0,0.000885,0,0
0:2:8.656,227.562,28.9718,0,0.000885,0,0
0:2:8.855,226.979,28.9028,0,0.000885,0,0
0:2:9.067,227.624,28.9787,0,0.000885,0,0
0:2:9.268,228.327,29.0683,0,0.000885,0,0
0:2:9.463,228.269,29.0614,0,0.000885,0,0
0:2:9.669,228.443,29.089,0,0.000885,0,0
0:2:9.870,228.563,29.1028,0,0.000885,0,0
0:2:10.074,229.146,29.1786,0,0.000885,0,0
0:2:10.273,229.969,29.282,0,0.000885,0,0
0:2:10.469,229.559,29.2269,0,0.000885,0,0
0:2:10.668,230.204,29.3096,0,0.000885,0,0
0:2:10.866,230.204,29.3096,0,0.000885,0,0
0:2:11.062,230.907,29.3992,0,0.000885,0,0
0:2:11.261,231.552,29.482,0,0.000885,0,0
0:2:11.461,232.549,29.6061,0,0.000885,0,0
0:2:11.663,232.433,29.5923,0,0.000885,0,0
0:2:11.865,233.251,29.6957,0,0.000885,0,0
0:2:12.067,233.603,29.744,0,0.000885,0,0
0:2:12.268,234.074,29.806,0,0.000885,0,0
0:2:12.467,234.541,29.8612,0,0.000885,0,0
0:2:12.666,234.719,29.8888,0,0.000885,0,0
0:2:12.867,235.364,29.9646,0,0.000885,0,0
0:2:13.072,235.129,29.937,0,0.000885,0,0
0:2:13.270,234.661,29.875,0,0.000885,0,0
0:2:13.470,236.361,30.0956,0,0.000885,0,0
0:2:13.683,236.187,30.0749,0,0.000885,0,0
0:2:13.884,236.596,30.1232,0,0.000885,0,0
0:2:14.081,236.832,30.1508,0,0.000885,0,0
0:2:14.278,237.709,30.268,0,0.000885,0,0
0:2:14.478,237.829,30.2818,0,0.000885,0,0
0:2:14.680,238.238,30.33,0,0.000885,0,0
0:2:14.880,238.883,30.4128,0,0.000885,0,0
0:2:15.079,239.648,30.5093,0,0.000885,0,0
0:2:15.284,240.231,30.5851,0,0.000885,0,0
0:2:15.484,240.115,30.5714,0,0.000885,0,0
0:2:15.679,240.351,30.5989,0,0.000885,0,0
0:2:15.878,241.169,30.7092,0,0.000885,0,0
0:2:16.075,240.876,30.6679,0,0.000885,0,0
0:2:16.281,241.814,30.792,0,0.000885,0,0
0:2:16.482,241.463,30.7437,0,0.000885,0,0
0:2:16.683,241.876,30.7989,0,0.000885,0,0
0:2:16.886,242.873,30.923,0,0.000885,0,0
0:2:17.086,242.815,30.9161,0,0.000885,0,0
0:2:17.286,243.46,30.9988,0,0.000885,0,0
0:2:17.486,244.043,31.0747,0,0.000885,0,0
0:2:17.685,243.985,31.0678,0,0.000885,0,0
0:2:17.887,244.572,31.1367,0,0.000885,0,0
0:2:18.084,245.453,31.2539,0,0.000885,0,0
0:2:18.280,245.337,31.2401,0,0.000885,0,0
0:2:18.481,245.511,31.2608,0,0.000885,0,0
0:2:18.685,245.569,31.2677,0,0.000885,0,0
0:2:18.883,246.334,31.3643,0,0.000885,0,0
0:2:19.082,247.036,31.4539,0,0.000885,0,0
0:2:19.285,247.33,31.4884,0,0.000885,0,0
0:2:19.485,247.21,31.4746,0,0.000885,0,0
0:2:19.682,247.975,31.5711,0,0.000885,0,0
0:2:19.875,248.62,31.6538,0,0.000885,0,0
0:2:20.078,249.323,31.7435,0,0.000885,0,0
0:2:20.270,249.616,31.7848,0,0.000885,0,0
0:2:20.470,250.026,31.8331,0,0.000885,0,0
0:2:20.669,250.733,31.9227,0,0.000885,0,0
0:2:20.871,250.733,31.9227,0,0.000885,0,0
0:2:21.073,251.787,32.0606,0,0.000885,0,0
0:2:21.274,251.551,32.0261,0,0.000885,0,0
0:2:21.478,251.671,32.0468,0,0.000885,0,0
0:2:21.679,252.254,32.1158,0,0.000885,0,0
0:2:21.880,253.193,32.2399,0,0.000885,0,0
0:2:22.080,253.664,32.295,0,0.000885,0,0
0:2:22.280,253.251,32.2468,0,0.000885,0,0
0:2:22.480,254.251,32.3709,0,0.000885,0,0
0:2:22.681,254.131,32.3571,0,0.000885,0,0
0:2:22.873,254.367,32.3847,0,0.000885,0,0
0:2:23.074,255.128,32.4812,0,0.000885,0,0
0:2:23.269,254.954,32.4605,0,0.000885,0,0
0:2:23.474,255.421,32.5226,0,0.000885,0,0
0:2:23.675,255.364,32.5157,0,0.000885,0,0
0:2:23.881,256.129,32.6122,0,0.000885,0,0
0:2:24.081,257.125,32.7363,0,0.000885,0,0
0:2:24.276,257.419,32.7777,0,0.000885,0,0
0:2:24.484,257.534,32.7915,0,0.000885,0,0
0:2:24.685,257.943,32.8397,0,0.000885,0,0
0:2:24.880,257.828,32.8259,0,0.000885,0,0
0:2:25.079,258.824,32.9569,0,0.000885,0,0
0:2:25.274,259.176,32.9983,0,0.000885,0,0
0:2:25.469,259.233,33.0052,0,0.000885,0,0
0:2:25.670,259.763,33.0742,0,0.000885,0,0
0:2:25.866,260.408,33.1569,0,0.000885,0,0
0:2:26.065,260.879,33.2189,0,0.000885,0,0
0:2:26.265,260.817,33.2052,0,0.000885,0,0
0:2:26.468,261.698,33.3224,0,0.000885,0,0
0:2:26.669,262.169,33.3775,0,0.000885,0,0
0:2:26.869,262.285,33.3982,0,0.000885,0,0
0:2:27.070,262.814,33.4603,0,0.000885,0,0
0:2:27.270,263.984,33.6119,0,0.000885,0,0
0:2:27.468,263.753,33.5844,0,0.000885,0,0
0:2:27.670,264.104,33.6257,0,0.000885,0,0
0:2:27.874,264.336,33.6533,0,0.000885,0,0
0:2:28.073,264.691,33.7016,0,0.000885,0,0
0:2:28.271,265.803,33.8464,0,0.000885,0,0
0:2:28.474,266.039,33.8739,0,0.000885,0,0
0:2:28.675,265.568,33.8119,0,0.000885,0,0
0:2:28.883,267.093,34.0049,0,0.000885,0,0
0:2:29.081,266.742,33.9636,0,0.000885,0,0
0:2:29.279,267.151,34.0118,0,0.000885,0,0
0:2:29.482,266.684,33.9567,0,0.000885,0,0
0:2:29.683,267.445,34.0532,0,0.000885,0,0
0:2:29.881,267.738,34.0877,0,0.000885,0,0
0:2:30.077,267.916,34.1153,0,0.000885,0,0
0:2:30.276,268.561,34.1911,0,0.000885,0,0
0:2:30.480,268.913,34.2394,0,0.000885,0,0
0:2:30.681,269.264,34.2807,0,0.000885,0,0
0:2:30.876,269.967,34.3704,0,0.000885,0,0
0:2:31.085,270.612,34.4531,0,0.000885,0,0
0:2:31.286,270.67,34.46,0,0.000885,0,0
0:2:31.487,271.199,34.5289,0,0.000885,0,0
0:2:31.689,271.729,34.5979,0,0.000885,0,0
0:2:31.890,272.489,34.6944,0,0.000885,0,0
0:2:32.090,272.253,34.6668,0,0.000885,0,0
0:2:32.290,272.903,34.7496,0,0.000885,0,0
0:2:32.490,273.663,34.8461,0,0.000885,0,0
0:2:32.691,274.486,34.9495,0,0.000885,0,0
0:2:32.888,274.251,34.9219,0,0.000885,0,0
0:2:33.084,274.66,34.9702,0,0.000885,0,0
0:2:33.285,275.247,35.0461,0,0.000885,0,0
0:2:33.477,275.483,35.0736,0,0.000885,0,0
0:2:33.676,275.892,35.1288,0,0.000885,0,0
0:2:33.874,276.946,35.2598,0,0.000885,0,0
0:2:34.069,276.715,35.2322,0,0.000885,0,0
0:2:34.269,277.591,35.3425,0,0.000885,0,0
0:2:34.474,276.773,35.2391,0,0.000885,0,0
0:2:34.672,277.711,35.3563,0,0.000885,0,0
0:2:34.871,278.766,35.4942,0,0.000885,0,0
0:2:35.065,278.121,35.4115,0,0.000885,0,0
0:2:35.265,278.53,35.4666,0,0.000885,0,0
0:2:35.471,278.708,35.4873,0,0.000885,0,0
0:2:35.669,279.295,35.5632,0,0.000885,0,0
0:2:35.867,280.291,35.6873,0,0.000885,0,0
0:2:36.062,280.879,35.7631,0,0.000885,0,0
0:2:36.263,280.994,35.7769,0,0.000885,0,0
0:2:36.463,281.23,35.8045,0,0.000885,0,0
0:2:36.665,280.701,35.7424,0,0.000885,0,0
0:2:36.866,281.581,35.8527,0,0.000885,0,0
0:2:37.067,282.284,35.9424,0,0.000885,0,0
0:2:37.269,282.578,35.9768,0,0.000885,0,0
0:2:37.468,283.107,36.0458,0,0.000885,0,0
0:2:37.668,283.752,36.1285,0,0.000885,0,0
0:2:37.869,283.81,36.1354,0,0.000885,0,0
0:2:38.073,284.046,36.163,0,0.000885,0,0
0:2:38.272,284.864,36.2733,0,0.000885,0,0
0:2:38.470,285.336,36.3285,0,0.000885,0,0
0:2:38.667,285.278,36.3216,0,0.000885,0,0
0:2:38.867,286.274,36.4526,0,0.000885,0,0
0:2:39.070,286.332,36.4595,0,0.000885,0,0
0:2:39.269,286.154,36.4319,0,0.000885,0,0
0:2:39.467,286.799,36.5146,0,0.000885,0,0
0:2:39.664,287.213,36.5698,0,0.000885,0,0
0:2:39.864,288.031,36.6732,0,0.000885,0,0
0:2:40.076,287.738,36.6387,0,0.000885,0,0
0:2:40.277,288.912,36.7835,0,0.000885,0,0
0:2:40.475,289.321,36.8387,0,0.000885,0,0
0:2:40.670,289.09,36.8111,0,0.000885,0,0
0:2:40.871,289.615,36.8732,0,0.000885,0,0
0:2:41.075,290.144,36.9421,0,0.000885,0,0
0:2:41.273,290.322,36.9628,0,0.000885,0,0
0:2:41.474,290.789,37.0248,0,0.000885,0,0
0:2:41.676,291.318,37.0938,0,0.000885,0,0
0:2:41.880,292.431,37.2317,0,0.000885,0,0
0:2:42.077,291.963,37.1765,0,0.000885,0,0
0:2:42.281,292.551,37.2455,0,0.000885,0,0
0:2:42.481,293.427,37.3627,0,0.000885,0,0
0:2:42.680,293.489,37.3696,0,0.000885,0,0
0:2:42.881,293.547,37.3765,0,0.000885,0,0
0:2:43.076,294.25,37.4661,0,0.000885,0,0
0:2:43.274,294.895,37.5488,0,0.000885,0,0
0:2:43.472,295.304,37.5971,0,0.000885,0,0
0:2:43.666,295.718,37.6523,0,0.000885,0,0
0:2:43.866,295.949,37.6798,0,0.000885,0,0
0:2:44.064,296.363,37.735,0,0.000885,0,0
0:2:44.262,296.714,37.7764,0,0.000885,0,0
0:2:44.460,296.714,37.7764,0,0.000885,0,0
0:2:44.655,297.181,37.8384,0,0.000885,0,0
0:2:44.855,297.533,37.8798,0,0.000885,0,0
0:2:45.051,297.417,37.866,0,0.000885,0,0
0:2:45.247,298.24,37.9694,0,0.000885,0,0
0:2:45.447,298.885,38.0522,0,0.000885,0,0
0:2:45.642,299.236,38.1004,0,0.000885,0,0
0:2:45.840,299.703,38.1625,0,0.000885,0,0
0:2:46.039,299.703,38.1625,0,0.000885,0,0
0:2:46.234,300.233,38.2245,0,0.000885,0,0
0:2:46.434,300.233,38.2245,0,0.000885,0,0
0:2:46.636,301.171,38.3486,0,0.000885,0,0
0:2:46.838,301.696,38.4107,0,0.000885,0,0
0:2:47.040,302.11,38.4659,0,0.000885,0,0
0:2:47.240,301.99,38.4521,0,0.000885,0,0
0:2:47.441,302.697,38.5417,0,0.000885,0,0
0:2:47.641,303.106,38.59,0,0.000885,0,0
0:2:47.843,303.693,38.6658,0,0.000885,0,0
0:2:48.042,303.636,38.6589,0,0.000885,0,0
0:2:48.235,304.338,38.7485,0,0.000885,0,0
0:2:48.436,304.805,38.8106,0,0.000885,0,0
0:2:48.633,305.393,38.8864,0,0.000885,0,0
0:2:48.829,305.864,38.9416,0,0.000885,0,0
0:2:49.030,306.625,39.0381,0,0.000885,0,0
0:2:49.224,306.74,39.0588,0,0.000885,0,0
0:2:49.424,307.034,39.0933,0,0.000885,0,0
0:2:49.621,306.976,39.0864,0,0.000885,0,0
0:2:49.817,307.621,39.1691,0,0.000885,0,0
0:2:50.018,307.799,39.1898,0,0.000885,0,0
0:2:50.211,307.915,39.2036,0,0.000885,0,0
0:2:50.411,308.618,39.2932,0,0.000885,0,0
0:2:50.610,308.796,39.3139,0,0.000885,0,0
0:2:50.803,309.031,39.3484,0,0.000885,0,0
0:2:51.003,309.792,39.4449,0,0.000885,0,0
0:2:51.203,310.143,39.4863,0,0.000885,0,0
0:2:51.405,310.143,39.4863,0,0.000885,0,0
0:2:51.607,310.788,39.569,0,0.000885,0,0
0:2:51.807,311.727,39.6931,0,0.000885,0,0
0:2:52.007,311.905,39.7138,0,0.000885,0,0
0:2:52.207,311.843,39.7069,0,0.000885,0,0
0:2:52.406,312.198,39.7483,0,0.000885,0,0
0:2:52.608,313.253,39.8862,0,0.000885,0,0
0:2:52.802,313.662,39.9344,0,0.000885,0,0
0:2:53.001,313.488,39.9137,0,0.000885,0,0
0:2:53.198,313.955,39.9758,0,0.000885,0,0
0:2:53.395,314.191,40.0034,0,0.000885,0,0
0:2:53.595,314.485,40.0448,0,0.000885,0,0
0:2:53.791,315.13,40.1206,0,0.000885,0,0
0:2:53.988,315.366,40.1551,0,0.000885,0,0
0:2:54.188,316.011,40.2378,0,0.000885,0,0
0:2:54.382,315.948,40.2309,0,0.000885,0,0
0:2:54.583,316.478,40.293,0,0.000885,0,0
0:2:54.778,316.949,40.355,0,0.000885,0,0
0:2:54.984,317.474,40.424,0,0.000885,0,0
0:2:55.185,317.358,40.4102,0,0.000885,0,0
0:2:55.377,317.825,40.4653,0,0.000885,0,0
0:2:55.577,318.884,40.6032,0,0.000885,0,0
0:2:55.775,319.178,40.6377,0,0.000885,0,0
0:2:55.978,319.938,40.7342,0,0.000885,0,0
0:2:56.179,319.587,40.6929,0,0.000885,0,0
0:2:56.382,320.054,40.748,0,0.000885,0,0
0:2:56.582,320.761,40.8376,0,0.000885,0,0
0:2:56.784,321.344,40.9135,0,0.000885,0,0
0:2:56.985,321.7,40.9618,0,0.000885,0,0
0:2:57.186,322.109,41.01,0,0.000885,0,0
0:2:57.385,322.696,41.0859,0,0.000885,0,0
0:2:57.585,322.638,41.079,0,0.000885,0,0
0:2:57.786,322.928,41.1134,0,0.000885,0,0
0:2:57.989,323.577,41.1962,0,0.000885,0,0
0:2:58.190,324.16,41.272,0,0.000885,0,0
0:2:58.387,324.511,41.3203,0,0.000885,0,0
0:2:58.583,323.986,41.2513,0,0.000885,0,0
0:2:58.785,325.098,41.3961,0,0.000885,0,0
0:2:58.977,325.392,41.4306,0,0.000885,0,0
0:2:59.175,325.979,41.5064,0,0.000885,0,0
0:2:59.373,325.863,41.4926,0,0.000885,0,0
0:2:59.568,326.33,41.5478,0,0.000885,0,0
0:2:59.769,326.74,41.603,0,0.000885,0,0
0:2:59.965,327.211,41.665,0,0.000885,0,0
0:3:0.162,327.327,41.6788,0,0.000885,0,0
0:3:0.362,327.798,41.734,0,0.000885,0,0
0:3:0.557,328.265,41.796,0,0.000885,0,0
0:3:0.756,328.617,41.8443,0,0.000885,0,0
0:3:0.955,329.382,41.9408,0,0.000885,0,0
0:3:1.149,329.382,41.9408,0,0.000885,0,0
0:3:1.349,330.027,42.0235,0,0.000885,0,0
0:3:1.550,330.614,42.0925,0,0.000885,0,0
0:3:1.752,330.788,42.1201,0,0.000885,0,0
0:3:1.952,330.908,42.1339,0,0.000885,0,0
0:3:2.154,331.846,42.2511,0,0.000885,0,0
0:3:2.354,331.904,42.258,0,0.000885,0,0
0:3:2.554,332.14,42.2924,0,0.000885,0,0
0:3:2.756,332.785,42.3683,0,0.000885,0,0
0:3:2.955,333.252,42.4303,0,0.000885,0,0
0:3:3.149,333.545,42.4717,0,0.000885,0,0
0:3:3.349,334.306,42.5682,0,0.000885,0,0
0:3:3.545,334.306,42.5682,0,0.000885,0,0
0:3:3.740,335.013,42.6579,0,0.000885,0,0
0:3:3.941,335.658,42.7337,0,0.000885,0,0
0:3:4.136,335.48,42.713,0,0.000885,0,0
0:3:4.335,335.774,42.7544,0,0.000885,0,0
0:3:4.532,336.361,42.8233,0,0.000885,0,0
0:3:4.728,336.713,42.8716,0,0.000885,0,0
0:3:4.929,336.828,42.8854,0,0.000885,0,0
0:3:5.122,337.358,42.9543,0,0.000885,0,0
0:3:5.322,336.891,42.8923,0,0.000885,0,0
0:3:5.521,338.474,43.0922,0,0.000885,0,0
0:3:5.715,338.825,43.1405,0,0.000885,0,0
0:3:5.915,338.941,43.1543,0,0.000885,0,0
0:3:6.115,339.408,43.2163,0,0.000885,0,0
0:3:6.318,339.938,43.2853,0,0.000885,0,0
0:3:6.520,340.115,43.306,0,0.000885,0,0
0:3:6.719,340.058,43.2991,0,0.000885,0,0
0:3:6.920,341.228,43.4439,0,0.000885,0,0
0:3:7.120,340.992,43.4163,0,0.000885,0,0
0:3:7.320,341.285,43.4508,0,0.000885,0,0
0:3:7.520,342.344,43.5887,0,0.000885,0,0
0:3:7.715,342.46,43.6024,0,0.000885,0,0
0:3:7.914,343.105,43.6852,0,0.000885,0,0
0:3:8.112,343.928,43.7886,0,0.000885,0,0
0:3:8.306,343.928,43.7886,0,0.000885,0,0
0:3:8.507,344.395,43.8507,0,0.000885,0,0
0:3:8.701,344.395,43.8507,0,0.000885,0,0
0:3:8.899,344.63,43.8782,0,0.000885,0,0
0:3:9.099,344.924,43.9196,0,0.000885,0,0
0:3:9.294,345.627,44.0092,0,0.000885,0,0
0:3:9.495,346.214,44.0782,0,0.000885,0,0
0:3:9.691,345.978,44.0506,0,0.000885,0,0
0:3:9.886,346.917,44.1678,0,0.000885,0,0
0:3:10.086,346.917,44.1678,0,0.000885,0,0
0:3:10.291,347.504,44.2437,0,0.000885,0,0
0:3:10.490,348.091,44.3195,0,0.000885,0,0
0:3:10.688,347.975,44.3057,0,0.000885,0,0
0:3:10.880,348.558,44.3816,0,0.000885,0,0
0:3:11.083,348.91,44.4229,0,0.000885,0,0
0:3:11.284,349.265,44.4712,0,0.000885,0,0
0:3:11.486,350.026,44.5677,0,0.000885,0,0
0:3:11.687,350.026,44.5677,0,0.000885,0,0
0:3:11.887,350.671,44.6504,0,0.000885,0,0
0:3:12.087,350.729,44.6573,0,0.000885,0,0
0:3:12.287,351.143,44.7056,0,0.000885,0,0
0:3:12.487,351.432,44.747,0,0.000885,0,0
0:3:12.688,351.61,44.7677,0,0.000885,0,0
0:3:12.891,352.077,44.8297,0,0.000885,0,0
0:3:13.090,353.015,44.9469,0,0.000885,0,0
0:3:13.287,352.957,44.94,0,0.000885,0,0
0:3:13.480,353.078,44.9538,0,0.000885,0,0
0:3:13.684,353.545,45.0159,0,0.000885,0,0
0:3:13.889,354.247,45.1055,0,0.000885,0,0
0:3:14.087,355.244,45.2296,0,0.000885,0,0
0:3:14.285,354.661,45.1538,0,0.000885,0,0
0:3:14.477,355.537,45.271,0,0.000885,0,0
0:3:14.677,355.951,45.3192,0,0.000885,0,0
0:3:14.875,356.712,45.4158,0,0.000885,0,0
0:3:15.085,356.89,45.4433,0,0.000885,0,0
0:3:15.280,357.183,45.4778,0,0.000885,0,0
0:3:15.475,357.477,45.5123,0,0.000885,0,0
0:3:15.677,358.18,45.6019,0,0.000885,0,0
0:3:15.884,358.295,45.6226,0,0.000885,0,0
0:3:16.080,359.35,45.7536,0,0.000885,0,0
0:3:16.280,358.94,45.6985,0,0.000885,0,0
0:3:16.480,359.705,45.8019,0,0.000885,0,0
0:3:16.685,359.937,45.8295,0,0.000885,0,0
0:3:16.886,360.288,45.8708,0,0.000885,0,0
0:3:17.087,360.76,45.9329,0,0.000885,0,0
0:3:17.287,361.347,46.0087,0,0.000885,0,0
0:3:17.488,361.52,46.0294,0,0.000885,0,0
0:3:17.687,361.934,46.0846,0,0.000885,0,0
0:3:17.887,362.343,46.1328,0,0.000885,0,0
0:3:18.078,362.343,46.1328,0,0.000885,0,0
0:3:18.280,363.162,46.2362,0,0.000885,0,0
0:3:18.476,363.455,46.2776,0,0.000885,0,0
0:3:18.673,363.691,46.3052,0,0.000885,0,0
0:3:18.873,364.042,46.3535,0,0.000885,0,0
0:3:19.077,364.394,46.3948,0,0.000885,0,0
0:3:19.277,364.923,46.4638,0,0.000885,0,0
0:3:19.474,365.626,46.5534,0,0.000885,0,0
0:3:19.671,365.92,46.5879,0,0.000885,0,0
0:3:19.870,365.862,46.581,0,0.000885,0,0
0:3:20.066,366.098,46.6155,0,0.000885,0,0
0:3:20.267,366.565,46.6706,0,0.000885,0,0
0:3:20.471,366.507,46.6637,0,0.000885,0,0
0:3:25.626,270.67,34.46,0,0.000885,0,0
0:3:20.668,367.21,46.7533,0,0.000885,0,0
0:3:20.868,367.152,46.7465,0,0.000885,0,0
0:3:21.069,368.033,46.8568,0,0.000885,0,0
0:3:21.271,368.033,46.8568,0,0.000885,0,0
0:3:21.471,368.09,46.8637,0,0.000885,0,0
0:3:21.672,368.678,46.9395,0,0.000885,0,0
0:3:21.873,368.678,46.9395,0,0.000885,0,0
0:3:22.073,368.735,46.9464,0,0.000885,0,0
0:3:22.273,368.793,46.9533,0,0.000885,0,0
0:3:22.473,368.971,46.9809,0,0.000885,0,0
0:3:22.666,368.793,46.9533,0,0.000885,0,0
0:3:22.867,368.384,46.905,0,0.000885,0,0
0:3:23.063,367.975,46.8499,0,0.000885,0,0
0:3:23.261,367.975,46.8499,0,0.000885,0,0
0:3:23.460,367.561,46.8016,0,0.000885,0,0
0:3:23.654,366.858,46.712,0,0.000885,0,0
0:3:23.851,366.155,46.6223,0,0.000885,0,0
0:3:24.049,364.22,46.3741,0,0.000885,0,0
0:3:24.246,362.695,46.1811,0,0.000885,0,0
0:3:24.445,357.535,45.5192,0,0.000885,0,0
0:3:24.640,353.193,44.9676,0,0.000885,0,0
0:3:24.836,346.743,44.1471,0,0.000885,0,0
0:3:25.036,326.566,41.5823,0,0.000885,0,0
0:3:25.230,313.604,39.9275,0,0.000885,0,0
0:3:25.429,286.568,36.4871,0,0.000885,0,0
0:3:25.529,270.67,34.46,0,0.000885,0,0