File: DataFile2021-06-07_072910.csv
Test ID:,Date Tested:,Time:,Test Type:,Diameter Avg. (mm):,Cyl. Corr. Factor:,Height (mm):,Age (days):,Weight (kN):,Break Type:,Ramp Rate (MPa/s):,Load at Break (kN):,Stress at Break (MPa):
12,6/7/2021,07:29,Cylinder,100,1,200,0,3.6,3,0.25,640.62,81.56
Sample Time,Load (kN),Stress (MPa),Long. Strain,Trans. Strain,Chan1 Deflection (mm),Chan2 Deflection (mm)
0:0:18.100,6.09851,0.779108,0,0.000885,0,0
0:0:18.405,11.085,1.41343,0,0.000885,0,0
0:0:18.705,11.7878,1.50306,0,0.000885,0,0
0:0:19.000,11.4942,1.46169,0,0.000885,0,0
0:0:19.299,11.085,1.41343,0,0.000885,0,0
0:0:19.596,11.085,1.41343,0,0.000885,0,0
0:0:19.913,10.4978,1.33758,0,0.000885,0,0
0:0:20.215,10.5556,1.34448,0,0.000885,0,0
0:0:20.510,10.6757,1.35827,0,0.000885,0,0
0:0:20.818,10.44,1.33069,0,0.000885,0,0
0:0:21.115,10.262,1.31,0,0.000885,0,0
0:0:21.412,10.4978,1.33758,0,0.000885,0,0
0:0:21.712,11.3207,1.441,0,0.000885,0,0
0:0:22.003,11.8456,1.50995,0,0.000885,0,0
0:0:22.303,12.1392,1.54443,0,0.000885,0,0
0:0:22.600,13.1356,1.67543,0,0.000885,0,0
0:0:22.897,13.1356,1.67543,0,0.000885,0,0
0:0:23.205,14.3678,1.82711,0,0.000885,0,0
0:0:23.503,15.1907,1.93743,0,0.000885,0,0
0:0:23.805,15.8357,2.01327,0,0.000885,0,0
0:0:24.112,16.5963,2.11669,0,0.000885,0,0
0:0:24.417,17.5972,2.2408,0,0.000885,0,0
0:0:24.718,18.0642,2.30285,0,0.000885,0,0
0:0:25.020,18.8871,2.40627,0,0.000885,0,0
0:0:25.323,19.8257,2.52348,0,0.000885,0,0
0:0:25.620,20.235,2.57864,0,0.000885,0,0
0:0:25.919,20.9378,2.66827,0,0.000885,0,0
0:0:26.218,21.4093,2.72343,0,0.000885,0,0
0:0:26.512,22.0543,2.80617,0,0.000885,0,0
0:0:26.815,22.7571,2.8958,0,0.000885,0,0
0:0:27.112,23.3443,2.97164,0,0.000885,0,0
0:0:27.407,23.8692,3.04059,0,0.000885,0,0
0:0:27.720,24.2206,3.08196,0,0.000885,0,0
0:0:28.015,24.7499,3.1509,0,0.000885,0,0
0:0:28.319,25.515,3.24743,0,0.000885,0,0
0:0:28.623,25.9242,3.30259,0,0.000885,0,0
0:0:28.926,26.3913,3.35775,0,0.000885,0,0
0:0:29.230,26.805,3.4129,0,0.000885,0,0
0:0:29.531,27.7436,3.53012,0,0.000885,0,0
0:0:29.835,27.8592,3.54391,0,0.000885,0,0
0:0:30.130,28.562,3.63354,0,0.000885,0,0
0:0:30.431,29.0335,3.69559,0,0.000885,0,0
0:0:30.728,29.2648,3.72317,0,0.000885,0,0
0:0:31.025,30.4392,3.87485,0,0.000885,0,0
0:0:31.326,31.2043,3.97138,0,0.000885,0,0
0:0:31.621,31.8493,4.05412,0,0.000885,0,0
0:0:31.922,31.9649,4.06791,0,0.000885,0,0
0:0:32.220,33.0191,4.2058,0,0.000885,0,0
0:0:32.517,33.4907,4.26096,0,0.000885,0,0
0:0:32.817,34.5449,4.39886,0,0.000885,0,0
0:0:33.113,34.7806,4.42643,0,0.000885,0,0
0:0:33.415,35.3678,4.50228,0,0.000885,0,0
0:0:33.720,36.0128,4.58501,0,0.000885,0,0
0:0:34.024,36.6,4.66086,0,0.000885,0,0
0:0:34.327,37.3606,4.75738,0,0.000885,0,0
0:0:34.628,37.0092,4.70912,0,0.000885,0,0
0:0:34.930,38.0056,4.84012,0,0.000885,0,0
0:0:35.228,38.6506,4.92286,0,0.000885,0,0
0:0:35.525,39.4112,5.01938,0,0.000885,0,0
0:0:35.825,39.7048,5.05386,0,0.000885,0,0
0:0:36.121,40.5856,5.16417,0,0.000885,0,0
0:0:36.424,41.2306,5.24691,0,0.000885,0,0
0:0:36.719,41.7599,5.31586,0,0.000885,0,0
0:0:37.019,41.8756,5.32965,0,0.000885,0,0
0:0:37.316,42.8141,5.45375,0,0.000885,0,0
0:0:37.614,43.2234,5.50202,0,0.000885,0,0
0:0:37.916,43.9306,5.59165,0,0.000885,0,0
0:0:38.218,44.2242,5.63302,0,0.000885,0,0
0:0:38.522,45.2784,5.76402,0,0.000885,0,0
0:0:38.826,45.9234,5.84675,0,0.000885,0,0
0:0:39.131,46.9777,5.98465,0,0.000885,0,0
0:0:39.433,47.0355,5.99154,0,0.000885,0,0
0:0:39.735,47.7428,6.08118,0,0.000885,0,0
0:0:40.037,48.3299,6.15012,0,0.000885,0,0
0:0:40.335,48.5612,6.1846,0,0.000885,0,0
0:0:40.634,49.4998,6.30181,0,0.000885,0,0
0:0:40.935,50.3806,6.41212,0,0.000885,0,0
0:0:41.229,50.3806,6.41212,0,0.000885,0,0
0:0:41.531,50.732,6.46039,0,0.000885,0,0
0:0:41.827,51.3191,6.53623,0,0.000885,0,0
0:0:42.127,52.3155,6.66034,0,0.000885,0,0
0:0:42.425,53.0184,6.74997,0,0.000885,0,0
0:0:42.723,53.4899,6.81202,0,0.000885,0,0
0:0:43.024,53.6633,6.8327,0,0.000885,0,0
0:0:43.319,53.9569,6.86718,0,0.000885,0,0
0:0:43.623,55.0734,7.01197,0,0.000885,0,0
0:0:43.928,56.0698,7.13607,0,0.000885,0,0
0:0:44.232,56.4212,7.18434,0,0.000885,0,0
0:0:44.534,57.2442,7.28776,0,0.000885,0,0
0:0:44.835,57.947,7.37739,0,0.000885,0,0
0:0:45.139,58.4763,7.44634,0,0.000885,0,0
0:0:45.433,59.1213,7.52907,0,0.000885,0,0
0:0:45.734,59.3526,7.55665,0,0.000885,0,0
0:0:46.032,59.9976,7.63939,0,0.000885,0,0
0:0:46.330,60.1177,7.65318,0,0.000885,0,0
0:0:46.631,60.7627,7.73592,0,0.000885,0,0
0:0:46.927,61.7013,7.85313,0,0.000885,0,0
0:0:47.228,62.582,7.97034,0,0.000885,0,0
0:0:47.525,63.0491,8.0255,0,0.000885,0,0
0:0:47.823,63.6363,8.10134,0,0.000885,0,0
0:0:48.124,63.9877,8.1496,0,0.000885,0,0
0:0:48.420,64.7483,8.24613,0,0.000885,0,0
0:0:48.722,65.3355,8.32197,0,0.000885,0,0
0:0:49.026,65.5712,8.34955,0,0.000885,0,0
0:0:49.330,66.3942,8.45297,0,0.000885,0,0
0:0:49.633,67.097,8.5426,0,0.000885,0,0
0:0:49.935,67.564,8.60466,0,0.000885,0,0
0:0:50.238,67.9154,8.64603,0,0.000885,0,0
0:0:50.533,68.9163,8.77703,0,0.000885,0,0
0:0:50.833,69.3255,8.82529,0,0.000885,0,0
0:0:51.132,70.0862,8.92182,0,0.000885,0,0
0:0:51.430,70.4376,8.97008,0,0.000885,0,0
0:0:51.730,71.2027,9.06661,0,0.000885,0,0
0:0:52.026,71.9633,9.16313,0,0.000885,0,0
0:0:52.329,71.9055,9.15624,0,0.000885,0,0
0:0:52.622,72.6083,9.24587,0,0.000885,0,0
0:0:52.923,73.3111,9.3355,0,0.000885,0,0
0:0:53.221,73.8983,9.41134,0,0.000885,0,0
0:0:53.525,74.4276,9.4734,0,0.000885,0,0
0:0:53.829,74.7212,9.51477,0,0.000885,0,0
0:0:54.133,75.7755,9.64577,0,0.000885,0,0
0:0:54.435,76.5984,9.75608,0,0.000885,0,0
0:0:54.738,77.1855,9.82503,0,0.000885,0,0
0:0:55.036,77.6526,9.88708,0,0.000885,0,0
0:0:55.336,78.2976,9.96982,0,0.000885,0,0
0:0:55.633,79.0627,10.0663,0,0.000885,0,0
0:0:55.935,79.8812,10.1698,0,0.000885,0,0
0:0:56.228,79.8233,10.1629,0,0.000885,0,0
0:0:56.530,80.2904,10.2249,0,0.000885,0,0
0:0:56.827,80.9977,10.3146,0,0.000885,0,0
0:0:57.124,81.8161,10.418,0,0.000885,0,0
0:0:57.425,82.2877,10.48,0,0.000885,0,0
0:0:57.721,82.7547,10.5352,0,0.000885,0,0
0:0:58.023,83.0483,10.5766,0,0.000885,0,0
0:0:58.317,83.8712,10.68,0,0.000885,0,0
0:0:58.619,85.1034,10.8386,0,0.000885,0,0
0:0:58.925,85.397,10.873,0,0.000885,0,0
0:0:59.227,85.864,10.9351,0,0.000885,0,0
0:0:59.531,86.5668,11.0247,0,0.000885,0,0
0:0:59.832,87.4476,11.135,0,0.000885,0,0
0:1:0.134,87.6833,11.1626,0,0.000885,0,0
0:1:0.431,87.799,11.1764,0,0.000885,0,0
0:1:0.730,88.2705,11.2385,0,0.000885,0,0
0:1:1.030,89.1468,11.3488,0,0.000885,0,0
0:1:1.326,89.6761,11.4177,0,0.000885,0,0
0:1:1.627,91.4955,11.6521,0,0.000885,0,0
0:1:1.924,91.3754,11.6315,0,0.000885,0,0
0:1:2.221,91.9625,11.7073,0,0.000885,0,0
0:1:2.519,92.1405,11.7349,0,0.000885,0,0
0:1:2.817,92.9011,11.8314,0,0.000885,0,0
0:1:3.119,93.6662,11.9279,0,0.000885,0,0
0:1:3.423,93.8397,11.9486,0,0.000885,0,0
0:1:3.726,94.5425,12.0382,0,0.000885,0,0
0:1:4.031,95.3076,12.1348,0,0.000885,0,0
0:1:4.333,95.659,12.183,0,0.000885,0,0
0:1:4.636,96.949,12.3416,0,0.000885,0,0
0:1:4.937,97.4205,12.4037,0,0.000885,0,0
0:1:5.241,97.9454,12.4726,0,0.000885,0,0
0:1:5.536,98.4747,12.5416,0,0.000885,0,0
0:1:5.834,98.7683,12.576,0,0.000885,0,0
0:1:6.134,98.884,12.5898,0,0.000885,0,0
0:1:6.429,99.5868,12.6795,0,0.000885,0,0
0:1:6.732,100.352,12.776,0,0.000885,0,0
0:1:7.026,101.17,12.8794,0,0.000885,0,0
0:1:7.327,101.584,12.9346,0,0.000885,0,0
0:1:7.625,102.58,13.0587,0,0.000885,0,0
0:1:7.922,102.58,13.0587,0,0.000885,0,0
0:1:8.225,103.755,13.2104,0,0.000885,0,0
0:1:8.529,104.573,13.3138,0,0.000885,0,0
0:1:8.832,105.103,13.3827,0,0.000885,0,0
0:1:9.135,105.512,13.431,0,0.000885,0,0
0:1:9.436,106.335,13.5413,0,0.000885,0,0
0:1:9.739,106.277,13.5344,0,0.000885,0,0
0:1:10.033,107.153,13.6447,0,0.000885,0,0
0:1:10.336,107.389,13.6723,0,0.000885,0,0
0:1:10.631,107.976,13.7481,0,0.000885,0,0
0:1:10.932,108.621,13.8309,0,0.000885,0,0
0:1:11.228,108.915,13.8654,0,0.000885,0,0
0:1:11.528,109.969,14.0033,0,0.000885,0,0
0:1:11.827,110.32,14.0446,0,0.000885,0,0
0:1:12.121,111.028,14.1343,0,0.000885,0,0
0:1:12.425,112.375,14.3066,0,0.000885,0,0
0:1:12.720,112.549,14.3273,0,0.000885,0,0
0:1:13.020,112.9,14.3756,0,0.000885,0,0
0:1:13.318,113.608,14.4652,0,0.000885,0,0
0:1:13.621,114.426,14.5686,0,0.000885,0,0
0:1:13.927,114.777,14.6169,0,0.000885,0,0
0:1:14.228,114.898,14.6307,0,0.000885,0,0
0:1:14.532,115.658,14.7272,0,0.000885,0,0
0:1:14.833,116.423,14.8237,0,0.000885,0,0
0:1:15.133,117.242,14.9271,0,0.000885,0,0
0:1:15.435,117.593,14.9754,0,0.000885,0,0
0:1:15.730,118.18,15.0444,0,0.000885,0,0
0:1:16.032,119.003,15.1547,0,0.000885,0,0
0:1:16.328,119.59,15.2236,0,0.000885,0,0
0:1:16.628,120.235,15.3064,0,0.000885,0,0
0:1:16.925,120.467,15.3408,0,0.000885,0,0
0:1:17.223,121.405,15.458,0,0.000885,0,0
0:1:17.525,121.699,15.4925,0,0.000885,0,0
0:1:17.820,122.58,15.6097,0,0.000885,0,0
0:1:18.122,122.758,15.6304,0,0.000885,0,0
0:1:18.419,123.634,15.7407,0,0.000885,0,0
0:1:18.721,124.105,15.8028,0,0.000885,0,0
0:1:19.026,124.63,15.8717,0,0.000885,0,0
0:1:19.330,125.453,15.9752,0,0.000885,0,0
0:1:19.632,125.983,16.0372,0,0.000885,0,0
0:1:19.934,126.743,16.1406,0,0.000885,0,0
0:1:20.234,127.215,16.1958,0,0.000885,0,0
0:1:20.534,127.797,16.2716,0,0.000885,0,0
0:1:20.830,128.211,16.3268,0,0.000885,0,0
0:1:21.132,128.678,16.3819,0,0.000885,0,0
0:1:21.426,129.323,16.4647,0,0.000885,0,0
0:1:21.727,130.026,16.5543,0,0.000885,0,0
0:1:22.026,130.675,16.637,0,0.000885,0,0
0:1:22.324,131.142,16.6991,0,0.000885,0,0
0:1:22.624,131.845,16.7887,0,0.000885,0,0
0:1:22.920,132.61,16.8853,0,0.000885,0,0
0:1:23.222,132.548,16.8784,0,0.000885,0,0
0:1:23.518,133.607,17.0094,0,0.000885,0,0
0:1:23.821,134.194,17.0852,0,0.000885,0,0
0:1:24.126,134.897,17.1748,0,0.000885,0,0
0:1:24.429,134.955,17.1817,0,0.000885,0,0
0:1:24.734,135.484,17.2507,0,0.000885,0,0
0:1:25.035,136.596,17.3955,0,0.000885,0,0
0:1:25.337,137.01,17.4437,0,0.000885,0,0
0:1:25.634,137.655,17.5265,0,0.000885,0,0
0:1:25.930,137.77,17.5403,0,0.000885,0,0
0:1:26.233,139.06,17.7057,0,0.000885,0,0
0:1:26.528,139.941,17.8161,0,0.000885,0,0
0:1:26.830,140.235,17.8574,0,0.000885,0,0
0:1:27.124,140.586,17.8988,0,0.000885,0,0
0:1:27.425,141.289,17.9884,0,0.000885,0,0
0:1:27.724,141.698,18.0436,0,0.000885,0,0
0:1:28.021,142.405,18.1332,0,0.000885,0,0
0:1:28.322,143.517,18.2711,0,0.000885,0,0
0:1:28.626,143.166,18.2297,0,0.000885,0,0
0:1:28.930,144.278,18.3676,0,0.000885,0,0
0:1:29.233,144.22,18.3607,0,0.000885,0,0
0:1:29.535,145.159,18.4848,0,0.000885,0,0
0:1:29.837,145.688,18.5469,0,0.000885,0,0
0:1:30.133,146.449,18.6434,0,0.000885,0,0
0:1:30.435,146.8,18.6917,0,0.000885,0,0
0:1:30.731,147.801,18.8158,0,0.000885,0,0
0:1:31.030,148.21,18.871,0,0.000885,0,0
0:1:31.328,148.855,18.9537,0,0.000885,0,0
0:1:31.626,149.852,19.0778,0,0.000885,0,0
0:1:31.927,150.203,19.1261,0,0.000885,0,0
0:1:32.222,150.79,19.2019,0,0.000885,0,0
0:1:32.523,151.435,19.2846,0,0.000885,0,0
0:1:32.819,151.377,19.2708,0,0.000885,0,0
0:1:33.118,151.671,19.3122,0,0.000885,0,0
0:1:33.418,152.552,19.4225,0,0.000885,0,0
0:1:33.719,152.783,19.4501,0,0.000885,0,0
0:1:34.025,154.429,19.6638,0,0.000885,0,0
0:1:34.327,155.132,19.7535,0,0.000885,0,0
0:1:34.629,155.19,19.7604,0,0.000885,0,0
0:1:34.932,155.777,19.8362,0,0.000885,0,0
0:1:35.228,156.773,19.9603,0,0.000885,0,0
0:1:35.530,157.596,20.0637,0,0.000885,0,0
0:1:35.826,157.77,20.0913,0,0.000885,0,0
0:1:36.126,158.121,20.1327,0,0.000885,0,0
0:1:36.423,158.944,20.2361,0,0.000885,0,0
0:1:36.719,159.295,20.2844,0,0.000885,0,0
0:1:37.021,159.762,20.3395,0,0.000885,0,0
0:1:37.324,160.234,20.4016,0,0.000885,0,0
0:1:37.627,161.23,20.5257,0,0.000885,0,0
0:1:37.923,161.817,20.6015,0,0.000885,0,0
0:1:38.223,162.578,20.6981,0,0.000885,0,0
0:1:38.521,163.165,20.7739,0,0.000885,0,0
0:1:38.824,163.517,20.8222,0,0.000885,0,0
0:1:39.128,163.988,20.8773,0,0.000885,0,0
0:1:39.432,164.397,20.9325,0,0.000885,0,0
0:1:39.734,165.1,21.0221,0,0.000885,0,0
0:1:40.037,166.159,21.1531,0,0.000885,0,0
0:1:40.335,166.568,21.2083,0,0.000885,0,0
0:1:40.635,167.097,21.2772,0,0.000885,0,0
0:1:40.930,167.858,21.3737,0,0.000885,0,0
0:1:41.233,168.739,21.4841,0,0.000885,0,0
0:1:41.528,169.264,21.553,0,0.000885,0,0
0:1:41.828,169.442,21.5737,0,0.000885,0,0
0:1:42.125,170.029,21.6495,0,0.000885,0,0
0:1:42.424,170.674,21.7323,0,0.000885,0,0
0:1:42.725,171.141,21.7874,0,0.000885,0,0
0:1:43.019,171.728,21.8633,0,0.000885,0,0
0:1:43.322,172.2,21.9253,0,0.000885,0,0
0:1:43.619,173.076,22.0356,0,0.000885,0,0
0:1:43.922,173.432,22.0839,0,0.000885,0,0
0:1:44.228,173.783,22.1253,0,0.000885,0,0
0:1:44.530,174.602,22.2287,0,0.000885,0,0
0:1:44.833,175.247,22.3114,0,0.000885,0,0
0:1:45.135,176.127,22.4286,0,0.000885,0,0
0:1:45.436,176.657,22.4907,0,0.000885,0,0
0:1:45.734,177.653,22.6217,0,0.000885,0,0
0:1:46.031,177.889,22.6493,0,0.000885,0,0
0:1:46.331,178.178,22.6838,0,0.000885,0,0
0:1:46.626,178.765,22.7596,0,0.000885,0,0
0:1:46.928,179.939,22.9113,0,0.000885,0,0
0:1:47.224,179.997,22.9182,0,0.000885,0,0
0:1:47.524,180.349,22.9595,0,0.000885,0,0
0:1:47.824,181.345,23.0905,0,0.000885,0,0
0:1:48.128,181.932,23.1664,0,0.000885,0,0
0:1:48.430,182.519,23.2422,0,0.000885,0,0
0:1:48.735,182.933,23.2905,0,0.000885,0,0
0:1:49.037,183.164,23.3181,0,0.000885,0,0
0:1:49.340,183.93,23.4215,0,0.000885,0,0
0:1:49.642,184.806,23.5318,0,0.000885,0,0
0:1:49.945,185.219,23.5801,0,0.000885,0,0
0:1:50.239,185.571,23.6283,0,0.000885,0,0
0:1:50.541,186.274,23.718,0,0.000885,0,0
0:1:50.839,187.742,23.9041,0,0.000885,0,0
0:1:51.136,187.799,23.911,0,0.000885,0,0
0:1:51.436,188.502,24.0007,0,0.000885,0,0
0:1:51.731,189.089,24.0765,0,0.000885,0,0
0:1:52.034,189.97,24.1868,0,0.000885,0,0
0:1:52.329,190.495,24.2558,0,0.000885,0,0
0:1:52.629,190.673,24.2764,0,0.000885,0,0
0:1:52.928,191.14,24.3385,0,0.000885,0,0
0:1:53.224,191.905,24.435,0,0.000885,0,0
0:1:53.524,192.844,24.5522,0,0.000885,0,0
0:1:53.826,193.489,24.635,0,0.000885,0,0
0:1:54.128,193.431,24.6281,0,0.000885,0,0
0:1:54.428,193.724,24.6625,0,0.000885,0,0
0:1:54.727,194.427,24.7522,0,0.000885,0,0
0:1:55.028,195.188,24.8556,0,0.000885,0,0
0:1:55.322,195.597,24.9039,0,0.000885,0,0
0:1:55.622,196.362,25.0004,0,0.000885,0,0
0:1:55.914,196.892,25.0693,0,0.000885,0,0
0:1:56.212,197.888,25.1934,0,0.000885,0,0
0:1:56.515,198.355,25.2555,0,0.000885,0,0
0:1:56.810,198.764,25.3107,0,0.000885,0,0
0:1:57.109,199.529,25.4072,0,0.000885,0,0
0:1:57.411,199.939,25.4554,0,0.000885,0,0
0:1:57.711,200.935,25.5864,0,0.000885,0,0
0:1:58.005,201.171,25.614,0,0.000885,0,0
0:1:58.303,202.052,25.7243,0,0.000885,0,0
0:1:58.610,202.639,25.8002,0,0.000885,0,0
0:1:58.911,202.87,25.8278,0,0.000885,0,0
0:1:59.213,203.577,25.9174,0,0.000885,0,0
0:1:59.513,203.871,25.9588,0,0.000885,0,0
0:1:59.813,205.099,26.1173,0,0.000885,0,0
0:2:0.113,205.512,26.1656,0,0.000885,0,0
0:2:0.409,206.331,26.269,0,0.000885,0,0
0:2:0.707,206.393,26.2759,0,0.000885,0,0
0:2:1.009,206.624,26.3104,0,0.000885,0,0
0:2:1.310,207.914,26.4759,0,0.000885,0,0
0:2:1.613,208.092,26.4966,0,0.000885,0,0
0:2:1.910,209.204,26.6344,0,0.000885,0,0
0:2:2.206,209.089,26.6207,0,0.000885,0,0
0:2:2.501,209.498,26.6758,0,0.000885,0,0
0:2:2.800,210.672,26.8206,0,0.000885,0,0
0:2:3.103,210.788,26.8413,0,0.000885,0,0
0:2:3.403,211.611,26.9447,0,0.000885,0,0
0:2:3.707,212.256,27.0274,0,0.000885,0,0
0:2:4.007,213.079,27.1309,0,0.000885,0,0
0:2:4.308,213.079,27.1309,0,0.000885,0,0
0:2:4.609,214.075,27.255,0,0.000885,0,0
0:2:4.908,215.187,27.3998,0,0.000885,0,0
0:2:5.203,215.539,27.4411,0,0.000885,0,0
0:2:5.500,216.068,27.5101,0,0.000885,0,0
0:2:5.808,216.713,27.5928,0,0.000885,0,0
0:2:6.122,217.478,27.6893,0,0.000885,0,0
0:2:6.421,217.829,27.7376,0,0.000885,0,0
0:2:6.715,218.239,27.7859,0,0.000885,0,0
0:2:7.022,219.293,27.9238,0,0.000885,0,0
0:2:7.321,219.471,27.9445,0,0.000885,0,0
0:2:7.622,220.525,28.0755,0,0.000885,0,0
0:2:7.922,220.409,28.0617,0,0.000885,0,0
0:2:8.226,220.525,28.0755,0,0.000885,0,0
0:2:8.527,221.935,28.2547,0,0.000885,0,0
0:2:8.829,222.932,28.3857,0,0.000885,0,0
0:2:9.130,222.811,28.3719,0,0.000885,0,0
0:2:9.429,223.692,28.4822,0,0.000885,0,0
0:2:9.728,223.928,28.5098,0,0.000885,0,0
0:2:10.027,224.982,28.6477,0,0.000885,0,0
0:2:10.325,225.334,28.6891,0,0.000885,0,0
0:2:10.615,226.392,28.827,0,0.000885,0,0
0:2:10.915,226.801,28.8752,0,0.000885,0,0
0:2:11.217,226.917,28.889,0,0.000885,0,0
0:2:11.515,227.682,28.9925,0,0.000885,0,0
0:2:11.823,228.852,29.1372,0,0.000885,0,0
0:2:12.116,229.266,29.1924,0,0.000885,0,0
0:2:12.416,229.969,29.282,0,0.000885,0,0
0:2:12.717,230.084,29.2958,0,0.000885,0,0
0:2:13.017,230.792,29.3855,0,0.000885,0,0
0:2:13.325,231.437,29.4682,0,0.000885,0,0
0:2:13.626,231.788,29.5096,0,0.000885,0,0
0:2:13.929,231.846,29.5165,0,0.000885,0,0
0:2:14.229,232.727,29.6337,0,0.000885,0,0
0:2:14.531,233.545,29.7371,0,0.000885,0,0
0:2:14.829,234.074,29.806,0,0.000885,0,0
0:2:15.127,234.835,29.9026,0,0.000885,0,0
0:2:15.425,235.422,29.9784,0,0.000885,0,0
0:2:15.727,236.481,30.1094,0,0.000885,0,0
0:2:16.028,236.712,30.137,0,0.000885,0,0
0:2:16.322,237.709,30.268,0,0.000885,0,0
0:2:16.618,237.944,30.2956,0,0.000885,0,0
0:2:16.924,238.589,30.3783,0,0.000885,0,0
0:2:17.219,239.061,30.4404,0,0.000885,0,0
0:2:17.517,239.528,30.4955,0,0.000885,0,0
0:2:17.830,240.293,30.592,0,0.000885,0,0
0:2:18.130,240.524,30.6265,0,0.000885,0,0
0:2:18.425,241.347,30.7299,0,0.000885,0,0
0:2:18.726,241.583,30.7575,0,0.000885,0,0
0:2:19.027,242.459,30.8678,0,0.000885,0,0
0:2:19.328,243.046,30.9437,0,0.000885,0,0
0:2:19.627,243.869,31.0471,0,0.000885,0,0
0:2:19.928,244.043,31.0747,0,0.000885,0,0
0:2:20.224,245.044,31.1988,0,0.000885,0,0
0:2:20.522,245.569,31.2677,0,0.000885,0,0
0:2:20.826,245.982,31.316,0,0.000885,0,0
0:2:21.126,246.859,31.4332,0,0.000885,0,0
0:2:21.418,247.272,31.4815,0,0.000885,0,0
0:2:21.718,248.091,31.5849,0,0.000885,0,0
0:2:22.022,248.384,31.6263,0,0.000885,0,0
0:2:22.329,249.207,31.7297,0,0.000885,0,0
0:2:22.626,249.559,31.7779,0,0.000885,0,0
0:2:22.930,250.791,31.9296,0,0.000885,0,0
0:2:23.229,250.906,31.9434,0,0.000885,0,0
0:2:23.522,251.316,31.9986,0,0.000885,0,0
0:2:23.825,251.787,32.0606,0,0.000885,0,0
0:2:24.128,252.668,32.1709,0,0.000885,0,0
0:2:24.431,253.664,32.295,0,0.000885,0,0
0:2:24.728,253.486,32.2744,0,0.000885,0,0
0:2:25.028,253.838,32.3226,0,0.000885,0,0
0:2:25.327,254.603,32.4191,0,0.000885,0,0
0:2:25.618,255.421,32.5226,0,0.000885,0,0
0:2:25.917,255.951,32.5915,0,0.000885,0,0
0:2:26.226,256.302,32.6329,0,0.000885,0,0
0:2:26.529,257.298,32.757,0,0.000885,0,0
0:2:26.830,257.828,32.8259,0,0.000885,0,0
0:2:27.123,258.709,32.9363,0,0.000885,0,0
0:2:27.420,259.233,33.0052,0,0.000885,0,0
0:2:27.714,259.999,33.1017,0,0.000885,0,0
0:2:28.022,260.172,33.1293,0,0.000885,0,0
0:2:28.328,260.937,33.2258,0,0.000885,0,0
0:2:28.631,261.289,33.2672,0,0.000885,0,0
0:2:28.933,261.818,33.3362,0,0.000885,0,0
0:2:29.234,262.694,33.4465,0,0.000885,0,0
0:2:29.533,263.108,33.5016,0,0.000885,0,0
0:2:29.834,263.869,33.5982,0,0.000885,0,0
0:2:30.128,264.513,33.6809,0,0.000885,0,0
0:2:30.427,264.923,33.7292,0,0.000885,0,0
0:2:30.728,265.63,33.8188,0,0.000885,0,0
0:2:31.028,265.981,33.867,0,0.000885,0,0
0:2:31.323,266.333,33.9084,0,0.000885,0,0
0:2:31.626,266.8,33.9705,0,0.000885,0,0
0:2:31.926,267.916,34.1153,0,0.000885,0,0
0:2:32.217,268.677,34.2118,0,0.000885,0,0
0:2:32.517,268.913,34.2394,0,0.000885,0,0
0:2:32.831,269.028,34.2532,0,0.000885,0,0
0:2:33.129,269.967,34.3704,0,0.000885,0,0
0:2:33.426,270.906,34.4945,0,0.000885,0,0
0:2:33.728,271.493,34.5703,0,0.000885,0,0
0:2:34.030,271.671,34.591,0,0.000885,0,0
0:2:34.330,272.547,34.7013,0,0.000885,0,0
0:2:34.630,273.018,34.7634,0,0.000885,0,0
0:2:34.931,273.899,34.8737,0,0.000885,0,0
0:2:35.227,274.015,34.8875,0,0.000885,0,0
0:2:35.525,274.544,34.9564,0,0.000885,0,0
0:2:35.815,275.656,35.1012,0,0.000885,0,0
0:2:36.114,275.776,35.115,0,0.000885,0,0
0:2:36.419,276.595,35.2184,0,0.000885,0,0
0:2:36.715,277.943,35.3908,0,0.000885,0,0
0:2:37.013,278.121,35.4115,0,0.000885,0,0
0:2:37.307,278.708,35.4873,0,0.000885,0,0
0:2:37.606,279.353,35.5701,0,0.000885,0,0
0:2:37.917,280.056,35.6597,0,0.000885,0,0
0:2:38.216,280.994,35.7769,0,0.000885,0,0
0:2:38.511,281.11,35.7907,0,0.000885,0,0
0:2:38.813,281.23,35.8045,0,0.000885,0,0
0:2:39.116,282.168,35.9286,0,0.000885,0,0
0:2:39.418,282.284,35.9424,0,0.000885,0,0
0:2:39.716,282.987,36.032,0,0.000885,0,0
0:2:40.016,283.81,36.1354,0,0.000885,0,0
0:2:40.325,284.397,36.2113,0,0.000885,0,0
0:2:40.632,284.922,36.2802,0,0.000885,0,0
0:2:40.926,285.336,36.3285,0,0.000885,0,0
0:2:41.226,285.687,36.3767,0,0.000885,0,0
0:2:41.515,286.568,36.4871,0,0.000885,0,0
0:2:41.816,287.506,36.6043,0,0.000885,0,0
0:2:42.111,288.209,36.6939,0,0.000885,0,0
0:2:42.416,288.739,36.7628,0,0.000885,0,0
0:2:42.725,288.325,36.7077,0,0.000885,0,0
0:2:43.029,289.793,36.9007,0,0.000885,0,0
0:2:43.330,290.26,36.9559,0,0.000885,0,0
0:2:43.633,291.492,37.1145,0,0.000885,0,0
0:2:43.932,291.256,37.0869,0,0.000885,0,0
0:2:44.234,291.434,37.1076,0,0.000885,0,0
0:2:44.533,292.488,37.2386,0,0.000885,0,0
0:2:44.834,293.489,37.3696,0,0.000885,0,0
0:2:45.128,293.898,37.4178,0,0.000885,0,0
0:2:45.427,294.423,37.4868,0,0.000885,0,0
0:2:45.720,295.424,37.6178,0,0.000885,0,0
0:2:46.027,295.598,37.6385,0,0.000885,0,0
0:2:46.325,296.127,37.7005,0,0.000885,0,0
0:2:46.616,296.3,37.7281,0,0.000885,0,0
0:2:46.915,297.533,37.8798,0,0.000885,0,0
0:2:47.210,298.24,37.9694,0,0.000885,0,0
0:2:47.516,298.885,38.0522,0,0.000885,0,0
0:2:47.826,299.174,38.0935,0,0.000885,0,0
0:2:48.130,299.646,38.1487,0,0.000885,0,0
0:2:48.430,300.055,38.2039,0,0.000885,0,0
0:2:48.734,300.7,38.2866,0,0.000885,0,0
0:2:49.034,301.758,38.4176,0,0.000885,0,0
0:2:49.336,302.168,38.4727,0,0.000885,0,0
0:2:49.635,302.519,38.521,0,0.000885,0,0
0:2:49.936,303.516,38.6451,0,0.000885,0,0
0:2:50.230,303.573,38.652,0,0.000885,0,0
0:2:50.529,304.338,38.7485,0,0.000885,0,0
0:2:50.822,304.805,38.8106,0,0.000885,0,0
0:2:51.129,305.686,38.9209,0,0.000885,0,0
0:2:51.426,306.038,38.9692,0,0.000885,0,0
0:2:51.730,305.98,38.9554,0,0.000885,0,0
0:2:52.029,307.092,39.1002,0,0.000885,0,0
0:2:52.319,308.03,39.2174,0,0.000885,0,0
0:2:52.618,308.266,39.2519,0,0.000885,0,0
0:2:52.925,309.031,39.3484,0,0.000885,0,0
0:2:53.218,309.85,39.4518,0,0.000885,0,0
0:2:53.517,310.437,39.5276,0,0.000885,0,0
0:2:53.819,310.731,39.5621,0,0.000885,0,0
0:2:54.120,311.318,39.638,0,0.000885,0,0
0:2:54.421,312.198,39.7483,0,0.000885,0,0
0:2:54.721,312.959,39.8448,0,0.000885,0,0
0:2:55.021,312.843,39.831,0,0.000885,0,0
0:2:55.315,313.546,39.9206,0,0.000885,0,0
0:2:55.616,314.427,40.031,0,0.000885,0,0
0:2:55.911,315.13,40.1206,0,0.000885,0,0
0:2:56.216,315.539,40.1758,0,0.000885,0,0
0:2:56.513,315.89,40.2171,0,0.000885,0,0
0:2:56.808,316.771,40.3343,0,0.000885,0,0
0:2:57.107,317.768,40.4584,0,0.000885,0,0
0:2:57.410,318.239,40.5205,0,0.000885,0,0
0:2:57.708,318.239,40.5205,0,0.000885,0,0
0:2:58.006,318.884,40.6032,0,0.000885,0,0
0:2:58.309,319.823,40.7204,0,0.000885,0,0
0:2:58.608,320.583,40.817,0,0.000885,0,0
0:2:58.909,320.819,40.8445,0,0.000885,0,0
0:2:59.211,321.638,40.9549,0,0.000885,0,0
0:2:59.513,322.46,41.0583,0,0.000885,0,0
0:2:59.812,322.928,41.1134,0,0.000885,0,0
0:3:0.114,323.693,41.2169,0,0.000885,0,0
0:3:0.409,323.577,41.1962,0,0.000885,0,0
0:3:0.714,324.16,41.272,0,0.000885,0,0
0:3:1.012,325.218,41.4099,0,0.000885,0,0
0:3:1.316,325.45,41.4375,0,0.000885,0,0
0:3:1.615,325.979,41.5064,0,0.000885,0,0
0:3:1.919,326.388,41.5547,0,0.000885,0,0
0:3:2.219,327.389,41.6857,0,0.000885,0,0
0:3:2.523,327.678,41.7202,0,0.000885,0,0
0:3:2.830,328.679,41.8512,0,0.000885,0,0
0:3:3.128,328.737,41.8581,0,0.000885,0,0
0:3:3.431,329.618,41.9684,0,0.000885,0,0
0:3:3.731,330.085,42.0304,0,0.000885,0,0
0:3:4.035,330.965,42.1408,0,0.000885,0,0
0:3:4.336,331.259,42.1752,0,0.000885,0,0
0:3:4.637,331.846,42.2511,0,0.000885,0,0
0:3:4.936,332.843,42.3821,0,0.000885,0,0
0:3:5.237,333.545,42.4717,0,0.000885,0,0
0:3:5.533,333.955,42.52,0,0.000885,0,0
0:3:5.830,334.368,42.5751,0,0.000885,0,0
0:3:6.136,335.245,42.6854,0,0.000885,0,0
0:3:6.430,335.596,42.7268,0,0.000885,0,0
0:3:6.729,336.183,42.8027,0,0.000885,0,0
0:3:7.020,336.068,42.7889,0,0.000885,0,0
0:3:7.319,337.473,42.9681,0,0.000885,0,0
0:3:7.626,337.767,43.0026,0,0.000885,0,0
0:3:7.920,338.763,43.1336,0,0.000885,0,0
0:3:8.219,339.177,43.1819,0,0.000885,0,0
0:3:8.512,339.764,43.2577,0,0.000885,0,0
0:3:8.814,340.173,43.3129,0,0.000885,0,0
0:3:9.117,340.467,43.3473,0,0.000885,0,0
0:3:9.417,341.521,43.4852,0,0.000885,0,0
0:3:9.717,342.108,43.5611,0,0.000885,0,0
0:3:10.016,342.46,43.6024,0,0.000885,0,0
0:3:10.315,343.456,43.7334,0,0.000885,0,0
0:3:10.620,343.928,43.7886,0,0.000885,0,0
0:3:10.927,344.746,43.892,0,0.000885,0,0
0:3:11.223,344.746,43.892,0,0.000885,0,0
0:3:11.527,345.511,43.9886,0,0.000885,0,0
0:3:11.827,346.272,44.092,0,0.000885,0,0
0:3:12.130,346.859,44.1609,0,0.000885,0,0
0:3:12.427,346.975,44.1816,0,0.000885,0,0
0:3:12.722,347.855,44.2919,0,0.000885,0,0
0:3:13.028,348.558,44.3816,0,0.000885,0,0
0:3:13.328,349.088,44.4505,0,0.000885,0,0
0:3:13.630,349.323,44.4781,0,0.000885,0,0
0:3:13.931,350.378,44.6091,0,0.000885,0,0
0:3:14.232,350.729,44.6573,0,0.000885,0,0
0:3:14.533,351.432,44.747,0,0.000885,0,0
0:3:14.833,352.255,44.8504,0,0.000885,0,0
0:3:15.127,352.784,44.9193,0,0.000885,0,0
0:3:15.422,353.015,44.9469,0,0.000885,0,0
0:3:15.719,354.425,45.1262,0,0.000885,0,0
0:3:16.023,354.19,45.0986,0,0.000885,0,0
0:3:16.322,355.128,45.2158,0,0.000885,0,0
0:3:16.624,355.306,45.2365,0,0.000885,0,0
0:3:16.924,355.893,45.3123,0,0.000885,0,0
0:3:17.229,356.654,45.4089,0,0.000885,0,0
0:3:17.524,357.357,45.4985,0,0.000885,0,0
0:3:17.821,357.828,45.5606,0,0.000885,0,0
0:3:18.115,358.531,45.6502,0,0.000885,0,0
0:3:18.414,358.238,45.6088,0,0.000885,0,0
0:3:18.717,359.176,45.7329,0,0.000885,0,0
0:3:19.019,360.408,45.8915,0,0.000885,0,0
0:3:19.319,361.227,45.9949,0,0.000885,0,0
0:3:19.619,361.934,46.0846,0,0.000885,0,0
0:3:19.919,361.872,46.0777,0,0.000885,0,0
0:3:20.212,363.34,46.2638,0,0.000885,0,0
0:3:20.513,363.749,46.3121,0,0.000885,0,0
0:3:20.824,363.518,46.2845,0,0.000885,0,0
0:3:21.122,364.572,46.4155,0,0.000885,0,0
0:3:21.429,365.039,46.4776,0,0.000885,0,0
0:3:21.721,365.804,46.5741,0,0.000885,0,0
0:3:22.021,366.098,46.6155,0,0.000885,0,0
0:3:22.324,366.858,46.712,0,0.000885,0,0
0:3:22.622,367.152,46.7465,0,0.000885,0,0
0:3:22.928,367.681,46.8154,0,0.000885,0,0
0:3:23.223,368.971,46.9809,0,0.000885,0,0
0:3:23.521,368.851,46.9671,0,0.000885,0,0
0:3:23.823,369.852,47.0912,0,0.000885,0,0
0:3:24.125,369.91,47.0981,0,0.000885,0,0
0:3:24.428,370.906,47.2222,0,0.000885,0,0
0:3:24.726,371.609,47.3118,0,0.000885,0,0
0:3:25.028,372.432,47.4221,0,0.000885,0,0
0:3:25.321,372.841,47.4704,0,0.000885,0,0
0:3:25.620,373.25,47.5256,0,0.000885,0,0
0:3:25.933,374.247,47.6497,0,0.000885,0,0
0:3:26.232,374.247,47.6497,0,0.000885,0,0
0:3:26.529,374.776,47.7186,0,0.000885,0,0
0:3:26.833,375.07,47.7531,0,0.000885,0,0
0:3:27.131,376.008,47.8772,0,0.000885,0,0
0:3:27.423,377.183,48.022,0,0.000885,0,0
0:3:27.723,377.356,48.0496,0,0.000885,0,0
0:3:28.026,378.295,48.1668,0,0.000885,0,0
0:3:28.322,378.001,48.1254,0,0.000885,0,0
0:3:28.620,379.233,48.284,0,0.000885,0,0
0:3:28.921,379.82,48.3598,0,0.000885,0,0
0:3:29.225,380.759,48.477,0,0.000885,0,0
0:3:29.524,381.23,48.5391,0,0.000885,0,0
0:3:29.824,381.23,48.5391,0,0.000885,0,0
0:3:30.124,382.165,48.6563,0,0.000885,0,0
0:3:30.420,382.93,48.7528,0,0.000885,0,0
0:3:30.716,382.694,48.7252,0,0.000885,0,0
0:3:31.020,383.81,48.87,0,0.000885,0,0
0:3:31.320,384.571,48.9666,0,0.000885,0,0
0:3:31.622,384.865,49.001,0,0.000885,0,0
0:3:31.921,385.919,49.1389,0,0.000885,0,0
0:3:32.226,385.567,49.0907,0,0.000885,0,0
0:3:32.521,386.915,49.263,0,0.000885,0,0
0:3:32.818,387.387,49.3251,0,0.000885,0,0
0:3:33.112,388.147,49.4216,0,0.000885,0,0
0:3:33.413,388.267,49.4354,0,0.000885,0,0
0:3:33.717,389.148,49.5457,0,0.000885,0,0
0:3:34.016,389.557,49.6009,0,0.000885,0,0
0:3:34.316,390.145,49.6767,0,0.000885,0,0
0:3:34.616,391.608,49.8629,0,0.000885,0,0
0:3:34.915,391.377,49.8284,0,0.000885,0,0
0:3:35.209,392.253,49.9456,0,0.000885,0,0
0:3:35.515,392.604,49.987,0,0.000885,0,0
0:3:35.822,393.134,50.0559,0,0.000885,0,0
0:3:36.136,393.837,50.1456,0,0.000885,0,0
0:3:36.436,394.66,50.249,0,0.000885,0,0
0:3:36.729,395.42,50.3455,0,0.000885,0,0
0:3:37.027,395.598,50.3662,0,0.000885,0,0
0:3:37.322,396.301,50.4558,0,0.000885,0,0
0:3:37.618,396.71,50.511,0,0.000885,0,0
0:3:37.916,397.124,50.5661,0,0.000885,0,0
0:3:38.219,397.827,50.6558,0,0.000885,0,0
0:3:38.519,398.587,50.7523,0,0.000885,0,0
0:3:38.822,399.584,50.8764,0,0.000885,0,0
0:3:39.124,399.877,50.9109,0,0.000885,0,0
0:3:39.424,400.522,50.9936,0,0.000885,0,0
0:3:39.725,401.523,51.1246,0,0.000885,0,0
0:3:40.024,401.345,51.1039,0,0.000885,0,0
0:3:40.318,402.693,51.2694,0,0.000885,0,0
0:3:40.625,402.399,51.2349,0,0.000885,0,0
0:3:40.932,403.165,51.3315,0,0.000885,0,0
0:3:41.226,403.983,51.4349,0,0.000885,0,0
0:3:41.525,403.867,51.4211,0,0.000885,0,0
0:3:41.839,404.628,51.5176,0,0.000885,0,0
0:3:42.137,405.215,51.5935,0,0.000885,0,0
0:3:42.432,406.39,51.7452,0,0.000885,0,0
0:3:42.727,406.567,51.7658,0,0.000885,0,0
0:3:43.024,407.444,51.8762,0,0.000885,0,0
0:3:43.320,407.857,51.9313,0,0.000885,0,0
0:3:43.619,408.618,52.0278,0,0.000885,0,0
0:3:43.922,409.499,52.1382,0,0.000885,0,0
0:3:44.225,409.672,52.1588,0,0.000885,0,0
0:3:44.525,410.495,52.2692,0,0.000885,0,0
0:3:44.824,410.904,52.3174,0,0.000885,0,0
0:3:45.124,411.025,52.3312,0,0.000885,0,0
0:3:45.418,412.372,52.5036,0,0.000885,0,0
0:3:45.716,412.194,52.4829,0,0.000885,0,0
0:3:46.019,412.839,52.5656,0,0.000885,0,0
0:3:46.317,413.662,52.6691,0,0.000885,0,0
0:3:46.623,414.774,52.8138,0,0.000885,0,0
0:3:46.918,415.068,52.8483,0,0.000885,0,0
0:3:47.216,415.655,52.9242,0,0.000885,0,0
0:3:47.510,416.478,53.0276,0,0.000885,0,0
0:3:47.809,417.297,53.131,0,0.000885,0,0
0:3:48.114,417.768,53.1931,0,0.000885,0,0
0:3:48.416,418.297,53.262,0,0.000885,0,0
0:3:48.717,418.707,53.3103,0,0.000885,0,0
0:3:49.019,419.409,53.3999,0,0.000885,0,0
0:3:49.319,419.703,53.4413,0,0.000885,0,0
0:3:49.617,420.17,53.4964,0,0.000885,0,0
0:3:49.917,420.757,53.5723,0,0.000885,0,0
0:3:50.212,421.344,53.6481,0,0.000885,0,0
0:3:50.507,421.344,53.6481,0,0.000885,0,0
0:3:50.805,422.461,53.786,0,0.000885,0,0
0:3:51.101,422.812,53.8343,0,0.000885,0,0
0:3:51.400,423.515,53.9239,0,0.000885,0,0
0:3:51.691,423.751,53.9515,0,0.000885,0,0
0:3:51.990,424.863,54.0963,0,0.000885,0,0
0:3:52.287,426.037,54.248,0,0.000885,0,0
0:3:52.581,426.567,54.31,0,0.000885,0,0
0:3:52.880,426.798,54.3445,0,0.000885,0,0
0:3:53.174,427.269,54.3996,0,0.000885,0,0
0:3:53.475,427.505,54.4341,0,0.000885,0,0
0:3:53.778,428.675,54.5789,0,0.000885,0,0
0:3:54.080,429.027,54.6272,0,0.000885,0,0
0:3:54.380,429.849,54.7306,0,0.000885,0,0
0:3:54.681,430.61,54.8271,0,0.000885,0,0
0:3:54.981,430.966,54.8754,0,0.000885,0,0
0:3:55.275,431.491,54.9374,0,0.000885,0,0
0:3:55.574,432.136,55.0202,0,0.000885,0,0
0:3:55.869,432.256,55.034,0,0.000885,0,0
0:3:56.164,432.959,55.1236,0,0.000885,0,0
0:3:56.463,433.662,55.2132,0,0.000885,0,0
0:3:56.756,434.249,55.2891,0,0.000885,0,0
0:3:57.055,434.836,55.3649,0,0.000885,0,0
0:3:57.350,435.129,55.3994,0,0.000885,0,0
0:3:57.647,435.654,55.4683,0,0.000885,0,0
0:3:57.944,436.126,55.5304,0,0.000885,0,0
0:3:58.240,437.709,55.7303,0,0.000885,0,0
0:3:58.540,437.945,55.7579,0,0.000885,0,0
0:3:58.841,438.354,55.8131,0,0.000885,0,0
0:3:59.144,438.942,55.8889,0,0.000885,0,0
0:3:59.444,439.587,55.9716,0,0.000885,0,0
0:3:59.745,439.88,56.0061,0,0.000885,0,0
0:4:0.045,440.934,56.144,0,0.000885,0,0
0:4:0.339,441.464,56.2061,0,0.000885,0,0
0:4:0.640,442.167,56.2957,0,0.000885,0,0
0:4:0.932,442.46,56.3371,0,0.000885,0,0
0:4:1.229,443.341,56.4474,0,0.000885,0,0
0:4:1.535,443.692,56.4956,0,0.000885,0,0
0:4:1.829,444.044,56.537,0,0.000885,0,0
0:4:2.127,444.689,56.6197,0,0.000885,0,0
0:4:2.420,445.04,56.6611,0,0.000885,0,0
0:4:2.722,445.863,56.7714,0,0.000885,0,0
0:4:3.023,446.446,56.8404,0,0.000885,0,0
0:4:3.325,447.091,56.9231,0,0.000885,0,0
0:4:3.626,447.562,56.9852,0,0.000885,0,0
0:4:3.928,448.559,57.1093,0,0.000885,0,0
0:4:4.227,449.03,57.1713,0,0.000885,0,0
0:4:4.528,449.204,57.192,0,0.000885,0,0
0:4:4.827,449.969,57.2885,0,0.000885,0,0
0:4:5.122,450.494,57.3575,0,0.000885,0,0
0:4:5.427,451.904,57.5367,0,0.000885,0,0
0:4:5.725,452.135,57.5712,0,0.000885,0,0
0:4:6.040,452.486,57.6126,0,0.000885,0,0
0:4:6.339,453.194,57.7022,0,0.000885,0,0
0:4:6.630,453.131,57.6953,0,0.000885,0,0
0:4:6.929,454.132,57.8194,0,0.000885,0,0
0:4:7.225,454.426,57.8608,0,0.000885,0,0
0:4:7.529,455.244,57.9642,0,0.000885,0,0
0:4:7.828,455.596,58.0056,0,0.000885,0,0
0:4:8.123,456.592,58.1366,0,0.000885,0,0
0:4:8.423,456.948,58.178,0,0.000885,0,0
0:4:8.727,457.766,58.2814,0,0.000885,0,0
0:4:9.027,458.176,58.3365,0,0.000885,0,0
0:4:9.329,459.056,58.4469,0,0.000885,0,0
0:4:9.628,459.822,58.5434,0,0.000885,0,0
0:4:9.928,459.701,58.5296,0,0.000885,0,0
0:4:10.223,460.289,58.6054,0,0.000885,0,0
0:4:10.520,461.112,58.7089,0,0.000885,0,0
0:4:10.825,461.93,58.8123,0,0.000885,0,0
0:4:11.121,462.811,58.9295,0,0.000885,0,0
0:4:11.420,462.989,58.9502,0,0.000885,0,0
0:4:11.721,463.282,58.9846,0,0.000885,0,0
0:4:12.021,463.985,59.0743,0,0.000885,0,0
0:4:12.326,464.982,59.2053,0,0.000885,0,0
0:4:12.621,465.391,59.2535,0,0.000885,0,0
0:4:12.919,465.804,59.3087,0,0.000885,0,0
0:4:13.213,466.156,59.3501,0,0.000885,0,0
0:4:13.513,467.152,59.4811,0,0.000885,0,0
0:4:13.816,467.739,59.5569,0,0.000885,0,0
0:4:14.119,468.678,59.6741,0,0.000885,0,0
0:4:14.417,468.972,59.7086,0,0.000885,0,0
0:4:14.717,469.381,59.7638,0,0.000885,0,0
0:4:15.016,470.493,59.9085,0,0.000885,0,0
0:4:15.329,470.907,59.9568,0,0.000885,0,0
0:4:15.628,471.138,59.9844,0,0.000885,0,0
0:4:15.934,471.667,60.0533,0,0.000885,0,0
0:4:16.228,472.37,60.143,0,0.000885,0,0
0:4:16.527,473.251,60.2533,0,0.000885,0,0
0:4:16.829,473.544,60.2947,0,0.000885,0,0
0:4:17.128,474.011,60.3498,0,0.000885,0,0
0:4:17.442,475.07,60.4877,0,0.000885,0,0
0:4:17.741,475.889,60.5911,0,0.000885,0,0
0:4:18.036,476.596,60.6808,0,0.000885,0,0
0:4:18.328,476.827,60.7083,0,0.000885,0,0
0:4:18.627,477.472,60.7911,0,0.000885,0,0
0:4:18.930,477.65,60.8187,0,0.000885,0,0
0:4:19.235,478.179,60.8807,0,0.000885,0,0
0:4:19.537,479.176,61.0117,0,0.000885,0,0
0:4:19.835,479.879,61.1013,0,0.000885,0,0
0:4:20.137,480.172,61.1358,0,0.000885,0,0
0:4:20.438,480.639,61.1979,0,0.000885,0,0
0:4:20.739,481.284,61.2806,0,0.000885,0,0
0:4:21.031,481.756,61.3358,0,0.000885,0,0
0:4:21.338,482.107,61.384,0,0.000885,0,0
0:4:21.637,482.868,61.4806,0,0.000885,0,0
0:4:21.940,483.397,61.5495,0,0.000885,0,0
0:4:22.240,484.278,61.6598,0,0.000885,0,0
0:4:22.534,484.571,61.6943,0,0.000885,0,0
0:4:22.841,485.274,61.7839,0,0.000885,0,0
0:4:23.138,485.977,61.8736,0,0.000885,0,0
0:4:23.439,486.742,61.977,0,0.000885,0,0
0:4:23.743,487.445,62.0666,0,0.000885,0,0
0:4:24.043,487.796,62.108,0,0.000885,0,0
0:4:24.344,488.793,62.2321,0,0.000885,0,0
0:4:24.644,489.264,62.2941,0,0.000885,0,0
0:4:24.940,489.909,62.3769,0,0.000885,0,0
0:4:25.239,490.319,62.432,0,0.000885,0,0
0:4:25.528,490.786,62.4872,0,0.000885,0,0
0:4:25.829,491.786,62.6182,0,0.000885,0,0
0:4:26.123,492.254,62.6733,0,0.000885,0,0
0:4:26.420,492.138,62.6596,0,0.000885,0,0
0:4:26.717,493.014,62.7699,0,0.000885,0,0
0:4:27.011,493.428,62.825,0,0.000885,0,0
0:4:27.312,494.776,62.9974,0,0.000885,0,0
0:4:27.606,495.011,63.025,0,0.000885,0,0
0:4:27.902,495.243,63.0595,0,0.000885,0,0
0:4:28.198,496.123,63.1698,0,0.000885,0,0
0:4:28.500,496.826,63.2594,0,0.000885,0,0
0:4:28.803,497.534,63.349,0,0.000885,0,0
0:4:29.104,498.058,63.418,0,0.000885,0,0
0:4:29.404,499.055,63.5421,0,0.000885,0,0
0:4:29.706,499.584,63.611,0,0.000885,0,0
0:4:30.000,499.411,63.5835,0,0.000885,0,0
0:4:30.297,500.523,63.7282,0,0.000885,0,0
0:4:30.591,500.407,63.7145,0,0.000885,0,0
0:4:30.890,501.404,63.8386,0,0.000885,0,0
0:4:31.184,502.4,63.9696,0,0.000885,0,0
0:4:31.482,502.458,63.9765,0,0.000885,0,0
0:4:31.780,503.69,64.135,0,0.000885,0,0
0:4:32.072,503.396,64.0937,0,0.000885,0,0
0:4:32.372,504.099,64.1833,0,0.000885,0,0
0:4:32.665,504.922,64.2867,0,0.000885,0,0
0:4:32.962,505.216,64.3281,0,0.000885,0,0
0:4:33.258,506.096,64.4384,0,0.000885,0,0
0:4:33.559,506.39,64.4729,0,0.000885,0,0
0:4:33.863,507.329,64.597,0,0.000885,0,0
0:4:34.163,507.266,64.5901,0,0.000885,0,0
0:4:34.464,508.031,64.6866,0,0.000885,0,0
0:4:34.765,509.143,64.8245,0,0.000885,0,0
0:4:35.061,509.379,64.859,0,0.000885,0,0
0:4:35.360,510.376,64.9831,0,0.000885,0,0
0:4:35.653,510.376,64.9831,0,0.000885,0,0
0:4:35.952,511.492,65.1279,0,0.000885,0,0
0:4:36.247,512.017,65.1899,0,0.000885,0,0
0:4:36.542,512.079,65.1968,0,0.000885,0,0
0:4:36.842,513.076,65.3278,0,0.000885,0,0
0:4:37.133,513.778,65.4175,0,0.000885,0,0
0:4:37.435,514.246,65.4726,0,0.000885,0,0
0:4:37.740,515.304,65.6105,0,0.000885,0,0
0:4:38.037,515.246,65.6036,0,0.000885,0,0
0:4:38.332,516.123,65.7139,0,0.000885,0,0
0:4:38.633,516.065,65.707,0,0.000885,0,0
0:4:38.938,517.181,65.8518,0,0.000885,0,0
0:4:39.239,517.706,65.9139,0,0.000885,0,0
0:4:39.539,518.823,66.0587,0,0.000885,0,0
0:4:39.838,518.938,66.0725,0,0.000885,0,0
0:4:40.133,519.997,66.2104,0,0.000885,0,0
0:4:40.431,520.291,66.2448,0,0.000885,0,0
0:4:40.732,520.936,66.3276,0,0.000885,0,0
0:4:41.032,521.225,66.362,0,0.000885,0,0
0:4:41.327,522.577,66.5344,0,0.000885,0,0
0:4:41.623,522.399,66.5137,0,0.000885,0,0
0:4:41.921,522.808,66.5689,0,0.000885,0,0
0:4:42.223,523.809,66.693,0,0.000885,0,0
0:4:42.523,524.748,66.8102,0,0.000885,0,0
0:4:42.824,524.686,66.8033,0,0.000885,0,0
0:4:43.123,525.041,66.8516,0,0.000885,0,0
0:4:43.420,525.802,66.9481,0,0.000885,0,0
0:4:43.720,526.976,67.0998,0,0.000885,0,0
0:4:44.023,526.914,67.086,0,0.000885,0,0
0:4:44.324,528.209,67.2515,0,0.000885,0,0
0:4:44.624,528.911,67.3411,0,0.000885,0,0
0:4:44.924,529.792,67.4583,0,0.000885,0,0
0:4:45.228,529.614,67.4307,0,0.000885,0,0
0:4:45.528,530.081,67.4928,0,0.000885,0,0
0:4:45.830,530.668,67.5686,0,0.000885,0,0
0:4:46.129,531.491,67.672,0,0.000885,0,0
0:4:46.425,532.252,67.7686,0,0.000885,0,0
0:4:46.720,532.897,67.8513,0,0.000885,0,0
0:4:47.027,533.368,67.9134,0,0.000885,0,0
0:4:47.321,533.368,67.9134,0,0.000885,0,0
0:4:47.619,534.249,68.0237,0,0.000885,0,0
0:4:47.914,534.658,68.0719,0,0.000885,0,0
0:4:48.214,535.188,68.1409,0,0.000885,0,0
0:4:48.517,535.77,68.2167,0,0.000885,0,0
0:4:48.815,536.242,68.2788,0,0.000885,0,0
0:4:49.117,537.532,68.4374,0,0.000885,0,0
0:4:49.416,537.826,68.4787,0,0.000885,0,0
0:4:49.721,538.061,68.5063,0,0.000885,0,0
0:4:50.027,538.88,68.6097,0,0.000885,0,0
0:4:50.342,539.173,68.6511,0,0.000885,0,0
0:4:50.642,540.29,68.789,0,0.000885,0,0
0:4:50.945,540.112,68.7683,0,0.000885,0,0
0:4:51.243,541.286,68.92,0,0.000885,0,0
0:4:51.537,542.341,69.051,0,0.000885,0,0
0:4:51.843,542.225,69.0372,0,0.000885,0,0
0:4:52.142,543.279,69.1751,0,0.000885,0,0
0:4:52.442,543.808,69.2372,0,0.000885,0,0
0:4:52.742,544.044,69.2716,0,0.000885,0,0
0:4:53.034,544.453,69.3199,0,0.000885,0,0
0:4:53.338,545.628,69.4716,0,0.000885,0,0
0:4:53.641,545.565,69.4647,0,0.000885,0,0
0:4:53.940,546.153,69.5405,0,0.000885,0,0
0:4:54.240,547.972,69.768,0,0.000885,0,0
0:4:54.538,548.208,69.8025,0,0.000885,0,0
0:4:54.835,548.088,69.7818,0,0.000885,0,0
0:4:55.130,549.146,69.9197,0,0.000885,0,0
0:4:55.425,549.44,69.9542,0,0.000885,0,0
0:4:55.722,549.791,70.0025,0,0.000885,0,0
0:4:56.026,550.61,70.1059,0,0.000885,0,0
0:4:56.326,551.313,70.1955,0,0.000885,0,0
0:4:56.627,551.548,70.2231,0,0.000885,0,0
0:4:56.934,552.607,70.361,0,0.000885,0,0
0:4:57.241,553.132,70.4299,0,0.000885,0,0
0:4:57.544,553.425,70.4644,0,0.000885,0,0
0:4:57.843,554.248,70.5678,0,0.000885,0,0
0:4:58.138,554.951,70.6575,0,0.000885,0,0
0:4:58.439,556.357,70.8367,0,0.000885,0,0
0:4:58.740,555.774,70.7609,0,0.000885,0,0
0:4:59.042,557.002,70.9195,0,0.000885,0,0
0:4:59.340,556.535,70.8574,0,0.000885,0,0
0:4:59.639,558.003,71.0436,0,0.000885,0,0
0:4:59.938,558.528,71.1125,0,0.000885,0,0
0:5:0.230,558.879,71.1608,0,0.000885,0,0
0:5:0.527,559.408,71.2228,0,0.000885,0,0
0:5:0.824,560.463,71.3607,0,0.000885,0,0
0:5:1.127,560.583,71.3745,0,0.000885,0,0
0:5:1.426,561.108,71.4435,0,0.000885,0,0
0:5:1.717,562.398,71.6089,0,0.000885,0,0
0:5:2.016,562.166,71.5745,0,0.000885,0,0
0:5:2.313,563.398,71.7331,0,0.000885,0,0
0:5:2.608,563.63,71.7606,0,0.000885,0,0
0:5:2.904,564.275,71.8434,0,0.000885,0,0
0:5:3.197,564.568,71.8847,0,0.000885,0,0
0:5:3.497,565.627,72.0157,0,0.000885,0,0
0:5:3.801,565.391,71.9882,0,0.000885,0,0
0:5:4.102,567.09,72.2019,0,0.000885,0,0
0:5:4.403,567.268,72.2295,0,0.000885,0,0
0:5:4.702,567.971,72.3191,0,0.000885,0,0
0:5:5.002,568.558,72.3881,0,0.000885,0,0
0:5:5.292,568.968,72.4432,0,0.000885,0,0
0:5:5.593,569.733,72.5397,0,0.000885,0,0
0:5:5.887,570.435,72.6294,0,0.000885,0,0
0:5:6.183,571.783,72.8017,0,0.000885,0,0
0:5:6.480,571.316,72.7397,0,0.000885,0,0
0:5:6.774,571.725,72.7948,0,0.000885,0,0
0:5:7.072,573.193,72.981,0,0.000885,0,0
0:5:7.364,573.545,73.0224,0,0.000885,0,0
0:5:7.663,572.958,72.9534,0,0.000885,0,0
0:5:7.957,574.363,73.1327,0,0.000885,0,0
0:5:8.257,574.599,73.1603,0,0.000885,0,0
0:5:8.560,575.595,73.2844,0,0.000885,0,0
0:5:8.860,576.361,73.3809,0,0.000885,0,0
0:5:9.160,576.067,73.3464,0,0.000885,0,0
0:5:9.460,577.357,73.5119,0,0.000885,0,0
0:5:9.759,577.415,73.5188,0,0.000885,0,0
0:5:10.054,578.411,73.6429,0,0.000885,0,0
0:5:10.349,579.114,73.7325,0,0.000885,0,0
0:5:10.647,579.056,73.7256,0,0.000885,0,0
0:5:10.941,580.23,73.8773,0,0.000885,0,0
0:5:11.240,580.173,73.8704,0,0.000885,0,0
0:5:11.543,581.872,74.0842,0,0.000885,0,0
0:5:11.839,582.339,74.1462,0,0.000885,0,0
0:5:12.134,582.575,74.1738,0,0.000885,0,0
0:5:12.436,583.22,74.2565,0,0.000885,0,0
0:5:12.735,582.926,74.2221,0,0.000885,0,0
0:5:13.029,584.158,74.3806,0,0.000885,0,0
0:5:13.330,584.278,74.3944,0,0.000885,0,0
0:5:13.633,585.626,74.5668,0,0.000885,0,0
0:5:13.933,585.684,74.5737,0,0.000885,0,0
0:5:14.235,587.032,74.7461,0,0.000885,0,0
0:5:14.533,587.913,74.8564,0,0.000885,0,0
0:5:14.833,587.855,74.8495,0,0.000885,0,0
0:5:15.147,588.735,74.9598,0,0.000885,0,0
0:5:15.444,588.909,74.9805,0,0.000885,0,0
0:5:15.737,589.26,75.0287,0,0.000885,0,0
0:5:16.033,590.377,75.1666,0,0.000885,0,0
0:5:16.332,590.319,75.1597,0,0.000885,0,0
0:5:16.626,591.08,75.2563,0,0.000885,0,0
0:5:16.927,591.845,75.3528,0,0.000885,0,0
0:5:17.224,591.903,75.3666,0,0.000885,0,0
0:5:17.522,592.957,75.4976,0,0.000885,0,0
0:5:17.819,593.25,75.5321,0,0.000885,0,0
0:5:18.126,594.661,75.7113,0,0.000885,0,0
0:5:18.425,594.425,75.6838,0,0.000885,0,0
0:5:18.730,595.248,75.7872,0,0.000885,0,0
0:5:19.032,596.186,75.9113,0,0.000885,0,0
0:5:19.335,596.244,75.9182,0,0.000885,0,0
0:5:19.636,597.774,76.1112,0,0.000885,0,0
0:5:19.936,597.418,76.063,0,0.000885,0,0
0:5:20.232,597.712,76.1043,0,0.000885,0,0
0:5:20.533,599.122,76.2836,0,0.000885,0,0
0:5:20.829,598.713,76.2284,0,0.000885,0,0
0:5:21.127,600.474,76.456,0,0.000885,0,0
0:5:21.424,600.118,76.4077,0,0.000885,0,0
0:5:21.720,601.471,76.5801,0,0.000885,0,0
0:5:22.022,601.351,76.5663,0,0.000885,0,0
0:5:22.316,602.525,76.718,0,0.000885,0,0
0:5:22.616,602.819,76.7524,0,0.000885,0,0
0:5:22.915,604.051,76.911,0,0.000885,0,0
0:5:23.216,604.464,76.9593,0,0.000885,0,0
0:5:23.521,604.229,76.9317,0,0.000885,0,0
0:5:23.823,605.403,77.0834,0,0.000885,0,0
0:5:24.126,605.167,77.0558,0,0.000885,0,0
0:5:24.429,606.755,77.2558,0,0.000885,0,0
0:5:24.727,606.577,77.2351,0,0.000885,0,0
0:5:25.025,607.752,77.3799,0,0.000885,0,0
0:5:25.328,608.339,77.4557,0,0.000885,0,0
0:5:25.630,608.806,77.5178,0,0.000885,0,0
0:5:25.934,609.807,77.6419,0,0.000885,0,0
0:5:26.233,609.513,77.6074,0,0.000885,0,0
0:5:26.530,610.51,77.7315,0,0.000885,0,0
0:5:26.828,611.097,77.8073,0,0.000885,0,0
0:5:27.128,611.742,77.8901,0,0.000885,0,0
0:5:27.422,612.738,78.0142,0,0.000885,0,0
0:5:27.724,613.21,78.0762,0,0.000885,0,0
0:5:28.029,613.094,78.0624,0,0.000885,0,0
0:5:28.332,614.5,78.2417,0,0.000885,0,0
0:5:28.636,615.38,78.352,0,0.000885,0,0
0:5:28.938,614.913,78.29,0,0.000885,0,0
0:5:29.242,615.852,78.4141,0,0.000885,0,0
0:5:29.544,616.848,78.5382,0,0.000885,0,0
0:5:29.841,616.612,78.5106,0,0.000885,0,0
0:5:30.143,617.613,78.6347,0,0.000885,0,0
0:5:30.445,618.61,78.7657,0,0.000885,0,0
0:5:30.747,618.845,78.7933,0,0.000885,0,0
0:5:31.043,619.019,78.814,0,0.000885,0,0
0:5:31.342,619.962,78.9381,0,0.000885,0,0
0:5:31.637,620.607,79.0208,0,0.000885,0,0
0:5:31.933,620.958,79.0622,0,0.000885,0,0
0:5:32.234,621.723,79.1587,0,0.000885,0,0
0:5:32.528,623.013,79.3242,0,0.000885,0,0
0:5:32.829,623.481,79.3862,0,0.000885,0,0
0:5:33.137,623.365,79.3724,0,0.000885,0,0
0:5:33.438,623.658,79.4069,0,0.000885,0,0
0:5:33.744,624.01,79.4483,0,0.000885,0,0
0:5:34.048,624.775,79.5517,0,0.000885,0,0
0:5:34.349,626.243,79.7379,0,0.000885,0,0
0:5:34.651,627.061,79.8413,0,0.000885,0,0
0:5:34.948,627.297,79.8689,0,0.000885,0,0
0:5:35.247,627.942,79.9516,0,0.000885,0,0
0:5:35.542,628.587,80.0343,0,0.000885,0,0
0:5:35.844,628.881,80.0688,0,0.000885,0,0
0:5:36.148,629.174,80.1102,0,0.000885,0,0
0:5:36.448,629.704,80.1791,0,0.000885,0,0
0:5:36.746,628.823,80.0619,0,0.000885,0,0
0:5:37.039,629.174,80.1102,0,0.000885,0,0
0:5:37.338,629.882,80.1998,0,0.000885,0,0
0:5:37.632,630.175,80.2343,0,0.000885,0,0
0:5:37.933,630.878,80.3239,0,0.000885,0,0
0:5:38.227,633.169,80.6204,0,0.000885,0,0
0:5:38.529,633.52,80.6618,0,0.000885,0,0
0:5:38.834,634.401,80.7721,0,0.000885,0,0
0:5:39.138,634.459,80.779,0,0.000885,0,0
0:5:39.443,636.398,81.0272,0,0.000885,0,0
0:5:39.742,636.923,81.0961,0,0.000885,0,0
0:5:40.040,636.923,81.0961,0,0.000885,0,0
0:5:40.336,637.746,81.1996,0,0.000885,0,0
0:5:40.644,638.333,81.2754,0,0.000885,0,0
0:5:40.944,639.743,81.4547,0,0.000885,0,0
0:5:41.250,640.21,81.5167,0,0.000885,0,0
0:5:41.547,641.149,81.6339,0,0.000885,0,0
0:5:41.846,641.563,81.6891,0,0.000885,0,0
0:5:42.138,641.149,81.6339,0,0.000885,0,0
0:5:42.399,627.884,79.9447,0,0.000885,0,0