File: DataFile2021-06-24_053022.csv
Test ID:,Date Tested:,Time:,Test Type:,Diameter Avg. (mm):,Cyl. Corr. Factor:,Height (mm):,Age (days):,Weight (kN):,Break Type:,Ramp Rate (MPa/s):,Load at Break (kN):,Stress at Break (MPa):
12,6/24/2021,05:30,Cylinder,150,1,300,0,3.6,3,0.25,1407.41,79.64
Sample Time,Load (kN),Stress (MPa),Long. Strain,Trans. Strain,Chan1 Deflection (mm),Chan2 Deflection (mm)
0:0:17.960,6.5122,0.365422,0,0.000885,0,0
0:0:18.260,11.9657,0.675686,0,0.000885,0,0
0:0:18.559,13.6649,0.772213,0,0.000885,0,0
0:0:18.863,12.9043,0.730844,0,0.000885,0,0
0:0:19.164,12.5529,0.71016,0,0.000885,0,0
0:0:19.458,12.3171,0.69637,0,0.000885,0,0
0:0:19.758,12.1392,0.689476,0,0.000885,0,0
0:0:20.064,13.2557,0.751529,0,0.000885,0,0
0:0:20.361,14.4879,0.820476,0,0.000885,0,0
0:0:20.661,16.4807,0.930792,0,0.000885,0,0
0:0:20.957,17.2413,0.979056,0,0.000885,0,0
0:0:21.258,19.0606,1.07558,0,0.000885,0,0
0:0:21.563,20.3506,1.15142,0,0.000885,0,0
0:0:21.862,21.4671,1.21348,0,0.000885,0,0
0:0:22.163,22.5792,1.27553,0,0.000885,0,0
0:0:22.460,24.6343,1.39274,0,0.000885,0,0
0:0:22.761,27.3877,1.55132,0,0.000885,0,0
0:0:23.066,28.8556,1.63406,0,0.000885,0,0
0:0:23.369,30.3235,1.71679,0,0.000885,0,0
0:0:23.674,31.9649,1.80643,0,0.000885,0,0
0:0:23.978,33.8421,1.91674,0,0.000885,0,0
0:0:24.280,34.9541,1.9788,0,0.000885,0,0
0:0:24.582,35.5991,2.01327,0,0.000885,0,0
0:0:24.884,36.5377,2.06843,0,0.000885,0,0
0:0:25.182,37.712,2.13737,0,0.000885,0,0
0:0:25.480,39.002,2.20632,0,0.000885,0,0
0:0:25.780,40.3498,2.28216,0,0.000885,0,0
0:0:26.076,40.937,2.31664,0,0.000885,0,0
0:0:26.378,41.8756,2.3718,0,0.000885,0,0
0:0:26.675,44.1619,2.4959,0,0.000885,0,0
0:0:26.976,45.0427,2.55106,0,0.000885,0,0
0:0:27.273,46.4528,2.6269,0,0.000885,0,0
0:0:27.572,47.6227,2.69585,0,0.000885,0,0
0:0:27.872,49.1484,2.77859,0,0.000885,0,0
0:0:28.168,50.5585,2.86132,0,0.000885,0,0
0:0:28.470,51.9063,2.93717,0,0.000885,0,0
0:0:28.775,52.9605,2.99922,0,0.000885,0,0
0:0:29.078,54.6019,3.08885,0,0.000885,0,0
0:0:29.382,56.5992,3.20606,0,0.000885,0,0
0:0:29.684,57.8313,3.27501,0,0.000885,0,0
0:0:29.986,59.0012,3.33706,0,0.000885,0,0
0:0:30.284,59.8241,3.38533,0,0.000885,0,0
0:0:30.583,60.7627,3.44048,0,0.000885,0,0
0:0:30.884,63.227,3.57838,0,0.000885,0,0
0:0:31.179,64.2813,3.64043,0,0.000885,0,0
0:0:31.481,65.2198,3.6887,0,0.000885,0,0
0:0:31.777,66.1584,3.74385,0,0.000885,0,0
0:0:32.077,68.387,3.86796,0,0.000885,0,0
0:0:32.375,69.3255,3.92312,0,0.000885,0,0
0:0:32.674,70.9091,4.01275,0,0.000885,0,0
0:0:32.974,71.8477,4.06791,0,0.000885,0,0
0:0:33.268,72.6661,4.10928,0,0.000885,0,0
0:0:33.572,74.7791,4.23338,0,0.000885,0,0
0:0:33.876,75.7755,4.28854,0,0.000885,0,0
0:0:34.179,76.3626,4.32301,0,0.000885,0,0
0:0:34.483,77.8884,4.40575,0,0.000885,0,0
0:0:34.784,80.2904,4.54365,0,0.000885,0,0
0:0:35.086,80.7041,4.56433,0,0.000885,0,0
0:0:35.381,82.2877,4.65396,0,0.000885,0,0
0:0:35.680,83.5776,4.7298,0,0.000885,0,0
0:0:35.981,85.0411,4.81254,0,0.000885,0,0
0:0:36.278,86.6247,4.90217,0,0.000885,0,0
0:0:36.580,87.0384,4.92286,0,0.000885,0,0
0:0:36.876,88.9733,5.03317,0,0.000885,0,0
0:0:37.177,90.8505,5.14349,0,0.000885,0,0
0:0:37.474,92.0248,5.20554,0,0.000885,0,0
0:0:37.772,94.1333,5.32965,0,0.000885,0,0
0:0:38.073,94.7204,5.35723,0,0.000885,0,0
0:0:38.378,95.6012,5.41238,0,0.000885,0,0
0:0:38.681,96.6554,5.46754,0,0.000885,0,0
0:0:38.984,98.7683,5.59165,0,0.000885,0,0
0:0:39.287,99.4133,5.62612,0,0.000885,0,0
0:0:39.590,100.877,5.70886,0,0.000885,0,0
0:0:39.885,101.642,5.75023,0,0.000885,0,0
0:0:40.188,103.168,5.83986,0,0.000885,0,0
0:0:40.485,104.515,5.9157,0,0.000885,0,0
0:0:40.783,106.277,6.01223,0,0.000885,0,0
0:0:41.084,107.683,6.09497,0,0.000885,0,0
0:0:41.381,109.502,6.19839,0,0.000885,0,0
0:0:41.684,110.908,6.27423,0,0.000885,0,0
0:0:41.980,112.197,6.35007,0,0.000885,0,0
0:0:42.280,113.02,6.39833,0,0.000885,0,0
0:0:42.580,114.075,6.45349,0,0.000885,0,0
0:0:42.875,115.013,6.50865,0,0.000885,0,0
0:0:43.179,116.833,6.61207,0,0.000885,0,0
0:0:43.482,117.945,6.67413,0,0.000885,0,0
0:0:43.787,119.355,6.75686,0,0.000885,0,0
0:0:44.089,120.702,6.8327,0,0.000885,0,0
0:0:44.391,122.695,6.94302,0,0.000885,0,0
0:0:44.695,123.87,7.01197,0,0.000885,0,0
0:0:44.991,125.395,7.09471,0,0.000885,0,0
0:0:45.292,126.507,7.15676,0,0.000885,0,0
0:0:45.591,127.215,7.19813,0,0.000885,0,0
0:0:45.889,128.505,7.27397,0,0.000885,0,0
0:0:46.189,130.204,7.3705,0,0.000885,0,0
0:0:46.485,131.085,7.41876,0,0.000885,0,0
0:0:46.787,131.903,7.46702,0,0.000885,0,0
0:0:47.085,133.607,7.56355,0,0.000885,0,0
0:0:47.383,136.071,7.70144,0,0.000885,0,0
0:0:47.685,137.068,7.7566,0,0.000885,0,0
0:0:47.980,138.651,7.84623,0,0.000885,0,0
0:0:48.283,139.999,7.92208,0,0.000885,0,0
0:0:48.589,141.053,7.98413,0,0.000885,0,0
0:0:48.893,142.05,8.03929,0,0.000885,0,0
0:0:49.196,143.166,8.10134,0,0.000885,0,0
0:0:49.497,144.514,8.17718,0,0.000885,0,0
0:0:49.801,145.573,8.23923,0,0.000885,0,0
0:0:50.096,147.33,8.33576,0,0.000885,0,0
0:0:50.396,148.677,8.4116,0,0.000885,0,0
0:0:50.696,149.678,8.46676,0,0.000885,0,0
0:0:50.992,150.968,8.5426,0,0.000885,0,0
0:0:51.294,153.134,8.66671,0,0.000885,0,0
0:0:51.590,154.309,8.72876,0,0.000885,0,0
0:0:51.892,155.363,8.79082,0,0.000885,0,0
0:0:52.189,156.537,8.85976,0,0.000885,0,0
0:0:52.486,157.77,8.92871,0,0.000885,0,0
0:0:52.787,159.295,9.01145,0,0.000885,0,0
0:0:53.082,160.763,9.09418,0,0.000885,0,0
0:0:53.386,161.991,9.17003,0,0.000885,0,0
0:0:53.690,162.929,9.21829,0,0.000885,0,0
0:0:53.994,164.455,9.30792,0,0.000885,0,0
0:0:54.296,166.097,9.39755,0,0.000885,0,0
0:0:54.600,167.097,9.45271,0,0.000885,0,0
0:0:54.901,168.387,9.52855,0,0.000885,0,0
0:0:55.200,169.971,9.61819,0,0.000885,0,0
0:0:55.498,171.786,9.72161,0,0.000885,0,0
0:0:55.799,172.96,9.79056,0,0.000885,0,0
0:0:56.094,173.957,9.84571,0,0.000885,0,0
0:0:56.396,174.837,9.89398,0,0.000885,0,0
0:0:56.692,176.127,9.96982,0,0.000885,0,0
0:0:56.993,178.004,10.0732,0,0.000885,0,0
0:0:57.291,179.237,10.1422,0,0.000885,0,0
0:0:57.587,180.527,10.218,0,0.000885,0,0
0:0:57.890,181.701,10.2801,0,0.000885,0,0
0:0:58.185,182.991,10.3559,0,0.000885,0,0
0:0:58.489,184.045,10.418,0,0.000885,0,0
0:0:58.793,185.629,10.5076,0,0.000885,0,0
0:0:59.097,187.097,10.5903,0,0.000885,0,0
0:0:59.401,188.267,10.6524,0,0.000885,0,0
0:0:59.703,189.85,10.742,0,0.000885,0,0
0:1:0.003,191.082,10.811,0,0.000885,0,0
0:1:0.301,192.492,10.8937,0,0.000885,0,0
0:1:0.598,193.369,10.942,0,0.000885,0,0
0:1:0.896,194.721,11.0178,0,0.000885,0,0
0:1:1.191,196.714,11.135,0,0.000885,0,0
0:1:1.492,197.946,11.204,0,0.000885,0,0
0:1:1.785,199,11.2591,0,0.000885,0,0
0:1:2.081,200.468,11.3419,0,0.000885,0,0
0:1:2.379,201.171,11.3832,0,0.000885,0,0
0:1:2.675,203.048,11.4936,0,0.000885,0,0
0:1:2.974,204.28,11.5625,0,0.000885,0,0
0:1:3.268,205.392,11.6246,0,0.000885,0,0
0:1:3.567,206.451,11.6797,0,0.000885,0,0
0:1:3.870,207.914,11.7625,0,0.000885,0,0
0:1:4.173,209.56,11.859,0,0.000885,0,0
0:1:4.473,210.966,11.9348,0,0.000885,0,0
0:1:4.774,212.256,12.0107,0,0.000885,0,0
0:1:5.073,213.666,12.0934,0,0.000885,0,0
0:1:5.370,215.249,12.183,0,0.000885,0,0
0:1:5.667,216.713,12.2658,0,0.000885,0,0
0:1:5.965,217.945,12.3347,0,0.000885,0,0
0:1:6.267,218.768,12.383,0,0.000885,0,0
0:1:6.568,219.822,12.4381,0,0.000885,0,0
0:1:6.862,221.406,12.5278,0,0.000885,0,0
0:1:7.160,222.696,12.6036,0,0.000885,0,0
0:1:7.466,223.87,12.6657,0,0.000885,0,0
0:1:7.761,225.16,12.7415,0,0.000885,0,0
0:1:8.061,226.392,12.8105,0,0.000885,0,0
0:1:8.363,228.034,12.907,0,0.000885,0,0
0:1:8.665,229.853,13.0035,0,0.000885,0,0
0:1:8.968,230.965,13.0725,0,0.000885,0,0
0:1:9.268,231.846,13.1207,0,0.000885,0,0
0:1:9.570,234.074,13.2448,0,0.000885,0,0
0:1:9.870,235.013,13.3,0,0.000885,0,0
0:1:10.171,236.419,13.3758,0,0.000885,0,0
0:1:10.466,237.477,13.4379,0,0.000885,0,0
0:1:10.761,238.767,13.5137,0,0.000885,0,0
0:1:11.061,239.937,13.5758,0,0.000885,0,0
0:1:11.364,241.521,13.6654,0,0.000885,0,0
0:1:11.663,242.108,13.6999,0,0.000885,0,0
0:1:11.953,243.754,13.7964,0,0.000885,0,0
0:1:12.264,245.275,13.8791,0,0.000885,0,0
0:1:12.562,246.916,13.9757,0,0.000885,0,0
0:1:12.864,248.211,14.0446,0,0.000885,0,0
0:1:13.165,249.149,14.0998,0,0.000885,0,0
0:1:13.467,250.319,14.1618,0,0.000885,0,0
0:1:13.770,252.316,14.279,0,0.000885,0,0
0:1:14.070,253.313,14.3342,0,0.000885,0,0
0:1:14.372,254.661,14.41,0,0.000885,0,0
0:1:14.672,256.129,14.4928,0,0.000885,0,0
0:1:14.965,256.889,14.5341,0,0.000885,0,0
0:1:15.265,258.651,14.6376,0,0.000885,0,0
0:1:15.561,259.647,14.6927,0,0.000885,0,0
0:1:15.865,260.995,14.7686,0,0.000885,0,0
0:1:16.164,262.463,14.8513,0,0.000885,0,0
0:1:16.456,263.281,14.8996,0,0.000885,0,0
0:1:16.767,265.452,15.0237,0,0.000885,0,0
0:1:17.063,266.742,15.0926,0,0.000885,0,0
0:1:17.368,267.796,15.1547,0,0.000885,0,0
0:1:17.667,268.677,15.2029,0,0.000885,0,0
0:1:17.957,270.732,15.3202,0,0.000885,0,0
0:1:18.258,271.902,15.3891,0,0.000885,0,0
0:1:18.562,272.667,15.4305,0,0.000885,0,0
0:1:18.865,274.366,15.527,0,0.000885,0,0
0:1:19.164,275.363,15.5822,0,0.000885,0,0
0:1:19.465,277.182,15.6856,0,0.000885,0,0
0:1:19.766,278.881,15.7821,0,0.000885,0,0
0:1:20.058,279.646,15.8235,0,0.000885,0,0
0:1:20.369,280.994,15.8993,0,0.000885,0,0
0:1:20.666,282.813,16.0027,0,0.000885,0,0
0:1:20.957,284.219,16.0855,0,0.000885,0,0
0:1:21.257,284.984,16.1268,0,0.000885,0,0
0:1:21.565,286.39,16.2096,0,0.000885,0,0
0:1:21.861,287.213,16.2509,0,0.000885,0,0
0:1:22.155,288.97,16.3544,0,0.000885,0,0
0:1:22.462,290.202,16.4233,0,0.000885,0,0
0:1:22.764,291.025,16.4716,0,0.000885,0,0
0:1:23.065,292.551,16.5543,0,0.000885,0,0
0:1:23.367,294.308,16.6577,0,0.000885,0,0
0:1:23.669,295.718,16.7336,0,0.000885,0,0
0:1:23.971,297.123,16.8163,0,0.000885,0,0
0:1:24.272,298.356,16.8853,0,0.000885,0,0
0:1:24.572,299.588,16.9542,0,0.000885,0,0
0:1:24.872,301.113,17.0369,0,0.000885,0,0
0:1:25.168,302.635,17.1266,0,0.000885,0,0
0:1:25.462,303.458,17.1748,0,0.000885,0,0
0:1:25.759,304.926,17.2576,0,0.000885,0,0
0:1:26.065,306.158,17.3265,0,0.000885,0,0
0:1:26.365,308.093,17.4368,0,0.000885,0,0
0:1:26.669,309.031,17.4851,0,0.000885,0,0
0:1:26.966,310.379,17.5609,0,0.000885,0,0
0:1:27.264,311.905,17.6506,0,0.000885,0,0
0:1:27.568,313.368,17.7333,0,0.000885,0,0
0:1:27.868,314.307,17.7885,0,0.000885,0,0
0:1:28.159,315.481,17.8505,0,0.000885,0,0
0:1:28.462,316.713,17.9195,0,0.000885,0,0
0:1:28.764,317.594,17.9746,0,0.000885,0,0
0:1:29.067,319.409,18.0781,0,0.000885,0,0
0:1:29.367,320.993,18.1677,0,0.000885,0,0
0:1:29.665,322.051,18.2228,0,0.000885,0,0
0:1:29.964,323.105,18.2849,0,0.000885,0,0
0:1:30.259,325.512,18.4228,0,0.000885,0,0
0:1:30.567,326.157,18.4573,0,0.000885,0,0
0:1:30.865,327.678,18.54,0,0.000885,0,0
0:1:31.157,328.443,18.5883,0,0.000885,0,0
0:1:31.458,329.733,18.6572,0,0.000885,0,0
0:1:31.759,331.495,18.7606,0,0.000885,0,0
0:1:32.058,332.958,18.8434,0,0.000885,0,0
0:1:32.367,334.075,18.9054,0,0.000885,0,0
0:1:32.659,335.716,18.9951,0,0.000885,0,0
0:1:32.958,336.125,19.0226,0,0.000885,0,0
0:1:33.264,337.945,19.1261,0,0.000885,0,0
0:1:33.566,339.47,19.2088,0,0.000885,0,0
0:1:33.868,340.525,19.2708,0,0.000885,0,0
0:1:34.169,341.579,19.3329,0,0.000885,0,0
0:1:34.470,343.398,19.4294,0,0.000885,0,0
0:1:34.770,344.746,19.5122,0,0.000885,0,0
0:1:35.070,345.92,19.5742,0,0.000885,0,0
0:1:35.363,347.037,19.6363,0,0.000885,0,0
0:1:35.660,348.265,19.7052,0,0.000885,0,0
0:1:35.955,350.729,19.85,0,0.000885,0,0
0:1:36.260,351.845,19.9121,0,0.000885,0,0
0:1:36.559,352.957,19.9741,0,0.000885,0,0
0:1:36.864,354.247,20.0431,0,0.000885,0,0
0:1:37.163,355.893,20.1396,0,0.000885,0,0
0:1:37.469,356.712,20.1878,0,0.000885,0,0
0:1:37.765,357.415,20.2223,0,0.000885,0,0
0:1:38.064,358.94,20.312,0,0.000885,0,0
0:1:38.365,359.937,20.3671,0,0.000885,0,0
0:1:38.670,362.165,20.4912,0,0.000885,0,0
0:1:38.969,363.162,20.5533,0,0.000885,0,0
0:1:39.270,364.394,20.6222,0,0.000885,0,0
0:1:39.570,365.626,20.6912,0,0.000885,0,0
0:1:39.864,367.036,20.767,0,0.000885,0,0
0:1:40.165,368.851,20.8704,0,0.000885,0,0
0:1:40.467,370.261,20.9532,0,0.000885,0,0
0:1:40.767,371.2,21.0083,0,0.000885,0,0
0:1:41.059,372.725,21.0911,0,0.000885,0,0
0:1:41.367,374.015,21.1669,0,0.000885,0,0
0:1:41.667,374.834,21.2083,0,0.000885,0,0
0:1:41.969,376.186,21.291,0,0.000885,0,0
0:1:42.270,377.534,21.3669,0,0.000885,0,0
0:1:42.561,378.766,21.4358,0,0.000885,0,0
0:1:42.861,380.643,21.5392,0,0.000885,0,0
0:1:43.168,382.049,21.622,0,0.000885,0,0
0:1:43.469,383.223,21.684,0,0.000885,0,0
0:1:43.770,384.162,21.7392,0,0.000885,0,0
0:1:44.073,386.039,21.8426,0,0.000885,0,0
0:1:44.373,386.857,21.8909,0,0.000885,0,0
0:1:44.674,388.21,21.9667,0,0.000885,0,0
0:1:44.971,389.264,22.0287,0,0.000885,0,0
0:1:45.269,390.67,22.1046,0,0.000885,0,0
0:1:45.561,392.667,22.2218,0,0.000885,0,0
0:1:45.861,393.605,22.2701,0,0.000885,0,0
0:1:46.166,394.953,22.3528,0,0.000885,0,0
0:1:46.472,396.537,22.4424,0,0.000885,0,0
0:1:46.769,398.12,22.5321,0,0.000885,0,0
0:1:47.065,399.468,22.6079,0,0.000885,0,0
0:1:47.364,400.407,22.6562,0,0.000885,0,0
0:1:47.666,402.226,22.7596,0,0.000885,0,0
0:1:47.965,402.751,22.7941,0,0.000885,0,0
0:1:48.270,404.864,22.9113,0,0.000885,0,0
0:1:48.572,406.096,22.9802,0,0.000885,0,0
0:1:48.875,407.035,23.0354,0,0.000885,0,0
0:1:49.175,408.267,23.1043,0,0.000885,0,0
0:1:49.476,410.144,23.2078,0,0.000885,0,0
0:1:49.775,410.611,23.2353,0,0.000885,0,0
0:1:50.074,412.43,23.3388,0,0.000885,0,0
0:1:50.372,413.253,23.387,0,0.000885,0,0
0:1:50.667,414.423,23.4491,0,0.000885,0,0
0:1:50.962,416.064,23.5456,0,0.000885,0,0
0:1:51.268,417.826,23.6421,0,0.000885,0,0
0:1:51.568,418.707,23.6973,0,0.000885,0,0
0:1:51.871,420.112,23.7731,0,0.000885,0,0
0:1:52.168,421.402,23.849,0,0.000885,0,0
0:1:52.474,423.573,23.9662,0,0.000885,0,0
0:1:52.768,424.747,24.0351,0,0.000885,0,0
0:1:53.068,425.922,24.1041,0,0.000885,0,0
0:1:53.371,426.74,24.1454,0,0.000885,0,0
0:1:53.673,428.502,24.2489,0,0.000885,0,0
0:1:53.974,429.382,24.2971,0,0.000885,0,0
0:1:54.276,430.904,24.3868,0,0.000885,0,0
0:1:54.577,432.078,24.4488,0,0.000885,0,0
0:1:54.876,433.546,24.5315,0,0.000885,0,0
0:1:55.177,434.836,24.6074,0,0.000885,0,0
0:1:55.471,436.242,24.6832,0,0.000885,0,0
0:1:55.768,436.944,24.7246,0,0.000885,0,0
0:1:56.065,438.822,24.8349,0,0.000885,0,0
0:1:56.367,439.529,24.8694,0,0.000885,0,0
0:1:56.668,441.17,24.9659,0,0.000885,0,0
0:1:56.960,442.696,25.0487,0,0.000885,0,0
0:1:57.258,444.159,25.1314,0,0.000885,0,0
0:1:57.562,445.218,25.1934,0,0.000885,0,0
0:1:57.859,446.739,25.2831,0,0.000885,0,0
0:1:58.169,448.443,25.3796,0,0.000885,0,0
0:1:58.472,449.675,25.4485,0,0.000885,0,0
0:1:58.774,450.845,25.5106,0,0.000885,0,0
0:1:59.074,451.904,25.5727,0,0.000885,0,0
0:1:59.374,453.661,25.6692,0,0.000885,0,0
0:1:59.676,454.542,25.7243,0,0.000885,0,0
0:1:59.971,456.419,25.8278,0,0.000885,0,0
0:2:0.271,457.237,25.876,0,0.000885,0,0
0:2:0.573,459.114,25.9794,0,0.000885,0,0
0:2:0.873,459.879,26.0208,0,0.000885,0,0
0:2:1.168,461.463,26.1104,0,0.000885,0,0
0:2:1.461,462.459,26.1725,0,0.000885,0,0
0:2:1.760,463.985,26.2552,0,0.000885,0,0
0:2:2.075,465.155,26.3242,0,0.000885,0,0
0:2:2.375,466.739,26.4138,0,0.000885,0,0
0:2:2.669,467.797,26.469,0,0.000885,0,0
0:2:2.966,468.972,26.5379,0,0.000885,0,0
0:2:3.262,470.262,26.6138,0,0.000885,0,0
0:2:3.566,472.428,26.731,0,0.000885,0,0
0:2:3.869,473.602,26.7999,0,0.000885,0,0
0:2:4.170,474.599,26.8551,0,0.000885,0,0
0:2:4.470,475.657,26.9171,0,0.000885,0,0
0:2:4.772,477.708,27.0343,0,0.000885,0,0
0:2:5.066,478.589,27.0826,0,0.000885,0,0
0:2:5.367,479.879,27.1584,0,0.000885,0,0
0:2:5.669,480.817,27.2067,0,0.000885,0,0
0:2:5.969,482.401,27.2963,0,0.000885,0,0
0:2:6.273,484.042,27.3929,0,0.000885,0,0
0:2:6.571,485.684,27.4825,0,0.000885,0,0
0:2:6.867,486.742,27.5446,0,0.000885,0,0
0:2:7.171,487.912,27.6135,0,0.000885,0,0
0:2:7.472,489.38,27.6962,0,0.000885,0,0
0:2:7.762,491.137,27.7928,0,0.000885,0,0
0:2:8.061,491.666,27.8203,0,0.000885,0,0
0:2:8.355,492.605,27.8755,0,0.000885,0,0
0:2:8.658,493.953,27.9513,0,0.000885,0,0
0:2:8.961,496.181,28.0755,0,0.000885,0,0
0:2:9.263,497.356,28.1444,0,0.000885,0,0
0:2:9.562,498.294,28.1996,0,0.000885,0,0
0:2:9.863,499.469,28.2616,0,0.000885,0,0
0:2:10.171,501.404,28.3719,0,0.000885,0,0
0:2:10.469,503.045,28.4685,0,0.000885,0,0
0:2:10.772,503.868,28.5098,0,0.000885,0,0
0:2:11.072,504.806,28.565,0,0.000885,0,0
0:2:11.374,506.506,28.6615,0,0.000885,0,0
0:2:11.675,507.974,28.7442,0,0.000885,0,0
0:2:11.970,509.086,28.8063,0,0.000885,0,0
0:2:12.274,510.14,28.8683,0,0.000885,0,0
0:2:12.574,511.844,28.9649,0,0.000885,0,0
0:2:12.867,513.133,29.0407,0,0.000885,0,0
0:2:13.168,514.953,29.1372,0,0.000885,0,0
0:2:13.471,515.478,29.1717,0,0.000885,0,0
0:2:13.772,517.355,29.2751,0,0.000885,0,0
0:2:14.074,517.769,29.3027,0,0.000885,0,0
0:2:14.374,520.171,29.4337,0,0.000885,0,0
0:2:14.675,521.287,29.4958,0,0.000885,0,0
0:2:14.969,522.399,29.5647,0,0.000885,0,0
0:2:15.268,523.164,29.6061,0,0.000885,0,0
0:2:15.572,524.686,29.6888,0,0.000885,0,0
0:2:15.869,526.447,29.7922,0,0.000885,0,0
0:2:16.176,527.501,29.8474,0,0.000885,0,0
0:2:16.470,528.733,29.9232,0,0.000885,0,0
0:2:16.770,530.317,30.0129,0,0.000885,0,0
0:2:17.063,531.433,30.0749,0,0.000885,0,0
0:2:17.359,532.839,30.1508,0,0.000885,0,0
0:2:17.668,534.249,30.2335,0,0.000885,0,0
0:2:17.972,535.655,30.3094,0,0.000885,0,0
0:2:18.272,536.887,30.3783,0,0.000885,0,0
0:2:18.577,538.764,30.4886,0,0.000885,0,0
0:2:18.877,539.938,30.5576,0,0.000885,0,0
0:2:19.176,541.051,30.6196,0,0.000885,0,0
0:2:19.477,541.696,30.6541,0,0.000885,0,0
0:2:19.776,543.043,30.7299,0,0.000885,0,0
0:2:20.072,545.098,30.8471,0,0.000885,0,0
0:2:20.371,545.917,30.8954,0,0.000885,0,0
0:2:20.674,546.976,30.9506,0,0.000885,0,0
0:2:20.971,548.439,31.0333,0,0.000885,0,0
0:2:21.270,549.556,31.0954,0,0.000885,0,0
0:2:21.572,551.726,31.2195,0,0.000885,0,0
0:2:21.872,552.958,31.2884,0,0.000885,0,0
0:2:22.174,554.128,31.3574,0,0.000885,0,0
0:2:22.474,555.303,31.4263,0,0.000885,0,0
0:2:22.769,557.064,31.5228,0,0.000885,0,0
0:2:23.062,558.47,31.6056,0,0.000885,0,0
0:2:23.361,559.057,31.6331,0,0.000885,0,0
0:2:23.661,560.463,31.7159,0,0.000885,0,0
0:2:23.964,561.637,31.7848,0,0.000885,0,0
0:2:24.265,563.398,31.8814,0,0.000885,0,0
0:2:24.568,564.453,31.9434,0,0.000885,0,0
0:2:24.865,565.8,32.0193,0,0.000885,0,0
0:2:25.161,567.09,32.0882,0,0.000885,0,0
0:2:25.460,568.732,32.1847,0,0.000885,0,0
0:2:25.763,570.084,32.2606,0,0.000885,0,0
0:2:26.061,571.841,32.3571,0,0.000885,0,0
0:2:26.356,572.722,32.4123,0,0.000885,0,0
0:2:26.663,573.603,32.4605,0,0.000885,0,0
0:2:26.962,575.711,32.5777,0,0.000885,0,0
0:2:27.264,576.885,32.6467,0,0.000885,0,0
0:2:27.564,578.002,32.7087,0,0.000885,0,0
0:2:27.869,579.172,32.7777,0,0.000885,0,0
0:2:28.165,580.991,32.8742,0,0.000885,0,0
0:2:28.473,582.223,32.95,0,0.000885,0,0
0:2:28.774,583.046,32.9914,0,0.000885,0,0
0:2:29.077,585.039,33.1086,0,0.000885,0,0
0:2:29.378,585.448,33.1293,0,0.000885,0,0
0:2:29.678,587.561,33.2465,0,0.000885,0,0
0:2:29.980,589.087,33.3362,0,0.000885,0,0
0:2:30.277,590.025,33.3913,0,0.000885,0,0
0:2:30.577,591.022,33.4465,0,0.000885,0,0
0:2:30.872,592.783,33.543,0,0.000885,0,0
0:2:31.174,593.722,33.5982,0,0.000885,0,0
0:2:31.466,595.31,33.6878,0,0.000885,0,0
0:2:31.766,596.306,33.7429,0,0.000885,0,0
0:2:32.064,597.539,33.8119,0,0.000885,0,0
0:2:32.360,599.3,33.9153,0,0.000885,0,0
0:2:32.661,600.296,33.9705,0,0.000885,0,0
0:2:32.966,601.822,34.0532,0,0.000885,0,0
0:2:33.270,603.232,34.1359,0,0.000885,0,0
0:2:33.576,603.762,34.1635,0,0.000885,0,0
0:2:33.878,605.932,34.2876,0,0.000885,0,0
0:2:34.180,606.813,34.3359,0,0.000885,0,0
0:2:34.483,608.223,34.4186,0,0.000885,0,0
0:2:34.784,609.691,34.5014,0,0.000885,0,0
0:2:35.081,611.159,34.5841,0,0.000885,0,0
0:2:35.380,612.449,34.6599,0,0.000885,0,0
0:2:35.677,613.917,34.7427,0,0.000885,0,0
0:2:35.972,615.091,34.8047,0,0.000885,0,0
0:2:36.274,615.91,34.853,0,0.000885,0,0
0:2:36.566,617.907,34.9633,0,0.000885,0,0
0:2:36.869,619.433,35.0529,0,0.000885,0,0
0:2:37.163,620.491,35.115,0,0.000885,0,0
0:2:37.461,621.781,35.1839,0,0.000885,0,0
0:2:37.762,622.72,35.2391,0,0.000885,0,0
0:2:38.065,624.246,35.3218,0,0.000885,0,0
0:2:38.370,625.54,35.3977,0,0.000885,0,0
0:2:38.675,626.301,35.4391,0,0.000885,0,0
0:2:38.977,627.769,35.5218,0,0.000885,0,0
0:2:39.279,630.175,35.6597,0,0.000885,0,0
0:2:39.581,630.94,35.7011,0,0.000885,0,0
0:2:39.883,632.288,35.7769,0,0.000885,0,0
0:2:40.177,633.405,35.8458,0,0.000885,0,0
0:2:40.480,635.402,35.9562,0,0.000885,0,0
0:2:40.775,636.75,36.032,0,0.000885,0,0
0:2:41.072,637.808,36.0941,0,0.000885,0,0
0:2:41.371,638.689,36.1423,0,0.000885,0,0
0:2:41.677,639.859,36.2113,0,0.000885,0,0
0:2:41.977,642.15,36.3354,0,0.000885,0,0
0:2:42.271,642.795,36.3767,0,0.000885,0,0
0:2:42.572,644.147,36.4526,0,0.000885,0,0
0:2:42.871,645.437,36.5215,0,0.000885,0,0
0:2:43.175,646.905,36.6043,0,0.000885,0,0
0:2:43.477,648.902,36.7215,0,0.000885,0,0
0:2:43.779,649.254,36.7422,0,0.000885,0,0
0:2:44.083,650.544,36.8111,0,0.000885,0,0
0:2:44.385,651.482,36.8663,0,0.000885,0,0
0:2:44.687,653.657,36.9904,0,0.000885,0,0
0:2:44.988,654.769,37.0524,0,0.000885,0,0
0:2:45.282,656.179,37.1352,0,0.000885,0,0
0:2:45.584,657.647,37.2179,0,0.000885,0,0
0:2:45.879,658.822,37.28,0,0.000885,0,0
0:2:46.180,660.29,37.3627,0,0.000885,0,0
0:2:46.476,661.17,37.4178,0,0.000885,0,0
0:2:46.774,662.754,37.5075,0,0.000885,0,0
0:2:47.074,664.044,37.5764,0,0.000885,0,0
0:2:47.366,665.276,37.6454,0,0.000885,0,0
0:2:47.670,667.389,37.7695,0,0.000885,0,0
0:2:47.964,668.096,37.804,0,0.000885,0,0
0:2:48.266,668.919,37.8522,0,0.000885,0,0
0:2:48.573,670.209,37.9281,0,0.000885,0,0
0:2:48.875,672.202,38.0384,0,0.000885,0,0
0:2:49.177,673.67,38.1211,0,0.000885,0,0
0:2:49.479,674.906,38.1901,0,0.000885,0,0
0:2:49.778,676.018,38.2521,0,0.000885,0,0
0:2:50.076,677.019,38.3142,0,0.000885,0,0
0:2:50.373,679.07,38.4245,0,0.000885,0,0
0:2:50.673,680.244,38.4934,0,0.000885,0,0
0:2:50.965,681.245,38.5486,0,0.000885,0,0
0:2:51.267,682.299,38.6106,0,0.000885,0,0
0:2:51.562,683.474,38.6796,0,0.000885,0,0
0:2:51.860,685.529,38.7899,0,0.000885,0,0
0:2:52.161,686.645,38.8589,0,0.000885,0,0
0:2:52.465,687.757,38.9209,0,0.000885,0,0
0:2:52.765,688.758,38.9761,0,0.000885,0,0
0:2:53.061,690.635,39.0795,0,0.000885,0,0
0:2:53.363,691.925,39.1553,0,0.000885,0,0
0:2:53.667,692.806,39.2036,0,0.000885,0,0
0:2:53.972,694.452,39.3001,0,0.000885,0,0
0:2:54.274,695.684,39.3691,0,0.000885,0,0
0:2:54.576,697.325,39.4587,0,0.000885,0,0
0:2:54.876,698.033,39.5001,0,0.000885,0,0
0:2:55.172,699.323,39.5759,0,0.000885,0,0
0:2:55.472,700.439,39.638,0,0.000885,0,0
0:2:55.771,702.374,39.7483,0,0.000885,0,0
0:2:56.075,703.842,39.831,0,0.000885,0,0
0:2:56.376,705.132,39.9,0,0.000885,0,0
0:2:56.671,706.369,39.9689,0,0.000885,0,0
0:2:56.972,707.774,40.0516,0,0.000885,0,0
0:2:57.277,709.184,40.1344,0,0.000885,0,0
0:2:57.576,710.595,40.2102,0,0.000885,0,0
0:2:57.875,711.942,40.2861,0,0.000885,0,0
0:2:58.168,712.823,40.3343,0,0.000885,0,0
0:2:58.469,714.175,40.4171,0,0.000885,0,0
0:2:58.776,715.643,40.4998,0,0.000885,0,0
0:2:59.077,716.818,40.5619,0,0.000885,0,0
0:2:59.379,718.108,40.6377,0,0.000885,0,0
0:2:59.680,719.691,40.7273,0,0.000885,0,0
0:2:59.984,721.159,40.8101,0,0.000885,0,0
0:3:0.279,722.685,40.8928,0,0.000885,0,0
0:3:0.580,723.45,40.9411,0,0.000885,0,0
0:3:0.876,724.856,41.0169,0,0.000885,0,0
0:3:1.173,726.03,41.0859,0,0.000885,0,0
0:3:1.472,727.498,41.1686,0,0.000885,0,0
0:3:1.765,728.499,41.2238,0,0.000885,0,0
0:3:2.067,729.789,41.2996,0,0.000885,0,0
0:3:2.362,731.199,41.3754,0,0.000885,0,0
0:3:2.662,732.662,41.4582,0,0.000885,0,0
0:3:2.963,734.602,41.5685,0,0.000885,0,0
0:3:3.276,735.598,41.6236,0,0.000885,0,0
0:3:3.579,736.657,41.6857,0,0.000885,0,0
0:3:3.881,737.595,41.7409,0,0.000885,0,0
0:3:4.185,739.65,41.8581,0,0.000885,0,0
0:3:4.486,741.118,41.9408,0,0.000885,0,0
0:3:4.788,742.057,41.9891,0,0.000885,0,0
0:3:5.090,743.053,42.0511,0,0.000885,0,0
0:3:5.386,744.872,42.1545,0,0.000885,0,0
0:3:5.684,745.931,42.2097,0,0.000885,0,0
0:3:5.984,746.928,42.2649,0,0.000885,0,0
0:3:6.280,748.218,42.3407,0,0.000885,0,0
0:3:6.580,749.276,42.4028,0,0.000885,0,0
0:3:6.876,751.625,42.5338,0,0.000885,0,0
0:3:7.176,753.151,42.6165,0,0.000885,0,0
0:3:7.469,754.267,42.6854,0,0.000885,0,0
0:3:7.768,755.793,42.7682,0,0.000885,0,0
0:3:8.067,756.38,42.8027,0,0.000885,0,0
0:3:8.374,758.021,42.8923,0,0.000885,0,0
0:3:8.676,759.374,42.975,0,0.000885,0,0
0:3:8.979,760.428,43.0302,0,0.000885,0,0
0:3:9.281,761.544,43.0922,0,0.000885,0,0
0:3:9.584,763.6,43.2094,0,0.000885,0,0
0:3:9.880,764.947,43.2853,0,0.000885,0,0
0:3:10.179,765.77,43.3335,0,0.000885,0,0
0:3:10.473,766.887,43.3956,0,0.000885,0,0
0:3:10.774,768.235,43.4714,0,0.000885,0,0
0:3:11.068,769.938,43.568,0,0.000885,0,0
0:3:11.368,771.7,43.6714,0,0.000885,0,0
0:3:11.668,772.754,43.7266,0,0.000885,0,0
0:3:11.973,774.048,43.8024,0,0.000885,0,0
0:3:12.276,775.81,43.8989,0,0.000885,0,0
0:3:12.569,777.042,43.9748,0,0.000885,0,0
0:3:12.867,778.332,44.0437,0,0.000885,0,0
0:3:13.178,779.622,44.1196,0,0.000885,0,0
0:3:13.481,780.681,44.1747,0,0.000885,0,0
0:3:13.786,782.851,44.2988,0,0.000885,0,0
0:3:14.088,783.554,44.3402,0,0.000885,0,0
0:3:14.391,784.964,44.4229,0,0.000885,0,0
0:3:14.692,785.903,44.4712,0,0.000885,0,0
0:3:14.989,787.664,44.5746,0,0.000885,0,0
0:3:15.291,788.781,44.6367,0,0.000885,0,0
0:3:15.586,789.604,44.6849,0,0.000885,0,0
0:3:15.885,790.778,44.747,0,0.000885,0,0
0:3:16.183,792.713,44.8573,0,0.000885,0,0
0:3:16.481,794.826,44.9814,0,0.000885,0,0
0:3:16.781,795.822,45.0366,0,0.000885,0,0
0:3:17.074,796.823,45.0917,0,0.000885,0,0
0:3:17.375,798.171,45.1676,0,0.000885,0,0
0:3:17.669,799.345,45.2365,0,0.000885,0,0
0:3:17.969,801.049,45.333,0,0.000885,0,0
0:3:18.278,802.281,45.402,0,0.000885,0,0
0:3:18.580,803.865,45.4916,0,0.000885,0,0
0:3:18.886,804.746,45.5399,0,0.000885,0,0
0:3:19.187,806.449,45.6364,0,0.000885,0,0
0:3:19.490,807.33,45.6847,0,0.000885,0,0
0:3:19.791,808.971,45.7812,0,0.000885,0,0
0:3:20.088,810.559,45.8708,0,0.000885,0,0
0:3:20.387,811.498,45.9191,0,0.000885,0,0
0:3:20.683,813.259,46.0225,0,0.000885,0,0
0:3:20.985,814.727,46.1052,0,0.000885,0,0
0:3:21.280,815.96,46.1742,0,0.000885,0,0
0:3:21.580,816.662,46.2156,0,0.000885,0,0
0:3:21.878,817.485,46.2569,0,0.000885,0,0
0:3:22.169,819.305,46.3603,0,0.000885,0,0
0:3:22.471,820.065,46.4086,0,0.000885,0,0
0:3:22.766,821.24,46.4707,0,0.000885,0,0
0:3:23.067,822.298,46.5327,0,0.000885,0,0
0:3:23.362,823.766,46.6155,0,0.000885,0,0
0:3:23.666,825.995,46.7396,0,0.000885,0,0
0:3:23.970,827.111,46.8016,0,0.000885,0,0
0:3:24.275,828.579,46.8912,0,0.000885,0,0
0:3:24.577,829.753,46.9533,0,0.000885,0,0
0:3:24.878,831.221,47.036,0,0.000885,0,0
0:3:25.178,832.805,47.1257,0,0.000885,0,0
0:3:25.476,833.921,47.1877,0,0.000885,0,0
0:3:25.780,835.211,47.2636,0,0.000885,0,0
0:3:26.083,836.915,47.3601,0,0.000885,0,0
0:3:26.377,838.205,47.4359,0,0.000885,0,0
0:3:26.676,839.379,47.498,0,0.000885,0,0
0:3:26.970,840.26,47.5462,0,0.000885,0,0
0:3:27.269,840.905,47.5876,0,0.000885,0,0
0:3:27.569,842.667,47.6841,0,0.000885,0,0
0:3:27.862,844.25,47.7738,0,0.000885,0,0
0:3:28.165,845.425,47.8427,0,0.000885,0,0
0:3:28.468,846.541,47.9048,0,0.000885,0,0
0:3:28.772,847.715,47.9737,0,0.000885,0,0
0:3:29.076,849.65,48.0771,0,0.000885,0,0
0:3:29.378,851.06,48.1599,0,0.000885,0,0
0:3:29.679,852.235,48.2288,0,0.000885,0,0
0:3:29.972,853.409,48.2909,0,0.000885,0,0
0:3:30.275,854.526,48.3529,0,0.000885,0,0
0:3:30.570,856.283,48.4564,0,0.000885,0,0
0:3:30.867,857.163,48.5046,0,0.000885,0,0
0:3:31.166,858.809,48.6011,0,0.000885,0,0
0:3:31.462,859.926,48.6632,0,0.000885,0,0
0:3:31.764,861.394,48.7459,0,0.000885,0,0
0:3:32.079,862.332,48.8011,0,0.000885,0,0
0:3:32.377,863.035,48.8356,0,0.000885,0,0
0:3:32.675,864.739,48.9321,0,0.000885,0,0
0:3:32.968,865.851,48.9941,0,0.000885,0,0
0:3:33.269,868.32,49.1389,0,0.000885,0,0
0:3:33.575,869.903,49.2286,0,0.000885,0,0
0:3:33.878,870.784,49.2768,0,0.000885,0,0
0:3:34.179,871.313,49.3044,0,0.000885,0,0
0:3:34.481,873.133,49.4078,0,0.000885,0,0
0:3:34.784,874.774,49.5044,0,0.000885,0,0
0:3:35.080,876.006,49.5733,0,0.000885,0,0
0:3:35.381,877.301,49.6423,0,0.000885,0,0
0:3:35.676,878.826,49.7319,0,0.000885,0,0
0:3:35.975,880.939,49.8491,0,0.000885,0,0
0:3:36.270,882.407,49.9318,0,0.000885,0,0
0:3:36.568,883.697,50.0077,0,0.000885,0,0
0:3:36.868,884.462,50.049,0,0.000885,0,0
0:3:37.164,885.574,50.1111,0,0.000885,0,0
0:3:37.463,887.1,50.2007,0,0.000885,0,0
0:3:37.771,888.746,50.2904,0,0.000885,0,0
0:3:38.079,890.156,50.3731,0,0.000885,0,0
0:3:38.377,890.801,50.4076,0,0.000885,0,0
0:3:38.682,892.562,50.511,0,0.000885,0,0
0:3:38.985,893.968,50.5868,0,0.000885,0,0
0:3:39.286,894.907,50.642,0,0.000885,0,0
0:3:39.588,895.907,50.6972,0,0.000885,0,0
0:3:39.890,897.491,50.7868,0,0.000885,0,0
0:3:40.186,898.959,50.8695,0,0.000885,0,0
0:3:40.486,900.427,50.9523,0,0.000885,0,0
0:3:40.782,901.365,51.0074,0,0.000885,0,0
0:3:41.081,902.424,51.0695,0,0.000885,0,0
0:3:41.379,904.417,51.1798,0,0.000885,0,0
0:3:41.673,905.476,51.2418,0,0.000885,0,0
0:3:41.976,906.592,51.3039,0,0.000885,0,0
0:3:42.269,907.882,51.3728,0,0.000885,0,0
0:3:42.570,909.292,51.4556,0,0.000885,0,0
0:3:42.866,910.582,51.5314,0,0.000885,0,0
0:3:43.164,911.699,51.5935,0,0.000885,0,0
0:3:43.473,913.224,51.6762,0,0.000885,0,0
0:3:43.778,914.279,51.7383,0,0.000885,0,0
0:3:44.083,915.746,51.821,0,0.000885,0,0
0:3:44.384,917.45,51.9175,0,0.000885,0,0
0:3:44.686,918.447,51.9727,0,0.000885,0,0
0:3:44.988,919.563,52.0347,0,0.000885,0,0
0:3:45.284,921.56,52.1519,0,0.000885,0,0
0:3:45.586,922.437,52.2002,0,0.000885,0,0
0:3:45.881,923.905,52.2829,0,0.000885,0,0
0:3:46.181,925.079,52.3519,0,0.000885,0,0
0:3:46.478,926.725,52.4415,0,0.000885,0,0
0:3:46.772,928.424,52.5381,0,0.000885,0,0
0:3:47.072,929.131,52.5794,0,0.000885,0,0
0:3:47.369,930.773,52.6691,0,0.000885,0,0
0:3:47.668,931.773,52.7242,0,0.000885,0,0
0:3:47.978,933.063,52.8001,0,0.000885,0,0
0:3:48.282,934.825,52.9035,0,0.000885,0,0
0:3:48.585,935.586,52.9448,0,0.000885,0,0
0:3:48.889,937.467,53.0483,0,0.000885,0,0
0:3:49.192,938.406,53.1034,0,0.000885,0,0
0:3:49.494,939.638,53.1724,0,0.000885,0,0
0:3:49.796,941.457,53.2758,0,0.000885,0,0
0:3:50.097,941.987,53.3034,0,0.000885,0,0
0:3:50.391,943.57,53.393,0,0.000885,0,0
0:3:50.694,945.038,53.4757,0,0.000885,0,0
0:3:50.990,946.386,53.5516,0,0.000885,0,0
0:3:51.288,947.854,53.6343,0,0.000885,0,0
0:3:51.586,949.148,53.7102,0,0.000885,0,0
0:3:51.883,950.26,53.7722,0,0.000885,0,0
0:3:52.183,951.612,53.8481,0,0.000885,0,0
0:3:52.480,953.316,53.9446,0,0.000885,0,0
0:3:52.780,954.37,54.0066,0,0.000885,0,0
0:3:53.077,955.309,54.0618,0,0.000885,0,0
0:3:53.381,957.128,54.1652,0,0.000885,0,0
0:3:53.685,958.423,54.2342,0,0.000885,0,0
0:3:53.987,959.828,54.3169,0,0.000885,0,0
0:3:54.288,961.354,54.3996,0,0.000885,0,0
0:3:54.591,962.235,54.4548,0,0.000885,0,0
0:3:54.888,963.761,54.5375,0,0.000885,0,0
0:3:55.189,965.229,54.6203,0,0.000885,0,0
0:3:55.483,966.229,54.6754,0,0.000885,0,0
0:3:55.783,967.168,54.7306,0,0.000885,0,0
0:3:56.082,968.516,54.8064,0,0.000885,0,0
0:3:56.379,970.277,54.9098,0,0.000885,0,0
0:3:56.679,971.509,54.9788,0,0.000885,0,0
0:3:56.972,973.391,55.0822,0,0.000885,0,0
0:3:57.274,974.152,55.1236,0,0.000885,0,0
0:3:57.580,975.268,55.1856,0,0.000885,0,0
0:3:57.879,977.497,55.3166,0,0.000885,0,0
0:3:58.175,978.026,55.3442,0,0.000885,0,0
0:3:58.481,979.316,55.4201,0,0.000885,0,0
0:3:58.785,981.198,55.5235,0,0.000885,0,0
0:3:59.087,982.603,55.6062,0,0.000885,0,0
0:3:59.389,984.071,55.689,0,0.000885,0,0
0:3:59.690,985.13,55.7441,0,0.000885,0,0
0:3:59.986,986.126,55.8062,0,0.000885,0,0
0:4:0.287,987.652,55.8889,0,0.000885,0,0
0:4:0.582,989.178,55.9785,0,0.000885,0,0
0:4:0.884,990.294,56.0406,0,0.000885,0,0
0:4:1.179,991.291,56.0957,0,0.000885,0,0
0:4:1.478,992.349,56.1578,0,0.000885,0,0
0:4:1.773,993.759,56.2336,0,0.000885,0,0
0:4:2.069,995.165,56.3164,0,0.000885,0,0
0:4:2.372,996.282,56.3784,0,0.000885,0,0
0:4:2.674,998.159,56.4819,0,0.000885,0,0
0:4:2.975,998.808,56.5232,0,0.000885,0,0
0:4:3.272,1000.21,56.5991,0,0.000885,0,0
0:4:3.574,1001.8,56.6887,0,0.000885,0,0
0:4:3.880,1003.5,56.7852,0,0.000885,0,0
0:4:4.184,1004.27,56.8266,0,0.000885,0,0
0:4:4.484,1005.73,56.9162,0,0.000885,0,0
0:4:4.787,1007.32,57.0059,0,0.000885,0,0
0:4:5.084,1008.9,57.0955,0,0.000885,0,0
0:4:5.383,1010.25,57.1713,0,0.000885,0,0
0:4:5.680,1011.43,57.2334,0,0.000885,0,0
0:4:5.981,1012.48,57.2954,0,0.000885,0,0
0:4:6.285,1014.36,57.3989,0,0.000885,0,0
0:4:6.585,1015.48,57.4609,0,0.000885,0,0
0:4:6.883,1016.3,57.5092,0,0.000885,0,0
0:4:7.180,1017.18,57.5574,0,0.000885,0,0
0:4:7.479,1019.35,57.6815,0,0.000885,0,0
0:4:7.772,1020.7,57.7574,0,0.000885,0,0
0:4:8.074,1021.81,57.8263,0,0.000885,0,0
0:4:8.368,1023.17,57.9022,0,0.000885,0,0
0:4:8.671,1024.63,57.9849,0,0.000885,0,0
0:4:8.975,1026.22,58.0745,0,0.000885,0,0
0:4:9.280,1027.98,58.1711,0,0.000885,0,0
0:4:9.581,1028.8,58.2193,0,0.000885,0,0
0:4:9.883,1030.15,58.2952,0,0.000885,0,0
0:4:10.185,1031.15,58.3503,0,0.000885,0,0
0:4:10.481,1032.38,58.4193,0,0.000885,0,0
0:4:10.777,1033.79,58.502,0,0.000885,0,0
0:4:11.076,1035.43,58.5916,0,0.000885,0,0
0:4:11.371,1036.37,58.6468,0,0.000885,0,0
0:4:11.674,1038.49,58.764,0,0.000885,0,0
0:4:11.968,1039.48,58.8261,0,0.000885,0,0
0:4:12.268,1040.66,58.8881,0,0.000885,0,0
0:4:12.574,1041.89,58.9571,0,0.000885,0,0
0:4:12.871,1042.95,59.0191,0,0.000885,0,0
0:4:13.172,1044.71,59.1156,0,0.000885,0,0
0:4:13.476,1045.65,59.1708,0,0.000885,0,0
0:4:13.782,1046.88,59.2398,0,0.000885,0,0
0:4:14.085,1048.64,59.3432,0,0.000885,0,0
0:4:14.386,1050.23,59.4328,0,0.000885,0,0
0:4:14.687,1051.11,59.4811,0,0.000885,0,0
0:4:14.982,1052.16,59.5431,0,0.000885,0,0
0:4:15.284,1053.4,59.6121,0,0.000885,0,0
0:4:15.576,1054.74,59.6879,0,0.000885,0,0
0:4:15.876,1056.51,59.7844,0,0.000885,0,0
0:4:16.174,1057.68,59.8534,0,0.000885,0,0
0:4:16.471,1058.45,59.8948,0,0.000885,0,0
0:4:16.770,1060.21,59.9982,0,0.000885,0,0
0:4:17.067,1061.44,60.0671,0,0.000885,0,0
0:4:17.368,1063.14,60.1637,0,0.000885,0,0
0:4:17.673,1064.78,60.2533,0,0.000885,0,0
0:4:17.970,1065.96,60.3222,0,0.000885,0,0
0:4:18.272,1067.25,60.3912,0,0.000885,0,0
0:4:18.575,1068.84,60.4808,0,0.000885,0,0
0:4:18.882,1069.54,60.5222,0,0.000885,0,0
0:4:19.183,1071.36,60.6256,0,0.000885,0,0
0:4:19.486,1072.36,60.6808,0,0.000885,0,0
0:4:19.787,1073.65,60.7566,0,0.000885,0,0
0:4:20.083,1075.29,60.8462,0,0.000885,0,0
0:4:20.384,1076.47,60.9152,0,0.000885,0,0
0:4:20.676,1077.88,60.9979,0,0.000885,0,0
0:4:20.977,1079.17,61.0669,0,0.000885,0,0
0:4:21.272,1080.22,61.1289,0,0.000885,0,0
0:4:21.573,1081.34,61.191,0,0.000885,0,0
0:4:21.871,1082.86,61.2806,0,0.000885,0,0
0:4:22.175,1083.8,61.3289,0,0.000885,0,0
0:4:22.475,1085.04,61.3978,0,0.000885,0,0
0:4:22.771,1087.27,61.5288,0,0.000885,0,0
0:4:23.071,1088.26,61.584,0,0.000885,0,0
0:4:23.366,1089.85,61.6736,0,0.000885,0,0
0:4:23.669,1091.02,61.7426,0,0.000885,0,0
0:4:23.975,1092.61,61.8322,0,0.000885,0,0
0:4:24.275,1093.6,61.8873,0,0.000885,0,0
0:4:24.578,1094.25,61.9218,0,0.000885,0,0
0:4:24.880,1095.84,62.0114,0,0.000885,0,0
0:4:25.178,1097.18,62.0873,0,0.000885,0,0
0:4:25.476,1099.3,62.2045,0,0.000885,0,0
0:4:25.772,1100.12,62.2528,0,0.000885,0,0
0:4:26.073,1101.47,62.3286,0,0.000885,0,0
0:4:26.367,1102.88,62.4113,0,0.000885,0,0
0:4:26.669,1103.76,62.4596,0,0.000885,0,0
0:4:26.966,1105.52,62.563,0,0.000885,0,0
0:4:27.262,1106.52,62.6182,0,0.000885,0,0
0:4:27.562,1108.16,62.7078,0,0.000885,0,0
0:4:27.867,1109.63,62.7906,0,0.000885,0,0
0:4:28.170,1111.21,62.8802,0,0.000885,0,0
0:4:28.475,1112.5,62.956,0,0.000885,0,0
0:4:28.776,1114.03,63.0388,0,0.000885,0,0
0:4:29.078,1114.8,63.087,0,0.000885,0,0
0:4:29.383,1116.5,63.1836,0,0.000885,0,0
0:4:29.684,1117.67,63.2456,0,0.000885,0,0
0:4:29.976,1118.55,63.2939,0,0.000885,0,0
0:4:30.277,1120.02,63.3835,0,0.000885,0,0
0:4:30.573,1121.08,63.4387,0,0.000885,0,0
0:4:30.871,1122.84,63.5421,0,0.000885,0,0
0:4:31.173,1123.95,63.6041,0,0.000885,0,0
0:4:31.466,1125.36,63.68,0,0.000885,0,0
0:4:31.768,1126.24,63.7351,0,0.000885,0,0
0:4:32.064,1127.47,63.8041,0,0.000885,0,0
0:4:32.371,1129.12,63.8937,0,0.000885,0,0
0:4:32.682,1130.7,63.9833,0,0.000885,0,0
0:4:32.974,1132.58,64.0937,0,0.000885,0,0
0:4:33.276,1133.58,64.1488,0,0.000885,0,0
0:4:33.583,1135.34,64.2453,0,0.000885,0,0
0:4:33.886,1136.1,64.2936,0,0.000885,0,0
0:4:34.187,1137.1,64.3488,0,0.000885,0,0
0:4:34.489,1138.28,64.4108,0,0.000885,0,0
0:4:34.792,1139.1,64.4591,0,0.000885,0,0
0:4:35.086,1141.62,64.6039,0,0.000885,0,0
0:4:35.388,1142.8,64.6659,0,0.000885,0,0
0:4:35.683,1143.85,64.728,0,0.000885,0,0
0:4:35.982,1145.67,64.8314,0,0.000885,0,0
0:4:36.277,1146.49,64.8797,0,0.000885,0,0
0:4:36.585,1147.96,64.9624,0,0.000885,0,0
0:4:36.886,1149.02,65.0245,0,0.000885,0,0
0:4:37.191,1150.48,65.1072,0,0.000885,0,0
0:4:37.491,1151.54,65.1624,0,0.000885,0,0
0:4:37.788,1153.6,65.2796,0,0.000885,0,0
0:4:38.084,1154.42,65.3278,0,0.000885,0,0
0:4:38.385,1155.65,65.3968,0,0.000885,0,0
0:4:38.688,1156.71,65.4588,0,0.000885,0,0
0:4:38.991,1158.58,65.5622,0,0.000885,0,0
0:4:39.293,1159.94,65.6381,0,0.000885,0,0
0:4:39.596,1161.28,65.7139,0,0.000885,0,0
0:4:39.897,1162.81,65.8036,0,0.000885,0,0
0:4:40.192,1163.87,65.8587,0,0.000885,0,0
0:4:40.494,1165.22,65.9346,0,0.000885,0,0
0:4:40.791,1166.27,65.9966,0,0.000885,0,0
0:4:41.089,1167.56,66.0725,0,0.000885,0,0
0:4:41.387,1168.57,66.1276,0,0.000885,0,0
0:4:41.684,1170.38,66.231,0,0.000885,0,0
0:4:41.986,1171.79,66.3069,0,0.000885,0,0
0:4:42.277,1173.03,66.3827,0,0.000885,0,0
0:4:42.579,1174.02,66.4379,0,0.000885,0,0
0:4:42.876,1175.96,66.5482,0,0.000885,0,0
0:4:43.172,1177.49,66.6309,0,0.000885,0,0
0:4:43.482,1178.54,66.693,0,0.000885,0,0
0:4:43.785,1179.54,66.7481,0,0.000885,0,0
0:4:44.088,1180.6,66.8102,0,0.000885,0,0
0:4:44.391,1182.36,66.9067,0,0.000885,0,0
0:4:44.693,1184.24,67.017,0,0.000885,0,0
0:4:44.996,1185.35,67.0791,0,0.000885,0,0
0:4:45.291,1186.06,67.1205,0,0.000885,0,0
0:4:45.593,1187.23,67.1825,0,0.000885,0,0
0:4:45.888,1189.23,67.2997,0,0.000885,0,0
0:4:46.189,1190.81,67.3894,0,0.000885,0,0
0:4:46.484,1191.63,67.4307,0,0.000885,0,0
0:4:46.783,1192.46,67.479,0,0.000885,0,0
0:4:47.083,1193.63,67.5479,0,0.000885,0,0
0:4:47.375,1196.27,67.6927,0,0.000885,0,0
0:4:47.676,1197.68,67.7755,0,0.000885,0,0
0:4:47.971,1198.27,67.8099,0,0.000885,0,0
0:4:48.273,1199.56,67.8789,0,0.000885,0,0
0:4:48.579,1201.79,68.0099,0,0.000885,0,0
0:4:48.883,1202.55,68.0513,0,0.000885,0,0
0:4:49.186,1203.72,68.1202,0,0.000885,0,0
0:4:49.487,1204.84,68.1823,0,0.000885,0,0
0:4:49.787,1205.9,68.2374,0,0.000885,0,0
0:4:50.084,1208.48,68.3891,0,0.000885,0,0
0:4:50.380,1209.54,68.4443,0,0.000885,0,0
0:4:50.691,1210.18,68.4856,0,0.000885,0,0
0:4:50.984,1211.18,68.5408,0,0.000885,0,0
0:4:51.287,1212.47,68.6097,0,0.000885,0,0
0:4:51.580,1214.88,68.7476,0,0.000885,0,0
0:4:51.880,1215.93,68.8097,0,0.000885,0,0
0:4:52.188,1216.93,68.8648,0,0.000885,0,0
0:4:52.485,1218.05,68.9269,0,0.000885,0,0
0:4:52.785,1219.52,69.0096,0,0.000885,0,0
0:4:53.077,1220.63,69.0717,0,0.000885,0,0
0:4:53.380,1222.27,69.1682,0,0.000885,0,0
0:4:53.686,1223.15,69.2165,0,0.000885,0,0
0:4:53.989,1224.09,69.2716,0,0.000885,0,0
0:4:54.292,1225.5,69.3475,0,0.000885,0,0
0:4:54.593,1227.62,69.4716,0,0.000885,0,0
0:4:54.894,1228.38,69.5129,0,0.000885,0,0
0:4:55.189,1230.14,69.6095,0,0.000885,0,0
0:4:55.490,1231.73,69.6991,0,0.000885,0,0
0:4:55.787,1233.02,69.7749,0,0.000885,0,0
0:4:56.083,1234.78,69.8715,0,0.000885,0,0
0:4:56.381,1235.66,69.9266,0,0.000885,0,0
0:4:56.676,1236.07,69.9473,0,0.000885,0,0
0:4:56.977,1237.83,70.0438,0,0.000885,0,0
0:4:57.281,1239.53,70.1404,0,0.000885,0,0
0:4:57.581,1240.41,70.1955,0,0.000885,0,0
0:4:57.879,1241.59,70.2576,0,0.000885,0,0
0:4:58.186,1243.46,70.3679,0,0.000885,0,0
0:4:58.487,1244.64,70.4299,0,0.000885,0,0
0:4:58.791,1245.93,70.5058,0,0.000885,0,0
0:4:59.094,1248.1,70.6299,0,0.000885,0,0
0:4:59.396,1248.39,70.6437,0,0.000885,0,0
0:4:59.698,1250.57,70.7678,0,0.000885,0,0
0:4:59.999,1251.74,70.8367,0,0.000885,0,0
0:5:0.293,1252.45,70.8712,0,0.000885,0,0
0:5:0.593,1252.98,70.9057,0,0.000885,0,0
0:5:0.889,1255.32,71.0367,0,0.000885,0,0
0:5:1.187,1256.56,71.1056,0,0.000885,0,0
0:5:1.485,1258.2,71.2022,0,0.000885,0,0
0:5:1.779,1259.26,71.2573,0,0.000885,0,0
0:5:2.080,1259.96,71.2987,0,0.000885,0,0
0:5:2.385,1262.42,71.4366,0,0.000885,0,0
0:5:2.685,1263.13,71.4779,0,0.000885,0,0
0:5:2.981,1264.89,71.5814,0,0.000885,0,0
0:5:3.278,1265.65,71.6227,0,0.000885,0,0
0:5:3.577,1266.06,71.6434,0,0.000885,0,0
0:5:3.881,1268.94,71.8089,0,0.000885,0,0
0:5:4.187,1270.17,71.8778,0,0.000885,0,0
0:5:4.489,1271.46,71.9468,0,0.000885,0,0
0:5:4.790,1272.87,72.0295,0,0.000885,0,0
0:5:5.093,1274.4,72.1192,0,0.000885,0,0
0:5:5.387,1275.51,72.1812,0,0.000885,0,0
0:5:5.689,1276.92,72.2571,0,0.000885,0,0
0:5:5.992,1277.39,72.2846,0,0.000885,0,0
0:5:6.292,1278.39,72.3398,0,0.000885,0,0
0:5:6.588,1280.56,72.4639,0,0.000885,0,0
0:5:6.882,1281.68,72.526,0,0.000885,0,0
0:5:7.182,1283.56,72.6363,0,0.000885,0,0
0:5:7.477,1283.91,72.657,0,0.000885,0,0
0:5:7.778,1286.31,72.788,0,0.000885,0,0
0:5:8.072,1287.14,72.8362,0,0.000885,0,0
0:5:8.374,1288.61,72.919,0,0.000885,0,0
0:5:8.679,1289.72,72.981,0,0.000885,0,0
0:5:8.980,1290.37,73.0224,0,0.000885,0,0
0:5:9.285,1292.54,73.1396,0,0.000885,0,0
0:5:9.586,1293.12,73.1741,0,0.000885,0,0
0:5:9.886,1295.35,73.3051,0,0.000885,0,0
0:5:10.180,1295.35,73.3051,0,0.000885,0,0
0:5:10.478,1297.64,73.4292,0,0.000885,0,0
0:5:10.777,1299.11,73.5119,0,0.000885,0,0
0:5:11.071,1300.05,73.5671,0,0.000885,0,0
0:5:11.373,1301.87,73.6705,0,0.000885,0,0
0:5:11.689,1302.22,73.6912,0,0.000885,0,0
0:5:11.987,1304.69,73.8291,0,0.000885,0,0
0:5:12.293,1305.86,73.898,0,0.000885,0,0
0:5:12.590,1306.68,73.9463,0,0.000885,0,0
0:5:12.890,1307.62,73.9945,0,0.000885,0,0
0:5:13.181,1309.56,74.1049,0,0.000885,0,0
0:5:13.486,1310.97,74.1876,0,0.000885,0,0
0:5:13.789,1312.61,74.2772,0,0.000885,0,0
0:5:14.092,1313.44,74.3255,0,0.000885,0,0
0:5:14.395,1314.55,74.3875,0,0.000885,0,0
0:5:14.695,1316.72,74.5116,0,0.000885,0,0
0:5:14.997,1317.6,74.5599,0,0.000885,0,0
0:5:15.292,1319.19,74.6495,0,0.000885,0,0
0:5:15.592,1320.13,74.7047,0,0.000885,0,0
0:5:15.888,1321.18,74.7667,0,0.000885,0,0
0:5:16.193,1323.23,74.8771,0,0.000885,0,0
0:5:16.493,1324.35,74.946,0,0.000885,0,0
0:5:16.789,1325.35,75.0012,0,0.000885,0,0
0:5:17.088,1327.23,75.1046,0,0.000885,0,0
0:5:17.383,1327.7,75.1322,0,0.000885,0,0
0:5:17.680,1329.93,75.2563,0,0.000885,0,0
0:5:17.980,1330.46,75.2907,0,0.000885,0,0
0:5:18.294,1332.34,75.3942,0,0.000885,0,0
0:5:18.596,1333.8,75.4769,0,0.000885,0,0
0:5:18.901,1335.45,75.5734,0,0.000885,0,0
0:5:19.204,1336.09,75.6079,0,0.000885,0,0
0:5:19.505,1336.56,75.6355,0,0.000885,0,0
0:5:19.806,1337.56,75.6906,0,0.000885,0,0
0:5:20.109,1338.5,75.7458,0,0.000885,0,0
0:5:20.402,1339.44,75.7941,0,0.000885,0,0
0:5:20.700,1341.26,75.8975,0,0.000885,0,0
0:5:20.999,1342.72,75.9802,0,0.000885,0,0
0:5:21.294,1344.84,76.1043,0,0.000885,0,0
0:5:21.595,1346.89,76.2215,0,0.000885,0,0
0:5:21.890,1348.06,76.2836,0,0.000885,0,0
0:5:22.191,1349.53,76.3663,0,0.000885,0,0
0:5:22.495,1350.53,76.4215,0,0.000885,0,0
0:5:22.792,1352.12,76.5111,0,0.000885,0,0
0:5:23.090,1353.41,76.587,0,0.000885,0,0
0:5:23.393,1354.29,76.6352,0,0.000885,0,0
0:5:23.696,1356.23,76.7455,0,0.000885,0,0
0:5:23.998,1356.93,76.7869,0,0.000885,0,0
0:5:24.300,1358.69,76.8834,0,0.000885,0,0
0:5:24.602,1360.45,76.9869,0,0.000885,0,0
0:5:24.900,1360.92,77.0144,0,0.000885,0,0
0:5:25.199,1362.09,77.0765,0,0.000885,0,0
0:5:25.495,1362.74,77.1179,0,0.000885,0,0
0:5:25.795,1363.62,77.1661,0,0.000885,0,0
0:5:26.090,1364.09,77.1937,0,0.000885,0,0
0:5:26.388,1365.03,77.242,0,0.000885,0,0
0:5:26.687,1366.44,77.3247,0,0.000885,0,0
0:5:26.990,1369.43,77.4971,0,0.000885,0,0
0:5:27.292,1370.9,77.5798,0,0.000885,0,0
0:5:27.584,1372.96,77.6901,0,0.000885,0,0
0:5:27.885,1374.36,77.7729,0,0.000885,0,0
0:5:28.180,1375.83,77.8556,0,0.000885,0,0
0:5:28.483,1377.89,77.9728,0,0.000885,0,0
0:5:28.789,1379.24,78.0487,0,0.000885,0,0
0:5:29.091,1380.53,78.1245,0,0.000885,0,0
0:5:29.394,1382.05,78.2072,0,0.000885,0,0
0:5:29.696,1383.17,78.2693,0,0.000885,0,0
0:5:29.996,1385.69,78.4141,0,0.000885,0,0
0:5:30.294,1386.75,78.4761,0,0.000885,0,0
0:5:30.590,1388.16,78.552,0,0.000885,0,0
0:5:30.892,1389.04,78.6002,0,0.000885,0,0
0:5:31.195,1390.63,78.6899,0,0.000885,0,0
0:5:31.495,1391.8,78.7588,0,0.000885,0,0
0:5:31.793,1392.97,78.8278,0,0.000885,0,0
0:5:32.090,1393.56,78.8622,0,0.000885,0,0
0:5:32.389,1394.32,78.9036,0,0.000885,0,0
0:5:32.681,1396.14,79.007,0,0.000885,0,0
0:5:32.983,1397.2,79.0622,0,0.000885,0,0
0:5:33.277,1398.66,79.1449,0,0.000885,0,0
0:5:33.581,1399.61,79.2001,0,0.000885,0,0
0:5:33.884,1400.31,79.2414,0,0.000885,0,0
0:5:34.190,1402.24,79.3518,0,0.000885,0,0
0:5:34.491,1403.36,79.4138,0,0.000885,0,0
0:5:34.793,1404.36,79.469,0,0.000885,0,0
0:5:35.095,1405.71,79.5448,0,0.000885,0,0
0:5:35.393,1407.23,79.6344,0,0.000885,0,0
0:5:35.690,1407.94,79.6758,0,0.000885,0,0
0:5:35.990,1402.48,79.3656,0,0.000885,0,0
0:5:36.292,1392.09,78.7795,0,0.000885,0,0
0:5:36.593,1379.88,78.0831,0,0.000885,0,0
0:5:36.885,1338.44,75.7389,0,0.000885,0,0
0:5:37.127,1241.7,70.2645,0,0.000885,0,0