File: DataFile2021-07-28_093134.csv
Test ID:,Date Tested:,Time:,Test Type:,Diameter Avg. (mm):,Cyl. Corr. Factor:,Height (mm):,Age (days):,Weight (kN):,Break Type:,Ramp Rate (MPa/s):,Load at Break (kN):,Stress at Break (MPa):
12,7/28/2021,09:31,Cylinder,150,1,300,0,13.69,3,0.33,1515.3,85.75
Sample Time,Load (kN),Stress (MPa),Long. Strain,Trans. Strain,Chan1 Deflection (mm),Chan2 Deflection (mm)
0:0:9.975,6.5122,0.365422,0,0.000885,0,0
0:0:10.284,8.85641,0.503317,0,0.000885,0,0
0:0:10.582,9.61706,0.544686,0,0.000885,0,0
0:0:10.892,10.44,0.592949,0,0.000885,0,0
0:0:11.187,12.4328,0.703265,0,0.000885,0,0
0:0:11.490,13.1979,0.744634,0,0.000885,0,0
0:0:11.785,15.4264,0.875634,0,0.000885,0,0
0:0:12.084,18.0064,1.02042,0,0.000885,0,0
0:0:12.393,19.1185,1.08248,0,0.000885,0,0
0:0:12.687,20.1771,1.14453,0,0.000885,0,0
0:0:12.989,21.7029,1.22727,0,0.000885,0,0
0:0:13.286,24.5764,1.39274,0,0.000885,0,0
0:0:13.586,25.9821,1.46858,0,0.000885,0,0
0:0:13.884,27.9749,1.58579,0,0.000885,0,0
0:0:14.179,29.5584,1.67543,0,0.000885,0,0
0:0:14.484,30.8484,1.74437,0,0.000885,0,0
0:0:14.776,33.1393,1.87537,0,0.000885,0,0
0:0:15.076,34.7806,1.96501,0,0.000885,0,0
0:0:15.388,36.422,2.06153,0,0.000885,0,0
0:0:15.691,38.1835,2.15806,0,0.000885,0,0
0:0:15.995,40.5856,2.29595,0,0.000885,0,0
0:0:16.299,42.4627,2.40627,0,0.000885,0,0
0:0:16.601,44.3977,2.50969,0,0.000885,0,0
0:0:16.902,46.3327,2.62001,0,0.000885,0,0
0:0:17.200,48.5034,2.74411,0,0.000885,0,0
0:0:17.501,51.2613,2.90269,0,0.000885,0,0
0:0:17.797,52.9605,2.99922,0,0.000885,0,0
0:0:18.100,54.8955,3.10954,0,0.000885,0,0
0:0:18.396,56.9506,3.21985,0,0.000885,0,0
0:0:18.697,59.237,3.35085,0,0.000885,0,0
0:0:18.995,62.0527,3.50943,0,0.000885,0,0
0:0:19.290,64.1656,3.63354,0,0.000885,0,0
0:0:19.592,66.1006,3.74385,0,0.000885,0,0
0:0:19.887,67.742,3.83349,0,0.000885,0,0
0:0:20.189,70.0862,3.96449,0,0.000885,0,0
0:0:20.488,71.9055,4.06791,0,0.000885,0,0
0:0:20.789,73.022,4.12996,0,0.000885,0,0
0:0:21.095,74.7212,4.22649,0,0.000885,0,0
0:0:21.396,76.3048,4.31612,0,0.000885,0,0
0:0:21.701,78.2398,4.42643,0,0.000885,0,0
0:0:22.001,79.6454,4.50917,0,0.000885,0,0
0:0:22.301,81.229,4.5988,0,0.000885,0,0
0:0:22.601,82.8748,4.68843,0,0.000885,0,0
0:0:22.898,85.5704,4.84012,0,0.000885,0,0
0:0:23.199,87.2118,4.93665,0,0.000885,0,0
0:0:23.496,88.2082,4.9918,0,0.000885,0,0
0:0:23.794,90.2055,5.10212,0,0.000885,0,0
0:0:24.095,92.3139,5.22623,0,0.000885,0,0
0:0:24.390,94.9562,5.37102,0,0.000885,0,0
0:0:24.692,96.5398,5.46065,0,0.000885,0,0
0:0:24.989,98.1811,5.55717,0,0.000885,0,0
0:0:25.294,99.8225,5.64681,0,0.000885,0,0
0:0:25.597,101.584,5.75023,0,0.000885,0,0
0:0:25.902,104.044,5.88812,0,0.000885,0,0
0:0:26.202,105.748,5.98465,0,0.000885,0,0
0:0:26.506,107.273,6.06739,0,0.000885,0,0
0:0:26.805,108.973,6.16391,0,0.000885,0,0
0:0:27.105,111.673,6.32249,0,0.000885,0,0
0:0:27.402,113.194,6.40523,0,0.000885,0,0
0:0:27.702,114.604,6.48797,0,0.000885,0,0
0:0:27.998,116.833,6.61207,0,0.000885,0,0
0:0:28.298,118.007,6.68102,0,0.000885,0,0
0:0:28.597,120.525,6.81891,0,0.000885,0,0
0:0:28.894,122.344,6.92234,0,0.000885,0,0
0:0:29.194,124.221,7.03265,0,0.000885,0,0
0:0:29.489,126.276,7.14297,0,0.000885,0,0
0:0:29.791,127.74,7.22571,0,0.000885,0,0
0:0:30.087,130.262,7.3705,0,0.000885,0,0
0:0:30.390,131.61,7.44634,0,0.000885,0,0
0:0:30.695,133.549,7.55665,0,0.000885,0,0
0:0:30.997,134.955,7.63939,0,0.000885,0,0
0:0:31.302,137.477,7.77729,0,0.000885,0,0
0:0:31.602,139.238,7.88071,0,0.000885,0,0
0:0:31.903,140.35,7.94276,0,0.000885,0,0
0:0:32.200,142.05,8.03929,0,0.000885,0,0
0:0:32.499,144.105,8.1565,0,0.000885,0,0
0:0:32.799,146.627,8.29439,0,0.000885,0,0
0:0:33.095,148.21,8.38402,0,0.000885,0,0
0:0:33.396,149.852,8.48055,0,0.000885,0,0
0:0:33.692,151.729,8.58397,0,0.000885,0,0
0:0:33.992,154.78,8.75634,0,0.000885,0,0
0:0:34.291,156.244,8.83908,0,0.000885,0,0
0:0:34.588,158.121,8.94939,0,0.000885,0,0
0:0:34.889,159.589,9.03213,0,0.000885,0,0
0:0:35.180,160.937,9.10797,0,0.000885,0,0
0:0:35.487,163.574,9.25966,0,0.000885,0,0
0:0:35.791,164.985,9.3355,0,0.000885,0,0
0:0:36.095,166.977,9.44582,0,0.000885,0,0
0:0:36.397,168.739,9.54924,0,0.000885,0,0
0:0:36.700,171.141,9.68713,0,0.000885,0,0
0:0:37.002,173.138,9.79745,0,0.000885,0,0
0:0:37.300,175.073,9.90777,0,0.000885,0,0
0:0:37.598,176.95,10.0112,0,0.000885,0,0
0:0:37.898,178.356,10.0939,0,0.000885,0,0
0:0:38.195,180.117,10.1905,0,0.000885,0,0
0:0:38.495,181.932,10.2939,0,0.000885,0,0
0:0:38.791,184.045,10.418,0,0.000885,0,0
0:0:39.092,185.393,10.4938,0,0.000885,0,0
0:0:39.388,186.389,10.549,0,0.000885,0,0
0:0:39.688,189.263,10.7076,0,0.000885,0,0
0:0:39.989,191.612,10.8455,0,0.000885,0,0
0:0:40.284,193.137,10.9282,0,0.000885,0,0
0:0:40.581,194.779,11.0247,0,0.000885,0,0
0:0:40.885,196.362,11.1143,0,0.000885,0,0
0:0:41.189,198.649,11.2385,0,0.000885,0,0
0:0:41.488,200.584,11.3488,0,0.000885,0,0
0:0:41.788,202.519,11.4591,0,0.000885,0,0
0:0:42.090,203.515,11.5142,0,0.000885,0,0
0:0:42.381,206.451,11.6797,0,0.000885,0,0
0:0:42.681,208.15,11.7762,0,0.000885,0,0
0:0:42.986,209.676,11.8659,0,0.000885,0,0
0:0:43.293,211.847,11.99,0,0.000885,0,0
0:0:43.590,212.901,12.0451,0,0.000885,0,0
0:0:43.882,215.365,12.1899,0,0.000885,0,0
0:0:44.181,216.713,12.2658,0,0.000885,0,0
0:0:44.476,218.706,12.3761,0,0.000885,0,0
0:0:44.785,220.231,12.4657,0,0.000885,0,0
0:0:45.091,222.874,12.6105,0,0.000885,0,0
0:0:45.390,224.279,12.6932,0,0.000885,0,0
0:0:45.693,226.45,12.8174,0,0.000885,0,0
0:0:45.993,228.327,12.9208,0,0.000885,0,0
0:0:46.295,229.733,13.0035,0,0.000885,0,0
0:0:46.594,231.668,13.1069,0,0.000885,0,0
0:0:46.891,234.016,13.2448,0,0.000885,0,0
0:0:47.189,235.6,13.3345,0,0.000885,0,0
0:0:47.492,236.89,13.4034,0,0.000885,0,0
0:0:47.792,239.999,13.5827,0,0.000885,0,0
0:0:48.082,240.996,13.6378,0,0.000885,0,0
0:0:48.382,242.521,13.7206,0,0.000885,0,0
0:0:48.689,244.336,13.824,0,0.000885,0,0
0:0:48.982,246.04,13.9205,0,0.000885,0,0
0:0:49.280,248.971,14.086,0,0.000885,0,0
0:0:49.575,250.319,14.1618,0,0.000885,0,0
0:0:49.875,251.787,14.2515,0,0.000885,0,0
0:0:50.177,253.429,14.3411,0,0.000885,0,0
0:0:50.478,255.128,14.4376,0,0.000885,0,0
0:0:50.781,257.886,14.5962,0,0.000885,0,0
0:0:51.082,259.469,14.6858,0,0.000885,0,0
0:0:51.382,260.937,14.7686,0,0.000885,0,0
0:0:51.682,262.579,14.8582,0,0.000885,0,0
0:0:51.980,264.749,14.9823,0,0.000885,0,0
0:0:52.288,267.503,15.1409,0,0.000885,0,0
0:0:52.582,268.855,15.2167,0,0.000885,0,0
0:0:52.881,270.496,15.3064,0,0.000885,0,0
0:0:53.195,272.196,15.4029,0,0.000885,0,0
0:0:53.494,274.776,15.5477,0,0.000885,0,0
0:0:53.790,276.359,15.6373,0,0.000885,0,0
0:0:54.087,278.005,15.7338,0,0.000885,0,0
0:0:54.393,279.468,15.8166,0,0.000885,0,0
0:0:54.687,280.936,15.8993,0,0.000885,0,0
0:0:54.988,284.219,16.0855,0,0.000885,0,0
0:0:55.289,285.861,16.1751,0,0.000885,0,0
0:0:55.591,287.328,16.2578,0,0.000885,0,0
0:0:55.893,289.206,16.3682,0,0.000885,0,0
0:0:56.196,291.141,16.4785,0,0.000885,0,0
0:0:56.495,292.666,16.5612,0,0.000885,0,0
0:0:56.796,294.423,16.6577,0,0.000885,0,0
0:0:57.095,296.363,16.768,0,0.000885,0,0
0:0:57.390,297.711,16.8439,0,0.000885,0,0
0:0:57.686,300.642,17.0163,0,0.000885,0,0
0:0:57.994,302.226,17.1059,0,0.000885,0,0
0:0:58.287,303.987,17.2024,0,0.000885,0,0
0:0:58.588,305.45,17.2852,0,0.000885,0,0
0:0:58.891,308.208,17.4437,0,0.000885,0,0
0:0:59.190,309.614,17.5196,0,0.000885,0,0
0:0:59.486,311.26,17.6161,0,0.000885,0,0
0:0:59.789,313.017,17.7126,0,0.000885,0,0
0:1:0.088,314.894,17.8161,0,0.000885,0,0
0:1:0.391,317.71,17.9815,0,0.000885,0,0
0:1:0.693,319.351,18.0712,0,0.000885,0,0
0:1:0.994,321.055,18.1677,0,0.000885,0,0
0:1:1.293,322.87,18.2711,0,0.000885,0,0
0:1:1.595,325.04,18.3952,0,0.000885,0,0
0:1:1.888,326.273,18.4642,0,0.000885,0,0
0:1:2.188,327.972,18.5607,0,0.000885,0,0
0:1:2.491,329.733,18.6572,0,0.000885,0,0
0:1:2.790,331.668,18.7675,0,0.000885,0,0
0:1:3.083,333.661,18.8847,0,0.000885,0,0
0:1:3.392,335.716,18.9951,0,0.000885,0,0
0:1:3.689,337.242,19.0847,0,0.000885,0,0
0:1:3.991,338.825,19.1743,0,0.000885,0,0
0:1:4.292,341.405,19.3191,0,0.000885,0,0
0:1:4.587,343.283,19.4225,0,0.000885,0,0
0:1:4.882,345.097,19.526,0,0.000885,0,0
0:1:5.190,346.272,19.5949,0,0.000885,0,0
0:1:5.491,348.149,19.6983,0,0.000885,0,0
0:1:5.795,350.262,19.8224,0,0.000885,0,0
0:1:6.095,352.139,19.9258,0,0.000885,0,0
0:1:6.396,353.896,20.0293,0,0.000885,0,0
0:1:6.695,355.364,20.112,0,0.000885,0,0
0:1:6.991,357.477,20.2292,0,0.000885,0,0
0:1:7.290,360.23,20.3878,0,0.000885,0,0
0:1:7.593,361.578,20.4636,0,0.000885,0,0
0:1:7.892,363.34,20.5602,0,0.000885,0,0
0:1:8.184,365.395,20.6774,0,0.000885,0,0
0:1:8.482,367.797,20.8153,0,0.000885,0,0
0:1:8.791,368.913,20.8773,0,0.000885,0,0
0:1:9.096,370.79,20.9807,0,0.000885,0,0
0:1:9.395,372.663,21.0911,0,0.000885,0,0
0:1:9.688,374.367,21.1876,0,0.000885,0,0
0:1:9.988,376.595,21.3117,0,0.000885,0,0
0:1:10.280,378.646,21.4289,0,0.000885,0,0
0:1:10.582,379.82,21.491,0,0.000885,0,0
0:1:10.884,381.582,21.5944,0,0.000885,0,0
0:1:11.189,383.223,21.684,0,0.000885,0,0
0:1:11.488,385.861,21.8357,0,0.000885,0,0
0:1:11.790,388.09,21.9598,0,0.000885,0,0
0:1:12.087,389.264,22.0287,0,0.000885,0,0
0:1:12.394,390.67,22.1046,0,0.000885,0,0
0:1:12.688,393.249,22.2563,0,0.000885,0,0
0:1:12.989,394.717,22.339,0,0.000885,0,0
0:1:13.290,396.946,22.4631,0,0.000885,0,0
0:1:13.589,398.236,22.539,0,0.000885,0,0
0:1:13.883,399.646,22.6148,0,0.000885,0,0
0:1:14.191,401.697,22.732,0,0.000885,0,0
0:1:14.489,403.81,22.8492,0,0.000885,0,0
0:1:14.780,405.687,22.9595,0,0.000885,0,0
0:1:15.080,407.444,23.0561,0,0.000885,0,0
0:1:15.384,409.614,23.1802,0,0.000885,0,0
0:1:15.683,411.785,23.3043,0,0.000885,0,0
0:1:15.988,413.484,23.4008,0,0.000885,0,0
0:1:16.290,415.362,23.5042,0,0.000885,0,0
0:1:16.590,417.065,23.6008,0,0.000885,0,0
0:1:16.891,419.525,23.7386,0,0.000885,0,0
0:1:17.191,421.696,23.8628,0,0.000885,0,0
0:1:17.484,423.337,23.9593,0,0.000885,0,0
0:1:17.790,424.983,24.0489,0,0.000885,0,0
0:1:18.089,426.74,24.1454,0,0.000885,0,0
0:1:18.393,429.204,24.2902,0,0.000885,0,0
0:1:18.692,430.672,24.373,0,0.000885,0,0
0:1:18.984,432.256,24.4626,0,0.000885,0,0
0:1:19.282,433.777,24.5453,0,0.000885,0,0
0:1:19.590,436.299,24.6901,0,0.000885,0,0
0:1:19.883,437.474,24.7591,0,0.000885,0,0
0:1:20.181,438.822,24.8349,0,0.000885,0,0
0:1:20.484,440.934,24.9521,0,0.000885,0,0
0:1:20.788,442.696,25.0487,0,0.000885,0,0
0:1:21.090,444.924,25.1797,0,0.000885,0,0
0:1:21.390,446.388,25.2624,0,0.000885,0,0
0:1:21.691,448.207,25.3658,0,0.000885,0,0
0:1:21.994,450.142,25.4761,0,0.000885,0,0
0:1:22.295,452.429,25.6002,0,0.000885,0,0
0:1:22.589,454.364,25.7105,0,0.000885,0,0
0:1:22.895,456.125,25.814,0,0.000885,0,0
0:1:23.192,457.944,25.9174,0,0.000885,0,0
0:1:23.485,459.586,26.007,0,0.000885,0,0
0:1:23.785,462.402,26.1656,0,0.000885,0,0
0:1:24.077,463.514,26.2277,0,0.000885,0,0
0:1:24.377,465.039,26.3173,0,0.000885,0,0
0:1:24.694,467.268,26.4414,0,0.000885,0,0
0:1:24.997,469.848,26.5862,0,0.000885,0,0
0:1:25.296,471.374,26.6758,0,0.000885,0,0
0:1:25.598,473.429,26.793,0,0.000885,0,0
0:1:25.900,474.776,26.8689,0,0.000885,0,0
0:1:26.202,476.124,26.9447,0,0.000885,0,0
0:1:26.501,478.94,27.1033,0,0.000885,0,0
0:1:26.803,480.759,27.2067,0,0.000885,0,0
0:1:27.096,481.756,27.2619,0,0.000885,0,0
0:1:27.396,483.984,27.386,0,0.000885,0,0
0:1:27.690,485.626,27.4825,0,0.000885,0,0
0:1:27.986,487.854,27.6066,0,0.000885,0,0
0:1:28.294,489.674,27.71,0,0.000885,0,0
0:1:28.590,491.021,27.7859,0,0.000885,0,0
0:1:28.889,492.663,27.8824,0,0.000885,0,0
0:1:29.191,495.185,28.0203,0,0.000885,0,0
0:1:29.491,496.537,28.0961,0,0.000885,0,0
0:1:29.783,498.703,28.2202,0,0.000885,0,0
0:1:30.081,500.407,28.3168,0,0.000885,0,0
0:1:30.378,502.284,28.4202,0,0.000885,0,0
0:1:30.678,504.98,28.5788,0,0.000885,0,0
0:1:30.983,506.973,28.6891,0,0.000885,0,0
0:1:31.282,508.498,28.7718,0,0.000885,0,0
0:1:31.583,510.082,28.8615,0,0.000885,0,0
0:1:31.882,511.666,28.9511,0,0.000885,0,0
0:1:32.190,513.778,29.0752,0,0.000885,0,0
0:1:32.498,515.246,29.1579,0,0.000885,0,0
0:1:32.791,517.061,29.2613,0,0.000885,0,0
0:1:33.092,518.938,29.3648,0,0.000885,0,0
0:1:33.383,521.403,29.5027,0,0.000885,0,0
0:1:33.680,523.164,29.6061,0,0.000885,0,0
0:1:33.986,524.512,29.6819,0,0.000885,0,0
0:1:34.282,526.683,29.806,0,0.000885,0,0
0:1:34.579,528.088,29.8819,0,0.000885,0,0
0:1:34.873,530.495,30.0198,0,0.000885,0,0
0:1:35.175,532.194,30.1163,0,0.000885,0,0
0:1:35.477,533.836,30.2059,0,0.000885,0,0
0:1:35.779,535.539,30.3025,0,0.000885,0,0
0:1:36.079,538.293,30.461,0,0.000885,0,0
0:1:36.379,540.17,30.5645,0,0.000885,0,0
0:1:36.679,541.58,30.6472,0,0.000885,0,0
0:1:36.983,543.337,30.7437,0,0.000885,0,0
0:1:37.281,544.569,30.8196,0,0.000885,0,0
0:1:37.587,547.149,30.9644,0,0.000885,0,0
0:1:37.893,549.146,31.0747,0,0.000885,0,0
0:1:38.192,550.494,31.1505,0,0.000885,0,0
0:1:38.483,552.723,31.2746,0,0.000885,0,0
0:1:38.782,554.542,31.378,0,0.000885,0,0
0:1:39.086,557.002,31.5228,0,0.000885,0,0
0:1:39.384,558.999,31.6331,0,0.000885,0,0
0:1:39.692,560.231,31.7021,0,0.000885,0,0
0:1:39.993,561.695,31.7848,0,0.000885,0,0
0:1:40.295,564.453,31.9434,0,0.000885,0,0
0:1:40.597,565.565,32.0055,0,0.000885,0,0
0:1:40.900,567.211,32.0951,0,0.000885,0,0
0:1:41.200,568.91,32.1916,0,0.000885,0,0
0:1:41.501,571.961,32.364,0,0.000885,0,0
0:1:41.802,573.425,32.4467,0,0.000885,0,0
0:1:42.094,575.36,32.557,0,0.000885,0,0
0:1:42.395,576.183,32.6053,0,0.000885,0,0
0:1:42.687,578.002,32.7087,0,0.000885,0,0
0:1:42.984,580.755,32.8673,0,0.000885,0,0
0:1:43.294,582.108,32.9432,0,0.000885,0,0
0:1:43.598,583.807,33.0397,0,0.000885,0,0
0:1:43.897,585.857,33.15,0,0.000885,0,0
0:1:44.187,587.21,33.2258,0,0.000885,0,0
0:1:44.490,589.79,33.3775,0,0.000885,0,0
0:1:44.786,591.729,33.4878,0,0.000885,0,0
0:1:45.083,593.842,33.605,0,0.000885,0,0
0:1:45.382,595.016,33.674,0,0.000885,0,0
0:1:45.686,596.484,33.7567,0,0.000885,0,0
0:1:45.992,599.3,33.9153,0,0.000885,0,0
0:1:46.295,600.884,34.0049,0,0.000885,0,0
0:1:46.596,602.294,34.0808,0,0.000885,0,0
0:1:46.898,604.291,34.198,0,0.000885,0,0
0:1:47.193,606.755,34.3359,0,0.000885,0,0
0:1:47.494,608.81,34.4531,0,0.000885,0,0
0:1:47.787,610.394,34.5427,0,0.000885,0,0
0:1:48.088,612.271,34.6462,0,0.000885,0,0
0:1:48.384,613.681,34.7289,0,0.000885,0,0
0:1:48.681,616.03,34.8599,0,0.000885,0,0
0:1:48.982,617.204,34.9288,0,0.000885,0,0
0:1:49.275,619.139,35.0392,0,0.000885,0,0
0:1:49.577,621.021,35.1426,0,0.000885,0,0
0:1:49.873,622.604,35.2322,0,0.000885,0,0
0:1:50.182,624.953,35.3632,0,0.000885,0,0
0:1:50.492,626.714,35.4666,0,0.000885,0,0
0:1:50.794,628.298,35.5563,0,0.000885,0,0
0:1:51.098,630.117,35.6597,0,0.000885,0,0
0:1:51.402,632.875,35.8114,0,0.000885,0,0
0:1:51.702,634.401,35.901,0,0.000885,0,0
0:1:52.005,636.105,35.9975,0,0.000885,0,0
0:1:52.301,637.452,36.0734,0,0.000885,0,0
0:1:52.601,640.624,36.2526,0,0.000885,0,0
0:1:52.897,641.976,36.3285,0,0.000885,0,0
0:1:53.198,643.618,36.4181,0,0.000885,0,0
0:1:53.494,645.263,36.5146,0,0.000885,0,0
0:1:53.789,646.727,36.5974,0,0.000885,0,0
0:1:54.101,649.489,36.756,0,0.000885,0,0
0:1:54.396,651.073,36.8456,0,0.000885,0,0
0:1:54.697,652.834,36.9421,0,0.000885,0,0
0:1:54.989,654.36,37.0317,0,0.000885,0,0
0:1:55.294,657.238,37.1903,0,0.000885,0,0
0:1:55.598,658.47,37.2593,0,0.000885,0,0
0:1:55.901,659.876,37.342,0,0.000885,0,0
0:1:56.203,661.815,37.4523,0,0.000885,0,0
0:1:56.503,663.692,37.5557,0,0.000885,0,0
0:1:56.806,666.277,37.7005,0,0.000885,0,0
0:1:57.101,667.86,37.7902,0,0.000885,0,0
0:1:57.399,669.858,37.9074,0,0.000885,0,0
0:1:57.698,671.499,37.997,0,0.000885,0,0
0:1:57.992,672.731,38.066,0,0.000885,0,0
0:1:58.294,675.431,38.2245,0,0.000885,0,0
0:1:58.599,677.135,38.3211,0,0.000885,0,0
0:1:58.899,678.367,38.39,0,0.000885,0,0
0:1:59.196,679.777,38.4659,0,0.000885,0,0
0:1:59.494,682.535,38.6244,0,0.000885,0,0
0:1:59.793,684.003,38.7072,0,0.000885,0,0
0:2:0.086,685.938,38.8175,0,0.000885,0,0
0:2:0.388,687.877,38.9278,0,0.000885,0,0
0:2:0.695,689.519,39.0174,0,0.000885,0,0
0:2:0.998,691.925,39.1553,0,0.000885,0,0
0:2:1.301,693.335,39.2381,0,0.000885,0,0
0:2:1.603,695.333,39.3484,0,0.000885,0,0
0:2:1.905,697.268,39.4587,0,0.000885,0,0
0:2:2.201,699.616,39.5897,0,0.000885,0,0
0:2:2.500,700.969,39.6655,0,0.000885,0,0
0:2:2.799,703.313,39.7965,0,0.000885,0,0
0:2:3.095,704.665,39.8793,0,0.000885,0,0
0:2:3.395,706.191,39.962,0,0.000885,0,0
0:2:3.687,709.184,40.1344,0,0.000885,0,0
0:2:3.987,711.062,40.2378,0,0.000885,0,0
0:2:4.284,712.236,40.3068,0,0.000885,0,0
0:2:4.582,713.704,40.3895,0,0.000885,0,0
0:2:4.881,715.172,40.4722,0,0.000885,0,0
0:2:5.177,717.872,40.6239,0,0.000885,0,0
0:2:5.478,719.398,40.7066,0,0.000885,0,0
0:2:5.782,721.217,40.8101,0,0.000885,0,0
0:2:6.087,722.805,40.8997,0,0.000885,0,0
0:2:6.388,725.563,41.0583,0,0.000885,0,0
0:2:6.690,727.031,41.141,0,0.000885,0,0
0:2:6.993,729.144,41.2582,0,0.000885,0,0
0:2:7.288,730.491,41.3341,0,0.000885,0,0
0:2:7.597,732.431,41.4444,0,0.000885,0,0
0:2:7.896,734.895,41.5892,0,0.000885,0,0
0:2:8.189,736.421,41.6719,0,0.000885,0,0
0:2:8.490,737.773,41.7478,0,0.000885,0,0
0:2:8.786,739.592,41.8512,0,0.000885,0,0
0:2:9.086,741.06,41.9339,0,0.000885,0,0
0:2:9.383,743.992,42.0994,0,0.000885,0,0
0:2:9.688,745.166,42.1683,0,0.000885,0,0
0:2:9.988,747.106,42.2787,0,0.000885,0,0
0:2:10.297,749.04,42.389,0,0.000885,0,0
0:2:10.599,751.505,42.5269,0,0.000885,0,0
0:2:10.903,753.266,42.6234,0,0.000885,0,0
0:2:11.205,754.561,42.6992,0,0.000885,0,0
0:2:11.507,756.322,42.7958,0,0.000885,0,0
0:2:11.808,758.666,42.9337,0,0.000885,0,0
0:2:12.109,760.254,43.0233,0,0.000885,0,0
0:2:12.407,761.78,43.106,0,0.000885,0,0
0:2:12.702,763.715,43.2163,0,0.000885,0,0
0:2:13.003,765.303,43.306,0,0.000885,0,0
0:2:13.299,767.825,43.4508,0,0.000885,0,0
0:2:13.600,769.938,43.568,0,0.000885,0,0
0:2:13.896,771.228,43.6438,0,0.000885,0,0
0:2:14.194,772.99,43.7403,0,0.000885,0,0
0:2:14.491,774.4,43.8231,0,0.000885,0,0
0:2:14.786,776.922,43.9679,0,0.000885,0,0
0:2:15.087,778.332,44.0437,0,0.000885,0,0
0:2:15.394,780.209,44.154,0,0.000885,0,0
0:2:15.696,781.797,44.2437,0,0.000885,0,0
0:2:16.002,784.084,44.3678,0,0.000885,0,0
0:2:16.303,785.609,44.4574,0,0.000885,0,0
0:2:16.605,787.197,44.547,0,0.000885,0,0
0:2:16.907,789.132,44.6573,0,0.000885,0,0
0:2:17.206,790.071,44.7056,0,0.000885,0,0
0:2:17.505,792.949,44.8711,0,0.000885,0,0
0:2:17.799,794.532,44.9607,0,0.000885,0,0
0:2:18.101,795.591,45.0228,0,0.000885,0,0
0:2:18.395,797.94,45.1538,0,0.000885,0,0
0:2:18.697,800.226,45.2848,0,0.000885,0,0
0:2:19.004,801.107,45.333,0,0.000885,0,0
0:2:19.299,802.984,45.4365,0,0.000885,0,0
0:2:19.600,804.688,45.533,0,0.000885,0,0
0:2:19.896,806.271,45.6226,0,0.000885,0,0
0:2:20.195,809.207,45.795,0,0.000885,0,0
0:2:20.490,810.733,45.8777,0,0.000885,0,0
0:2:20.790,812.321,45.9673,0,0.000885,0,0
0:2:21.098,813.904,46.057,0,0.000885,0,0
0:2:21.399,815.782,46.1673,0,0.000885,0,0
0:2:21.703,819.127,46.3535,0,0.000885,0,0
0:2:22.004,820.595,46.4362,0,0.000885,0,0
0:2:22.302,822.476,46.5396,0,0.000885,0,0
0:2:22.602,824.411,46.6499,0,0.000885,0,0
0:2:22.898,826.996,46.8016,0,0.000885,0,0
0:2:23.199,828.815,46.8981,0,0.000885,0,0
0:2:23.495,830.576,47.0016,0,0.000885,0,0
0:2:23.791,832.16,47.0912,0,0.000885,0,0
0:2:24.090,833.744,47.1808,0,0.000885,0,0
0:2:24.396,836.328,47.3256,0,0.000885,0,0
0:2:24.697,838.205,47.4359,0,0.000885,0,0
0:2:24.991,840.318,47.5531,0,0.000885,0,0
0:2:25.292,842.257,47.6635,0,0.000885,0,0
0:2:25.599,844.957,47.8151,0,0.000885,0,0
0:2:25.902,846.777,47.9186,0,0.000885,0,0
0:2:26.205,848.832,48.0358,0,0.000885,0,0
0:2:26.506,850.531,48.1323,0,0.000885,0,0
0:2:26.806,851.999,48.215,0,0.000885,0,0
0:2:27.105,853.996,48.3254,0,0.000885,0,0
0:2:27.401,855.873,48.4357,0,0.000885,0,0
0:2:27.700,857.519,48.5253,0,0.000885,0,0
0:2:27.996,858.751,48.5942,0,0.000885,0,0
0:2:28.297,860.806,48.7115,0,0.000885,0,0
0:2:28.590,863.738,48.8769,0,0.000885,0,0
0:2:28.888,865.148,48.9597,0,0.000885,0,0
0:2:29.189,866.616,49.0424,0,0.000885,0,0
0:2:29.483,868.199,49.132,0,0.000885,0,0
0:2:29.784,869.903,49.2286,0,0.000885,0,0
0:2:30.081,872.545,49.3734,0,0.000885,0,0
0:2:30.383,874.423,49.4837,0,0.000885,0,0
0:2:30.687,875.712,49.5526,0,0.000885,0,0
0:2:30.991,877.768,49.6698,0,0.000885,0,0
0:2:31.292,879.943,49.7939,0,0.000885,0,0
0:2:31.592,881.7,49.8974,0,0.000885,0,0
0:2:31.892,883.288,49.987,0,0.000885,0,0
0:2:32.190,885.049,50.0835,0,0.000885,0,0
0:2:32.487,886.339,50.1594,0,0.000885,0,0
0:2:32.789,888.982,50.3041,0,0.000885,0,0
0:2:33.096,890.214,50.3731,0,0.000885,0,0
0:2:33.396,892.384,50.4972,0,0.000885,0,0
0:2:33.691,893.795,50.5799,0,0.000885,0,0
0:2:33.988,896.317,50.7178,0,0.000885,0,0
0:2:34.288,898.372,50.835,0,0.000885,0,0
0:2:34.592,899.546,50.904,0,0.000885,0,0
0:2:34.893,901.365,51.0074,0,0.000885,0,0
0:2:35.189,902.775,51.0833,0,0.000885,0,0
0:2:35.491,905.827,51.2625,0,0.000885,0,0
0:2:35.798,907.411,51.3522,0,0.000885,0,0
0:2:36.101,909.172,51.4487,0,0.000885,0,0
0:2:36.403,910.582,51.5314,0,0.000885,0,0
0:2:36.703,912.989,51.6624,0,0.000885,0,0
0:2:37.004,914.63,51.7589,0,0.000885,0,0
0:2:37.302,916.569,51.8693,0,0.000885,0,0
0:2:37.599,918.095,51.952,0,0.000885,0,0
0:2:37.900,919.972,52.0623,0,0.000885,0,0
0:2:38.191,922.672,52.214,0,0.000885,0,0
0:2:38.491,924.376,52.3105,0,0.000885,0,0
0:2:38.790,925.608,52.3795,0,0.000885,0,0
0:2:39.086,927.254,52.4691,0,0.000885,0,0
0:2:39.386,929.367,52.5932,0,0.000885,0,0
0:2:39.683,931.422,52.7104,0,0.000885,0,0
0:2:39.982,933.357,52.8138,0,0.000885,0,0
0:2:40.288,935.528,52.9379,0,0.000885,0,0
0:2:40.592,936.88,53.0138,0,0.000885,0,0
0:2:40.894,938.993,53.1379,0,0.000885,0,0
0:2:41.199,940.519,53.2206,0,0.000885,0,0
0:2:41.501,942.632,53.3447,0,0.000885,0,0
0:2:41.802,943.979,53.4206,0,0.000885,0,0
0:2:42.101,945.803,53.524,0,0.000885,0,0
0:2:42.400,948.677,53.6826,0,0.000885,0,0
0:2:42.693,949.909,53.7515,0,0.000885,0,0
0:2:42.993,951.848,53.8618,0,0.000885,0,0
0:2:43.289,952.902,53.9239,0,0.000885,0,0
0:2:43.587,955.135,54.048,0,0.000885,0,0
0:2:43.898,957.6,54.1859,0,0.000885,0,0
0:2:44.202,958.716,54.2548,0,0.000885,0,0
0:2:44.503,960.945,54.379,0,0.000885,0,0
0:2:44.799,962.528,54.4686,0,0.000885,0,0
0:2:45.100,965.171,54.6203,0,0.000885,0,0
0:2:45.399,966.581,54.6961,0,0.000885,0,0
0:2:45.702,968.751,54.8202,0,0.000885,0,0
0:2:46.006,969.517,54.8616,0,0.000885,0,0
0:2:46.309,972.568,55.034,0,0.000885,0,0
0:2:46.610,974.33,55.1374,0,0.000885,0,0
0:2:46.913,976.149,55.2408,0,0.000885,0,0
0:2:47.209,977.617,55.3235,0,0.000885,0,0
0:2:47.510,979.32,55.4201,0,0.000885,0,0
0:2:47.805,981.433,55.5373,0,0.000885,0,0
0:2:48.105,983.546,55.6545,0,0.000885,0,0
0:2:48.403,984.543,55.7165,0,0.000885,0,0
0:2:48.700,986.54,55.8268,0,0.000885,0,0
0:2:49.000,988.301,55.9234,0,0.000885,0,0
0:2:49.292,990.881,56.0751,0,0.000885,0,0
0:2:49.593,992.407,56.1578,0,0.000885,0,0
0:2:49.901,994.289,56.2681,0,0.000885,0,0
0:2:50.198,995.579,56.3371,0,0.000885,0,0
0:2:50.499,998.394,56.4956,0,0.000885,0,0
0:2:50.802,999.627,56.5646,0,0.000885,0,0
0:2:51.106,1001.86,56.6956,0,0.000885,0,0
0:2:51.408,1003.03,56.7576,0,0.000885,0,0
0:2:51.711,1004.97,56.868,0,0.000885,0,0
0:2:52.012,1007.43,57.0059,0,0.000885,0,0
0:2:52.308,1009.43,57.1231,0,0.000885,0,0
0:2:52.609,1010.84,57.1989,0,0.000885,0,0
0:2:52.904,1012.66,57.3023,0,0.000885,0,0
0:2:53.203,1015.42,57.4609,0,0.000885,0,0
0:2:53.500,1017.06,57.5505,0,0.000885,0,0
0:2:53.798,1018.94,57.6609,0,0.000885,0,0
0:2:54.098,1019.94,57.716,0,0.000885,0,0
0:2:54.390,1021.82,57.8263,0,0.000885,0,0
0:2:54.692,1024.16,57.9573,0,0.000885,0,0
0:2:54.990,1026.34,58.0814,0,0.000885,0,0
0:2:55.295,1027.51,58.1435,0,0.000885,0,0
0:2:55.598,1029.45,58.2538,0,0.000885,0,0
0:2:55.901,1030.97,58.3434,0,0.000885,0,0
0:2:56.206,1033.56,58.4882,0,0.000885,0,0
0:2:56.506,1035.08,58.571,0,0.000885,0,0
0:2:56.808,1037.49,58.7089,0,0.000885,0,0
0:2:57.111,1038.72,58.7778,0,0.000885,0,0
0:2:57.406,1041.24,58.9226,0,0.000885,0,0
0:2:57.708,1042.36,58.9846,0,0.000885,0,0
0:2:58.004,1044.12,59.0881,0,0.000885,0,0
0:2:58.302,1045.88,59.1846,0,0.000885,0,0
0:2:58.599,1047.82,59.2949,0,0.000885,0,0
0:2:58.895,1050.11,59.4259,0,0.000885,0,0
0:2:59.195,1051.76,59.5155,0,0.000885,0,0
0:2:59.488,1053.4,59.6121,0,0.000885,0,0
0:2:59.790,1055.39,59.7224,0,0.000885,0,0
0:3:0.087,1056.68,59.7982,0,0.000885,0,0
0:3:0.390,1059.03,59.9292,0,0.000885,0,0
0:3:0.694,1060.44,60.012,0,0.000885,0,0
0:3:0.996,1062.44,60.1223,0,0.000885,0,0
0:3:1.300,1063.85,60.1981,0,0.000885,0,0
0:3:1.602,1066.66,60.3636,0,0.000885,0,0
0:3:1.900,1068.31,60.4532,0,0.000885,0,0
0:3:2.200,1070.18,60.5567,0,0.000885,0,0
0:3:2.493,1071.3,60.6256,0,0.000885,0,0
0:3:2.793,1073.77,60.7635,0,0.000885,0,0
0:3:3.089,1076.23,60.9014,0,0.000885,0,0
0:3:3.390,1077.93,60.9979,0,0.000885,0,0
0:3:3.686,1079.34,61.0807,0,0.000885,0,0
0:3:3.992,1080.93,61.1703,0,0.000885,0,0
0:3:4.293,1083.74,61.3289,0,0.000885,0,0
0:3:4.587,1085.21,61.4116,0,0.000885,0,0
0:3:4.889,1086.68,61.4943,0,0.000885,0,0
0:3:5.185,1088.5,61.5978,0,0.000885,0,0
0:3:5.487,1090.61,61.715,0,0.000885,0,0
0:3:5.792,1092.72,61.8322,0,0.000885,0,0
0:3:6.096,1094.61,61.9425,0,0.000885,0,0
0:3:6.396,1096.19,62.0321,0,0.000885,0,0
0:3:6.700,1097.95,62.1287,0,0.000885,0,0
0:3:7.001,1100.53,62.2803,0,0.000885,0,0
0:3:7.295,1102.29,62.3769,0,0.000885,0,0
0:3:7.593,1103.94,62.4734,0,0.000885,0,0
0:3:7.892,1105.35,62.5492,0,0.000885,0,0
0:3:8.195,1107.28,62.6596,0,0.000885,0,0
0:3:8.500,1109.22,62.7699,0,0.000885,0,0
0:3:8.804,1111.21,62.8802,0,0.000885,0,0
0:3:9.102,1112.86,62.9767,0,0.000885,0,0
0:3:9.401,1115.03,63.1008,0,0.000885,0,0
0:3:9.696,1116.15,63.1629,0,0.000885,0,0
0:3:9.995,1118.61,63.3008,0,0.000885,0,0
0:3:10.302,1120.49,63.4042,0,0.000885,0,0
0:3:10.602,1122.01,63.4938,0,0.000885,0,0
0:3:10.905,1124.01,63.6041,0,0.000885,0,0
0:3:11.210,1126.24,63.7351,0,0.000885,0,0
0:3:11.512,1128.12,63.8386,0,0.000885,0,0
0:3:11.812,1129.76,63.9282,0,0.000885,0,0
0:3:12.115,1130.94,63.9971,0,0.000885,0,0
0:3:12.411,1133.52,64.1419,0,0.000885,0,0
0:3:12.711,1135.34,64.2453,0,0.000885,0,0
0:3:13.009,1137.4,64.3626,0,0.000885,0,0
0:3:13.306,1139.04,64.4591,0,0.000885,0,0
0:3:13.606,1140.74,64.5556,0,0.000885,0,0
0:3:13.900,1142.85,64.6728,0,0.000885,0,0
0:3:14.201,1145.08,64.7969,0,0.000885,0,0
0:3:14.494,1146.26,64.8659,0,0.000885,0,0
0:3:14.794,1147.9,64.9555,0,0.000885,0,0
0:3:15.092,1149.31,65.0382,0,0.000885,0,0
0:3:15.394,1152.42,65.2106,0,0.000885,0,0
0:3:15.697,1154.13,65.3071,0,0.000885,0,0
0:3:16.001,1155.42,65.383,0,0.000885,0,0
0:3:16.303,1157,65.4726,0,0.000885,0,0
0:3:16.606,1159.7,65.6243,0,0.000885,0,0
0:3:16.902,1160.87,65.6932,0,0.000885,0,0
0:3:17.204,1162.81,65.8036,0,0.000885,0,0
0:3:17.495,1164.34,65.8863,0,0.000885,0,0
0:3:17.796,1166.04,65.9828,0,0.000885,0,0
0:3:18.093,1168.97,66.1483,0,0.000885,0,0
0:3:18.390,1170.62,66.2448,0,0.000885,0,0
0:3:18.698,1172.26,66.3345,0,0.000885,0,0
0:3:18.993,1173.73,66.4172,0,0.000885,0,0
0:3:19.295,1175.55,66.5206,0,0.000885,0,0
0:3:19.590,1178.19,66.6723,0,0.000885,0,0
0:3:19.890,1179.83,66.7619,0,0.000885,0,0
0:3:20.188,1181.24,66.8447,0,0.000885,0,0
0:3:20.490,1183,66.9412,0,0.000885,0,0
0:3:20.795,1184.71,67.0377,0,0.000885,0,0
0:3:21.098,1187.58,67.2032,0,0.000885,0,0
0:3:21.402,1189.11,67.2928,0,0.000885,0,0
0:3:21.703,1190.7,67.3825,0,0.000885,0,0
0:3:21.998,1192.46,67.479,0,0.000885,0,0
0:3:22.298,1194.92,67.6169,0,0.000885,0,0
0:3:22.606,1196.8,67.7272,0,0.000885,0,0
0:3:22.907,1198.62,67.8306,0,0.000885,0,0
0:3:23.198,1200.44,67.934,0,0.000885,0,0
0:3:23.501,1201.85,68.0099,0,0.000885,0,0
0:3:23.797,1204.31,68.1478,0,0.000885,0,0
0:3:24.093,1205.72,68.2305,0,0.000885,0,0
0:3:24.391,1207.54,68.3339,0,0.000885,0,0
0:3:24.687,1209.01,68.4167,0,0.000885,0,0
0:3:24.988,1210.18,68.4856,0,0.000885,0,0
0:3:25.285,1212.83,68.6304,0,0.000885,0,0
0:3:25.585,1215.11,68.7614,0,0.000885,0,0
0:3:25.890,1216.87,68.8579,0,0.000885,0,0
0:3:26.193,1218.52,68.9545,0,0.000885,0,0
0:3:26.495,1220.93,69.0924,0,0.000885,0,0
0:3:26.797,1222.1,69.1544,0,0.000885,0,0
0:3:27.098,1223.39,69.2303,0,0.000885,0,0
0:3:27.406,1225.15,69.3268,0,0.000885,0,0
0:3:27.703,1226.86,69.4233,0,0.000885,0,0
0:3:28.004,1228.97,69.5474,0,0.000885,0,0
0:3:28.296,1230.96,69.6577,0,0.000885,0,0
0:3:28.598,1232.37,69.7405,0,0.000885,0,0
0:3:28.893,1233.9,69.8232,0,0.000885,0,0
0:3:29.192,1236.95,69.9956,0,0.000885,0,0
0:3:29.489,1238.47,70.0852,0,0.000885,0,0
0:3:29.786,1240.41,70.1955,0,0.000885,0,0
0:3:30.087,1242.11,70.2921,0,0.000885,0,0
0:3:30.382,1243.87,70.3886,0,0.000885,0,0
0:3:30.684,1246.52,70.5403,0,0.000885,0,0
0:3:30.987,1248.63,70.6575,0,0.000885,0,0
0:3:31.291,1250.27,70.754,0,0.000885,0,0
0:3:31.592,1252.04,70.8505,0,0.000885,0,0
0:3:31.893,1254.44,70.9884,0,0.000885,0,0
0:3:32.196,1256.14,71.0849,0,0.000885,0,0
0:3:32.502,1258.32,71.2091,0,0.000885,0,0
0:3:32.799,1259.79,71.2918,0,0.000885,0,0
0:3:33.098,1261.6,71.3952,0,0.000885,0,0
0:3:33.405,1264.54,71.5607,0,0.000885,0,0
0:3:33.705,1265.89,71.6365,0,0.000885,0,0
0:3:33.999,1267.94,71.7537,0,0.000885,0,0
0:3:34.302,1269.23,71.8227,0,0.000885,0,0
0:3:34.596,1270.99,71.9261,0,0.000885,0,0
0:3:34.893,1273.22,72.0502,0,0.000885,0,0
0:3:35.193,1274.75,72.133,0,0.000885,0,0
0:3:35.495,1276.22,72.2226,0,0.000885,0,0
0:3:35.799,1278.04,72.3191,0,0.000885,0,0
0:3:36.104,1280.8,72.4777,0,0.000885,0,0
0:3:36.406,1282.38,72.5673,0,0.000885,0,0
0:3:36.707,1283.79,72.6501,0,0.000885,0,0
0:3:37.000,1285.67,72.7535,0,0.000885,0,0
0:3:37.304,1286.84,72.8224,0,0.000885,0,0
0:3:37.596,1289.72,72.981,0,0.000885,0,0
0:3:37.896,1291.07,73.0568,0,0.000885,0,0
0:3:38.205,1293,73.1672,0,0.000885,0,0
0:3:38.500,1294.53,73.2568,0,0.000885,0,0
0:3:38.799,1297.11,73.4016,0,0.000885,0,0
0:3:39.093,1299,73.505,0,0.000885,0,0
0:3:39.395,1300.64,73.6015,0,0.000885,0,0
0:3:39.699,1302.69,73.7187,0,0.000885,0,0
0:3:39.997,1303.98,73.7877,0,0.000885,0,0
0:3:40.306,1306.27,73.9187,0,0.000885,0,0
0:3:40.609,1308.09,74.0221,0,0.000885,0,0
0:3:40.912,1309.56,74.1049,0,0.000885,0,0
0:3:41.215,1311.03,74.1876,0,0.000885,0,0
0:3:41.517,1313.73,74.3393,0,0.000885,0,0
0:3:41.818,1315.37,74.4358,0,0.000885,0,0
0:3:42.116,1316.84,74.5185,0,0.000885,0,0
0:3:42.414,1318.31,74.6013,0,0.000885,0,0
0:3:42.710,1320.18,74.7047,0,0.000885,0,0
0:3:43.012,1322.88,74.8633,0,0.000885,0,0
0:3:43.307,1324.7,74.9598,0,0.000885,0,0
0:3:43.607,1326.23,75.0494,0,0.000885,0,0
0:3:43.904,1327.82,75.1391,0,0.000885,0,0
0:3:44.198,1329.4,75.2287,0,0.000885,0,0
0:3:44.498,1331.86,75.3666,0,0.000885,0,0
0:3:44.795,1333.63,75.47,0,0.000885,0,0
0:3:45.094,1335.15,75.5528,0,0.000885,0,0
0:3:45.392,1336.86,75.6493,0,0.000885,0,0
0:3:45.692,1339.15,75.7803,0,0.000885,0,0
0:3:45.997,1341.37,75.9044,0,0.000885,0,0
0:3:46.299,1343.19,76.0078,0,0.000885,0,0
0:3:46.600,1345.01,76.1112,0,0.000885,0,0
0:3:46.903,1346.48,76.194,0,0.000885,0,0
0:3:47.211,1348.95,76.3319,0,0.000885,0,0
0:3:47.510,1350.71,76.4353,0,0.000885,0,0
0:3:47.806,1352.59,76.5387,0,0.000885,0,0
0:3:48.108,1353.76,76.6076,0,0.000885,0,0
0:3:48.400,1356.58,76.7662,0,0.000885,0,0
0:3:48.701,1358.22,76.8628,0,0.000885,0,0
0:3:48.998,1359.34,76.9248,0,0.000885,0,0
0:3:49.296,1361.21,77.0282,0,0.000885,0,0
0:3:49.593,1363.21,77.1385,0,0.000885,0,0
0:3:49.889,1365.91,77.2971,0,0.000885,0,0
0:3:50.191,1367.61,77.3937,0,0.000885,0,0
0:3:50.495,1369.2,77.4833,0,0.000885,0,0
0:3:50.799,1370.96,77.5798,0,0.000885,0,0
0:3:51.100,1372.31,77.6557,0,0.000885,0,0
0:3:51.404,1374.66,77.7867,0,0.000885,0,0
0:3:51.704,1376.77,77.9108,0,0.000885,0,0
0:3:51.996,1378.53,78.0073,0,0.000885,0,0
0:3:52.297,1379.88,78.0831,0,0.000885,0,0
0:3:52.593,1381.52,78.1797,0,0.000885,0,0
0:3:52.890,1383.99,78.3175,0,0.000885,0,0
0:3:53.190,1385.99,78.4279,0,0.000885,0,0
0:3:53.485,1387.22,78.5037,0,0.000885,0,0
0:3:53.787,1388.86,78.5933,0,0.000885,0,0
0:3:54.083,1390.33,78.6761,0,0.000885,0,0
0:3:54.381,1393.15,78.8347,0,0.000885,0,0
0:3:54.679,1394.62,78.9174,0,0.000885,0,0
0:3:54.973,1396.84,79.0484,0,0.000885,0,0
0:3:55.274,1398.25,79.1242,0,0.000885,0,0
0:3:55.579,1400.78,79.269,0,0.000885,0,0
0:3:55.883,1402.6,79.3724,0,0.000885,0,0
0:3:56.185,1403.95,79.4483,0,0.000885,0,0
0:3:56.487,1405.36,79.5241,0,0.000885,0,0
0:3:56.790,1407.76,79.662,0,0.000885,0,0
0:3:57.086,1409.41,79.7586,0,0.000885,0,0
0:3:57.386,1411.35,79.8689,0,0.000885,0,0
0:3:57.691,1413.34,79.9792,0,0.000885,0,0
0:3:57.991,1414.63,80.055,0,0.000885,0,0
0:3:58.288,1417.1,80.1929,0,0.000885,0,0
0:3:58.586,1419.04,80.3032,0,0.000885,0,0
0:3:58.884,1420.62,80.3929,0,0.000885,0,0
0:3:59.179,1421.97,80.4687,0,0.000885,0,0
0:3:59.480,1423.67,80.5652,0,0.000885,0,0
0:3:59.778,1426.31,80.71,0,0.000885,0,0
0:4:0.076,1428.19,80.8203,0,0.000885,0,0
0:4:0.374,1429.77,80.91,0,0.000885,0,0
0:4:0.677,1431.3,80.9927,0,0.000885,0,0
0:4:0.981,1433.77,81.1375,0,0.000885,0,0
0:4:1.284,1435.47,81.234,0,0.000885,0,0
0:4:1.586,1437.29,81.3306,0,0.000885,0,0
0:4:1.889,1439.46,81.4547,0,0.000885,0,0
0:4:2.187,1440.81,81.5305,0,0.000885,0,0
0:4:2.489,1443.51,81.6891,0,0.000885,0,0
0:4:2.792,1444.92,81.7649,0,0.000885,0,0
0:4:3.100,1446.86,81.8752,0,0.000885,0,0
0:4:3.398,1448.39,81.9649,0,0.000885,0,0
0:4:3.696,1450.56,82.0821,0,0.000885,0,0
0:4:3.995,1451.85,82.1579,0,0.000885,0,0
0:4:4.300,1453.43,82.2476,0,0.000885,0,0
0:4:4.601,1455.31,82.351,0,0.000885,0,0
0:4:4.898,1457.78,82.4958,0,0.000885,0,0
0:4:5.196,1459.71,82.6061,0,0.000885,0,0
0:4:5.503,1461.77,82.7164,0,0.000885,0,0
0:4:5.806,1462.24,82.744,0,0.000885,0,0
0:4:6.111,1462.82,82.7785,0,0.000885,0,0
0:4:6.413,1465.7,82.9439,0,0.000885,0,0
0:4:6.714,1467.23,83.0267,0,0.000885,0,0
0:4:7.016,1469.16,83.137,0,0.000885,0,0
0:4:7.313,1470.4,83.2059,0,0.000885,0,0
0:4:7.613,1473.22,83.3645,0,0.000885,0,0
0:4:7.909,1475.03,83.4679,0,0.000885,0,0
0:4:8.211,1477.21,83.592,0,0.000885,0,0
0:4:8.507,1479.09,83.7024,0,0.000885,0,0
0:4:8.803,1480.8,83.7989,0,0.000885,0,0
0:4:9.103,1483.86,83.9712,0,0.000885,0,0
0:4:9.397,1485.33,84.054,0,0.000885,0,0
0:4:9.697,1485.98,84.0885,0,0.000885,0,0
0:4:9.994,1486.8,84.1367,0,0.000885,0,0
0:4:10.295,1488.45,84.2264,0,0.000885,0,0
0:4:10.601,1491.69,84.4125,0,0.000885,0,0
0:4:10.906,1493.51,84.5159,0,0.000885,0,0
0:4:11.209,1495.93,84.6538,0,0.000885,0,0
0:4:11.510,1497.93,84.7641,0,0.000885,0,0
0:4:11.812,1500.4,84.902,0,0.000885,0,0
0:4:12.107,1501.93,84.9917,0,0.000885,0,0
0:4:12.407,1504.05,85.1089,0,0.000885,0,0
0:4:12.703,1505.88,85.2123,0,0.000885,0,0
0:4:13.009,1507.29,85.295,0,0.000885,0,0
0:4:13.310,1509.47,85.4191,0,0.000885,0,0
0:4:13.607,1508.77,85.3778,0,0.000885,0,0
0:4:13.902,1508,85.3364,0,0.000885,0,0
0:4:14.199,1507.17,85.2881,0,0.000885,0,0
0:4:14.497,1507.17,85.2881,0,0.000885,0,0
0:4:14.796,1505.17,85.1778,0,0.000885,0,0
0:4:15.099,1504.47,85.1365,0,0.000885,0,0
0:4:15.400,1502.4,85.0193,0,0.000885,0,0
0:4:15.704,1500.17,84.8951,0,0.000885,0,0
0:4:16.007,1501.17,84.9503,0,0.000885,0,0
0:4:16.310,1502.35,85.0124,0,0.000885,0,0
0:4:16.609,1503.35,85.0744,0,0.000885,0,0
0:4:16.912,1504.17,85.1158,0,0.000885,0,0
0:4:17.203,1504.35,85.1296,0,0.000885,0,0
0:4:17.502,1506.41,85.2468,0,0.000885,0,0
0:4:17.809,1508,85.3364,0,0.000885,0,0
0:4:18.103,1509.06,85.3985,0,0.000885,0,0
0:4:18.401,1509.82,85.4398,0,0.000885,0,0
0:4:18.697,1511.65,85.5433,0,0.000885,0,0
0:4:18.998,1513.71,85.6605,0,0.000885,0,0
0:4:19.293,1514.95,85.7294,0,0.000885,0,0
0:4:19.592,1513.59,85.6536,0,0.000885,0,0
0:4:19.900,1513.95,85.6743,0,0.000885,0,0
0:4:20.207,1515.36,85.7501,0,0.000885,0,0
0:4:20.507,1513.24,85.6329,0,0.000885,0,0
0:4:20.810,1512.12,85.5708,0,0.000885,0,0
0:4:21.112,1512.88,85.6122,0,0.000885,0,0
0:4:21.414,1511,85.5019,0,0.000885,0,0
0:4:21.713,1507.53,85.3088,0,0.000885,0,0
0:4:22.016,1500.11,84.8883,0,0.000885,0,0
0:4:22.309,1498.87,84.8193,0,0.000885,0,0
0:4:22.610,1499.93,84.8814,0,0.000885,0,0
0:4:22.903,1497.93,84.7641,0,0.000885,0,0
0:4:23.211,1485.63,84.0678,0,0.000885,0,0
0:4:23.508,1456.78,82.4337,0,0.000885,0,0
0:4:23.801,1441.46,81.5719,0,0.000885,0,0
0:4:24.102,1296.88,73.3878,0,0.000885,0,0
0:4:24.249,1078.17,61.0117,0,0.000885,0,0