File: DataFile2021-07-03_065148.csv
Test ID:,Date Tested:,Time:,Test Type:,Diameter Avg. (mm):,Cyl. Corr. Factor:,Height (mm):,Age (days):,Weight (kN):,Break Type:,Ramp Rate (MPa/s):,Load at Break (kN):,Stress at Break (MPa):
12,7/3/2021,06:51,Cylinder,100,1,200,0,3.6,3,0.25,1000.68,127.41
Sample Time,Load (kN),Stress (MPa),Long. Strain,Trans. Strain,Chan1 Deflection (mm),Chan2 Deflection (mm)
0:0:6.886,6.39209,0.813581,0,0.000885,0,0
0:0:7.379,6.21861,0.792897,0,0.000885,0,0
0:0:7.876,6.92143,0.882529,0,0.000885,0,0
0:0:8.374,8.03349,1.02042,0,0.000885,0,0
0:0:8.880,8.505,1.08248,0,0.000885,0,0
0:0:9.379,9.73716,1.24106,0,0.000885,0,0
0:0:9.887,10.907,1.38585,0,0.000885,0,0
0:0:10.386,11.7878,1.50306,0,0.000885,0,0
0:0:10.892,12.6107,1.60648,0,0.000885,0,0
0:0:11.390,12.8465,1.63406,0,0.000885,0,0
0:0:11.886,14.7192,1.87537,0,0.000885,0,0
0:0:12.381,15.4264,1.96501,0,0.000885,0,0
0:0:12.889,16.1871,2.06153,0,0.000885,0,0
0:0:13.394,17.3036,2.20632,0,0.000885,0,0
0:0:13.900,18.7092,2.38559,0,0.000885,0,0
0:0:14.398,19.6478,2.5028,0,0.000885,0,0
0:0:14.894,20.8221,2.64759,0,0.000885,0,0
0:0:15.393,21.7029,2.7648,0,0.000885,0,0
0:0:15.889,22.7571,2.8958,0,0.000885,0,0
0:0:16.387,23.8692,3.04059,0,0.000885,0,0
0:0:16.886,25.2214,3.21296,0,0.000885,0,0
0:0:17.391,26.3913,3.35775,0,0.000885,0,0
0:0:17.898,27.1564,3.45427,0,0.000885,0,0
0:0:18.402,28.3886,3.61285,0,0.000885,0,0
0:0:18.899,29.4428,3.75075,0,0.000885,0,0
0:0:19.397,30.6171,3.89554,0,0.000885,0,0
0:0:19.894,30.6171,3.89554,0,0.000885,0,0
0:0:20.393,31.9071,4.06101,0,0.000885,0,0
0:0:20.892,32.6099,4.15064,0,0.000885,0,0
0:0:21.389,33.4907,4.26096,0,0.000885,0,0
0:0:21.887,34.5449,4.39886,0,0.000885,0,0
0:0:22.391,35.6614,4.54365,0,0.000885,0,0
0:0:22.899,36.3642,4.63328,0,0.000885,0,0
0:0:23.402,37.245,4.74359,0,0.000885,0,0
0:0:23.905,38.1835,4.8608,0,0.000885,0,0
0:0:24.402,39.7048,5.05386,0,0.000885,0,0
0:0:24.900,40.1185,5.10902,0,0.000885,0,0
0:0:25.398,41.2884,5.25381,0,0.000885,0,0
0:0:25.898,42.6407,5.42617,0,0.000885,0,0
0:0:26.395,43.8105,5.57786,0,0.000885,0,0
0:0:26.891,44.9849,5.72954,0,0.000885,0,0
0:0:27.391,45.4519,5.7847,0,0.000885,0,0
0:0:27.897,46.3905,5.90881,0,0.000885,0,0
0:0:28.402,47.2134,6.01223,0,0.000885,0,0
0:0:28.904,48.3299,6.15012,0,0.000885,0,0
0:0:29.402,49.2685,6.27423,0,0.000885,0,0
0:0:29.900,50.4384,6.41902,0,0.000885,0,0
0:0:30.399,50.9099,6.48107,0,0.000885,0,0
0:0:30.895,52.787,6.72239,0,0.000885,0,0
0:0:31.394,53.6633,6.8327,0,0.000885,0,0
0:0:31.889,53.8413,6.85339,0,0.000885,0,0
0:0:32.388,55.5405,7.07402,0,0.000885,0,0
0:0:32.894,55.8341,7.10849,0,0.000885,0,0
0:0:33.401,57.2442,7.28776,0,0.000885,0,0
0:0:33.904,57.8892,7.3705,0,0.000885,0,0
0:0:34.401,59.5305,7.57734,0,0.000885,0,0
0:0:34.899,60.4691,7.70144,0,0.000885,0,0
0:0:35.396,61.1719,7.79108,0,0.000885,0,0
0:0:35.891,61.5812,7.83934,0,0.000885,0,0
0:0:36.388,63.1069,8.03239,0,0.000885,0,0
0:0:36.884,63.9877,8.1496,0,0.000885,0,0
0:0:37.393,64.6905,8.23923,0,0.000885,0,0
0:0:37.900,65.8648,8.38402,0,0.000885,0,0
0:0:38.403,67.1548,8.5495,0,0.000885,0,0
0:0:38.901,68.2713,8.69429,0,0.000885,0,0
0:0:39.399,69.0898,8.79771,0,0.000885,0,0
0:0:39.896,70.0862,8.92182,0,0.000885,0,0
0:0:40.394,70.8513,9.01834,0,0.000885,0,0
0:0:40.892,71.9633,9.16313,0,0.000885,0,0
0:0:41.390,72.9019,9.28034,0,0.000885,0,0
0:0:41.889,73.7827,9.39755,0,0.000885,0,0
0:0:42.391,75.6598,9.63198,0,0.000885,0,0
0:0:42.897,75.7755,9.64577,0,0.000885,0,0
0:0:43.403,76.7719,9.77677,0,0.000885,0,0
0:0:43.905,77.8884,9.91466,0,0.000885,0,0
0:0:44.403,78.649,10.0112,0,0.000885,0,0
0:0:44.901,79.4719,10.1215,0,0.000885,0,0
0:0:45.401,80.5262,10.2525,0,0.000885,0,0
0:0:45.897,81.5848,10.3904,0,0.000885,0,0
0:0:46.394,82.3455,10.4869,0,0.000885,0,0
0:0:46.892,83.8712,10.68,0,0.000885,0,0
0:0:47.390,84.6319,10.7765,0,0.000885,0,0
0:0:47.897,85.6283,10.9006,0,0.000885,0,0
0:0:48.403,86.509,11.0178,0,0.000885,0,0
0:0:48.907,87.7412,11.1695,0,0.000885,0,0
0:0:49.403,88.5018,11.266,0,0.000885,0,0
0:0:49.901,89.2669,11.3626,0,0.000885,0,0
0:0:50.398,90.7304,11.5556,0,0.000885,0,0
0:0:50.896,91.4955,11.6521,0,0.000885,0,0
0:0:51.392,92.8433,11.8245,0,0.000885,0,0
0:0:51.889,93.3148,11.8797,0,0.000885,0,0
0:0:52.394,94.8984,12.0796,0,0.000885,0,0
0:0:52.899,95.4811,12.1555,0,0.000885,0,0
0:0:53.406,96.5976,12.3002,0,0.000885,0,0
0:0:53.910,97.1847,12.3761,0,0.000885,0,0
0:0:54.407,98.4747,12.5416,0,0.000885,0,0
0:0:54.905,99.2932,12.645,0,0.000885,0,0
0:0:55.401,100.525,12.7967,0,0.000885,0,0
0:0:55.899,101.113,12.8725,0,0.000885,0,0
0:0:56.396,102.171,13.0104,0,0.000885,0,0
0:0:56.893,103.341,13.1552,0,0.000885,0,0
0:0:57.400,104.337,13.2862,0,0.000885,0,0
0:0:57.907,105.396,13.4172,0,0.000885,0,0
0:0:58.412,106.508,13.562,0,0.000885,0,0
0:0:58.909,107.86,13.7344,0,0.000885,0,0
0:0:59.406,108.034,13.755,0,0.000885,0,0
0:0:59.903,108.621,13.8309,0,0.000885,0,0
0:1:0.402,110.027,14.0101,0,0.000885,0,0
0:1:0.900,110.85,14.1136,0,0.000885,0,0
0:1:1.399,112.433,14.3135,0,0.000885,0,0
0:1:1.896,113.487,14.4514,0,0.000885,0,0
0:1:2.397,114.31,14.5548,0,0.000885,0,0
0:1:2.904,114.31,14.5548,0,0.000885,0,0
0:1:3.408,116.01,14.7686,0,0.000885,0,0
0:1:3.911,117.42,14.9478,0,0.000885,0,0
0:1:4.410,118.358,15.0719,0,0.000885,0,0
0:1:4.906,118.416,15.0788,0,0.000885,0,0
0:1:5.406,120.409,15.3339,0,0.000885,0,0
0:1:5.901,120.645,15.3615,0,0.000885,0,0
0:1:6.400,121.641,15.4856,0,0.000885,0,0
0:1:6.897,123.403,15.7132,0,0.000885,0,0
0:1:7.395,124.163,15.8097,0,0.000885,0,0
0:1:7.902,124.399,15.8373,0,0.000885,0,0
0:1:8.407,125.983,16.0372,0,0.000885,0,0
0:1:8.911,126.921,16.1613,0,0.000885,0,0
0:1:9.408,127.33,16.2096,0,0.000885,0,0
0:1:9.906,128.505,16.3613,0,0.000885,0,0
0:1:10.403,130.382,16.6026,0,0.000885,0,0
0:1:10.900,131.027,16.6853,0,0.000885,0,0
0:1:11.397,131.494,16.7405,0,0.000885,0,0
0:1:11.894,132.904,16.9197,0,0.000885,0,0
0:1:12.388,133.665,17.0163,0,0.000885,0,0
0:1:12.897,134.425,17.1128,0,0.000885,0,0
0:1:13.403,136.245,17.3472,0,0.000885,0,0
0:1:13.906,136.774,17.4162,0,0.000885,0,0
0:1:14.403,137.592,17.5196,0,0.000885,0,0
0:1:14.899,138.882,17.6851,0,0.000885,0,0
0:1:15.398,139.296,17.7333,0,0.000885,0,0
0:1:15.895,140.177,17.8505,0,0.000885,0,0
0:1:16.392,141.698,18.0436,0,0.000885,0,0
0:1:16.898,143.224,18.2366,0,0.000885,0,0
0:1:17.403,143.989,18.3332,0,0.000885,0,0
0:1:17.910,144.692,18.4228,0,0.000885,0,0
0:1:18.413,145.101,18.4779,0,0.000885,0,0
0:1:18.912,146.8,18.6917,0,0.000885,0,0
0:1:19.408,146.92,18.7055,0,0.000885,0,0
0:1:19.904,148.677,18.933,0,0.000885,0,0
0:1:20.403,149.736,19.064,0,0.000885,0,0
0:1:20.898,150.203,19.1261,0,0.000885,0,0
0:1:21.397,151.671,19.3122,0,0.000885,0,0
0:1:21.894,152.316,19.395,0,0.000885,0,0
0:1:22.396,153.548,19.5535,0,0.000885,0,0
0:1:22.903,154.073,19.6156,0,0.000885,0,0
0:1:23.408,155.892,19.85,0,0.000885,0,0
0:1:23.910,156.244,19.8914,0,0.000885,0,0
0:1:24.405,157.476,20.05,0,0.000885,0,0
0:1:24.902,158.299,20.1534,0,0.000885,0,0
0:1:25.399,159.762,20.3395,0,0.000885,0,0
0:1:25.898,160.056,20.3809,0,0.000885,0,0
0:1:26.395,161.933,20.6153,0,0.000885,0,0
0:1:26.902,162.462,20.6843,0,0.000885,0,0
0:1:27.399,163.459,20.8153,0,0.000885,0,0
0:1:27.906,164.219,20.9118,0,0.000885,0,0
0:1:28.411,165.687,21.098,0,0.000885,0,0
0:1:28.916,166.159,21.1531,0,0.000885,0,0
0:1:29.412,167.329,21.3048,0,0.000885,0,0
0:1:29.910,168.152,21.4082,0,0.000885,0,0
0:1:30.408,169.09,21.5323,0,0.000885,0,0
0:1:30.903,169.499,21.5806,0,0.000885,0,0
0:1:31.402,171.025,21.7736,0,0.000885,0,0
0:1:31.898,171.964,21.8977,0,0.000885,0,0
0:1:32.396,172.902,22.015,0,0.000885,0,0
0:1:32.903,174.602,22.2287,0,0.000885,0,0
0:1:33.408,175.949,22.4011,0,0.000885,0,0
0:1:33.911,175.66,22.3666,0,0.000885,0,0
0:1:34.409,176.714,22.4976,0,0.000885,0,0
0:1:34.906,177.359,22.5803,0,0.000885,0,0
0:1:35.403,179.059,22.801,0,0.000885,0,0
0:1:35.898,179.179,22.8148,0,0.000885,0,0
0:1:36.396,181.229,23.0768,0,0.000885,0,0
0:1:36.893,181.639,23.125,0,0.000885,0,0
0:1:37.398,183.164,23.3181,0,0.000885,0,0
0:1:37.904,183.285,23.3388,0,0.000885,0,0
0:1:38.405,185.042,23.5594,0,0.000885,0,0
0:1:38.904,185.807,23.6559,0,0.000885,0,0
0:1:39.401,186.567,23.7524,0,0.000885,0,0
0:1:39.899,187.328,23.849,0,0.000885,0,0
0:1:40.397,188.974,24.0627,0,0.000885,0,0
0:1:40.894,189.325,24.1041,0,0.000885,0,0
0:1:41.399,190.379,24.242,0,0.000885,0,0
0:1:41.897,191.785,24.4212,0,0.000885,0,0
0:1:42.399,192.314,24.4833,0,0.000885,0,0
0:1:42.903,193.311,24.6143,0,0.000885,0,0
0:1:43.403,194.485,24.766,0,0.000885,0,0
0:1:43.902,195.13,24.8418,0,0.000885,0,0
0:1:44.396,196.714,25.0487,0,0.000885,0,0
0:1:44.888,198.062,25.221,0,0.000885,0,0
0:1:45.391,198.591,25.2831,0,0.000885,0,0
0:1:45.885,199.996,25.4623,0,0.000885,0,0
0:1:46.379,200.641,25.5451,0,0.000885,0,0
0:1:46.891,201.931,25.7105,0,0.000885,0,0
0:1:47.397,202.461,25.7795,0,0.000885,0,0
0:1:47.900,203.048,25.8553,0,0.000885,0,0
0:1:48.402,204.28,26.007,0,0.000885,0,0
0:1:48.903,205.392,26.1518,0,0.000885,0,0
0:1:49.396,206.273,26.2621,0,0.000885,0,0
0:1:49.887,207.741,26.4483,0,0.000885,0,0
0:1:50.381,207.914,26.4759,0,0.000885,0,0
0:1:50.882,209.324,26.6551,0,0.000885,0,0
0:1:51.377,210.557,26.8068,0,0.000885,0,0
0:1:51.879,211.789,26.9654,0,0.000885,0,0
0:1:52.383,212.785,27.0895,0,0.000885,0,0
0:1:52.886,213.488,27.1791,0,0.000885,0,0
0:1:53.387,213.897,27.2343,0,0.000885,0,0
0:1:53.887,215.187,27.3998,0,0.000885,0,0
0:1:54.392,215.952,27.4963,0,0.000885,0,0
0:1:54.883,216.597,27.579,0,0.000885,0,0
0:1:55.376,217.536,27.6962,0,0.000885,0,0
0:1:55.869,219.177,27.9031,0,0.000885,0,0
0:1:56.363,219.293,27.9238,0,0.000885,0,0
0:1:56.858,221.17,28.1582,0,0.000885,0,0
0:1:57.358,222.811,28.3719,0,0.000885,0,0
0:1:57.862,222.989,28.3926,0,0.000885,0,0
0:1:58.361,223.928,28.5098,0,0.000885,0,0
0:1:58.858,225.396,28.696,0,0.000885,0,0
0:1:59.352,226.156,28.7925,0,0.000885,0,0
0:1:59.846,226.508,28.8408,0,0.000885,0,0
0:2:0.339,228.269,29.0614,0,0.000885,0,0
0:2:0.835,228.914,29.1441,0,0.000885,0,0
0:2:1.328,229.381,29.2062,0,0.000885,0,0
0:2:1.821,230.262,29.3165,0,0.000885,0,0
0:2:2.316,232.139,29.5578,0,0.000885,0,0
0:2:2.821,232.669,29.6268,0,0.000885,0,0
0:2:3.323,233.781,29.7647,0,0.000885,0,0
0:2:3.823,234.368,29.8405,0,0.000885,0,0
0:2:4.319,236.009,30.0474,0,0.000885,0,0
0:2:4.810,236.948,30.1715,0,0.000885,0,0
0:2:5.304,237.006,30.1784,0,0.000885,0,0
0:2:5.799,238.767,30.399,0,0.000885,0,0
0:2:6.291,239.999,30.5576,0,0.000885,0,0
0:2:6.793,241.347,30.7299,0,0.000885,0,0
0:2:7.288,241.232,30.7161,0,0.000885,0,0
0:2:7.791,241.992,30.8127,0,0.000885,0,0
0:2:8.293,243.046,30.9437,0,0.000885,0,0
0:2:8.793,244.399,31.116,0,0.000885,0,0
0:2:9.299,245.044,31.1988,0,0.000885,0,0
0:2:9.790,246.271,31.3574,0,0.000885,0,0
0:2:10.283,247.272,31.4815,0,0.000885,0,0
0:2:10.778,248.384,31.6263,0,0.000885,0,0
0:2:11.280,249.087,31.7159,0,0.000885,0,0
0:2:11.775,250.613,31.9089,0,0.000885,0,0
0:2:12.278,251.494,32.0193,0,0.000885,0,0
0:2:12.779,252.49,32.1503,0,0.000885,0,0
0:2:13.280,253.193,32.2399,0,0.000885,0,0
0:2:13.783,254.545,32.4123,0,0.000885,0,0
0:2:14.287,255.012,32.4674,0,0.000885,0,0
0:2:14.779,256.418,32.6467,0,0.000885,0,0
0:2:15.273,256.831,32.7018,0,0.000885,0,0
0:2:15.767,258.001,32.8466,0,0.000885,0,0
0:2:16.261,259.002,32.9776,0,0.000885,0,0
0:2:16.755,260.114,33.1155,0,0.000885,0,0
0:2:17.253,261.168,33.2534,0,0.000885,0,0
0:2:17.757,262.049,33.3637,0,0.000885,0,0
0:2:18.257,263.459,33.543,0,0.000885,0,0
0:2:18.753,264.046,33.6188,0,0.000885,0,0
0:2:19.248,264.985,33.736,0,0.000885,0,0
0:2:19.741,266.626,33.9498,0,0.000885,0,0
0:2:20.236,267.623,34.0739,0,0.000885,0,0
0:2:20.728,266.978,33.9912,0,0.000885,0,0
0:2:21.222,268.504,34.1842,0,0.000885,0,0
0:2:21.714,270.145,34.3979,0,0.000885,0,0
0:2:22.209,270.496,34.4393,0,0.000885,0,0
0:2:22.713,271.026,34.5083,0,0.000885,0,0
0:2:23.213,272.903,34.7496,0,0.000885,0,0
0:2:23.711,273.606,34.8392,0,0.000885,0,0
0:2:24.205,274.718,34.9771,0,0.000885,0,0
0:2:24.698,275.247,35.0461,0,0.000885,0,0
0:2:25.189,276.831,35.246,0,0.000885,0,0
0:2:25.694,278.063,35.4046,0,0.000885,0,0
0:2:26.198,278.53,35.4666,0,0.000885,0,0
0:2:26.701,279.175,35.5425,0,0.000885,0,0
0:2:27.205,280.701,35.7424,0,0.000885,0,0
0:2:27.708,281.817,35.8803,0,0.000885,0,0
0:2:28.207,282.813,36.0113,0,0.000885,0,0
0:2:28.702,283.458,36.0941,0,0.000885,0,0
0:2:29.204,284.513,36.2251,0,0.000885,0,0
0:2:29.708,285.571,36.3629,0,0.000885,0,0
0:2:30.202,286.799,36.5146,0,0.000885,0,0
0:2:30.695,287.328,36.5836,0,0.000885,0,0
0:2:31.200,288.325,36.7077,0,0.000885,0,0
0:2:31.705,289.028,36.7973,0,0.000885,0,0
0:2:32.205,290.553,36.9973,0,0.000885,0,0
0:2:32.707,291.256,37.0869,0,0.000885,0,0
0:2:33.209,291.434,37.1076,0,0.000885,0,0
0:2:33.705,293.133,37.3213,0,0.000885,0,0
0:2:34.200,294.25,37.4661,0,0.000885,0,0
0:2:34.703,296.007,37.6867,0,0.000885,0,0
0:2:35.207,296.478,37.7488,0,0.000885,0,0
0:2:35.700,297.946,37.935,0,0.000885,0,0
0:2:36.204,298.823,38.0453,0,0.000885,0,0
0:2:36.696,299.823,38.1763,0,0.000885,0,0
0:2:37.202,300.291,38.2314,0,0.000885,0,0
0:2:37.704,301.407,38.3762,0,0.000885,0,0
0:2:38.206,301.874,38.4383,0,0.000885,0,0
0:2:38.708,302.871,38.5624,0,0.000885,0,0
0:2:39.202,303.4,38.6313,0,0.000885,0,0
0:2:39.705,304.574,38.7761,0,0.000885,0,0
0:2:40.206,305.864,38.9416,0,0.000885,0,0
0:2:40.700,307.27,39.1209,0,0.000885,0,0
0:2:41.190,308.969,39.3415,0,0.000885,0,0
0:2:41.684,308.796,39.3139,0,0.000885,0,0
0:2:42.177,310.028,39.4725,0,0.000885,0,0
0:2:42.680,311.024,39.6035,0,0.000885,0,0
0:2:43.182,311.843,39.7069,0,0.000885,0,0
0:2:43.682,313.662,39.9344,0,0.000885,0,0
0:2:44.195,314.191,40.0034,0,0.000885,0,0
0:2:44.697,314.836,40.0861,0,0.000885,0,0
0:2:45.202,316.304,40.2723,0,0.000885,0,0
0:2:45.706,316.949,40.355,0,0.000885,0,0
0:2:46.197,318.003,40.486,0,0.000885,0,0
0:2:46.691,319.115,40.6308,0,0.000885,0,0
0:2:47.192,319.938,40.7342,0,0.000885,0,0
0:2:47.695,320.761,40.8376,0,0.000885,0,0
0:2:48.194,321.815,40.9755,0,0.000885,0,0
0:2:48.688,323.341,41.1686,0,0.000885,0,0
0:2:49.183,324.222,41.2789,0,0.000885,0,0
0:2:49.677,324.573,41.3272,0,0.000885,0,0
0:2:50.171,325.979,41.5064,0,0.000885,0,0
0:2:50.663,326.273,41.5409,0,0.000885,0,0
0:2:51.158,326.918,41.6236,0,0.000885,0,0
0:2:51.651,327.563,41.7064,0,0.000885,0,0
0:2:52.147,329.675,41.9753,0,0.000885,0,0
0:2:52.652,330.494,42.0787,0,0.000885,0,0
0:2:53.150,331.259,42.1752,0,0.000885,0,0
0:2:53.651,332.785,42.3683,0,0.000885,0,0
0:2:54.144,334.133,42.5407,0,0.000885,0,0
0:2:54.637,334.306,42.5682,0,0.000885,0,0
0:2:55.130,335.129,42.6717,0,0.000885,0,0
0:2:55.624,336.361,42.8233,0,0.000885,0,0
0:2:56.117,336.828,42.8854,0,0.000885,0,0
0:2:56.610,337.767,43.0026,0,0.000885,0,0
0:2:57.102,339.235,43.1957,0,0.000885,0,0
0:2:57.604,339.764,43.2577,0,0.000885,0,0
0:2:58.106,341.405,43.4714,0,0.000885,0,0
0:2:58.606,343.047,43.6783,0,0.000885,0,0
0:2:59.110,342.931,43.6645,0,0.000885,0,0
0:2:59.603,344.221,43.83,0,0.000885,0,0
0:3:0.105,345.511,43.9886,0,0.000885,0,0
0:3:0.608,345.685,44.0161,0,0.000885,0,0
0:3:1.101,347.268,44.2161,0,0.000885,0,0
0:3:1.605,347.975,44.3057,0,0.000885,0,0
0:3:2.107,348.736,44.4022,0,0.000885,0,0
0:3:2.610,350.493,44.6298,0,0.000885,0,0
0:3:3.110,351.552,44.7608,0,0.000885,0,0
0:3:3.605,351.374,44.7401,0,0.000885,0,0
0:3:4.097,353.429,45.0021,0,0.000885,0,0
0:3:4.592,354.599,45.1469,0,0.000885,0,0
0:3:5.085,355.186,45.2227,0,0.000885,0,0
0:3:5.578,356.245,45.3606,0,0.000885,0,0
0:3:6.073,357.241,45.4847,0,0.000885,0,0
0:3:6.565,357.766,45.5537,0,0.000885,0,0
0:3:7.060,359.06,45.7191,0,0.000885,0,0
0:3:7.565,359.585,45.7812,0,0.000885,0,0
0:3:8.064,360.875,45.9467,0,0.000885,0,0
0:3:8.562,361.347,46.0087,0,0.000885,0,0
0:3:9.057,362.988,46.2156,0,0.000885,0,0
0:3:9.550,363.749,46.3121,0,0.000885,0,0
0:3:10.044,364.865,46.4569,0,0.000885,0,0
0:3:10.538,365.862,46.581,0,0.000885,0,0
0:3:11.028,366.743,46.6982,0,0.000885,0,0
0:3:11.523,367.797,46.8292,0,0.000885,0,0
0:3:12.014,368.384,46.905,0,0.000885,0,0
0:3:12.519,369.558,47.0567,0,0.000885,0,0
0:3:13.022,370.083,47.1188,0,0.000885,0,0
0:3:13.522,370.79,47.2084,0,0.000885,0,0
0:3:14.015,372.08,47.3739,0,0.000885,0,0
0:3:14.509,373.192,47.5187,0,0.000885,0,0
0:3:15.000,374.603,47.6979,0,0.000885,0,0
0:3:15.494,375.599,47.822,0,0.000885,0,0
0:3:15.996,376.066,47.8841,0,0.000885,0,0
0:3:16.491,378.237,48.1599,0,0.000885,0,0
0:3:16.990,378.415,48.1806,0,0.000885,0,0
0:3:17.493,379.469,48.3185,0,0.000885,0,0
0:3:17.992,380.523,48.4495,0,0.000885,0,0
0:3:18.490,380.643,48.4632,0,0.000885,0,0
0:3:18.984,381.875,48.6218,0,0.000885,0,0
0:3:19.478,383.69,48.8563,0,0.000885,0,0
0:3:19.972,384.455,48.9528,0,0.000885,0,0
0:3:20.466,385.216,49.0493,0,0.000885,0,0
0:3:20.962,386.742,49.2424,0,0.000885,0,0
0:3:21.455,387.329,49.3182,0,0.000885,0,0
0:3:21.952,388.267,49.4354,0,0.000885,0,0
0:3:22.457,389.557,49.6009,0,0.000885,0,0
0:3:22.957,389.793,49.6285,0,0.000885,0,0
0:3:23.458,391.083,49.7939,0,0.000885,0,0
0:3:23.951,391.728,49.8767,0,0.000885,0,0
0:3:24.447,393.485,50.0973,0,0.000885,0,0
0:3:24.940,394.015,50.1663,0,0.000885,0,0
0:3:25.434,394.188,50.1869,0,0.000885,0,0
0:3:25.926,395.069,50.3041,0,0.000885,0,0
0:3:26.421,396.83,50.5248,0,0.000885,0,0
0:3:26.914,398.765,50.773,0,0.000885,0,0
0:3:27.416,399.059,50.8075,0,0.000885,0,0
0:3:27.918,399.584,50.8764,0,0.000885,0,0
0:3:28.419,401.23,51.0833,0,0.000885,0,0
0:3:28.913,402.226,51.2143,0,0.000885,0,0
0:3:29.407,402.987,51.3108,0,0.000885,0,0
0:3:29.897,403.4,51.359,0,0.000885,0,0
0:3:30.392,404.69,51.5245,0,0.000885,0,0
0:3:30.883,404.864,51.5521,0,0.000885,0,0
0:3:31.379,406.799,51.7934,0,0.000885,0,0
0:3:31.871,407.737,51.9175,0,0.000885,0,0
0:3:32.374,408.56,52.0209,0,0.000885,0,0
0:3:32.876,409.441,52.1313,0,0.000885,0,0
0:3:33.378,411.14,52.345,0,0.000885,0,0
0:3:33.870,411.785,52.4277,0,0.000885,0,0
0:3:34.362,411.963,52.4553,0,0.000885,0,0
0:3:34.855,412.782,52.5587,0,0.000885,0,0
0:3:35.347,414.659,52.7932,0,0.000885,0,0
0:3:35.841,415.13,52.8552,0,0.000885,0,0
0:3:36.336,416.887,53.0827,0,0.000885,0,0
0:3:36.835,417.359,53.1379,0,0.000885,0,0
0:3:37.340,418.355,53.2689,0,0.000885,0,0
0:3:37.839,419.467,53.4068,0,0.000885,0,0
0:3:38.335,420.112,53.4895,0,0.000885,0,0
0:3:38.831,421.402,53.655,0,0.000885,0,0
0:3:39.324,422.755,53.8274,0,0.000885,0,0
0:3:39.818,423.048,53.8618,0,0.000885,0,0
0:3:40.311,424.632,54.0687,0,0.000885,0,0
0:3:40.806,424.747,54.0825,0,0.000885,0,0
0:3:41.309,424.921,54.1032,0,0.000885,0,0
0:3:41.801,426.682,54.3238,0,0.000885,0,0
0:3:42.308,428.444,54.5513,0,0.000885,0,0
0:3:42.808,429.027,54.6272,0,0.000885,0,0
0:3:43.308,430.437,54.8064,0,0.000885,0,0
0:3:43.811,431.197,54.903,0,0.000885,0,0
0:3:44.304,432.02,55.0064,0,0.000885,0,0
0:3:44.809,432.839,55.1098,0,0.000885,0,0
0:3:45.312,433.777,55.2339,0,0.000885,0,0
0:3:45.802,434.778,55.358,0,0.000885,0,0
0:3:46.297,436.184,55.5373,0,0.000885,0,0
0:3:46.789,437.122,55.6545,0,0.000885,0,0
0:3:47.291,437.589,55.7165,0,0.000885,0,0
0:3:47.792,438.234,55.7993,0,0.000885,0,0
0:3:48.292,439.057,55.9027,0,0.000885,0,0
0:3:48.794,440.405,56.0751,0,0.000885,0,0
0:3:49.308,441.695,56.2405,0,0.000885,0,0
0:3:49.811,442.985,56.406,0,0.000885,0,0
0:3:50.313,443.808,56.5094,0,0.000885,0,0
0:3:50.807,444.395,56.5853,0,0.000885,0,0
0:3:51.309,445.334,56.7025,0,0.000885,0,0
0:3:51.811,446.917,56.9024,0,0.000885,0,0
0:3:52.315,447.269,56.9507,0,0.000885,0,0
0:3:52.814,448.674,57.13,0,0.000885,0,0
0:3:53.308,450.084,57.3092,0,0.000885,0,0
0:3:53.811,450.787,57.3989,0,0.000885,0,0
0:3:54.313,451.962,57.5436,0,0.000885,0,0
0:3:54.808,453.309,57.716,0,0.000885,0,0
0:3:55.310,453.897,57.7919,0,0.000885,0,0
0:3:55.813,454.364,57.8539,0,0.000885,0,0
0:3:56.316,454.657,57.8884,0,0.000885,0,0
0:3:56.814,456.067,58.0676,0,0.000885,0,0
0:3:57.320,457.299,58.2262,0,0.000885,0,0
0:3:57.820,458.883,58.4262,0,0.000885,0,0
0:3:58.317,459.879,58.5503,0,0.000885,0,0
0:3:58.811,461.054,58.702,0,0.000885,0,0
0:3:59.315,461.463,58.7571,0,0.000885,0,0
0:3:59.808,462.753,58.9226,0,0.000885,0,0
0:4:0.300,463.282,58.9846,0,0.000885,0,0
0:4:0.814,463.807,59.0536,0,0.000885,0,0
0:4:1.310,464.982,59.2053,0,0.000885,0,0
0:4:1.812,465.92,59.3225,0,0.000885,0,0
0:4:2.315,467.152,59.4811,0,0.000885,0,0
0:4:2.817,468.442,59.6465,0,0.000885,0,0
0:4:3.317,469.674,59.7982,0,0.000885,0,0
0:4:3.810,470.555,59.9154,0,0.000885,0,0
0:4:4.314,471.138,59.9844,0,0.000885,0,0
0:4:4.816,472.134,60.1154,0,0.000885,0,0
0:4:5.310,473.135,60.2395,0,0.000885,0,0
0:4:5.801,473.722,60.3153,0,0.000885,0,0
0:4:6.303,475.364,60.5222,0,0.000885,0,0
0:4:6.805,476.124,60.6187,0,0.000885,0,0
0:4:7.309,476.769,60.7014,0,0.000885,0,0
0:4:7.810,478.762,60.9565,0,0.000885,0,0
0:4:8.314,479.469,61.0462,0,0.000885,0,0
0:4:8.818,479.936,61.1082,0,0.000885,0,0
0:4:9.311,481.284,61.2806,0,0.000885,0,0
0:4:9.814,482.459,61.4254,0,0.000885,0,0
0:4:10.304,482.988,61.4943,0,0.000885,0,0
0:4:10.800,483.691,61.584,0,0.000885,0,0
0:4:11.293,485.159,61.7701,0,0.000885,0,0
0:4:11.794,486.386,61.9287,0,0.000885,0,0
0:4:12.297,486.916,61.9977,0,0.000885,0,0
0:4:12.799,487.561,62.0804,0,0.000885,0,0
0:4:13.295,488.971,62.2597,0,0.000885,0,0
0:4:13.799,489.847,62.37,0,0.000885,0,0
0:4:14.314,490.554,62.4596,0,0.000885,0,0
0:4:14.809,492.076,62.6527,0,0.000885,0,0
0:4:15.301,492.547,62.7147,0,0.000885,0,0
0:4:15.796,493.428,62.825,0,0.000885,0,0
0:4:16.291,494.954,63.0181,0,0.000885,0,0
0:4:16.786,495.772,63.1215,0,0.000885,0,0
0:4:17.291,497.182,63.3008,0,0.000885,0,0
0:4:17.790,497.591,63.3559,0,0.000885,0,0
0:4:18.291,498.824,63.5145,0,0.000885,0,0
0:4:18.784,499.762,63.6317,0,0.000885,0,0
0:4:19.278,500.287,63.7007,0,0.000885,0,0
0:4:19.773,502.222,63.942,0,0.000885,0,0
0:4:20.266,502.578,63.9902,0,0.000885,0,0
0:4:20.762,503.926,64.1626,0,0.000885,0,0
0:4:21.253,504.099,64.1833,0,0.000885,0,0
0:4:21.749,505.683,64.3832,0,0.000885,0,0
0:4:22.253,506.684,64.5142,0,0.000885,0,0
0:4:22.755,507.56,64.6246,0,0.000885,0,0
0:4:23.257,508.792,64.7831,0,0.000885,0,0
0:4:23.751,509.379,64.859,0,0.000885,0,0
0:4:24.245,510.611,65.0107,0,0.000885,0,0
0:4:24.737,511.078,65.0727,0,0.000885,0,0
0:4:25.230,512.017,65.1899,0,0.000885,0,0
0:4:25.724,513.249,65.3485,0,0.000885,0,0
0:4:26.218,514.188,65.4657,0,0.000885,0,0
0:4:26.720,515.068,65.5829,0,0.000885,0,0
0:4:27.222,516.416,65.7553,0,0.000885,0,0
0:4:27.722,516.888,65.8105,0,0.000885,0,0
0:4:28.216,518.293,65.9897,0,0.000885,0,0
0:4:28.712,519.526,66.1483,0,0.000885,0,0
0:4:29.215,520.171,66.231,0,0.000885,0,0
0:4:29.708,520.994,66.3345,0,0.000885,0,0
0:4:30.215,522.048,66.4724,0,0.000885,0,0
0:4:30.718,523.044,66.5965,0,0.000885,0,0
0:4:31.212,523.867,66.6999,0,0.000885,0,0
0:4:31.714,524.863,66.8309,0,0.000885,0,0
0:4:32.216,525.802,66.9481,0,0.000885,0,0
0:4:32.716,526.976,67.0998,0,0.000885,0,0
0:4:33.212,528.382,67.279,0,0.000885,0,0
0:4:33.714,529.027,67.3549,0,0.000885,0,0
0:4:34.218,530.081,67.4928,0,0.000885,0,0
0:4:34.712,531.313,67.6514,0,0.000885,0,0
0:4:35.216,532.372,67.7824,0,0.000885,0,0
0:4:35.718,533.133,67.8789,0,0.000885,0,0
0:4:36.214,533.662,67.9478,0,0.000885,0,0
0:4:36.722,535.01,68.1202,0,0.000885,0,0
0:4:37.225,536.126,68.2581,0,0.000885,0,0
0:4:37.726,536.358,68.2926,0,0.000885,0,0
0:4:38.224,537.648,68.458,0,0.000885,0,0
0:4:38.720,539.173,68.6511,0,0.000885,0,0
0:4:39.213,539.703,68.72,0,0.000885,0,0
0:4:39.718,540.815,68.8579,0,0.000885,0,0
0:4:40.221,542.283,69.0441,0,0.000885,0,0
0:4:40.716,542.692,69.0993,0,0.000885,0,0
0:4:41.219,543.395,69.1889,0,0.000885,0,0
0:4:41.716,544.569,69.3337,0,0.000885,0,0
0:4:42.219,545.334,69.4371,0,0.000885,0,0
0:4:42.721,546.21,69.5474,0,0.000885,0,0
0:4:43.221,547.443,69.706,0,0.000885,0,0
0:4:43.716,548.733,69.8646,0,0.000885,0,0
0:4:44.221,549.671,69.9887,0,0.000885,0,0
0:4:44.714,550.552,70.099,0,0.000885,0,0
0:4:45.219,551.726,70.2507,0,0.000885,0,0
0:4:45.722,552.958,70.4024,0,0.000885,0,0
0:4:46.216,553.897,70.5265,0,0.000885,0,0
0:4:46.719,554.248,70.5678,0,0.000885,0,0
0:4:47.220,555.067,70.6713,0,0.000885,0,0
0:4:47.723,556.828,70.8988,0,0.000885,0,0
0:4:48.224,557.295,70.9539,0,0.000885,0,0
0:4:48.718,559.057,71.1815,0,0.000885,0,0
0:4:49.211,559.057,71.1815,0,0.000885,0,0
0:4:49.715,560.463,71.3607,0,0.000885,0,0
0:4:50.219,561.93,71.5469,0,0.000885,0,0
0:4:50.722,562.34,71.6021,0,0.000885,0,0
0:4:51.217,563.163,71.7055,0,0.000885,0,0
0:4:51.719,564.275,71.8434,0,0.000885,0,0
0:4:52.222,565.213,71.9675,0,0.000885,0,0
0:4:52.725,565.978,72.064,0,0.000885,0,0
0:4:53.226,567.211,72.2226,0,0.000885,0,0
0:4:53.720,567.913,72.3122,0,0.000885,0,0
0:4:54.214,569.319,72.4915,0,0.000885,0,0
0:4:54.719,570.378,72.6225,0,0.000885,0,0
0:4:55.214,571.374,72.7466,0,0.000885,0,0
0:4:55.716,572.193,72.8569,0,0.000885,0,0
0:4:56.220,573.483,73.0155,0,0.000885,0,0
0:4:56.723,574.128,73.0982,0,0.000885,0,0
0:4:57.227,575.128,73.2292,0,0.000885,0,0
0:4:57.728,575.947,73.3326,0,0.000885,0,0
0:4:58.221,577.295,73.505,0,0.000885,0,0
0:4:58.716,578.411,73.6429,0,0.000885,0,0
0:4:59.220,579.114,73.7325,0,0.000885,0,0
0:4:59.716,579.759,73.8153,0,0.000885,0,0
0:5:0.219,580.818,73.9532,0,0.000885,0,0
0:5:0.722,581.988,74.098,0,0.000885,0,0
0:5:1.216,582.868,74.2152,0,0.000885,0,0
0:5:1.723,584.567,74.4289,0,0.000885,0,0
0:5:2.229,585.097,74.4979,0,0.000885,0,0
0:5:2.729,585.92,74.6013,0,0.000885,0,0
0:5:3.230,587.09,74.753,0,0.000885,0,0
0:5:3.723,587.735,74.8357,0,0.000885,0,0
0:5:4.218,588.735,74.9598,0,0.000885,0,0
0:5:4.721,589.905,75.1115,0,0.000885,0,0
0:5:5.217,591.258,75.2839,0,0.000885,0,0
0:5:5.721,591.609,75.3252,0,0.000885,0,0
0:5:6.219,592.726,75.47,0,0.000885,0,0
0:5:6.723,593.606,75.5803,0,0.000885,0,0
0:5:7.230,594.545,75.6975,0,0.000885,0,0
0:5:7.734,596.013,75.8837,0,0.000885,0,0
0:5:8.237,597.125,76.0285,0,0.000885,0,0
0:5:8.732,597.596,76.0905,0,0.000885,0,0
0:5:9.228,598.535,76.2078,0,0.000885,0,0
0:5:9.724,599.825,76.3732,0,0.000885,0,0
0:5:10.220,600.706,76.4835,0,0.000885,0,0
0:5:10.725,601.177,76.5456,0,0.000885,0,0
0:5:11.222,602.819,76.7524,0,0.000885,0,0
0:5:11.729,603.641,76.8559,0,0.000885,0,0
0:5:12.232,604.407,76.9524,0,0.000885,0,0
0:5:12.735,605.519,77.0972,0,0.000885,0,0
0:5:13.231,606.693,77.2489,0,0.000885,0,0
0:5:13.726,607.458,77.3454,0,0.000885,0,0
0:5:14.222,608.512,77.4764,0,0.000885,0,0
0:5:14.719,610.1,77.6832,0,0.000885,0,0
0:5:15.223,610.625,77.7453,0,0.000885,0,0
0:5:15.720,611.506,77.8625,0,0.000885,0,0
0:5:16.224,612.387,77.9728,0,0.000885,0,0
0:5:16.726,613.21,78.0762,0,0.000885,0,0
0:5:17.233,614.326,78.221,0,0.000885,0,0
0:5:17.735,615.558,78.3727,0,0.000885,0,0
0:5:18.235,616.497,78.4968,0,0.000885,0,0
0:5:18.732,617.493,78.6209,0,0.000885,0,0
0:5:19.226,618.2,78.7105,0,0.000885,0,0
0:5:19.723,619.433,78.8691,0,0.000885,0,0
0:5:20.219,620.135,78.9588,0,0.000885,0,0
0:5:20.718,621.194,79.0898,0,0.000885,0,0
0:5:21.223,622.542,79.2621,0,0.000885,0,0
0:5:21.718,623.187,79.3449,0,0.000885,0,0
0:5:22.223,624.01,79.4483,0,0.000885,0,0
0:5:22.727,625.42,79.6276,0,0.000885,0,0
0:5:23.231,626.474,79.7654,0,0.000885,0,0
0:5:23.725,627.417,79.8827,0,0.000885,0,0
0:5:24.222,627.826,79.9378,0,0.000885,0,0
0:5:24.726,628.765,80.055,0,0.000885,0,0
0:5:25.223,629.939,80.2067,0,0.000885,0,0
0:5:25.718,631.523,80.4067,0,0.000885,0,0
0:5:26.213,632.11,80.4825,0,0.000885,0,0
0:5:26.719,633.111,80.6066,0,0.000885,0,0
0:5:27.225,634.05,80.7307,0,0.000885,0,0
0:5:27.731,635.046,80.8548,0,0.000885,0,0
0:5:28.234,635.811,80.9513,0,0.000885,0,0
0:5:28.730,636.865,81.0892,0,0.000885,0,0
0:5:29.224,638.04,81.2409,0,0.000885,0,0
0:5:29.721,640.504,81.5512,0,0.000885,0,0
0:5:30.226,642.559,81.8132,0,0.000885,0,0
0:5:30.720,641.972,81.7373,0,0.000885,0,0
0:5:31.224,642.15,81.758,0,0.000885,0,0
0:5:31.729,642.559,81.8132,0,0.000885,0,0
0:5:32.234,642.91,81.8615,0,0.000885,0,0
0:5:32.736,644.378,82.0476,0,0.000885,0,0
0:5:33.233,645.437,82.1786,0,0.000885,0,0
0:5:33.729,646.198,82.2751,0,0.000885,0,0
0:5:34.225,647.55,82.4475,0,0.000885,0,0
0:5:34.722,649.133,82.6475,0,0.000885,0,0
0:5:35.218,650.014,82.7647,0,0.000885,0,0
0:5:35.725,651.304,82.9301,0,0.000885,0,0
0:5:36.221,651.776,82.9853,0,0.000885,0,0
0:5:36.730,653.008,83.1439,0,0.000885,0,0
0:5:37.236,653.537,83.2128,0,0.000885,0,0
0:5:37.741,654.24,83.3025,0,0.000885,0,0
0:5:38.242,655.592,83.4748,0,0.000885,0,0
0:5:38.737,656.473,83.5851,0,0.000885,0,0
0:5:39.233,657.585,83.7299,0,0.000885,0,0
0:5:39.730,658.702,83.8678,0,0.000885,0,0
0:5:40.226,659.876,84.0195,0,0.000885,0,0
0:5:40.722,660.521,84.1022,0,0.000885,0,0
0:5:41.229,661.459,84.2195,0,0.000885,0,0
0:5:41.723,662.34,84.3298,0,0.000885,0,0
0:5:42.229,663.337,84.4608,0,0.000885,0,0
0:5:42.734,664.453,84.5987,0,0.000885,0,0
0:5:43.237,665.454,84.7297,0,0.000885,0,0
0:5:43.732,666.099,84.8124,0,0.000885,0,0
0:5:44.226,667.331,84.9641,0,0.000885,0,0
0:5:44.723,668.915,85.1709,0,0.000885,0,0
0:5:45.219,669.56,85.2537,0,0.000885,0,0
0:5:45.724,670.325,85.3502,0,0.000885,0,0
0:5:46.220,671.673,85.5226,0,0.000885,0,0
0:5:46.726,671.966,85.557,0,0.000885,0,0
0:5:47.232,673.14,85.7087,0,0.000885,0,0
0:5:47.734,674.257,85.8466,0,0.000885,0,0
0:5:48.230,675.489,86.0052,0,0.000885,0,0
0:5:48.725,676.192,86.0948,0,0.000885,0,0
0:5:49.221,677.66,86.281,0,0.000885,0,0
0:5:49.727,678.309,86.3637,0,0.000885,0,0
0:5:50.222,679.306,86.4947,0,0.000885,0,0
0:5:50.727,679.835,86.5568,0,0.000885,0,0
0:5:51.223,681.241,86.736,0,0.000885,0,0
0:5:51.724,682.121,86.8533,0,0.000885,0,0
0:5:52.231,683.06,86.9705,0,0.000885,0,0
0:5:52.734,684.586,87.1635,0,0.000885,0,0
0:5:53.234,685.76,87.3152,0,0.000885,0,0
0:5:53.731,686.347,87.391,0,0.000885,0,0
0:5:54.226,687.055,87.4807,0,0.000885,0,0
0:5:54.725,687.993,87.5979,0,0.000885,0,0
0:5:55.221,688.874,87.7082,0,0.000885,0,0
0:5:55.726,689.697,87.8116,0,0.000885,0,0
0:5:56.224,690.929,87.9702,0,0.000885,0,0
0:5:56.721,692.041,88.115,0,0.000885,0,0
0:5:57.227,692.748,88.2046,0,0.000885,0,0
0:5:57.732,694.096,88.377,0,0.000885,0,0
0:5:58.234,694.803,88.4666,0,0.000885,0,0
0:5:58.731,695.684,88.5769,0,0.000885,0,0
0:5:59.228,696.854,88.7286,0,0.000885,0,0
0:5:59.722,697.97,88.8665,0,0.000885,0,0
0:6:0.229,698.851,88.9837,0,0.000885,0,0
0:6:0.725,699.91,89.1147,0,0.000885,0,0
0:6:1.221,701.316,89.294,0,0.000885,0,0
0:6:1.715,701.845,89.3629,0,0.000885,0,0
0:6:2.221,702.61,89.4595,0,0.000885,0,0
0:6:2.726,703.313,89.5491,0,0.000885,0,0
0:6:3.226,704.665,89.7215,0,0.000885,0,0
0:6:3.724,705.661,89.8456,0,0.000885,0,0
0:6:4.231,706.836,89.9973,0,0.000885,0,0
0:6:4.727,707.659,90.1007,0,0.000885,0,0
0:6:5.222,708.949,90.2662,0,0.000885,0,0
0:6:5.726,709.772,90.3696,0,0.000885,0,0
0:6:6.222,710.884,90.5144,0,0.000885,0,0
0:6:6.727,711.177,90.5488,0,0.000885,0,0
0:6:7.232,712.294,90.6936,0,0.000885,0,0
0:6:7.735,713.646,90.866,0,0.000885,0,0
0:6:8.233,714.527,90.9763,0,0.000885,0,0
0:6:8.731,715.697,91.128,0,0.000885,0,0
0:6:9.225,716.871,91.2728,0,0.000885,0,0
0:6:9.722,717.4,91.3417,0,0.000885,0,0
0:6:10.227,718.103,91.4314,0,0.000885,0,0
0:6:10.724,719.513,91.6106,0,0.000885,0,0
0:6:11.232,720.63,91.7554,0,0.000885,0,0
0:6:11.733,721.217,91.8313,0,0.000885,0,0
0:6:12.238,722.155,91.9485,0,0.000885,0,0
0:6:12.742,723.623,92.1346,0,0.000885,0,0
0:6:13.242,724.74,92.2794,0,0.000885,0,0
0:6:13.738,725.443,92.3691,0,0.000885,0,0
0:6:14.236,726.617,92.5139,0,0.000885,0,0
0:6:14.732,727.262,92.5966,0,0.000885,0,0
0:6:15.230,728.378,92.7414,0,0.000885,0,0
0:6:15.725,729.201,92.8448,0,0.000885,0,0
0:6:16.223,730.491,93.0103,0,0.000885,0,0
0:6:16.733,731.021,93.0792,0,0.000885,0,0
0:6:17.238,731.959,93.1964,0,0.000885,0,0
0:6:17.741,733.427,93.3826,0,0.000885,0,0
0:6:18.243,734.13,93.4722,0,0.000885,0,0
0:6:18.739,735.656,93.6653,0,0.000885,0,0
0:6:19.236,736.185,93.7342,0,0.000885,0,0
0:6:19.732,736.888,93.8239,0,0.000885,0,0
0:6:20.227,738.356,94.01,0,0.000885,0,0
0:6:20.725,739.415,94.1479,0,0.000885,0,0
0:6:21.231,740.06,94.2238,0,0.000885,0,0
0:6:21.727,740.882,94.3341,0,0.000885,0,0
0:6:22.235,742.466,94.534,0,0.000885,0,0
0:6:22.739,743.111,94.6168,0,0.000885,0,0
0:6:23.242,743.756,94.6995,0,0.000885,0,0
0:6:23.740,744.757,94.8236,0,0.000885,0,0
0:6:24.235,745.811,94.9615,0,0.000885,0,0
0:6:24.732,746.514,95.0511,0,0.000885,0,0
0:6:25.226,748.102,95.2511,0,0.000885,0,0
0:6:25.721,748.689,95.3269,0,0.000885,0,0
0:6:26.229,749.921,95.4855,0,0.000885,0,0
0:6:26.725,750.918,95.6096,0,0.000885,0,0
0:6:27.230,752.386,95.7958,0,0.000885,0,0
0:6:27.733,752.795,95.8509,0,0.000885,0,0
0:6:28.235,754.089,96.0164,0,0.000885,0,0
0:6:28.732,755.201,96.1543,0,0.000885,0,0
0:6:29.227,755.788,96.2301,0,0.000885,0,0
0:6:29.732,756.669,96.3404,0,0.000885,0,0
0:6:30.230,757.786,96.4852,0,0.000885,0,0
0:6:30.724,758.782,96.6093,0,0.000885,0,0
0:6:31.231,759.489,96.699,0,0.000885,0,0
0:6:31.736,760.486,96.83,0,0.000885,0,0
0:6:32.241,762.132,97.0368,0,0.000885,0,0
0:6:32.744,763.008,97.1471,0,0.000885,0,0
0:6:33.240,763.715,97.2368,0,0.000885,0,0
0:6:33.736,764.769,97.3747,0,0.000885,0,0
0:6:34.234,766.064,97.5401,0,0.000885,0,0
0:6:34.730,766.122,97.547,0,0.000885,0,0
0:6:35.228,767.532,97.7263,0,0.000885,0,0
0:6:35.733,768.292,97.8228,0,0.000885,0,0
0:6:36.230,769.173,97.9331,0,0.000885,0,0
0:6:36.731,770.463,98.0986,0,0.000885,0,0
0:6:37.237,771.58,98.2434,0,0.000885,0,0
0:6:37.741,772.46,98.3537,0,0.000885,0,0
0:6:38.241,773.283,98.4571,0,0.000885,0,0
0:6:38.740,774.751,98.6433,0,0.000885,0,0
0:6:39.236,775.863,98.7881,0,0.000885,0,0
0:6:39.732,776.686,98.8915,0,0.000885,0,0
0:6:40.226,777.158,98.9536,0,0.000885,0,0
0:6:40.734,778.332,99.0983,0,0.000885,0,0
0:6:41.230,779.15,99.2018,0,0.000885,0,0
0:6:41.736,780.503,99.3741,0,0.000885,0,0
0:6:42.243,781.326,99.4845,0,0.000885,0,0
0:6:42.746,782.438,99.6223,0,0.000885,0,0
0:6:43.250,782.967,99.6913,0,0.000885,0,0
0:6:43.745,784.319,99.8637,0,0.000885,0,0
0:6:44.243,785.374,99.9947,0,0.000885,0,0
0:6:44.737,786.374,100.126,0,0.000885,0,0
0:6:45.234,787.313,100.243,0,0.000885,0,0
0:6:45.727,788.016,100.333,0,0.000885,0,0
0:6:46.223,789.19,100.484,0,0.000885,0,0
0:6:46.732,790.187,100.608,0,0.000885,0,0
0:6:47.235,791.187,100.739,0,0.000885,0,0
0:6:47.737,792.299,100.877,0,0.000885,0,0
0:6:48.233,793.652,101.05,0,0.000885,0,0
0:6:48.726,794.181,101.119,0,0.000885,0,0
0:6:49.233,795.293,101.263,0,0.000885,0,0
0:6:49.728,796.058,101.36,0,0.000885,0,0
0:6:50.234,796.881,101.463,0,0.000885,0,0
0:6:50.731,797.82,101.58,0,0.000885,0,0
0:6:51.226,798.874,101.718,0,0.000885,0,0
0:6:51.732,799.933,101.849,0,0.000885,0,0
0:6:52.237,801.107,102.001,0,0.000885,0,0
0:6:52.741,801.988,102.111,0,0.000885,0,0
0:6:53.239,802.926,102.229,0,0.000885,0,0
0:6:53.738,803.865,102.353,0,0.000885,0,0
0:6:54.234,805.155,102.518,0,0.000885,0,0
0:6:54.731,805.742,102.587,0,0.000885,0,0
0:6:55.224,807.268,102.787,0,0.000885,0,0
0:6:55.721,807.917,102.87,0,0.000885,0,0
0:6:56.216,809.029,103.008,0,0.000885,0,0
0:6:56.715,809.91,103.118,0,0.000885,0,0
0:6:57.221,810.791,103.235,0,0.000885,0,0
0:6:57.722,811.494,103.325,0,0.000885,0,0
0:6:58.227,812.73,103.477,0,0.000885,0,0
0:6:58.734,813.784,103.614,0,0.000885,0,0
0:6:59.230,814.136,103.656,0,0.000885,0,0
0:6:59.735,815.43,103.821,0,0.000885,0,0
0:7:0.232,816.778,103.994,0,0.000885,0,0
0:7:0.736,818.01,104.152,0,0.000885,0,0
0:7:1.233,818.539,104.221,0,0.000885,0,0
0:7:1.740,819.598,104.352,0,0.000885,0,0
0:7:2.245,820.537,104.476,0,0.000885,0,0
0:7:2.749,821.355,104.58,0,0.000885,0,0
0:7:3.252,822.881,104.773,0,0.000885,0,0
0:7:3.749,823.762,104.883,0,0.000885,0,0
0:7:4.245,824.527,104.98,0,0.000885,0,0
0:7:4.741,825.523,105.111,0,0.000885,0,0
0:7:5.237,826.64,105.248,0,0.000885,0,0
0:7:5.733,827.756,105.393,0,0.000885,0,0
0:7:6.227,828.873,105.538,0,0.000885,0,0
0:7:6.735,829.34,105.593,0,0.000885,0,0
0:7:7.239,830.398,105.731,0,0.000885,0,0
0:7:7.741,830.866,105.786,0,0.000885,0,0
0:7:8.240,832.743,106.028,0,0.000885,0,0
0:7:8.734,833.508,106.124,0,0.000885,0,0
0:7:9.230,834.389,106.234,0,0.000885,0,0
0:7:9.736,835.091,106.324,0,0.000885,0,0
0:7:10.231,836.266,106.476,0,0.000885,0,0
0:7:10.728,837.089,106.579,0,0.000885,0,0
0:7:11.233,838.556,106.765,0,0.000885,0,0
0:7:11.738,839.611,106.903,0,0.000885,0,0
0:7:12.242,840.612,107.027,0,0.000885,0,0
0:7:12.746,841.199,107.103,0,0.000885,0,0
0:7:13.242,842.137,107.227,0,0.000885,0,0
0:7:13.741,844.014,107.462,0,0.000885,0,0
0:7:14.236,844.072,107.469,0,0.000885,0,0
0:7:14.734,845.131,107.606,0,0.000885,0,0
0:7:15.238,845.954,107.71,0,0.000885,0,0
0:7:15.735,847.48,107.903,0,0.000885,0,0
0:7:16.232,848.125,107.986,0,0.000885,0,0
0:7:16.730,849.241,108.13,0,0.000885,0,0
0:7:17.236,850.238,108.255,0,0.000885,0,0
0:7:17.738,851.06,108.358,0,0.000885,0,0
0:7:18.240,851.879,108.461,0,0.000885,0,0
0:7:18.736,852.995,108.606,0,0.000885,0,0
0:7:19.231,853.876,108.717,0,0.000885,0,0
0:7:19.735,854.463,108.792,0,0.000885,0,0
0:7:20.233,855.695,108.951,0,0.000885,0,0
0:7:20.724,856.928,109.11,0,0.000885,0,0
0:7:21.233,857.866,109.227,0,0.000885,0,0
0:7:21.726,858.925,109.365,0,0.000885,0,0
0:7:22.234,860.099,109.509,0,0.000885,0,0
0:7:22.739,860.86,109.606,0,0.000885,0,0
0:7:23.241,861.683,109.716,0,0.000885,0,0
0:7:23.737,862.799,109.854,0,0.000885,0,0
0:7:24.231,863.738,109.971,0,0.000885,0,0
0:7:24.739,865.09,110.144,0,0.000885,0,0
0:7:25.235,865.615,110.213,0,0.000885,0,0
0:7:25.740,866.202,110.289,0,0.000885,0,0
0:7:26.234,867.377,110.44,0,0.000885,0,0
0:7:26.740,868.729,110.613,0,0.000885,0,0
0:7:27.243,869.961,110.764,0,0.000885,0,0
0:7:27.747,870.784,110.875,0,0.000885,0,0
0:7:28.243,872.189,111.054,0,0.000885,0,0
0:7:28.738,873.012,111.157,0,0.000885,0,0
0:7:29.234,873.422,111.206,0,0.000885,0,0
0:7:29.731,874.302,111.323,0,0.000885,0,0
0:7:30.237,875.477,111.468,0,0.000885,0,0
0:7:30.734,876.184,111.557,0,0.000885,0,0
0:7:31.240,877.883,111.778,0,0.000885,0,0
0:7:31.740,878.822,111.895,0,0.000885,0,0
0:7:32.248,879.823,112.019,0,0.000885,0,0
0:7:32.749,880.703,112.136,0,0.000885,0,0
0:7:33.249,881.464,112.233,0,0.000885,0,0
0:7:33.746,882.696,112.391,0,0.000885,0,0
0:7:34.241,883.283,112.46,0,0.000885,0,0
0:7:34.737,884.516,112.619,0,0.000885,0,0
0:7:35.236,885.81,112.784,0,0.000885,0,0
0:7:35.740,886.277,112.846,0,0.000885,0,0
0:7:36.236,887.394,112.984,0,0.000885,0,0
0:7:36.742,888.274,113.102,0,0.000885,0,0
0:7:37.249,889.622,113.267,0,0.000885,0,0
0:7:37.753,890.272,113.35,0,0.000885,0,0
0:7:38.256,891.384,113.495,0,0.000885,0,0
0:7:38.752,892.616,113.653,0,0.000885,0,0
0:7:39.248,893.265,113.736,0,0.000885,0,0
0:7:39.743,893.968,113.826,0,0.000885,0,0
0:7:40.241,895.084,113.963,0,0.000885,0,0
0:7:40.735,896.139,114.101,0,0.000885,0,0
0:7:41.242,897.197,114.232,0,0.000885,0,0
0:7:41.737,898.723,114.432,0,0.000885,0,0
0:7:42.241,899.075,114.474,0,0.000885,0,0
0:7:42.745,899.662,114.549,0,0.000885,0,0
0:7:43.246,900.542,114.66,0,0.000885,0,0
0:7:43.743,901.953,114.839,0,0.000885,0,0
0:7:44.239,903.065,114.984,0,0.000885,0,0
0:7:44.734,904.008,115.101,0,0.000885,0,0
0:7:45.240,905.12,115.246,0,0.000885,0,0
0:7:45.737,906,115.356,0,0.000885,0,0
0:7:46.228,907.001,115.48,0,0.000885,0,0
0:7:46.738,908.349,115.653,0,0.000885,0,0
0:7:47.242,909.172,115.756,0,0.000885,0,0
0:7:47.744,910.111,115.88,0,0.000885,0,0
0:7:48.241,911.285,116.025,0,0.000885,0,0
0:7:48.737,911.636,116.073,0,0.000885,0,0
0:7:49.233,912.868,116.232,0,0.000885,0,0
0:7:49.741,913.985,116.37,0,0.000885,0,0
0:7:50.237,914.746,116.466,0,0.000885,0,0
0:7:50.734,915.804,116.604,0,0.000885,0,0
0:7:51.239,916.801,116.728,0,0.000885,0,0
0:7:51.738,917.446,116.811,0,0.000885,0,0
0:7:52.244,918.62,116.963,0,0.000885,0,0
0:7:52.746,919.559,117.08,0,0.000885,0,0
0:7:53.249,920.853,117.245,0,0.000885,0,0
0:7:53.744,921.498,117.328,0,0.000885,0,0
0:7:54.242,922.615,117.473,0,0.000885,0,0
0:7:54.738,923.789,117.618,0,0.000885,0,0
0:7:55.235,924.492,117.707,0,0.000885,0,0
0:7:55.740,925.195,117.797,0,0.000885,0,0
0:7:56.236,926.662,117.983,0,0.000885,0,0
0:7:56.741,927.779,118.128,0,0.000885,0,0
0:7:57.246,928.717,118.245,0,0.000885,0,0
0:7:57.748,929.656,118.369,0,0.000885,0,0
0:7:58.253,931.244,118.569,0,0.000885,0,0
0:7:58.748,931.418,118.59,0,0.000885,0,0
0:7:59.244,932.708,118.755,0,0.000885,0,0
0:7:59.741,933.651,118.873,0,0.000885,0,0
0:8:0.236,934.06,118.928,0,0.000885,0,0
0:8:0.730,935.056,119.052,0,0.000885,0,0
0:8:1.238,936.057,119.183,0,0.000885,0,0
0:8:1.742,937.583,119.376,0,0.000885,0,0
0:8:2.247,938.579,119.507,0,0.000885,0,0
0:8:2.749,939.46,119.617,0,0.000885,0,0
0:8:3.245,940.808,119.79,0,0.000885,0,0
0:8:3.741,941.337,119.852,0,0.000885,0,0
0:8:4.237,942.454,119.996,0,0.000885,0,0
0:8:4.734,943.57,120.141,0,0.000885,0,0
0:8:5.240,944.567,120.265,0,0.000885,0,0
0:8:5.736,945.212,120.348,0,0.000885,0,0
0:8:6.231,946.328,120.493,0,0.000885,0,0
0:8:6.731,946.795,120.548,0,0.000885,0,0
0:8:7.240,947.738,120.672,0,0.000885,0,0
0:8:7.744,949.144,120.851,0,0.000885,0,0
0:8:8.244,949.731,120.92,0,0.000885,0,0
0:8:8.739,950.496,121.024,0,0.000885,0,0
0:8:9.236,952.373,121.258,0,0.000885,0,0
0:8:9.729,953.49,121.403,0,0.000885,0,0
0:8:10.238,954.019,121.472,0,0.000885,0,0
0:8:10.732,955.131,121.61,0,0.000885,0,0
0:8:11.240,956.248,121.755,0,0.000885,0,0
0:8:11.737,957.244,121.879,0,0.000885,0,0
0:8:12.245,957.893,121.961,0,0.000885,0,0
0:8:12.746,959.241,122.134,0,0.000885,0,0
0:8:13.250,960.064,122.237,0,0.000885,0,0
0:8:13.746,960.945,122.354,0,0.000885,0,0
0:8:14.241,961.763,122.458,0,0.000885,0,0
0:8:14.738,962.764,122.582,0,0.000885,0,0
0:8:15.232,964.054,122.747,0,0.000885,0,0
0:8:15.730,964.935,122.858,0,0.000885,0,0
0:8:16.237,965.873,122.982,0,0.000885,0,0
0:8:16.743,966.812,123.099,0,0.000885,0,0
0:8:17.250,968.164,123.271,0,0.000885,0,0
0:8:17.754,968.458,123.306,0,0.000885,0,0
0:8:18.256,969.806,123.478,0,0.000885,0,0
0:8:18.752,970.513,123.568,0,0.000885,0,0
0:8:19.248,971.567,123.706,0,0.000885,0,0
0:8:19.743,973.213,123.913,0,0.000885,0,0
0:8:20.238,973.622,123.968,0,0.000885,0,0
0:8:20.733,974.854,124.119,0,0.000885,0,0
0:8:21.228,976.029,124.271,0,0.000885,0,0
0:8:21.732,976.794,124.368,0,0.000885,0,0
0:8:22.240,977.439,124.45,0,0.000885,0,0
0:8:22.741,978.555,124.595,0,0.000885,0,0
0:8:23.238,979.374,124.699,0,0.000885,0,0
0:8:23.736,980.312,124.816,0,0.000885,0,0
0:8:24.241,981.549,124.974,0,0.000885,0,0
0:8:24.737,983.075,125.167,0,0.000885,0,0
0:8:25.244,984.013,125.292,0,0.000885,0,0
0:8:25.740,984.187,125.312,0,0.000885,0,0
0:8:26.233,979.08,124.657,0,0.000885,0,0
0:8:26.742,980.726,124.871,0,0.000885,0,0
0:8:27.248,984.187,125.312,0,0.000885,0,0
0:8:27.751,987.536,125.74,0,0.000885,0,0
0:8:28.252,989.765,126.022,0,0.000885,0,0
0:8:28.748,991.526,126.243,0,0.000885,0,0
0:8:29.246,993.052,126.436,0,0.000885,0,0
0:8:29.742,994.111,126.574,0,0.000885,0,0
0:8:30.238,994.756,126.657,0,0.000885,0,0
0:8:30.732,995.165,126.705,0,0.000885,0,0
0:8:31.237,995.988,126.815,0,0.000885,0,0
0:8:31.732,996.691,126.905,0,0.000885,0,0
0:8:32.241,997.981,127.07,0,0.000885,0,0
0:8:32.745,999.333,127.236,0,0.000885,0,0
0:8:33.249,1000.1,127.339,0,0.000885,0,0
0:8:33.745,1000.68,127.408,0,0.000885,0,0
0:8:34.239,998.51,127.132,0,0.000885,0,0
0:8:34.743,896.259,114.115,0,0.000885,0,0
0:8:35.246,874.596,111.357,0,0.000885,0,0
0:8:35.414,794.826,101.201,0,0.000885,0,0