File: DataFile2021-06-29_061424.csv
Test ID:,Date Tested:,Time:,Test Type:,Diameter Avg. (mm):,Cyl. Corr. Factor:,Height (mm):,Age (days):,Weight (kN):,Break Type:,Ramp Rate (MPa/s):,Load at Break (kN):,Stress at Break (MPa):
12,6/29/2021,06:14,Cylinder,100,1,200,0,3.6,3,0.21,292.31,37.22
Sample Time,Load (kN),Stress (MPa),Long. Strain,Trans. Strain,Chan1 Deflection (mm),Chan2 Deflection (mm)
0:0:18.008,5.57362,0.71016,0,0.000885,0,0
0:0:18.204,7.86001,0.99974,0,0.000885,0,0
0:0:18.402,12.0235,1.53064,0,0.000885,0,0
0:0:18.603,12.2015,1.55132,0,0.000885,0,0
0:0:18.800,11.552,1.46858,0,0.000885,0,0
0:0:19.002,10.9693,1.39964,0,0.000885,0,0
0:0:19.199,10.3243,1.3169,0,0.000885,0,0
0:0:19.395,10.44,1.33069,0,0.000885,0,0
0:0:19.596,10.2042,1.29621,0,0.000885,0,0
0:0:19.792,10.3821,1.32379,0,0.000885,0,0
0:0:19.993,10.1464,1.28932,0,0.000885,0,0
0:0:20.191,9.85281,1.25485,0,0.000885,0,0
0:0:20.386,9.85281,1.25485,0,0.000885,0,0
0:0:20.588,9.85281,1.25485,0,0.000885,0,0
0:0:20.785,10.8492,1.37895,0,0.000885,0,0
0:0:20.983,9.91064,1.26174,0,0.000885,0,0
0:0:21.183,10.6179,1.35137,0,0.000885,0,0
0:0:21.378,11.6143,1.47548,0,0.000885,0,0
0:0:21.580,11.2629,1.43411,0,0.000885,0,0
0:0:21.777,11.1428,1.42032,0,0.000885,0,0
0:0:21.973,11.4942,1.46169,0,0.000885,0,0
0:0:22.175,12.6107,1.60648,0,0.000885,0,0
0:0:22.369,12.2015,1.55132,0,0.000885,0,0
0:0:22.570,12.9621,1.64785,0,0.000885,0,0
0:0:22.769,13.4915,1.71679,0,0.000885,0,0
0:0:22.967,14.6035,1.86158,0,0.000885,0,0
0:0:23.169,14.4879,1.84779,0,0.000885,0,0
0:0:23.371,15.5421,1.9788,0,0.000885,0,0
0:0:23.575,15.7778,2.00637,0,0.000885,0,0
0:0:23.778,16.3027,2.07532,0,0.000885,0,0
0:0:23.979,16.9522,2.15806,0,0.000885,0,0
0:0:24.181,17.3036,2.20632,0,0.000885,0,0
0:0:24.381,17.2413,2.19253,0,0.000885,0,0
0:0:24.582,18.4156,2.34422,0,0.000885,0,0
0:0:24.783,18.5357,2.35801,0,0.000885,0,0
0:0:24.981,19.3542,2.46143,0,0.000885,0,0
0:0:25.182,19.1807,2.44074,0,0.000885,0,0
0:0:25.379,19.7056,2.50969,0,0.000885,0,0
0:0:25.577,20.235,2.57864,0,0.000885,0,0
0:0:25.778,20.5285,2.61311,0,0.000885,0,0
0:0:25.975,21.2314,2.70274,0,0.000885,0,0
0:0:26.176,21.5828,2.75101,0,0.000885,0,0
0:0:26.374,22.2278,2.82685,0,0.000885,0,0
0:0:26.571,22.2278,2.82685,0,0.000885,0,0
0:0:26.773,23.1085,2.94406,0,0.000885,0,0
0:0:26.969,23.5177,2.99232,0,0.000885,0,0
0:0:27.170,23.9893,3.05438,0,0.000885,0,0
0:0:27.369,24.1627,3.07506,0,0.000885,0,0
0:0:27.564,24.1627,3.07506,0,0.000885,0,0
0:0:27.766,24.4563,3.11643,0,0.000885,0,0
0:0:27.965,24.87,3.16469,0,0.000885,0,0
0:0:28.165,25.2214,3.21296,0,0.000885,0,0
0:0:28.367,25.2792,3.21985,0,0.000885,0,0
0:0:28.571,25.9242,3.30259,0,0.000885,0,0
0:0:28.774,26.3913,3.35775,0,0.000885,0,0
0:0:28.977,26.5114,3.37843,0,0.000885,0,0
0:0:29.179,27.3877,3.48875,0,0.000885,0,0
0:0:29.381,27.3877,3.48875,0,0.000885,0,0
0:0:29.582,27.7436,3.53012,0,0.000885,0,0
0:0:29.783,28.562,3.63354,0,0.000885,0,0
0:0:29.981,28.9134,3.6818,0,0.000885,0,0
0:0:30.181,28.9134,3.6818,0,0.000885,0,0
0:0:30.382,29.2648,3.72317,0,0.000885,0,0
0:0:30.577,29.852,3.79901,0,0.000885,0,0
0:0:30.778,29.852,3.79901,0,0.000885,0,0
0:0:30.977,30.2657,3.85417,0,0.000885,0,0
0:0:31.174,30.7906,3.92312,0,0.000885,0,0
0:0:31.376,31.2621,3.97827,0,0.000885,0,0
0:0:31.572,31.3199,3.98517,0,0.000885,0,0
0:0:31.772,32.4943,4.13685,0,0.000885,0,0
0:0:31.971,32.6677,4.15754,0,0.000885,0,0
0:0:32.166,32.9613,4.19891,0,0.000885,0,0
0:0:32.369,33.722,4.29543,0,0.000885,0,0
0:0:32.568,34.0156,4.32991,0,0.000885,0,0
0:0:32.765,34.367,4.37817,0,0.000885,0,0
0:0:32.967,34.7806,4.42643,0,0.000885,0,0
0:0:33.161,35.1899,4.48159,0,0.000885,0,0
0:0:33.362,35.5991,4.52986,0,0.000885,0,0
0:0:33.563,36.2441,4.61259,0,0.000885,0,0
0:0:33.767,36.3642,4.63328,0,0.000885,0,0
0:0:33.971,37.067,4.72291,0,0.000885,0,0
0:0:34.172,37.3606,4.75738,0,0.000885,0,0
0:0:34.373,37.3606,4.75738,0,0.000885,0,0
0:0:34.575,37.9478,4.83322,0,0.000885,0,0
0:0:34.777,38.1213,4.85391,0,0.000885,0,0
0:0:34.979,38.0634,4.84701,0,0.000885,0,0
0:0:35.177,38.4148,4.88838,0,0.000885,0,0
0:0:35.375,38.8864,4.95044,0,0.000885,0,0
0:0:35.577,39.3534,5.01249,0,0.000885,0,0
0:0:35.772,40.2342,5.1228,0,0.000885,0,0
0:0:35.975,40.7635,5.19175,0,0.000885,0,0
0:0:36.172,41.2884,5.25381,0,0.000885,0,0
0:0:36.370,42.0535,5.35723,0,0.000885,0,0
0:0:36.572,42.1691,5.37102,0,0.000885,0,0
0:0:36.768,42.227,5.37791,0,0.000885,0,0
0:0:36.969,42.8141,5.45375,0,0.000885,0,0
0:0:37.168,43.0499,5.48133,0,0.000885,0,0
0:0:37.362,43.4591,5.53649,0,0.000885,0,0
0:0:37.565,43.6949,5.56407,0,0.000885,0,0
0:0:37.762,43.9885,5.59854,0,0.000885,0,0
0:0:37.962,44.282,5.63991,0,0.000885,0,0
0:0:38.162,44.8692,5.71575,0,0.000885,0,0
0:0:38.367,45.5142,5.7916,0,0.000885,0,0
0:0:38.570,45.5142,5.7916,0,0.000885,0,0
0:0:38.772,45.6877,5.81918,0,0.000885,0,0
0:0:38.973,45.9813,5.85365,0,0.000885,0,0
0:0:39.175,46.4528,5.9157,0,0.000885,0,0
0:0:39.377,46.5684,5.92949,0,0.000885,0,0
0:0:39.580,47.2134,6.01223,0,0.000885,0,0
0:0:39.777,47.9741,6.10875,0,0.000885,0,0
0:0:39.976,48.0942,6.12254,0,0.000885,0,0
0:0:40.178,48.7392,6.20528,0,0.000885,0,0
0:0:40.372,49.0906,6.25354,0,0.000885,0,0
0:0:40.573,49.7356,6.32939,0,0.000885,0,0
0:0:40.773,49.9713,6.36386,0,0.000885,0,0
0:0:40.969,50.1448,6.38455,0,0.000885,0,0
0:0:41.171,50.7898,6.46728,0,0.000885,0,0
0:0:41.367,51.3191,6.53623,0,0.000885,0,0
0:0:41.567,51.4348,6.55002,0,0.000885,0,0
0:0:41.768,52.2577,6.65344,0,0.000885,0,0
0:0:41.964,53.0184,6.74997,0,0.000885,0,0
0:0:42.166,52.8449,6.72928,0,0.000885,0,0
0:0:42.363,53.0184,6.74997,0,0.000885,0,0
0:0:42.562,53.6633,6.8327,0,0.000885,0,0
0:0:42.763,54.077,6.88786,0,0.000885,0,0
0:0:42.959,54.2505,6.90855,0,0.000885,0,0
0:0:43.162,54.4863,6.93613,0,0.000885,0,0
0:0:43.363,54.722,6.9706,0,0.000885,0,0
0:0:43.567,55.367,7.04644,0,0.000885,0,0
0:0:43.770,55.6606,7.08781,0,0.000885,0,0
0:0:43.973,55.7184,7.09471,0,0.000885,0,0
0:0:44.175,56.1855,7.15676,0,0.000885,0,0
0:0:44.376,57.1863,7.28086,0,0.000885,0,0
0:0:44.578,57.302,7.29465,0,0.000885,0,0
0:0:44.781,57.947,7.37739,0,0.000885,0,0
0:0:44.975,58.0048,7.38429,0,0.000885,0,0
0:0:45.177,58.6498,7.46702,0,0.000885,0,0
0:0:45.378,59.059,7.52218,0,0.000885,0,0
0:0:45.575,59.8241,7.61871,0,0.000885,0,0
0:0:45.778,60.1177,7.65318,0,0.000885,0,0
0:0:45.973,60.7049,7.72902,0,0.000885,0,0
0:0:46.173,60.4691,7.70144,0,0.000885,0,0
0:0:46.375,60.5848,7.71523,0,0.000885,0,0
0:0:46.569,61.6435,7.84623,0,0.000885,0,0
0:0:46.772,61.937,7.8876,0,0.000885,0,0
0:0:46.970,62.2262,7.92208,0,0.000885,0,0
0:0:47.170,62.582,7.97034,0,0.000885,0,0
0:0:47.371,62.6977,7.98413,0,0.000885,0,0
0:0:47.566,63.227,8.05308,0,0.000885,0,0
0:0:47.769,63.3427,8.06687,0,0.000885,0,0
0:0:47.965,63.7519,8.11513,0,0.000885,0,0
0:0:48.164,64.1033,8.16339,0,0.000885,0,0
0:0:48.366,64.2813,8.18408,0,0.000885,0,0
0:0:48.569,64.9262,8.26681,0,0.000885,0,0
0:0:48.773,65.4556,8.33576,0,0.000885,0,0
0:0:48.975,65.7492,8.37024,0,0.000885,0,0
0:0:49.177,66.5676,8.47366,0,0.000885,0,0
0:0:49.379,67.097,8.5426,0,0.000885,0,0
0:0:49.580,67.3327,8.57018,0,0.000885,0,0
0:0:49.783,68.2713,8.69429,0,0.000885,0,0
0:0:49.983,68.2713,8.69429,0,0.000885,0,0
0:0:50.180,68.5604,8.72876,0,0.000885,0,0
0:0:50.382,68.7962,8.75634,0,0.000885,0,0
0:0:50.579,69.1476,8.80461,0,0.000885,0,0
0:0:50.781,69.499,8.84597,0,0.000885,0,0
0:0:50.979,69.6769,8.87355,0,0.000885,0,0
0:0:51.177,70.0284,8.91492,0,0.000885,0,0
0:0:51.379,71.0826,9.05282,0,0.000885,0,0
0:0:51.575,71.3183,9.0804,0,0.000885,0,0
0:0:51.777,71.6697,9.12866,0,0.000885,0,0
0:0:51.975,71.4384,9.09418,0,0.000885,0,0
0:0:52.173,72.1991,9.19071,0,0.000885,0,0
0:0:52.373,72.4927,9.23208,0,0.000885,0,0
0:0:52.572,73.8405,9.40445,0,0.000885,0,0
0:0:52.771,73.7248,9.38376,0,0.000885,0,0
0:0:52.971,73.667,9.37687,0,0.000885,0,0
0:0:53.169,74.3698,9.4665,0,0.000885,0,0
0:0:53.371,74.7791,9.52166,0,0.000885,0,0
0:0:53.573,74.8947,9.53545,0,0.000885,0,0
0:0:53.776,75.3084,9.59061,0,0.000885,0,0
0:0:53.980,75.7176,9.63887,0,0.000885,0,0
0:0:54.182,76.1269,9.69403,0,0.000885,0,0
0:0:54.383,76.7719,9.77677,0,0.000885,0,0
0:0:54.587,77.0654,9.81124,0,0.000885,0,0
0:0:54.787,77.1855,9.82503,0,0.000885,0,0
0:0:54.989,77.5948,9.88019,0,0.000885,0,0
0:0:55.186,78.2976,9.96982,0,0.000885,0,0
0:0:55.388,78.2398,9.96292,0,0.000885,0,0
0:0:55.586,78.5912,10.0043,0,0.000885,0,0
0:0:55.784,79.1783,10.0801,0,0.000885,0,0
0:0:55.987,79.7077,10.1491,0,0.000885,0,0
0:0:56.181,80.0591,10.1905,0,0.000885,0,0
0:0:56.382,80.9977,10.3146,0,0.000885,0,0
0:0:56.580,81.229,10.3421,0,0.000885,0,0
0:0:56.779,81.5848,10.3904,0,0.000885,0,0
0:0:56.981,81.2912,10.349,0,0.000885,0,0
0:0:57.176,82.1675,10.4593,0,0.000885,0,0
0:0:57.378,82.2298,10.4662,0,0.000885,0,0
0:0:57.577,83.1684,10.5903,0,0.000885,0,0
0:0:57.773,83.6355,10.6455,0,0.000885,0,0
0:0:57.974,83.6355,10.6455,0,0.000885,0,0
0:0:58.171,83.8134,10.6731,0,0.000885,0,0
0:0:58.372,84.2805,10.7282,0,0.000885,0,0
0:0:58.574,84.8098,10.7972,0,0.000885,0,0
0:0:58.778,85.3347,10.8661,0,0.000885,0,0
0:0:58.982,86.1576,10.9696,0,0.000885,0,0
0:0:59.185,85.9218,10.942,0,0.000885,0,0
0:0:59.386,86.8604,11.0592,0,0.000885,0,0
0:0:59.586,86.8604,11.0592,0,0.000885,0,0
0:0:59.789,87.3319,11.1212,0,0.000885,0,0
0:0:59.991,87.154,11.0937,0,0.000885,0,0
0:1:0.188,87.5632,11.1488,0,0.000885,0,0
0:1:0.390,88.0926,11.2178,0,0.000885,0,0
0:1:0.588,89.1468,11.3488,0,0.000885,0,0
0:1:0.783,89.7918,11.4315,0,0.000885,0,0
0:1:0.987,89.5605,11.4039,0,0.000885,0,0
0:1:1.182,90.2055,11.4867,0,0.000885,0,0
0:1:1.383,90.1477,11.4798,0,0.000885,0,0
0:1:1.582,90.0854,11.4729,0,0.000885,0,0
0:1:1.779,91.2597,11.6177,0,0.000885,0,0
0:1:1.981,91.7891,11.6866,0,0.000885,0,0
0:1:2.178,92.1983,11.7418,0,0.000885,0,0
0:1:2.378,92.2561,11.7487,0,0.000885,0,0
0:1:2.578,92.5497,11.7831,0,0.000885,0,0
0:1:2.773,93.6084,11.921,0,0.000885,0,0
0:1:2.975,93.3148,11.8797,0,0.000885,0,0
0:1:3.173,94.0176,11.9693,0,0.000885,0,0
0:1:3.372,94.1911,11.99,0,0.000885,0,0
0:1:3.575,94.8984,12.0796,0,0.000885,0,0
0:1:3.778,94.7783,12.0658,0,0.000885,0,0
0:1:3.981,95.014,12.1003,0,0.000885,0,0
0:1:4.184,95.7168,12.1899,0,0.000885,0,0
0:1:4.386,96.3618,12.2727,0,0.000885,0,0
0:1:4.587,96.5976,12.3002,0,0.000885,0,0
0:1:4.789,96.949,12.3416,0,0.000885,0,0
0:1:4.991,97.1847,12.3761,0,0.000885,0,0
0:1:5.190,97.9454,12.4726,0,0.000885,0,0
0:1:5.389,98.1233,12.4933,0,0.000885,0,0
0:1:5.591,98.7683,12.576,0,0.000885,0,0
0:1:5.786,99.1197,12.6174,0,0.000885,0,0
0:1:5.988,99.5868,12.6795,0,0.000885,0,0
0:1:6.185,99.8225,12.707,0,0.000885,0,0
0:1:6.383,100.761,12.8311,0,0.000885,0,0
0:1:6.586,100.588,12.8036,0,0.000885,0,0
0:1:6.780,100.819,12.838,0,0.000885,0,0
0:1:6.981,101.406,12.9139,0,0.000885,0,0
0:1:7.180,102.345,13.0311,0,0.000885,0,0
0:1:7.377,101.815,12.9621,0,0.000885,0,0
0:1:7.580,102.638,13.0656,0,0.000885,0,0
0:1:7.776,103.11,13.1276,0,0.000885,0,0
0:1:7.976,103.11,13.1276,0,0.000885,0,0
0:1:8.177,103.813,13.2172,0,0.000885,0,0
0:1:8.372,103.928,13.231,0,0.000885,0,0
0:1:8.574,104.573,13.3138,0,0.000885,0,0
0:1:8.776,104.751,13.3345,0,0.000885,0,0
0:1:8.980,104.693,13.3276,0,0.000885,0,0
0:1:9.182,105.103,13.3827,0,0.000885,0,0
0:1:9.386,105.921,13.4861,0,0.000885,0,0
0:1:9.587,106.335,13.5413,0,0.000885,0,0
0:1:9.789,107.331,13.6654,0,0.000885,0,0
0:1:9.991,107.447,13.6792,0,0.000885,0,0
0:1:10.193,107.918,13.7413,0,0.000885,0,0
0:1:10.390,108.385,13.8033,0,0.000885,0,0
0:1:10.591,108.563,13.824,0,0.000885,0,0
0:1:10.789,109.03,13.8791,0,0.000885,0,0
0:1:10.989,108.915,13.8654,0,0.000885,0,0
0:1:11.190,109.502,13.9412,0,0.000885,0,0
0:1:11.385,109.911,13.9964,0,0.000885,0,0
0:1:11.588,110.027,14.0101,0,0.000885,0,0
0:1:11.787,111.143,14.148,0,0.000885,0,0
0:1:11.985,111.023,14.1343,0,0.000885,0,0
0:1:12.187,111.495,14.1963,0,0.000885,0,0
0:1:12.380,112.024,14.2653,0,0.000885,0,0
0:1:12.581,112.375,14.3066,0,0.000885,0,0
0:1:12.782,112.727,14.3549,0,0.000885,0,0
0:1:12.979,112.842,14.3687,0,0.000885,0,0
0:1:13.181,113.723,14.479,0,0.000885,0,0
0:1:13.383,113.959,14.5066,0,0.000885,0,0
0:1:13.588,114.19,14.541,0,0.000885,0,0
0:1:13.791,115.013,14.6445,0,0.000885,0,0
0:1:13.993,115.543,14.7134,0,0.000885,0,0
0:1:14.194,115.249,14.672,0,0.000885,0,0
0:1:14.396,116.245,14.803,0,0.000885,0,0
0:1:14.597,116.245,14.803,0,0.000885,0,0
0:1:14.797,116.712,14.8582,0,0.000885,0,0
0:1:14.996,117.713,14.9892,0,0.000885,0,0
0:1:15.197,117.829,15.003,0,0.000885,0,0
0:1:15.393,117.945,15.0168,0,0.000885,0,0
0:1:15.592,117.945,15.0168,0,0.000885,0,0
0:1:15.791,119.003,15.1547,0,0.000885,0,0
0:1:15.989,118.768,15.1202,0,0.000885,0,0
0:1:16.191,119.297,15.1892,0,0.000885,0,0
0:1:16.387,119.297,15.1892,0,0.000885,0,0
0:1:16.587,119.942,15.2719,0,0.000885,0,0
0:1:16.788,120.76,15.3753,0,0.000885,0,0
0:1:16.983,120.702,15.3684,0,0.000885,0,0
0:1:17.186,121.347,15.4512,0,0.000885,0,0
0:1:17.383,121.992,15.5339,0,0.000885,0,0
0:1:17.582,122.522,15.6028,0,0.000885,0,0
0:1:17.783,122.402,15.5822,0,0.000885,0,0
0:1:17.978,123.225,15.6925,0,0.000885,0,0
0:1:18.180,123.225,15.6925,0,0.000885,0,0
0:1:18.382,123.692,15.7476,0,0.000885,0,0
0:1:18.586,123.927,15.7821,0,0.000885,0,0
0:1:18.789,124.048,15.7959,0,0.000885,0,0
0:1:18.992,124.866,15.8993,0,0.000885,0,0
0:1:19.193,124.572,15.8579,0,0.000885,0,0
0:1:19.395,125.805,16.0165,0,0.000885,0,0
0:1:19.596,125.862,16.0234,0,0.000885,0,0
0:1:19.799,126.45,16.0993,0,0.000885,0,0
0:1:19.996,127.152,16.1889,0,0.000885,0,0
0:1:20.194,127.624,16.2509,0,0.000885,0,0
0:1:20.394,126.979,16.1682,0,0.000885,0,0
0:1:20.591,127.86,16.2785,0,0.000885,0,0
0:1:20.793,128.211,16.3268,0,0.000885,0,0
0:1:20.989,129.265,16.4578,0,0.000885,0,0
0:1:21.189,129.795,16.5267,0,0.000885,0,0
0:1:21.390,129.737,16.5198,0,0.000885,0,0
0:1:21.586,130.613,16.6302,0,0.000885,0,0
0:1:21.788,130.555,16.6233,0,0.000885,0,0
0:1:21.984,130.675,16.637,0,0.000885,0,0
0:1:22.182,130.733,16.6439,0,0.000885,0,0
0:1:22.384,131.494,16.7405,0,0.000885,0,0
0:1:22.579,131.258,16.7129,0,0.000885,0,0
0:1:22.781,132.317,16.8439,0,0.000885,0,0
0:1:22.980,132.432,16.8646,0,0.000885,0,0
0:1:23.176,133.255,16.968,0,0.000885,0,0
0:1:23.379,133.843,17.0438,0,0.000885,0,0
0:1:23.581,134.074,17.0714,0,0.000885,0,0
0:1:23.785,134.777,17.1611,0,0.000885,0,0
0:1:23.989,134.839,17.1679,0,0.000885,0,0
0:1:24.190,134.955,17.1817,0,0.000885,0,0
0:1:24.392,135.484,17.2507,0,0.000885,0,0
0:1:24.592,135.715,17.2783,0,0.000885,0,0
0:1:24.794,136.596,17.3955,0,0.000885,0,0
0:1:24.996,136.302,17.3541,0,0.000885,0,0
0:1:25.192,137.125,17.4575,0,0.000885,0,0
0:1:25.393,137.068,17.4506,0,0.000885,0,0
0:1:25.590,137.712,17.5334,0,0.000885,0,0
0:1:25.790,137.655,17.5265,0,0.000885,0,0
0:1:25.992,138.767,17.6713,0,0.000885,0,0
0:1:26.186,138.825,17.6782,0,0.000885,0,0
0:1:26.389,139.47,17.7609,0,0.000885,0,0
0:1:26.588,140.292,17.8643,0,0.000885,0,0
0:1:26.786,140.057,17.8298,0,0.000885,0,0
0:1:26.989,140.528,17.8919,0,0.000885,0,0
0:1:27.183,141.405,18.0022,0,0.000885,0,0
0:1:27.384,141.525,18.016,0,0.000885,0,0
0:1:27.582,141.76,18.0505,0,0.000885,0,0
0:1:27.780,142.405,18.1332,0,0.000885,0,0
0:1:27.981,142.285,18.1194,0,0.000885,0,0
0:1:28.179,143.05,18.2159,0,0.000885,0,0
0:1:28.376,143.402,18.2573,0,0.000885,0,0
0:1:28.578,143.989,18.3332,0,0.000885,0,0
0:1:28.782,144.75,18.4297,0,0.000885,0,0
0:1:28.984,144.692,18.4228,0,0.000885,0,0
0:1:29.187,145.217,18.4917,0,0.000885,0,0
0:1:29.389,144.985,18.4573,0,0.000885,0,0
0:1:29.590,145.924,18.5814,0,0.000885,0,0
0:1:29.792,145.862,18.5745,0,0.000885,0,0
0:1:29.994,146.862,18.6986,0,0.000885,0,0
0:1:30.193,147.094,18.7262,0,0.000885,0,0
0:1:30.389,147.387,18.7675,0,0.000885,0,0
0:1:30.591,147.739,18.8089,0,0.000885,0,0
0:1:30.788,148.21,18.871,0,0.000885,0,0
0:1:30.987,148.326,18.8847,0,0.000885,0,0
0:1:31.189,149.149,18.9882,0,0.000885,0,0
0:1:31.384,149.091,18.9813,0,0.000885,0,0
0:1:31.587,149.794,19.0709,0,0.000885,0,0
0:1:31.782,150.03,19.1054,0,0.000885,0,0
0:1:31.981,150.612,19.1743,0,0.000885,0,0
0:1:32.183,150.732,19.195,0,0.000885,0,0
0:1:32.378,151.493,19.2915,0,0.000885,0,0
0:1:32.579,151.32,19.264,0,0.000885,0,0
0:1:32.778,152.022,19.3536,0,0.000885,0,0
0:1:32.974,152.432,19.4087,0,0.000885,0,0
0:1:33.176,153.255,19.5122,0,0.000885,0,0
0:1:33.378,153.077,19.4915,0,0.000885,0,0
0:1:33.582,153.722,19.5742,0,0.000885,0,0
0:1:33.785,153.842,19.588,0,0.000885,0,0
0:1:33.988,154.602,19.6845,0,0.000885,0,0
0:1:34.189,154.429,19.6638,0,0.000885,0,0
0:1:34.390,155.305,19.7742,0,0.000885,0,0
0:1:34.592,155.483,19.7948,0,0.000885,0,0
0:1:34.793,156.186,19.8845,0,0.000885,0,0
0:1:34.989,156.657,19.9465,0,0.000885,0,0
0:1:35.191,156.537,19.9327,0,0.000885,0,0
0:1:35.390,157.418,20.0431,0,0.000885,0,0
0:1:35.588,156.831,19.9672,0,0.000885,0,0
0:1:35.789,157.885,20.1051,0,0.000885,0,0
0:1:35.984,157.947,20.112,0,0.000885,0,0
0:1:36.185,158.708,20.2085,0,0.000885,0,0
0:1:36.383,159.002,20.243,0,0.000885,0,0
0:1:36.580,159.117,20.2568,0,0.000885,0,0
0:1:36.782,159.589,20.3188,0,0.000885,0,0
0:1:36.978,160.114,20.3878,0,0.000885,0,0
0:1:37.178,161.052,20.505,0,0.000885,0,0
0:1:37.379,161.288,20.5326,0,0.000885,0,0
0:1:37.574,161.408,20.5533,0,0.000885,0,0
0:1:37.776,161.639,20.5809,0,0.000885,0,0
0:1:37.973,161.875,20.6084,0,0.000885,0,0
0:1:38.171,162.636,20.705,0,0.000885,0,0
0:1:38.373,162.636,20.705,0,0.000885,0,0
0:1:38.576,163.459,20.8153,0,0.000885,0,0
0:1:38.779,163.401,20.8015,0,0.000885,0,0
0:1:38.982,164.104,20.8911,0,0.000885,0,0
0:1:39.183,164.046,20.8842,0,0.000885,0,0
0:1:39.387,164.985,21.0083,0,0.000885,0,0
0:1:39.586,164.927,21.0014,0,0.000885,0,0
0:1:39.789,166.39,21.1876,0,0.000885,0,0
0:1:39.988,166.332,21.1807,0,0.000885,0,0
0:1:40.185,166.92,21.2496,0,0.000885,0,0
0:1:40.387,167.329,21.3048,0,0.000885,0,0
0:1:40.582,167.387,21.3117,0,0.000885,0,0
0:1:40.783,168.209,21.4151,0,0.000885,0,0
0:1:40.982,168.032,21.3944,0,0.000885,0,0
0:1:41.177,168.739,21.4841,0,0.000885,0,0
0:1:41.380,169.032,21.5185,0,0.000885,0,0
0:1:41.578,169.557,21.5875,0,0.000885,0,0
0:1:41.777,170.029,21.6495,0,0.000885,0,0
0:1:41.977,169.971,21.6426,0,0.000885,0,0
0:1:42.172,170.732,21.7392,0,0.000885,0,0
0:1:42.374,171.199,21.8012,0,0.000885,0,0
0:1:42.573,171.67,21.8564,0,0.000885,0,0
0:1:42.771,171.728,21.8633,0,0.000885,0,0
0:1:42.973,172.2,21.9253,0,0.000885,0,0
0:1:43.168,172.902,22.015,0,0.000885,0,0
0:1:43.369,173.138,22.0425,0,0.000885,0,0
0:1:43.572,173.605,22.1046,0,0.000885,0,0
0:1:43.775,173.312,22.0701,0,0.000885,0,0
0:1:43.976,174.192,22.1804,0,0.000885,0,0
0:1:44.178,174.837,22.2632,0,0.000885,0,0
0:1:44.380,174.722,22.2494,0,0.000885,0,0
0:1:44.582,175.66,22.3666,0,0.000885,0,0
0:1:44.782,175.425,22.339,0,0.000885,0,0
0:1:44.984,176.07,22.4149,0,0.000885,0,0
0:1:45.182,175.718,22.3735,0,0.000885,0,0
0:1:45.381,176.657,22.4907,0,0.000885,0,0
0:1:45.581,176.95,22.5321,0,0.000885,0,0
0:1:45.778,177.244,22.5665,0,0.000885,0,0
0:1:45.981,177.947,22.6562,0,0.000885,0,0
0:1:46.178,178.062,22.67,0,0.000885,0,0
0:1:46.376,178.472,22.7251,0,0.000885,0,0
0:1:46.578,179.001,22.7941,0,0.000885,0,0
0:1:46.773,179.179,22.8148,0,0.000885,0,0
0:1:46.975,179.997,22.9182,0,0.000885,0,0
0:1:47.173,180.469,22.9802,0,0.000885,0,0
0:1:47.371,180.762,23.0147,0,0.000885,0,0
0:1:47.573,181.407,23.0974,0,0.000885,0,0
0:1:47.770,181.759,23.1388,0,0.000885,0,0
0:1:47.970,182.168,23.194,0,0.000885,0,0
0:1:48.172,182.346,23.2146,0,0.000885,0,0
0:1:48.374,182.577,23.2491,0,0.000885,0,0
0:1:48.577,183.285,23.3388,0,0.000885,0,0
0:1:48.780,183.285,23.3388,0,0.000885,0,0
0:1:48.982,183.752,23.3939,0,0.000885,0,0
0:1:49.184,184.281,23.4629,0,0.000885,0,0
0:1:49.386,184.339,23.4698,0,0.000885,0,0
0:1:49.588,185.277,23.587,0,0.000885,0,0
0:1:49.786,185.219,23.5801,0,0.000885,0,0
0:1:49.983,186.038,23.6904,0,0.000885,0,0
0:1:50.184,185.98,23.6766,0,0.000885,0,0
0:1:50.381,186.977,23.8076,0,0.000885,0,0
0:1:50.582,186.567,23.7524,0,0.000885,0,0
0:1:50.779,187.154,23.8283,0,0.000885,0,0
0:1:50.977,187.448,23.8696,0,0.000885,0,0
0:1:51.179,188.035,23.9386,0,0.000885,0,0
0:1:51.376,188.093,23.9455,0,0.000885,0,0
0:1:51.576,188.738,24.0282,0,0.000885,0,0
0:1:51.776,189.499,24.1248,0,0.000885,0,0
0:1:51.970,189.383,24.111,0,0.000885,0,0
0:1:52.172,190.264,24.2282,0,0.000885,0,0
0:1:52.372,190.557,24.2627,0,0.000885,0,0
0:1:52.569,191.14,24.3385,0,0.000885,0,0
0:1:52.771,191.202,24.3454,0,0.000885,0,0
0:1:52.967,191.612,24.3937,0,0.000885,0,0
0:1:53.169,191.727,24.4143,0,0.000885,0,0
0:1:53.369,192.492,24.5109,0,0.000885,0,0
0:1:53.572,192.844,24.5522,0,0.000885,0,0
0:1:53.773,193.08,24.5867,0,0.000885,0,0
0:1:53.973,193.84,24.6832,0,0.000885,0,0
0:1:54.173,193.662,24.6557,0,0.000885,0,0
0:1:54.373,194.601,24.7798,0,0.000885,0,0
0:1:54.572,194.307,24.7384,0,0.000885,0,0
0:1:54.773,194.601,24.7798,0,0.000885,0,0
0:1:54.969,195.308,24.8694,0,0.000885,0,0
0:1:55.166,195.366,24.8763,0,0.000885,0,0
0:1:55.367,196.598,25.0349,0,0.000885,0,0
0:1:55.559,196.478,25.0142,0,0.000885,0,0
0:1:55.761,197.065,25.09,0,0.000885,0,0
0:1:55.957,197.474,25.1452,0,0.000885,0,0
0:1:56.155,197.83,25.1865,0,0.000885,0,0
0:1:56.354,198.297,25.2486,0,0.000885,0,0
0:1:56.548,198.533,25.2762,0,0.000885,0,0
0:1:56.748,198.942,25.3313,0,0.000885,0,0
0:1:56.944,199.645,25.421,0,0.000885,0,0
0:1:57.149,199.351,25.3796,0,0.000885,0,0
0:1:57.350,199.703,25.4279,0,0.000885,0,0
0:1:57.547,200.584,25.5382,0,0.000885,0,0
0:1:57.742,200.762,25.5589,0,0.000885,0,0
0:1:57.942,201.7,25.683,0,0.000885,0,0
0:1:58.135,202.287,25.7588,0,0.000885,0,0
0:1:58.336,202.052,25.7243,0,0.000885,0,0
0:1:58.535,202.287,25.7588,0,0.000885,0,0
0:1:58.737,203.342,25.8898,0,0.000885,0,0
0:1:58.939,203.399,25.8967,0,0.000885,0,0
0:1:59.140,204.222,26.0001,0,0.000885,0,0
0:1:59.339,204.516,26.0415,0,0.000885,0,0
0:1:59.540,204.689,26.0622,0,0.000885,0,0
0:1:59.740,205.334,26.1449,0,0.000885,0,0
0:1:59.940,205.099,26.1173,0,0.000885,0,0
0:2:0.155,205.864,26.2139,0,0.000885,0,0
0:2:0.354,206.509,26.2966,0,0.000885,0,0
0:2:0.551,206.509,26.2966,0,0.000885,0,0
0:2:0.749,207.154,26.3724,0,0.000885,0,0
0:2:0.950,206.86,26.338,0,0.000885,0,0
0:2:1.143,207.914,26.4759,0,0.000885,0,0
0:2:1.342,208.208,26.5103,0,0.000885,0,0
0:2:1.541,207.799,26.4552,0,0.000885,0,0
0:2:1.736,208.737,26.5793,0,0.000885,0,0
0:2:1.937,208.973,26.6069,0,0.000885,0,0
0:2:2.142,209.734,26.7034,0,0.000885,0,0
0:2:2.351,209.849,26.7172,0,0.000885,0,0
0:2:2.550,210.143,26.7586,0,0.000885,0,0
0:2:2.743,210.788,26.8413,0,0.000885,0,0
0:2:2.943,210.966,26.862,0,0.000885,0,0
0:2:3.152,211.144,26.8827,0,0.000885,0,0
0:2:3.347,211.847,26.9723,0,0.000885,0,0
0:2:3.548,211.962,26.9861,0,0.000885,0,0
0:2:3.750,212.665,27.0757,0,0.000885,0,0
0:2:3.952,213.079,27.1309,0,0.000885,0,0
0:2:4.153,213.252,27.1516,0,0.000885,0,0
0:2:4.353,213.31,27.1584,0,0.000885,0,0
0:2:4.554,214.894,27.3584,0,0.000885,0,0
0:2:4.754,214.836,27.3515,0,0.000885,0,0
0:2:4.955,214.956,27.3722,0,0.000885,0,0
0:2:5.155,215.187,27.3998,0,0.000885,0,0
0:2:5.348,216.01,27.5032,0,0.000885,0,0
0:2:5.550,216.477,27.5652,0,0.000885,0,0
0:2:5.753,216.246,27.5308,0,0.000885,0,0
0:2:5.952,216.891,27.6135,0,0.000885,0,0
0:2:6.152,217.709,27.7169,0,0.000885,0,0
0:2:6.354,217.416,27.6825,0,0.000885,0,0
0:2:6.554,217.709,27.7169,0,0.000885,0,0
0:2:6.751,217.767,27.7238,0,0.000885,0,0
0:2:6.945,218.296,27.7928,0,0.000885,0,0
0:2:7.149,219.413,27.9376,0,0.000885,0,0
0:2:7.352,220.174,28.0341,0,0.000885,0,0
0:2:7.550,220.058,28.0203,0,0.000885,0,0
0:2:7.748,220.231,28.041,0,0.000885,0,0
0:2:7.941,220.583,28.0823,0,0.000885,0,0
0:2:8.141,221.112,28.1513,0,0.000885,0,0
0:2:8.342,221.757,28.234,0,0.000885,0,0
0:2:8.544,222.287,28.303,0,0.000885,0,0
0:2:8.748,223.047,28.3995,0,0.000885,0,0
0:2:8.949,223.577,28.4685,0,0.000885,0,0
0:2:9.150,223.577,28.4685,0,0.000885,0,0
0:2:9.350,223.986,28.5167,0,0.000885,0,0
0:2:9.549,223.986,28.5167,0,0.000885,0,0
0:2:9.750,224.222,28.5512,0,0.000885,0,0
0:2:9.943,224.866,28.6339,0,0.000885,0,0
0:2:10.141,225.04,28.6546,0,0.000885,0,0
0:2:10.341,225.511,28.7098,0,0.000885,0,0
0:2:10.536,225.685,28.7373,0,0.000885,0,0
0:2:10.737,225.979,28.7718,0,0.000885,0,0
0:2:10.931,226.624,28.8546,0,0.000885,0,0
0:2:11.130,226.917,28.889,0,0.000885,0,0
0:2:11.330,227.331,28.9442,0,0.000885,0,0
0:2:11.535,227.389,28.9511,0,0.000885,0,0
0:2:11.735,228.034,29.0338,0,0.000885,0,0
0:2:11.940,228.563,29.1028,0,0.000885,0,0
0:2:12.138,228.972,29.151,0,0.000885,0,0
0:2:12.338,229.266,29.1924,0,0.000885,0,0
0:2:12.541,229.675,29.2407,0,0.000885,0,0
0:2:12.741,230.262,29.3165,0,0.000885,0,0
0:2:12.950,230.556,29.3579,0,0.000885,0,0
0:2:13.156,230.729,29.3786,0,0.000885,0,0
0:2:13.357,231.201,29.4406,0,0.000885,0,0
0:2:13.558,231.904,29.5302,0,0.000885,0,0
0:2:13.759,232.019,29.544,0,0.000885,0,0
0:2:13.961,232.313,29.5785,0,0.000885,0,0
0:2:14.162,233.136,29.6819,0,0.000885,0,0
0:2:14.363,233.251,29.6957,0,0.000885,0,0
0:2:14.562,233.545,29.7371,0,0.000885,0,0
0:2:14.763,234.252,29.8267,0,0.000885,0,0
0:2:14.962,234.484,29.8543,0,0.000885,0,0
0:2:15.156,235.071,29.9301,0,0.000885,0,0
0:2:15.357,235.894,30.0336,0,0.000885,0,0
0:2:15.553,235.542,29.9922,0,0.000885,0,0
0:2:15.750,236.832,30.1508,0,0.000885,0,0
0:2:15.950,236.832,30.1508,0,0.000885,0,0
0:2:16.153,237.006,30.1784,0,0.000885,0,0
0:2:16.354,237.241,30.2059,0,0.000885,0,0
0:2:16.551,237.709,30.268,0,0.000885,0,0
0:2:16.746,238.531,30.3714,0,0.000885,0,0
0:2:16.946,239.176,30.4541,0,0.000885,0,0
0:2:17.151,239.003,30.4335,0,0.000885,0,0
0:2:17.352,239.47,30.4886,0,0.000885,0,0
0:2:17.550,239.879,30.5438,0,0.000885,0,0
0:2:17.755,240.115,30.5714,0,0.000885,0,0
0:2:17.956,240.587,30.6334,0,0.000885,0,0
0:2:18.149,240.76,30.6541,0,0.000885,0,0
0:2:18.357,240.938,30.6748,0,0.000885,0,0
0:2:18.558,241.169,30.7092,0,0.000885,0,0
0:2:18.760,241.876,30.7989,0,0.000885,0,0
0:2:18.962,242.695,30.9023,0,0.000885,0,0
0:2:19.163,242.989,30.9368,0,0.000885,0,0
0:2:19.362,243.104,30.9506,0,0.000885,0,0
0:2:19.562,243.811,31.0402,0,0.000885,0,0
0:2:19.762,243.927,31.0609,0,0.000885,0,0
0:2:19.963,244.105,31.0816,0,0.000885,0,0
0:2:20.159,244.981,31.1919,0,0.000885,0,0
0:2:20.357,245.337,31.2401,0,0.000885,0,0
0:2:20.557,245.511,31.2608,0,0.000885,0,0
0:2:20.751,245.804,31.2953,0,0.000885,0,0
0:2:20.952,246.271,31.3574,0,0.000885,0,0
0:2:21.157,246.859,31.4332,0,0.000885,0,0
0:2:21.353,247.094,31.4608,0,0.000885,0,0
0:2:21.554,247.33,31.4884,0,0.000885,0,0
0:2:21.749,247.975,31.5711,0,0.000885,0,0
0:2:21.949,248.326,31.6194,0,0.000885,0,0
0:2:22.146,248.442,31.6331,0,0.000885,0,0
0:2:22.340,249.149,31.7228,0,0.000885,0,0
0:2:22.541,249.501,31.7641,0,0.000885,0,0
0:2:22.736,249.968,31.8262,0,0.000885,0,0
0:2:22.934,250.083,31.84,0,0.000885,0,0
0:2:23.135,250.555,31.902,0,0.000885,0,0
0:2:23.337,250.791,31.9296,0,0.000885,0,0
0:2:23.538,250.791,31.9296,0,0.000885,0,0
0:2:23.739,251.845,32.0675,0,0.000885,0,0
0:2:23.940,252.023,32.0882,0,0.000885,0,0
0:2:24.141,252.841,32.1916,0,0.000885,0,0
0:2:24.340,253.251,32.2468,0,0.000885,0,0
0:2:24.540,253.371,32.2606,0,0.000885,0,0
0:2:24.739,253.78,32.3157,0,0.000885,0,0
0:2:24.934,254.131,32.3571,0,0.000885,0,0
0:2:25.135,255.012,32.4674,0,0.000885,0,0
0:2:25.339,255.07,32.4743,0,0.000885,0,0
0:2:25.538,255.715,32.557,0,0.000885,0,0
0:2:25.737,255.835,32.5708,0,0.000885,0,0
0:2:25.931,256.302,32.6329,0,0.000885,0,0
0:2:26.132,257.183,32.7432,0,0.000885,0,0
0:2:26.338,257.534,32.7915,0,0.000885,0,0
0:2:26.543,257.592,32.7984,0,0.000885,0,0
0:2:26.743,257.943,32.8397,0,0.000885,0,0
0:2:26.937,258.588,32.9225,0,0.000885,0,0
0:2:27.136,258.882,32.9638,0,0.000885,0,0
0:2:27.336,258.94,32.9707,0,0.000885,0,0
0:2:27.531,259.878,33.0879,0,0.000885,0,0
0:2:27.732,260.056,33.1086,0,0.000885,0,0
0:2:27.934,260.408,33.1569,0,0.000885,0,0
0:2:28.132,260.701,33.1914,0,0.000885,0,0
0:2:28.333,261.289,33.2672,0,0.000885,0,0
0:2:28.535,261.756,33.3293,0,0.000885,0,0
0:2:28.736,262.343,33.4051,0,0.000885,0,0
0:2:28.938,262.694,33.4465,0,0.000885,0,0
0:2:29.138,262.401,33.412,0,0.000885,0,0
0:2:29.339,263.459,33.543,0,0.000885,0,0
0:2:29.539,263.459,33.543,0,0.000885,0,0
0:2:29.739,264.104,33.6257,0,0.000885,0,0
0:2:29.945,264.104,33.6257,0,0.000885,0,0
0:2:30.143,264.985,33.736,0,0.000885,0,0
0:2:30.342,265.216,33.7705,0,0.000885,0,0
0:2:30.538,265.861,33.8533,0,0.000885,0,0
0:2:30.737,265.919,33.8602,0,0.000885,0,0
0:2:30.944,266.8,33.9705,0,0.000885,0,0
0:2:31.150,266.391,33.9153,0,0.000885,0,0
0:2:31.351,267.036,33.998,0,0.000885,0,0
0:2:31.555,267.445,34.0532,0,0.000885,0,0
0:2:31.754,267.916,34.1153,0,0.000885,0,0
0:2:31.952,267.738,34.0877,0,0.000885,0,0
0:2:32.145,268.152,34.1428,0,0.000885,0,0
0:2:32.346,268.383,34.1704,0,0.000885,0,0
0:2:32.542,268.677,34.2118,0,0.000885,0,0
0:2:32.740,269.149,34.2669,0,0.000885,0,0
0:2:32.940,269.851,34.3566,0,0.000885,0,0
0:2:33.141,269.322,34.2945,0,0.000885,0,0
0:2:33.343,270.318,34.4186,0,0.000885,0,0
0:2:33.543,270.612,34.4531,0,0.000885,0,0
0:2:33.743,270.848,34.4876,0,0.000885,0,0
0:2:33.945,271.377,34.5496,0,0.000885,0,0
0:2:34.147,271.435,34.5634,0,0.000885,0,0
0:2:34.346,271.608,34.5841,0,0.000885,0,0
0:2:34.546,271.551,34.5772,0,0.000885,0,0
0:2:34.747,272.08,34.6393,0,0.000885,0,0
0:2:34.947,272.725,34.722,0,0.000885,0,0
0:2:35.142,272.725,34.722,0,0.000885,0,0
0:2:35.340,273.018,34.7634,0,0.000885,0,0
0:2:35.539,274.073,34.8944,0,0.000885,0,0
0:2:35.735,273.837,34.8668,0,0.000885,0,0
0:2:35.935,274.193,34.9082,0,0.000885,0,0
0:2:36.140,273.957,34.8806,0,0.000885,0,0
0:2:36.347,274.838,34.9909,0,0.000885,0,0
0:2:36.546,274.718,34.9771,0,0.000885,0,0
0:2:36.751,275.189,35.0392,0,0.000885,0,0
0:2:36.952,275.011,35.0185,0,0.000885,0,0
0:2:37.146,274.896,34.9978,0,0.000885,0,0
0:2:37.353,275.131,35.0323,0,0.000885,0,0
0:2:37.553,275.421,35.0667,0,0.000885,0,0
0:2:37.747,276.008,35.1426,0,0.000885,0,0
0:2:37.947,275.95,35.1357,0,0.000885,0,0
0:2:38.154,276.008,35.1426,0,0.000885,0,0
0:2:38.351,277.004,35.2667,0,0.000885,0,0
0:2:38.551,277.533,35.3356,0,0.000885,0,0
0:2:38.751,277.943,35.3908,0,0.000885,0,0
0:2:38.954,278.236,35.4253,0,0.000885,0,0
0:2:39.156,278.299,35.4322,0,0.000885,0,0
0:2:39.355,279.353,35.5701,0,0.000885,0,0
0:2:39.556,279.589,35.5976,0,0.000885,0,0
0:2:39.756,280.171,35.6735,0,0.000885,0,0
0:2:39.954,280.701,35.7424,0,0.000885,0,0
0:2:40.155,281.23,35.8045,0,0.000885,0,0
0:2:40.347,281.817,35.8803,0,0.000885,0,0
0:2:40.547,282.284,35.9424,0,0.000885,0,0
0:2:40.755,282.756,36.0044,0,0.000885,0,0
0:2:40.953,283.049,36.0389,0,0.000885,0,0
0:2:41.153,283.632,36.1147,0,0.000885,0,0
0:2:41.347,284.277,36.1975,0,0.000885,0,0
0:2:41.544,284.513,36.2251,0,0.000885,0,0
0:2:41.742,285.509,36.3492,0,0.000885,0,0
0:2:41.937,286.216,36.4388,0,0.000885,0,0
0:2:42.139,287.213,36.5698,0,0.000885,0,0
0:2:42.335,287.444,36.5974,0,0.000885,0,0
0:2:42.533,287.622,36.6181,0,0.000885,0,0
0:2:42.732,288.151,36.687,0,0.000885,0,0
0:2:42.924,288.912,36.7835,0,0.000885,0,0
0:2:43.126,289.384,36.8456,0,0.000885,0,0
0:2:43.325,289.499,36.8594,0,0.000885,0,0
0:2:43.528,289.673,36.8801,0,0.000885,0,0
0:2:43.730,290.38,36.9697,0,0.000885,0,0
0:2:43.930,290.731,37.018,0,0.000885,0,0
0:2:44.131,291.025,37.0524,0,0.000885,0,0
0:2:44.331,291.318,37.0938,0,0.000885,0,0
0:2:44.532,291.786,37.149,0,0.000885,0,0
0:2:44.732,292.315,37.2179,0,0.000885,0,0
0:2:44.927,292.373,37.2248,0,0.000885,0,0
0:2:45.125,290.26,36.9559,0,0.000885,0,0
0:2:45.323,289.09,36.8111,0,0.000885,0,0
0:2:45.516,288.912,36.7835,0,0.000885,0,0
0:2:45.717,288.854,36.7766,0,0.000885,0,0
0:2:45.913,288.561,36.7422,0,0.000885,0,0
0:2:46.109,288.854,36.7766,0,0.000885,0,0
0:2:46.309,288.739,36.7628,0,0.000885,0,0
0:2:46.504,288.325,36.7077,0,0.000885,0,0
0:2:46.703,288.267,36.7008,0,0.000885,0,0
0:2:46.899,287.506,36.6043,0,0.000885,0,0
0:2:47.094,287.68,36.6318,0,0.000885,0,0
0:2:47.294,287.155,36.5629,0,0.000885,0,0
0:2:47.490,287.444,36.5974,0,0.000885,0,0
0:2:47.687,286.977,36.5422,0,0.000885,0,0
0:2:47.886,286.683,36.5008,0,0.000885,0,0
0:2:48.078,286.919,36.5284,0,0.000885,0,0
0:2:48.280,286.799,36.5146,0,0.000885,0,0
0:2:48.479,286.861,36.5215,0,0.000885,0,0
0:2:48.682,286.448,36.4733,0,0.000885,0,0
0:2:48.883,286.332,36.4595,0,0.000885,0,0
0:2:49.084,285.981,36.4112,0,0.000885,0,0
0:2:49.282,285.509,36.3492,0,0.000885,0,0
0:2:49.482,285.803,36.3905,0,0.000885,0,0
0:2:49.682,285.861,36.3974,0,0.000885,0,0
0:2:49.882,285.687,36.3767,0,0.000885,0,0
0:2:50.076,285.509,36.3492,0,0.000885,0,0
0:2:50.275,285.216,36.3147,0,0.000885,0,0
0:2:50.471,284.864,36.2733,0,0.000885,0,0
0:2:50.667,283.752,36.1285,0,0.000885,0,0
0:2:50.868,283.401,36.0803,0,0.000885,0,0
0:2:51.062,283.165,36.0527,0,0.000885,0,0
0:2:51.260,283.223,36.0596,0,0.000885,0,0
0:2:51.459,283.165,36.0527,0,0.000885,0,0
0:2:51.653,283.401,36.0803,0,0.000885,0,0
0:2:51.853,283.338,36.0734,0,0.000885,0,0
0:2:52.058,283.401,36.0803,0,0.000885,0,0
0:2:52.254,283.868,36.1423,0,0.000885,0,0
0:2:52.454,283.988,36.1561,0,0.000885,0,0
0:2:52.647,284.161,36.1837,0,0.000885,0,0
0:2:52.846,283.988,36.1561,0,0.000885,0,0
0:2:53.055,283.926,36.1492,0,0.000885,0,0
0:2:53.257,284.046,36.163,0,0.000885,0,0
0:2:53.458,284.161,36.1837,0,0.000885,0,0
0:2:53.659,284.046,36.163,0,0.000885,0,0
0:2:53.861,283.868,36.1423,0,0.000885,0,0
0:2:54.062,283.752,36.1285,0,0.000885,0,0
0:2:54.262,283.81,36.1354,0,0.000885,0,0
0:2:54.462,283.401,36.0803,0,0.000885,0,0
0:2:54.661,283.049,36.0389,0,0.000885,0,0
0:2:54.862,282.929,36.0251,0,0.000885,0,0
0:2:55.062,282.693,35.9906,0,0.000885,0,0
0:2:55.256,282.226,35.9355,0,0.000885,0,0
0:2:55.455,282.462,35.9631,0,0.000885,0,0
0:2:55.660,282.168,35.9286,0,0.000885,0,0
0:2:55.857,281.933,35.8941,0,0.000885,0,0
0:2:56.057,281.697,35.8665,0,0.000885,0,0
0:2:56.260,281.817,35.8803,0,0.000885,0,0
0:2:56.459,281.697,35.8665,0,0.000885,0,0
0:2:56.656,281.466,35.8389,0,0.000885,0,0
0:2:56.850,281.288,35.8114,0,0.000885,0,0
0:2:57.050,280.879,35.7631,0,0.000885,0,0
0:2:57.245,280.758,35.7493,0,0.000885,0,0
0:2:57.450,280.585,35.7217,0,0.000885,0,0
0:2:57.650,280.527,35.7148,0,0.000885,0,0
0:2:57.844,279.82,35.6252,0,0.000885,0,0
0:2:58.043,279.762,35.6183,0,0.000885,0,0
0:2:58.243,279.001,35.5218,0,0.000885,0,0
0:2:58.443,279.001,35.5218,0,0.000885,0,0
0:2:58.644,278.472,35.4528,0,0.000885,0,0
0:2:58.844,276.595,35.2184,0,0.000885,0,0
0:2:59.045,262.285,33.3982,0,0.000885,0,0
0:2:59.244,260.644,33.1845,0,0.000885,0,0
0:2:59.444,259.647,33.0604,0,0.000885,0,0
0:2:59.644,258.588,32.9225,0,0.000885,0,0
0:2:59.849,258.588,32.9225,0,0.000885,0,0
0:3:0.047,257.534,32.7915,0,0.000885,0,0
0:3:0.246,257.183,32.7432,0,0.000885,0,0
0:3:0.448,256.538,32.6605,0,0.000885,0,0
0:3:0.649,255.951,32.5915,0,0.000885,0,0
0:3:0.844,254.603,32.4191,0,0.000885,0,0
0:3:1.040,253.958,32.3364,0,0.000885,0,0
0:3:1.240,252.784,32.1847,0,0.000885,0,0
0:3:1.455,252.196,32.1089,0,0.000885,0,0
0:3:1.656,249.087,31.7159,0,0.000885,0,0
0:3:1.860,248.091,31.5849,0,0.000885,0,0
0:3:2.056,247.33,31.4884,0,0.000885,0,0
0:3:2.255,246.859,31.4332,0,0.000885,0,0
0:3:2.449,245.569,31.2677,0,0.000885,0,0
0:3:2.647,245.395,31.247,0,0.000885,0,0
0:3:2.855,243.754,31.0333,0,0.000885,0,0
0:3:3.060,242.579,30.8885,0,0.000885,0,0
0:3:3.261,237.535,30.2404,0,0.000885,0,0
0:3:3.461,235.48,29.9853,0,0.000885,0,0
0:3:3.662,232.669,29.6268,0,0.000885,0,0
0:3:3.863,231.374,29.4613,0,0.000885,0,0
0:3:4.064,229.969,29.282,0,0.000885,0,0
0:3:4.263,229.439,29.2131,0,0.000885,0,0
0:3:4.462,227.562,28.9718,0,0.000885,0,0
0:3:4.663,225.805,28.7511,0,0.000885,0,0
0:3:4.863,220.467,28.0686,0,0.000885,0,0
0:3:4.989,220.467,28.0686,0,0.000885,0,0