File: DataFile2021-07-15_051920.csv
Test ID:,Date Tested:,Time:,Test Type:,Diameter Avg. (mm):,Cyl. Corr. Factor:,Height (mm):,Age (days):,Weight (kN):,Break Type:,Ramp Rate (MPa/s):,Load at Break (kN):,Stress at Break (MPa):
12,7/15/2021,05:19,Cylinder,150,1,300,0,3.6,3,0.25,1824.43,103.24
Sample Time,Load (kN),Stress (MPa),Long. Strain,Trans. Strain,Chan1 Deflection (mm),Chan2 Deflection (mm)
0:0:5.943,5.10211,0.28958,0,0.000885,0,0
0:0:6.340,6.21861,0.351633,0,0.000885,0,0
0:0:6.739,8.62065,0.489528,0,0.000885,0,0
0:0:7.134,10.6757,0.606739,0,0.000885,0,0
0:0:7.531,11.9079,0.675686,0,0.000885,0,0
0:0:7.930,13.6071,0.772213,0,0.000885,0,0
0:0:8.328,15.4264,0.875634,0,0.000885,0,0
0:0:8.726,16.9522,0.958371,0,0.000885,0,0
0:0:9.119,17.8285,1.00663,0,0.000885,0,0
0:0:9.520,19.8257,1.12385,0,0.000885,0,0
0:0:9.920,21.6406,1.22727,0,0.000885,0,0
0:0:10.315,23.1663,1.31,0,0.000885,0,0
0:0:10.712,24.87,1.40653,0,0.000885,0,0
0:0:11.109,26.6271,1.50995,0,0.000885,0,0
0:0:11.512,28.4464,1.60648,0,0.000885,0,0
0:0:11.918,29.6207,1.67543,0,0.000885,0,0
0:0:12.323,31.9071,1.80643,0,0.000885,0,0
0:0:12.726,33.9577,1.92364,0,0.000885,0,0
0:0:13.127,35.7192,2.02016,0,0.000885,0,0
0:0:13.528,37.7698,2.13737,0,0.000885,0,0
0:0:13.927,39.7048,2.24769,0,0.000885,0,0
0:0:14.321,41.9334,2.3718,0,0.000885,0,0
0:0:14.718,44.1619,2.4959,0,0.000885,0,0
0:0:15.120,45.8656,2.59243,0,0.000885,0,0
0:0:15.518,47.8006,2.70274,0,0.000885,0,0
0:0:15.915,50.3806,2.84753,0,0.000885,0,0
0:0:16.321,52.3734,2.96475,0,0.000885,0,0
0:0:16.727,54.722,3.09575,0,0.000885,0,0
0:0:17.131,56.657,3.20606,0,0.000885,0,0
0:0:17.534,57.6534,3.26122,0,0.000885,0,0
0:0:17.930,59.0012,3.33706,0,0.000885,0,0
0:0:18.328,60.527,3.42669,0,0.000885,0,0
0:0:18.727,61.7013,3.48875,0,0.000885,0,0
0:0:19.125,62.8133,3.55769,0,0.000885,0,0
0:0:19.522,64.9841,3.67491,0,0.000885,0,0
0:0:19.918,66.7456,3.77833,0,0.000885,0,0
0:0:20.320,69.0898,3.90933,0,0.000885,0,0
0:0:20.718,70.4999,3.99206,0,0.000885,0,0
0:0:21.114,71.5541,4.04722,0,0.000885,0,0
0:0:21.520,73.4891,4.15754,0,0.000885,0,0
0:0:21.926,75.1883,4.25407,0,0.000885,0,0
0:0:22.330,76.7719,4.3437,0,0.000885,0,0
0:0:22.732,78.9426,4.4678,0,0.000885,0,0
0:0:23.130,80.8776,4.57812,0,0.000885,0,0
0:0:23.527,81.9941,4.64017,0,0.000885,0,0
0:0:23.926,83.8134,4.74359,0,0.000885,0,0
0:0:24.327,86.4512,4.89528,0,0.000885,0,0
0:0:24.725,89.1468,5.04696,0,0.000885,0,0
0:0:25.120,92.0248,5.20554,0,0.000885,0,0
0:0:25.519,93.724,5.30207,0,0.000885,0,0
0:0:25.919,95.3076,5.3917,0,0.000885,0,0
0:0:26.318,96.8912,5.48133,0,0.000885,0,0
0:0:26.723,98.4169,5.57096,0,0.000885,0,0
0:0:27.128,99.8225,5.64681,0,0.000885,0,0
0:0:27.532,100.997,5.71575,0,0.000885,0,0
0:0:27.935,102.523,5.79849,0,0.000885,0,0
0:0:28.330,103.341,5.84675,0,0.000885,0,0
0:0:28.726,105.276,5.95707,0,0.000885,0,0
0:0:29.125,107.447,6.08118,0,0.000885,0,0
0:0:29.525,108.915,6.16391,0,0.000885,0,0
0:0:29.925,110.672,6.26044,0,0.000885,0,0
0:0:30.321,112.318,6.35697,0,0.000885,0,0
0:0:30.717,114.31,6.46728,0,0.000885,0,0
0:0:31.116,116.775,6.60518,0,0.000885,0,0
0:0:31.517,118.416,6.7017,0,0.000885,0,0
0:0:31.923,120.467,6.81891,0,0.000885,0,0
0:0:32.328,122.05,6.90855,0,0.000885,0,0
0:0:32.729,123.812,7.00507,0,0.000885,0,0
0:0:33.133,125.631,7.10849,0,0.000885,0,0
0:0:33.531,127.33,7.20502,0,0.000885,0,0
0:0:33.926,129.15,7.30844,0,0.000885,0,0
0:0:34.324,131.552,7.44634,0,0.000885,0,0
0:0:34.723,132.49,7.4946,0,0.000885,0,0
0:0:35.122,133.958,7.57734,0,0.000885,0,0
0:0:35.519,136.187,7.70834,0,0.000885,0,0
0:0:35.916,137.361,7.77039,0,0.000885,0,0
0:0:36.321,139.354,7.8876,0,0.000885,0,0
0:0:36.727,141.173,7.99102,0,0.000885,0,0
0:0:37.132,143.344,8.10823,0,0.000885,0,0
0:0:37.535,145.279,8.21855,0,0.000885,0,0
0:0:37.930,146.569,8.29439,0,0.000885,0,0
0:0:38.331,148.268,8.39092,0,0.000885,0,0
0:0:38.730,149.91,8.48055,0,0.000885,0,0
0:0:39.126,152.138,8.61155,0,0.000885,0,0
0:0:39.525,153.722,8.70118,0,0.000885,0,0
0:0:39.923,155.425,8.79771,0,0.000885,0,0
0:0:40.324,156.715,8.86666,0,0.000885,0,0
0:0:40.721,158.179,8.94939,0,0.000885,0,0
0:0:41.117,160.349,9.0735,0,0.000885,0,0
0:0:41.522,162.227,9.17692,0,0.000885,0,0
0:0:41.928,164.34,9.30103,0,0.000885,0,0
0:0:42.331,166.332,9.41134,0,0.000885,0,0
0:0:42.733,168.152,9.51477,0,0.000885,0,0
0:0:43.130,169.851,9.61129,0,0.000885,0,0
0:0:43.530,172.2,9.74229,0,0.000885,0,0
0:0:43.929,173.841,9.83882,0,0.000885,0,0
0:0:44.326,174.953,9.90087,0,0.000885,0,0
0:0:44.723,176.888,10.0112,0,0.000885,0,0
0:0:45.119,178.827,10.1215,0,0.000885,0,0
0:0:45.519,180.469,10.2111,0,0.000885,0,0
0:0:45.921,181.874,10.2939,0,0.000885,0,0
0:0:46.316,183.4,10.3766,0,0.000885,0,0
0:0:46.722,184.984,10.4662,0,0.000885,0,0
0:0:47.127,186.803,10.5697,0,0.000885,0,0
0:0:47.531,188.267,10.6524,0,0.000885,0,0
0:0:47.935,190.264,10.7696,0,0.000885,0,0
0:0:48.333,192.55,10.8937,0,0.000885,0,0
0:0:48.726,194.014,10.9765,0,0.000885,0,0
0:0:49.125,195.775,11.0799,0,0.000885,0,0
0:0:49.522,197.652,11.1833,0,0.000885,0,0
0:0:49.914,199.587,11.2936,0,0.000885,0,0
0:0:50.309,201.349,11.397,0,0.000885,0,0
0:0:50.703,203.342,11.5073,0,0.000885,0,0
0:0:51.100,204.747,11.5832,0,0.000885,0,0
0:0:51.504,206.744,11.7004,0,0.000885,0,0
0:0:51.905,208.622,11.8038,0,0.000885,0,0
0:0:52.308,209.791,11.8728,0,0.000885,0,0
0:0:52.708,211.847,11.99,0,0.000885,0,0
0:0:53.103,213.955,12.1072,0,0.000885,0,0
0:0:53.496,215.601,12.2037,0,0.000885,0,0
0:0:53.899,217.006,12.2796,0,0.000885,0,0
0:0:54.296,218.706,12.3761,0,0.000885,0,0
0:0:54.694,220.525,12.4795,0,0.000885,0,0
0:0:55.109,222.518,12.5898,0,0.000885,0,0
0:0:55.501,224.222,12.6864,0,0.000885,0,0
0:0:55.905,225.747,12.776,0,0.000885,0,0
0:0:56.305,227.446,12.8725,0,0.000885,0,0
0:0:56.711,229.266,12.9759,0,0.000885,0,0
0:0:57.112,231.201,13.0862,0,0.000885,0,0
0:0:57.513,232.784,13.1759,0,0.000885,0,0
0:0:57.911,234.719,13.2793,0,0.000885,0,0
0:0:58.306,236.481,13.3827,0,0.000885,0,0
0:0:58.703,238.296,13.4861,0,0.000885,0,0
0:0:59.116,240.057,13.5827,0,0.000885,0,0
0:0:59.512,241.641,13.6723,0,0.000885,0,0
0:0:59.909,243.34,13.7688,0,0.000885,0,0
0:1:0.303,245.337,13.886,0,0.000885,0,0
0:1:0.698,247.446,14.0033,0,0.000885,0,0
0:1:1.091,249.381,14.1136,0,0.000885,0,0
0:1:1.491,251.258,14.217,0,0.000885,0,0
0:1:1.896,252.899,14.3135,0,0.000885,0,0
0:1:2.297,254.425,14.3963,0,0.000885,0,0
0:1:2.697,256.244,14.4997,0,0.000885,0,0
0:1:3.094,257.943,14.5962,0,0.000885,0,0
0:1:3.491,259.118,14.6651,0,0.000885,0,0
0:1:3.897,260.817,14.7617,0,0.000885,0,0
0:1:4.300,263.046,14.8858,0,0.000885,0,0
0:1:4.703,264.456,14.9685,0,0.000885,0,0
0:1:5.101,266.275,15.065,0,0.000885,0,0
0:1:5.498,268.152,15.1754,0,0.000885,0,0
0:1:5.891,269.736,15.265,0,0.000885,0,0
0:1:6.285,271.377,15.3546,0,0.000885,0,0
0:1:6.687,273.486,15.4787,0,0.000885,0,0
0:1:7.090,275.598,15.5959,0,0.000885,0,0
0:1:7.491,277.24,15.6856,0,0.000885,0,0
0:1:7.890,278.944,15.7821,0,0.000885,0,0
0:1:8.295,280.527,15.8717,0,0.000885,0,0
0:1:8.693,282.462,15.982,0,0.000885,0,0
0:1:9.090,284.455,16.0993,0,0.000885,0,0
0:1:9.504,286.216,16.1958,0,0.000885,0,0
0:1:9.905,287.916,16.2923,0,0.000885,0,0
0:1:10.303,289.851,16.4026,0,0.000885,0,0
0:1:10.700,291.612,16.4992,0,0.000885,0,0
0:1:11.095,293.253,16.5957,0,0.000885,0,0
0:1:11.499,295.131,16.6991,0,0.000885,0,0
0:1:11.900,297.417,16.8301,0,0.000885,0,0
0:1:12.299,298.004,16.8646,0,0.000885,0,0
0:1:12.699,300.291,16.9956,0,0.000885,0,0
0:1:13.103,302.052,17.0921,0,0.000885,0,0
0:1:13.506,304.16,17.2093,0,0.000885,0,0
0:1:13.913,305.393,17.2852,0,0.000885,0,0
0:1:14.310,306.683,17.3541,0,0.000885,0,0
0:1:14.706,308.738,17.4713,0,0.000885,0,0
0:1:15.107,310.028,17.5472,0,0.000885,0,0
0:1:15.502,312.372,17.6782,0,0.000885,0,0
0:1:15.900,314.076,17.7747,0,0.000885,0,0
0:1:16.298,315.717,17.8643,0,0.000885,0,0
0:1:16.701,317.825,17.9884,0,0.000885,0,0
0:1:17.103,319.529,18.0849,0,0.000885,0,0
0:1:17.503,321.638,18.2022,0,0.000885,0,0
0:1:17.905,323.341,18.2987,0,0.000885,0,0
0:1:18.299,324.805,18.3814,0,0.000885,0,0
0:1:18.701,326.86,18.4986,0,0.000885,0,0
0:1:19.105,328.853,18.6089,0,0.000885,0,0
0:1:19.503,330.614,18.7055,0,0.000885,0,0
0:1:19.898,332.313,18.802,0,0.000885,0,0
0:1:20.293,333.839,18.8916,0,0.000885,0,0
0:1:20.695,336.183,19.0226,0,0.000885,0,0
0:1:21.093,337.064,19.0709,0,0.000885,0,0
0:1:21.500,338.883,19.1743,0,0.000885,0,0
0:1:21.905,340.64,19.2777,0,0.000885,0,0
0:1:22.306,342.108,19.3605,0,0.000885,0,0
0:1:22.706,343.985,19.4639,0,0.000885,0,0
0:1:23.105,346.156,19.588,0,0.000885,0,0
0:1:23.502,347.682,19.6776,0,0.000885,0,0
0:1:23.905,349.439,19.7742,0,0.000885,0,0
0:1:24.311,351.143,19.8707,0,0.000885,0,0
0:1:24.704,352.784,19.9603,0,0.000885,0,0
0:1:25.103,354.955,20.0844,0,0.000885,0,0
0:1:25.508,356.418,20.1672,0,0.000885,0,0
0:1:25.900,358.002,20.2568,0,0.000885,0,0
0:1:26.303,360.173,20.3809,0,0.000885,0,0
0:1:26.706,361.872,20.4774,0,0.000885,0,0
0:1:27.107,363.985,20.5946,0,0.000885,0,0
0:1:27.507,365.626,20.6912,0,0.000885,0,0
0:1:27.913,367.503,20.7946,0,0.000885,0,0
0:1:28.308,369.029,20.8842,0,0.000885,0,0
0:1:28.706,371.315,21.0152,0,0.000885,0,0
0:1:29.101,372.605,21.0842,0,0.000885,0,0
0:1:29.495,374.954,21.2152,0,0.000885,0,0
0:1:29.889,376.244,21.291,0,0.000885,0,0
0:1:30.286,377.592,21.3669,0,0.000885,0,0
0:1:30.683,378.997,21.4496,0,0.000885,0,0
0:1:31.078,380.701,21.5461,0,0.000885,0,0
0:1:31.480,383.103,21.6771,0,0.000885,0,0
0:1:31.882,384.398,21.753,0,0.000885,0,0
0:1:32.284,386.684,21.884,0,0.000885,0,0
0:1:32.685,388.325,21.9736,0,0.000885,0,0
0:1:33.079,389.967,22.0701,0,0.000885,0,0
0:1:33.474,391.728,22.1666,0,0.000885,0,0
0:1:33.873,393.605,22.2701,0,0.000885,0,0
0:1:34.268,395.656,22.3873,0,0.000885,0,0
0:1:34.661,397.417,22.4907,0,0.000885,0,0
0:1:35.055,399.175,22.5872,0,0.000885,0,0
0:1:35.452,401.052,22.6975,0,0.000885,0,0
0:1:35.848,402.462,22.7734,0,0.000885,0,0
0:1:36.242,403.632,22.8423,0,0.000885,0,0
0:1:36.646,405.86,22.9664,0,0.000885,0,0
0:1:37.049,407.092,23.0354,0,0.000885,0,0
0:1:37.450,409.263,23.1595,0,0.000885,0,0
0:1:37.851,410.962,23.256,0,0.000885,0,0
0:1:38.245,412.839,23.3594,0,0.000885,0,0
0:1:38.639,414.952,23.4835,0,0.000885,0,0
0:1:39.038,416.185,23.5525,0,0.000885,0,0
0:1:39.434,417.768,23.6421,0,0.000885,0,0
0:1:39.828,419.819,23.7593,0,0.000885,0,0
0:1:40.222,421.287,23.8421,0,0.000885,0,0
0:1:40.618,423.693,23.9731,0,0.000885,0,0
0:1:41.017,425.335,24.0696,0,0.000885,0,0
0:1:41.420,426.976,24.1592,0,0.000885,0,0
0:1:41.821,428.733,24.2627,0,0.000885,0,0
0:1:42.222,429.965,24.3316,0,0.000885,0,0
0:1:42.621,432.665,24.4833,0,0.000885,0,0
0:1:43.019,434.013,24.5591,0,0.000885,0,0
0:1:43.424,435.717,24.6557,0,0.000885,0,0
0:1:43.816,437.945,24.7798,0,0.000885,0,0
0:1:44.210,439.293,24.8556,0,0.000885,0,0
0:1:44.609,441.228,24.9659,0,0.000885,0,0
0:1:45.005,442.927,25.0624,0,0.000885,0,0
0:1:45.408,444.631,25.159,0,0.000885,0,0
0:1:45.811,446.152,25.2486,0,0.000885,0,0
0:1:46.214,447.798,25.3382,0,0.000885,0,0
0:1:46.619,449.733,25.4485,0,0.000885,0,0
0:1:47.020,451.432,25.5451,0,0.000885,0,0
0:1:47.420,453.136,25.6416,0,0.000885,0,0
0:1:47.816,455.071,25.7519,0,0.000885,0,0
0:1:48.220,457.121,25.8691,0,0.000885,0,0
0:1:48.619,458.763,25.9588,0,0.000885,0,0
0:1:49.023,461.112,26.0967,0,0.000885,0,0
0:1:49.415,462.926,26.1932,0,0.000885,0,0
0:1:49.809,464.572,26.2897,0,0.000885,0,0
0:1:50.206,465.92,26.3656,0,0.000885,0,0
0:1:50.603,467.797,26.469,0,0.000885,0,0
0:1:51.009,469.203,26.5517,0,0.000885,0,0
0:1:51.410,471.489,26.6827,0,0.000885,0,0
0:1:51.811,473.251,26.7792,0,0.000885,0,0
0:1:52.215,475.301,26.8964,0,0.000885,0,0
0:1:52.617,476.654,26.9723,0,0.000885,0,0
0:1:53.009,478.179,27.0619,0,0.000885,0,0
0:1:53.401,479.469,27.1309,0,0.000885,0,0
0:1:53.798,481.284,27.2343,0,0.000885,0,0
0:1:54.196,482.516,27.3032,0,0.000885,0,0
0:1:54.591,484.981,27.4411,0,0.000885,0,0
0:1:54.984,486.449,27.5239,0,0.000885,0,0
0:1:55.378,488.677,27.6549,0,0.000885,0,0
0:1:55.775,490.67,27.7652,0,0.000885,0,0
0:1:56.173,492.311,27.8617,0,0.000885,0,0
0:1:56.577,494.015,27.9582,0,0.000885,0,0
0:1:56.980,496.244,28.0823,0,0.000885,0,0
0:1:57.379,497.649,28.1582,0,0.000885,0,0
0:1:57.778,499.762,28.2823,0,0.000885,0,0
0:1:58.172,501.052,28.3512,0,0.000885,0,0
0:1:58.569,503.103,28.4685,0,0.000885,0,0
0:1:58.961,504.277,28.5374,0,0.000885,0,0
0:1:59.358,505.918,28.627,0,0.000885,0,0
0:1:59.757,507.974,28.7442,0,0.000885,0,0
0:2:0.149,509.143,28.8132,0,0.000885,0,0
0:2:0.545,511.199,28.9304,0,0.000885,0,0
0:2:0.938,513.076,29.0338,0,0.000885,0,0
0:2:1.339,514.601,29.1235,0,0.000885,0,0
0:2:1.743,516.71,29.2407,0,0.000885,0,0
0:2:2.145,518.765,29.3579,0,0.000885,0,0
0:2:2.545,520.171,29.4337,0,0.000885,0,0
0:2:2.943,522.283,29.5578,0,0.000885,0,0
0:2:3.339,523.925,29.6475,0,0.000885,0,0
0:2:3.736,525.918,29.7578,0,0.000885,0,0
0:2:4.128,527.973,29.875,0,0.000885,0,0
0:2:4.523,529.436,29.9577,0,0.000885,0,0
0:2:4.920,530.788,30.0336,0,0.000885,0,0
0:2:5.318,532.372,30.1232,0,0.000885,0,0
0:2:5.721,534.071,30.2197,0,0.000885,0,0
0:2:6.111,535.833,30.3231,0,0.000885,0,0
0:2:6.516,537.768,30.4335,0,0.000885,0,0
0:2:6.920,539.583,30.5369,0,0.000885,0,0
0:2:7.320,541.286,30.6334,0,0.000885,0,0
0:2:7.721,542.87,30.723,0,0.000885,0,0
0:2:8.113,545.272,30.854,0,0.000885,0,0
0:2:8.521,546.918,30.9506,0,0.000885,0,0
0:2:8.919,548.911,31.0609,0,0.000885,0,0
0:2:9.322,550.258,31.1367,0,0.000885,0,0
0:2:9.713,552.02,31.2401,0,0.000885,0,0
0:2:10.109,553.719,31.3367,0,0.000885,0,0
0:2:10.506,555.832,31.4539,0,0.000885,0,0
0:2:10.902,557.416,31.5435,0,0.000885,0,0
0:2:11.301,559.586,31.6676,0,0.000885,0,0
0:2:11.704,561.459,31.771,0,0.000885,0,0
0:2:12.104,563.572,31.8883,0,0.000885,0,0
0:2:12.507,564.804,31.9641,0,0.000885,0,0
0:2:12.900,565.743,32.0124,0,0.000885,0,0
0:2:13.294,567.268,32.102,0,0.000885,0,0
0:2:13.689,569.377,32.2192,0,0.000885,0,0
0:2:14.086,571.725,32.3502,0,0.000885,0,0
0:2:14.484,573.545,32.4536,0,0.000885,0,0
0:2:14.876,575.302,32.557,0,0.000885,0,0
0:2:15.271,576.712,32.6329,0,0.000885,0,0
0:2:15.667,578.233,32.7225,0,0.000885,0,0
0:2:16.063,579.937,32.819,0,0.000885,0,0
0:2:16.467,582.223,32.95,0,0.000885,0,0
0:2:16.870,583.807,33.0397,0,0.000885,0,0
0:2:17.270,585.275,33.1224,0,0.000885,0,0
0:2:17.670,587.268,33.2327,0,0.000885,0,0
0:2:18.065,589.38,33.3499,0,0.000885,0,0
0:2:18.462,590.67,33.4258,0,0.000885,0,0
0:2:18.857,592.899,33.5499,0,0.000885,0,0
0:2:19.257,594.309,33.6326,0,0.000885,0,0
0:2:19.655,595.777,33.7154,0,0.000885,0,0
0:2:20.051,597.716,33.8257,0,0.000885,0,0
0:2:20.446,599.3,33.9153,0,0.000885,0,0
0:2:20.844,601.004,34.0118,0,0.000885,0,0
0:2:21.245,603.054,34.129,0,0.000885,0,0
0:2:21.650,604.291,34.198,0,0.000885,0,0
0:2:22.055,606.404,34.3152,0,0.000885,0,0
0:2:22.457,607.987,34.4048,0,0.000885,0,0
0:2:22.859,609.749,34.5014,0,0.000885,0,0
0:2:23.256,611.804,34.6186,0,0.000885,0,0
0:2:23.651,613.272,34.7013,0,0.000885,0,0
0:2:24.047,615.794,34.8461,0,0.000885,0,0
0:2:24.445,617.378,34.9357,0,0.000885,0,0
0:2:24.845,619.259,35.0461,0,0.000885,0,0
0:2:25.241,621.136,35.1495,0,0.000885,0,0
0:2:25.635,623.071,35.2598,0,0.000885,0,0
0:2:26.038,624.13,35.3218,0,0.000885,0,0
0:2:26.444,626.536,35.4528,0,0.000885,0,0
0:2:26.847,627.826,35.5287,0,0.000885,0,0
0:2:27.250,629.41,35.6183,0,0.000885,0,0
0:2:27.645,631.759,35.7493,0,0.000885,0,0
0:2:28.046,633.578,35.8527,0,0.000885,0,0
0:2:28.444,634.165,35.8872,0,0.000885,0,0
0:2:28.841,636.572,36.0251,0,0.000885,0,0
0:2:29.236,637.746,36.0872,0,0.000885,0,0
0:2:29.633,639.392,36.1837,0,0.000885,0,0
0:2:30.034,641.385,36.294,0,0.000885,0,0
0:2:30.431,643.382,36.4112,0,0.000885,0,0
0:2:30.825,645.201,36.5077,0,0.000885,0,0
0:2:31.229,646.785,36.5974,0,0.000885,0,0
0:2:31.635,648.724,36.7077,0,0.000885,0,0
0:2:32.039,651.015,36.8387,0,0.000885,0,0
0:2:32.442,652.483,36.9214,0,0.000885,0,0
0:2:32.836,654.009,37.0111,0,0.000885,0,0
0:2:33.235,656.237,37.1352,0,0.000885,0,0
0:2:33.636,658.114,37.2386,0,0.000885,0,0
0:2:34.031,659.76,37.3351,0,0.000885,0,0
0:2:34.427,661.464,37.4316,0,0.000885,0,0
0:2:34.824,663.399,37.542,0,0.000885,0,0
0:2:35.222,664.867,37.6247,0,0.000885,0,0
0:2:35.622,667.158,37.7557,0,0.000885,0,0
0:2:36.014,667.918,37.7971,0,0.000885,0,0
0:2:36.419,669.208,37.8729,0,0.000885,0,0
0:2:36.824,671.735,38.0108,0,0.000885,0,0
0:2:37.228,673.203,38.0935,0,0.000885,0,0
0:2:37.630,674.728,38.1832,0,0.000885,0,0
0:2:38.026,676.784,38.3004,0,0.000885,0,0
0:2:38.422,678.776,38.4107,0,0.000885,0,0
0:2:38.824,680.364,38.5003,0,0.000885,0,0
0:2:39.220,681.89,38.59,0,0.000885,0,0
0:2:39.614,684.061,38.7072,0,0.000885,0,0
0:2:40.022,685.88,38.8106,0,0.000885,0,0
0:2:40.420,688.113,38.9416,0,0.000885,0,0
0:2:40.820,689.403,39.0105,0,0.000885,0,0
0:2:41.225,691.4,39.1277,0,0.000885,0,0
0:2:41.629,693.1,39.2243,0,0.000885,0,0
0:2:42.032,694.803,39.3208,0,0.000885,0,0
0:2:42.432,696.801,39.4311,0,0.000885,0,0
0:2:42.831,698.442,39.5207,0,0.000885,0,0
0:2:43.226,700.381,39.6311,0,0.000885,0,0
0:2:43.621,701.965,39.7207,0,0.000885,0,0
0:2:44.020,703.549,39.8103,0,0.000885,0,0
0:2:44.420,705.368,39.9137,0,0.000885,0,0
0:2:44.813,706.369,39.9689,0,0.000885,0,0
0:2:45.208,708.419,40.0861,0,0.000885,0,0
0:2:45.626,710.417,40.2033,0,0.000885,0,0
0:2:46.028,711.707,40.2723,0,0.000885,0,0
0:2:46.434,713.588,40.3826,0,0.000885,0,0
0:2:46.838,715.701,40.4998,0,0.000885,0,0
0:2:47.240,718.05,40.6308,0,0.000885,0,0
0:2:47.639,719.985,40.7411,0,0.000885,0,0
0:2:48.039,721.395,40.8239,0,0.000885,0,0
0:2:48.437,722.863,40.9066,0,0.000885,0,0
0:2:48.832,724.446,40.9962,0,0.000885,0,0
0:2:49.228,725.972,41.079,0,0.000885,0,0
0:2:49.627,728.143,41.2031,0,0.000885,0,0
0:2:50.026,729.846,41.2996,0,0.000885,0,0
0:2:50.422,732.137,41.4306,0,0.000885,0,0
0:2:50.815,733.605,41.5133,0,0.000885,0,0
0:2:51.221,735.424,41.6168,0,0.000885,0,0
0:2:51.627,738.298,41.7822,0,0.000885,0,0
0:2:52.031,739.472,41.8443,0,0.000885,0,0
0:2:52.432,741.35,41.9546,0,0.000885,0,0
0:2:52.828,742.817,42.0373,0,0.000885,0,0
0:2:53.228,744.05,42.1063,0,0.000885,0,0
0:2:53.626,746.047,42.2166,0,0.000885,0,0
0:2:54.022,747.866,42.32,0,0.000885,0,0
0:2:54.414,749.218,42.3959,0,0.000885,0,0
0:2:54.814,750.744,42.4855,0,0.000885,0,0
0:2:55.214,752.857,42.6027,0,0.000885,0,0
0:2:55.617,754.498,42.6992,0,0.000885,0,0
0:2:56.014,756.144,42.7889,0,0.000885,0,0
0:2:56.417,758.137,42.8992,0,0.000885,0,0
0:2:56.825,760.254,43.0233,0,0.000885,0,0
0:2:57.229,762.189,43.1336,0,0.000885,0,0
0:2:57.632,764.009,43.237,0,0.000885,0,0
0:2:58.028,765.361,43.3129,0,0.000885,0,0
0:2:58.427,767.59,43.437,0,0.000885,0,0
0:2:58.826,768.648,43.499,0,0.000885,0,0
0:2:59.222,770.699,43.6093,0,0.000885,0,0
0:2:59.613,772.696,43.7266,0,0.000885,0,0
0:3:0.012,774.573,43.83,0,0.000885,0,0
0:3:0.410,776.161,43.9196,0,0.000885,0,0
0:3:0.807,777.629,44.0023,0,0.000885,0,0
0:3:1.211,779.8,44.1264,0,0.000885,0,0
0:3:1.616,781.855,44.2437,0,0.000885,0,0
0:3:2.019,783.323,44.3264,0,0.000885,0,0
0:3:2.423,785.022,44.4229,0,0.000885,0,0
0:3:2.818,786.196,44.4919,0,0.000885,0,0
0:3:3.213,788.016,44.5953,0,0.000885,0,0
0:3:3.619,790.249,44.7194,0,0.000885,0,0
0:3:4.019,791.948,44.8159,0,0.000885,0,0
0:3:4.417,793.772,44.9193,0,0.000885,0,0
0:3:4.811,795.591,45.0228,0,0.000885,0,0
0:3:5.216,796.823,45.0917,0,0.000885,0,0
0:3:5.626,798.465,45.1813,0,0.000885,0,0
0:3:6.026,800.813,45.3192,0,0.000885,0,0
0:3:6.432,802.397,45.4089,0,0.000885,0,0
0:3:6.836,804.278,45.5123,0,0.000885,0,0
0:3:7.238,805.804,45.6019,0,0.000885,0,0
0:3:7.640,807.566,45.6985,0,0.000885,0,0
0:3:8.039,809.149,45.7881,0,0.000885,0,0
0:3:8.435,811.204,45.9053,0,0.000885,0,0
0:3:8.830,813.259,46.0225,0,0.000885,0,0
0:3:9.228,815.604,46.1535,0,0.000885,0,0
0:3:9.629,817.192,46.2431,0,0.000885,0,0
0:3:10.024,818.482,46.319,0,0.000885,0,0
0:3:10.429,820.065,46.4086,0,0.000885,0,0
0:3:10.827,821.885,46.512,0,0.000885,0,0
0:3:11.229,824.002,46.6292,0,0.000885,0,0
0:3:11.632,825.35,46.7051,0,0.000885,0,0
0:3:12.036,827.872,46.8499,0,0.000885,0,0
0:3:12.440,829.224,46.9257,0,0.000885,0,0
0:3:12.840,831.515,47.0567,0,0.000885,0,0
0:3:13.239,833.041,47.1395,0,0.000885,0,0
0:3:13.635,834.566,47.2291,0,0.000885,0,0
0:3:14.030,836.15,47.3187,0,0.000885,0,0
0:3:14.426,837.324,47.3808,0,0.000885,0,0
0:3:14.827,839.259,47.4911,0,0.000885,0,0
0:3:15.223,841.021,47.5945,0,0.000885,0,0
0:3:15.616,843.134,47.7117,0,0.000885,0,0
0:3:16.019,844.78,47.8014,0,0.000885,0,0
0:3:16.426,846.657,47.9117,0,0.000885,0,0
0:3:16.829,848.418,48.0082,0,0.000885,0,0
0:3:17.232,850.651,48.1392,0,0.000885,0,0
0:3:17.627,852.115,48.2219,0,0.000885,0,0
0:3:18.026,854.112,48.3322,0,0.000885,0,0
0:3:18.425,855.464,48.4081,0,0.000885,0,0
0:3:18.820,857.457,48.5253,0,0.000885,0,0
0:3:19.215,859.454,48.6356,0,0.000885,0,0
0:3:19.612,860.629,48.7046,0,0.000885,0,0
0:3:20.011,862.154,48.7873,0,0.000885,0,0
0:3:20.409,864.325,48.9114,0,0.000885,0,0
0:3:20.804,865.793,48.9941,0,0.000885,0,0
0:3:21.208,868.026,49.1183,0,0.000885,0,0
0:3:21.612,869.783,49.2217,0,0.000885,0,0
0:3:22.014,871.487,49.3182,0,0.000885,0,0
0:3:22.417,872.367,49.3665,0,0.000885,0,0
0:3:22.814,874.365,49.4768,0,0.000885,0,0
0:3:23.211,876.242,49.5871,0,0.000885,0,0
0:3:23.619,878.181,49.6974,0,0.000885,0,0
0:3:24.017,880.232,49.8077,0,0.000885,0,0
0:3:24.414,881.878,49.9043,0,0.000885,0,0
0:3:24.809,883.813,50.0146,0,0.000885,0,0
0:3:25.206,885.281,50.0973,0,0.000885,0,0
0:3:25.608,887.042,50.1938,0,0.000885,0,0
0:3:26.004,888.861,50.2973,0,0.000885,0,0
0:3:26.408,890.801,50.4076,0,0.000885,0,0
0:3:26.813,892.62,50.511,0,0.000885,0,0
0:3:27.215,894.675,50.6282,0,0.000885,0,0
0:3:27.619,896.259,50.7178,0,0.000885,0,0
0:3:28.014,898.256,50.8282,0,0.000885,0,0
0:3:28.409,900.485,50.9592,0,0.000885,0,0
0:3:28.808,902.304,51.0626,0,0.000885,0,0
0:3:29.207,903.42,51.1246,0,0.000885,0,0
0:3:29.604,904.595,51.1867,0,0.000885,0,0
0:3:30.009,906.414,51.2901,0,0.000885,0,0
0:3:30.426,908.349,51.4004,0,0.000885,0,0
0:3:30.826,909.644,51.4763,0,0.000885,0,0
0:3:31.221,911.579,51.5866,0,0.000885,0,0
0:3:31.629,913.576,51.6969,0,0.000885,0,0
0:3:32.032,914.981,51.7796,0,0.000885,0,0
0:3:32.434,916.979,51.8899,0,0.000885,0,0
0:3:32.836,918.976,52.0003,0,0.000885,0,0
0:3:33.234,920.911,52.1106,0,0.000885,0,0
0:3:33.628,922.73,52.214,0,0.000885,0,0
0:3:34.034,924.434,52.3105,0,0.000885,0,0
0:3:34.434,926.08,52.4071,0,0.000885,0,0
0:3:34.832,927.899,52.5105,0,0.000885,0,0
0:3:35.228,929.718,52.6139,0,0.000885,0,0
0:3:35.621,931.595,52.7173,0,0.000885,0,0
0:3:36.025,933.593,52.8276,0,0.000885,0,0
0:3:36.431,935.763,52.9517,0,0.000885,0,0
0:3:36.835,937.174,53.0345,0,0.000885,0,0
0:3:37.238,938.464,53.1034,0,0.000885,0,0
0:3:37.634,939.989,53.1931,0,0.000885,0,0
0:3:38.033,942.044,53.3103,0,0.000885,0,0
0:3:38.431,943.922,53.4137,0,0.000885,0,0
0:3:38.827,945.799,53.524,0,0.000885,0,0
0:3:39.221,947.912,53.6412,0,0.000885,0,0
0:3:39.619,949.379,53.7239,0,0.000885,0,0
0:3:40.018,951.141,53.8205,0,0.000885,0,0
0:3:40.415,952.96,53.9239,0,0.000885,0,0
0:3:40.810,954.135,53.9928,0,0.000885,0,0
0:3:41.212,955.723,54.0825,0,0.000885,0,0
0:3:41.619,957.6,54.1859,0,0.000885,0,0
0:3:42.022,959.477,54.2962,0,0.000885,0,0
0:3:42.426,961.238,54.3927,0,0.000885,0,0
0:3:42.831,962.822,54.4824,0,0.000885,0,0
0:3:43.230,964.819,54.5996,0,0.000885,0,0
0:3:43.632,966.874,54.7168,0,0.000885,0,0
0:3:44.027,968.809,54.8202,0,0.000885,0,0
0:3:44.432,970.691,54.9305,0,0.000885,0,0
0:3:44.828,971.803,54.9926,0,0.000885,0,0
0:3:45.227,973.742,55.1029,0,0.000885,0,0
0:3:45.626,975.562,55.2063,0,0.000885,0,0
0:3:46.020,977.265,55.3028,0,0.000885,0,0
0:3:46.426,979.2,55.4132,0,0.000885,0,0
0:3:46.830,981.198,55.5235,0,0.000885,0,0
0:3:47.232,983.19,55.6407,0,0.000885,0,0
0:3:47.634,984.485,55.7096,0,0.000885,0,0
0:3:48.029,986.478,55.82,0,0.000885,0,0
0:3:48.423,987.946,55.9096,0,0.000885,0,0
0:3:48.824,989.591,55.9992,0,0.000885,0,0
0:3:49.221,991.646,56.1164,0,0.000885,0,0
0:3:49.617,993.404,56.213,0,0.000885,0,0
0:3:50.013,995.521,56.3371,0,0.000885,0,0
0:3:50.420,996.869,56.4129,0,0.000885,0,0
0:3:50.819,998.279,56.4887,0,0.000885,0,0
0:3:51.227,1000.04,56.5922,0,0.000885,0,0
0:3:51.631,1002.15,56.7094,0,0.000885,0,0
0:3:52.033,1003.79,56.8059,0,0.000885,0,0
0:3:52.433,1005.79,56.9162,0,0.000885,0,0
0:3:52.832,1007.78,57.0265,0,0.000885,0,0
0:3:53.227,1008.96,57.0955,0,0.000885,0,0
0:3:53.631,1010.96,57.2058,0,0.000885,0,0
0:3:54.029,1012.54,57.2954,0,0.000885,0,0
0:3:54.429,1014.13,57.3851,0,0.000885,0,0
0:3:54.823,1016.06,57.4954,0,0.000885,0,0
0:3:55.229,1017.82,57.5988,0,0.000885,0,0
0:3:55.624,1020.05,57.7229,0,0.000885,0,0
0:3:56.027,1021.7,57.8194,0,0.000885,0,0
0:3:56.432,1023.7,57.9298,0,0.000885,0,0
0:3:56.835,1024.87,57.9987,0,0.000885,0,0
0:3:57.238,1027.28,58.1297,0,0.000885,0,0
0:3:57.637,1028.92,58.2262,0,0.000885,0,0
0:3:58.037,1030.86,58.3365,0,0.000885,0,0
0:3:58.434,1032.97,58.4538,0,0.000885,0,0
0:3:58.828,1033.62,58.4882,0,0.000885,0,0
0:3:59.224,1035.49,58.5985,0,0.000885,0,0
0:3:59.623,1037.49,58.7089,0,0.000885,0,0
0:4:0.020,1038.96,58.7916,0,0.000885,0,0
0:4:0.416,1041.24,58.9226,0,0.000885,0,0
0:4:0.833,1043.42,59.0467,0,0.000885,0,0
0:4:1.236,1044.65,59.1156,0,0.000885,0,0
0:4:1.642,1046.12,59.1984,0,0.000885,0,0
0:4:2.043,1047.82,59.2949,0,0.000885,0,0
0:4:2.446,1049.76,59.4052,0,0.000885,0,0
0:4:2.843,1051.28,59.488,0,0.000885,0,0
0:4:3.242,1053.51,59.619,0,0.000885,0,0
0:4:3.641,1054.74,59.6879,0,0.000885,0,0
0:4:4.036,1056.86,59.8051,0,0.000885,0,0
0:4:4.431,1058.74,59.9154,0,0.000885,0,0
0:4:4.830,1060.56,60.012,0,0.000885,0,0
0:4:5.228,1062.44,60.1223,0,0.000885,0,0
0:4:5.635,1064.25,60.2257,0,0.000885,0,0
0:4:6.030,1066.43,60.3498,0,0.000885,0,0
0:4:6.433,1067.66,60.4188,0,0.000885,0,0
0:4:6.840,1069.6,60.5291,0,0.000885,0,0
0:4:7.242,1071.24,60.6187,0,0.000885,0,0
0:4:7.644,1073.29,60.7359,0,0.000885,0,0
0:4:8.041,1074.82,60.8255,0,0.000885,0,0
0:4:8.438,1076.93,60.9428,0,0.000885,0,0
0:4:8.838,1078.11,61.0117,0,0.000885,0,0
0:4:9.234,1080.1,61.122,0,0.000885,0,0
0:4:9.626,1081.39,61.1979,0,0.000885,0,0
0:4:10.024,1083.51,61.3151,0,0.000885,0,0
0:4:10.423,1084.39,61.3633,0,0.000885,0,0
0:4:10.820,1087.67,61.5495,0,0.000885,0,0
0:4:11.223,1088.68,61.6047,0,0.000885,0,0
0:4:11.626,1091.08,61.7426,0,0.000885,0,0
0:4:12.031,1092.43,61.8184,0,0.000885,0,0
0:4:12.435,1094.48,61.9356,0,0.000885,0,0
0:4:12.831,1095.54,61.9977,0,0.000885,0,0
0:4:13.236,1097.07,62.0804,0,0.000885,0,0
0:4:13.631,1099.77,62.2321,0,0.000885,0,0
0:4:14.030,1100.53,62.2803,0,0.000885,0,0
0:4:14.430,1103,62.4182,0,0.000885,0,0
0:4:14.823,1104.99,62.5286,0,0.000885,0,0
0:4:15.218,1106.52,62.6182,0,0.000885,0,0
0:4:15.617,1108.11,62.7078,0,0.000885,0,0
0:4:16.016,1110.33,62.8319,0,0.000885,0,0
0:4:16.421,1112.57,62.956,0,0.000885,0,0
0:4:16.825,1113.51,63.0112,0,0.000885,0,0
0:4:17.227,1115.56,63.1284,0,0.000885,0,0
0:4:17.626,1116.67,63.1905,0,0.000885,0,0
0:4:18.026,1119.08,63.3283,0,0.000885,0,0
0:4:18.422,1120.55,63.4111,0,0.000885,0,0
0:4:18.817,1123.01,63.549,0,0.000885,0,0
0:4:19.213,1124.01,63.6041,0,0.000885,0,0
0:4:19.614,1125.65,63.7007,0,0.000885,0,0
0:4:20.012,1126.95,63.7696,0,0.000885,0,0
0:4:20.406,1129.23,63.9006,0,0.000885,0,0
0:4:20.802,1131.17,64.0109,0,0.000885,0,0
0:4:21.205,1133.4,64.135,0,0.000885,0,0
0:4:21.610,1135.16,64.2385,0,0.000885,0,0
0:4:22.012,1136.69,64.3212,0,0.000885,0,0
0:4:22.415,1138.1,64.4039,0,0.000885,0,0
0:4:22.812,1140.1,64.5142,0,0.000885,0,0
0:4:23.211,1142.03,64.6246,0,0.000885,0,0
0:4:23.610,1143.5,64.7073,0,0.000885,0,0
0:4:24.005,1145.91,64.8452,0,0.000885,0,0
0:4:24.402,1147.37,64.9279,0,0.000885,0,0
0:4:24.798,1149.02,65.0245,0,0.000885,0,0
0:4:25.197,1150.48,65.1072,0,0.000885,0,0
0:4:25.596,1152.48,65.2175,0,0.000885,0,0
0:4:25.992,1154.3,65.3209,0,0.000885,0,0
0:4:26.396,1155.88,65.4106,0,0.000885,0,0
0:4:26.801,1157.82,65.5209,0,0.000885,0,0
0:4:27.201,1159.7,65.6243,0,0.000885,0,0
0:4:27.605,1161.34,65.7208,0,0.000885,0,0
0:4:28.001,1162.87,65.8036,0,0.000885,0,0
0:4:28.395,1164.4,65.8932,0,0.000885,0,0
0:4:28.794,1165.63,65.9621,0,0.000885,0,0
0:4:29.195,1167.27,66.0518,0,0.000885,0,0
0:4:29.592,1169.15,66.1621,0,0.000885,0,0
0:4:29.985,1171.73,66.3069,0,0.000885,0,0
0:4:30.383,1173.38,66.3965,0,0.000885,0,0
0:4:30.780,1175.37,66.5137,0,0.000885,0,0
0:4:31.178,1177.72,66.6447,0,0.000885,0,0
0:4:31.583,1179.54,66.7481,0,0.000885,0,0
0:4:31.986,1181.19,66.8447,0,0.000885,0,0
0:4:32.389,1182.65,66.9274,0,0.000885,0,0
0:4:32.790,1183.89,66.9964,0,0.000885,0,0
0:4:33.187,1184.71,67.0377,0,0.000885,0,0
0:4:33.585,1187.41,67.1963,0,0.000885,0,0
0:4:33.979,1189.58,67.3135,0,0.000885,0,0
0:4:34.378,1190.98,67.3963,0,0.000885,0,0
0:4:34.777,1191.99,67.4514,0,0.000885,0,0
0:4:35.174,1193.8,67.5548,0,0.000885,0,0
0:4:35.570,1196.5,67.7065,0,0.000885,0,0
0:4:35.973,1198.8,67.8375,0,0.000885,0,0
0:4:36.378,1199.91,67.8996,0,0.000885,0,0
0:4:36.780,1201.32,67.9823,0,0.000885,0,0
0:4:37.184,1202.61,68.0513,0,0.000885,0,0
0:4:37.580,1205.49,68.2167,0,0.000885,0,0
0:4:37.977,1207.31,68.3201,0,0.000885,0,0
0:4:38.375,1208.54,68.3891,0,0.000885,0,0
0:4:38.775,1211.36,68.5477,0,0.000885,0,0
0:4:39.169,1212.82,68.6304,0,0.000885,0,0
0:4:39.566,1213.64,68.6787,0,0.000885,0,0
0:4:39.962,1215.46,68.7821,0,0.000885,0,0
0:4:40.362,1218.11,68.9338,0,0.000885,0,0
0:4:40.759,1219.28,68.9958,0,0.000885,0,0
0:4:41.162,1221.57,69.1268,0,0.000885,0,0
0:4:41.566,1222.16,69.1613,0,0.000885,0,0
0:4:41.968,1224.74,69.3061,0,0.000885,0,0
0:4:42.371,1226.15,69.3888,0,0.000885,0,0
0:4:42.768,1228.5,69.5198,0,0.000885,0,0
0:4:43.163,1229.79,69.5888,0,0.000885,0,0
0:4:43.559,1230.9,69.6577,0,0.000885,0,0
0:4:43.959,1233.48,69.8025,0,0.000885,0,0
0:4:44.357,1234.25,69.8439,0,0.000885,0,0
0:4:44.751,1237.18,70.0094,0,0.000885,0,0
0:4:45.146,1238.65,70.0921,0,0.000885,0,0
0:4:45.544,1240.24,70.1817,0,0.000885,0,0
0:4:45.945,1242.64,70.3196,0,0.000885,0,0
0:4:46.349,1243.05,70.3403,0,0.000885,0,0
0:4:46.752,1245.93,70.5058,0,0.000885,0,0
0:4:47.156,1247.93,70.6161,0,0.000885,0,0
0:4:47.557,1250.57,70.7678,0,0.000885,0,0
0:4:47.954,1251.16,70.8023,0,0.000885,0,0
0:4:48.349,1253.09,70.9126,0,0.000885,0,0
0:4:48.743,1253.56,70.9402,0,0.000885,0,0
0:4:49.143,1256.26,71.0918,0,0.000885,0,0
0:4:49.541,1257.73,71.1746,0,0.000885,0,0
0:4:49.935,1259.08,71.2504,0,0.000885,0,0
0:4:50.328,1261.31,71.3745,0,0.000885,0,0
0:4:50.725,1262.25,71.4297,0,0.000885,0,0
0:4:51.126,1263.95,71.5262,0,0.000885,0,0
0:4:51.534,1266.83,71.6848,0,0.000885,0,0
0:4:51.938,1269.18,71.8227,0,0.000885,0,0
0:4:52.339,1270.17,71.8778,0,0.000885,0,0
0:4:52.739,1271.76,71.9675,0,0.000885,0,0
0:4:53.139,1274.16,72.1054,0,0.000885,0,0
0:4:53.543,1276.16,72.2157,0,0.000885,0,0
0:4:53.938,1277.51,72.2915,0,0.000885,0,0
0:4:54.335,1279.45,72.4018,0,0.000885,0,0
0:4:54.737,1281.27,72.5053,0,0.000885,0,0
0:4:55.142,1282.97,72.6018,0,0.000885,0,0
0:4:55.537,1284.85,72.7052,0,0.000885,0,0
0:4:55.940,1286.9,72.8224,0,0.000885,0,0
0:4:56.344,1287.31,72.85,0,0.000885,0,0
0:4:56.748,1289.84,72.9879,0,0.000885,0,0
0:4:57.151,1292.24,73.1258,0,0.000885,0,0
0:4:57.547,1293.48,73.1947,0,0.000885,0,0
0:4:57.944,1295.24,73.2982,0,0.000885,0,0
0:4:58.344,1297.06,73.4016,0,0.000885,0,0
0:4:58.740,1298.23,73.4636,0,0.000885,0,0
0:4:59.137,1300.75,73.6084,0,0.000885,0,0
0:4:59.541,1302.11,73.6843,0,0.000885,0,0
0:4:59.940,1303.69,73.7739,0,0.000885,0,0
0:5:0.340,1305.62,73.8842,0,0.000885,0,0
0:5:0.736,1307.27,73.9739,0,0.000885,0,0
0:5:1.140,1309.44,74.098,0,0.000885,0,0
0:5:1.545,1311.26,74.2014,0,0.000885,0,0
0:5:1.947,1312.79,74.291,0,0.000885,0,0
0:5:2.350,1314.37,74.3806,0,0.000885,0,0
0:5:2.746,1315.61,74.4496,0,0.000885,0,0
0:5:3.141,1318.54,74.6151,0,0.000885,0,0
0:5:3.540,1320.18,74.7047,0,0.000885,0,0
0:5:3.940,1322,74.8081,0,0.000885,0,0
0:5:4.337,1323.59,74.8977,0,0.000885,0,0
0:5:4.741,1325.17,74.9874,0,0.000885,0,0
0:5:5.138,1326.52,75.0632,0,0.000885,0,0
0:5:5.538,1329.28,75.2218,0,0.000885,0,0
0:5:5.935,1330.98,75.3183,0,0.000885,0,0
0:5:6.338,1332.1,75.3804,0,0.000885,0,0
0:5:6.742,1333.8,75.4769,0,0.000885,0,0
0:5:7.145,1336.03,75.601,0,0.000885,0,0
0:5:7.548,1337.26,75.6769,0,0.000885,0,0
0:5:7.943,1339.38,75.7941,0,0.000885,0,0
0:5:8.340,1341.61,75.9182,0,0.000885,0,0
0:5:8.737,1342.26,75.9526,0,0.000885,0,0
0:5:9.137,1344.6,76.0905,0,0.000885,0,0
0:5:9.546,1346.83,76.2146,0,0.000885,0,0
0:5:9.941,1348.3,76.2974,0,0.000885,0,0
0:5:10.336,1349.3,76.3525,0,0.000885,0,0
0:5:10.736,1351.18,76.4629,0,0.000885,0,0
0:5:11.144,1353.46,76.5939,0,0.000885,0,0
0:5:11.550,1354.4,76.6421,0,0.000885,0,0
0:5:11.954,1357.69,76.8283,0,0.000885,0,0
0:5:12.356,1358.51,76.8765,0,0.000885,0,0
0:5:12.758,1360.75,77.0006,0,0.000885,0,0
0:5:13.153,1362.27,77.0903,0,0.000885,0,0
0:5:13.549,1364.91,77.2351,0,0.000885,0,0
0:5:13.945,1366.15,77.3109,0,0.000885,0,0
0:5:14.342,1367.67,77.3937,0,0.000885,0,0
0:5:14.742,1370.14,77.5315,0,0.000885,0,0
0:5:15.138,1370.9,77.5798,0,0.000885,0,0
0:5:15.543,1373.25,77.7108,0,0.000885,0,0
0:5:15.946,1374.78,77.7935,0,0.000885,0,0
0:5:16.352,1376.89,77.9177,0,0.000885,0,0
0:5:16.756,1378.29,77.9935,0,0.000885,0,0
0:5:17.157,1379.94,78.09,0,0.000885,0,0
0:5:17.552,1381.17,78.159,0,0.000885,0,0
0:5:17.952,1384.11,78.3244,0,0.000885,0,0
0:5:18.350,1384.7,78.3589,0,0.000885,0,0
0:5:18.746,1387.45,78.5106,0,0.000885,0,0
0:5:19.141,1387.86,78.5382,0,0.000885,0,0
0:5:19.538,1390.68,78.6968,0,0.000885,0,0
0:5:19.937,1392.32,78.7864,0,0.000885,0,0
0:5:20.344,1393.79,78.8691,0,0.000885,0,0
0:5:20.738,1396.73,79.0415,0,0.000885,0,0
0:5:21.142,1397.67,79.0898,0,0.000885,0,0
0:5:21.547,1399.49,79.1932,0,0.000885,0,0
0:5:21.951,1401.78,79.3242,0,0.000885,0,0
0:5:22.352,1402.83,79.3862,0,0.000885,0,0
0:5:22.748,1405.18,79.5172,0,0.000885,0,0
0:5:23.144,1405.88,79.5586,0,0.000885,0,0
0:5:23.545,1408.35,79.6965,0,0.000885,0,0
0:5:23.942,1410.7,79.8275,0,0.000885,0,0
0:5:24.339,1412.05,79.9033,0,0.000885,0,0
0:5:24.743,1413.57,79.993,0,0.000885,0,0
0:5:25.141,1415.69,80.1102,0,0.000885,0,0
0:5:25.541,1415.86,80.124,0,0.000885,0,0
0:5:25.944,1418.21,80.255,0,0.000885,0,0
0:5:26.349,1420.03,80.3584,0,0.000885,0,0
0:5:26.752,1422.03,80.4687,0,0.000885,0,0
0:5:27.155,1424.26,80.5997,0,0.000885,0,0
0:5:27.559,1425.96,80.6962,0,0.000885,0,0
0:5:27.953,1428.13,80.8135,0,0.000885,0,0
0:5:28.347,1430.01,80.9238,0,0.000885,0,0
0:5:28.748,1431.36,80.9996,0,0.000885,0,0
0:5:29.146,1433.24,81.103,0,0.000885,0,0
0:5:29.541,1434.82,81.1927,0,0.000885,0,0
0:5:29.934,1436.82,81.3099,0,0.000885,0,0
0:5:30.343,1438.4,81.3995,0,0.000885,0,0
0:5:30.743,1439.81,81.4753,0,0.000885,0,0
0:5:31.147,1441.63,81.5788,0,0.000885,0,0
0:5:31.551,1442.92,81.6546,0,0.000885,0,0
0:5:31.953,1445.21,81.7856,0,0.000885,0,0
0:5:32.353,1447.97,81.9373,0,0.000885,0,0
0:5:32.752,1449.2,82.0062,0,0.000885,0,0
0:5:33.149,1450.79,82.0959,0,0.000885,0,0
0:5:33.541,1452.49,82.1924,0,0.000885,0,0
0:5:33.940,1454.43,82.3027,0,0.000885,0,0
0:5:34.339,1455.31,82.351,0,0.000885,0,0
0:5:34.744,1456.72,82.4337,0,0.000885,0,0
0:5:35.140,1459.07,82.5647,0,0.000885,0,0
0:5:35.533,1461.71,82.7164,0,0.000885,0,0
0:5:35.935,1462.94,82.7854,0,0.000885,0,0
0:5:36.343,1464.47,82.875,0,0.000885,0,0
0:5:36.746,1466.11,82.9646,0,0.000885,0,0
0:5:37.148,1467.17,83.0267,0,0.000885,0,0
0:5:37.546,1470.1,83.1921,0,0.000885,0,0
0:5:37.946,1471.98,83.2956,0,0.000885,0,0
0:5:38.342,1472.98,83.3507,0,0.000885,0,0
0:5:38.746,1475.09,83.4748,0,0.000885,0,0
0:5:39.143,1477.5,83.6058,0,0.000885,0,0
0:5:39.543,1478.55,83.6679,0,0.000885,0,0
0:5:39.940,1481.08,83.8127,0,0.000885,0,0
0:5:40.345,1482.68,83.9023,0,0.000885,0,0
0:5:40.740,1484.26,83.9919,0,0.000885,0,0
0:5:41.144,1486.33,84.1091,0,0.000885,0,0
0:5:41.550,1488.27,84.2195,0,0.000885,0,0
0:5:41.951,1489.86,84.3091,0,0.000885,0,0
0:5:42.354,1492.21,84.4401,0,0.000885,0,0
0:5:42.750,1493.39,84.509,0,0.000885,0,0
0:5:43.148,1494.92,84.5987,0,0.000885,0,0
0:5:43.547,1497.4,84.7366,0,0.000885,0,0
0:5:43.942,1497.75,84.7573,0,0.000885,0,0
0:5:44.345,1499.93,84.8814,0,0.000885,0,0
0:5:44.745,1501.52,84.971,0,0.000885,0,0
0:5:45.143,1504.29,85.1227,0,0.000885,0,0
0:5:45.538,1504.99,85.164,0,0.000885,0,0
0:5:45.943,1507.29,85.295,0,0.000885,0,0
0:5:46.347,1508.53,85.364,0,0.000885,0,0
0:5:46.752,1510.58,85.4812,0,0.000885,0,0
0:5:47.156,1512.12,85.5708,0,0.000885,0,0
0:5:47.559,1514.36,85.6949,0,0.000885,0,0
0:5:47.954,1516.36,85.8053,0,0.000885,0,0
0:5:48.351,1518.36,85.9225,0,0.000885,0,0
0:5:48.751,1519.3,85.9776,0,0.000885,0,0
0:5:49.147,1521.6,86.1017,0,0.000885,0,0
0:5:49.541,1522.42,86.15,0,0.000885,0,0
0:5:49.947,1524.72,86.281,0,0.000885,0,0
0:5:50.347,1526.19,86.3637,0,0.000885,0,0
0:5:50.745,1528.25,86.4809,0,0.000885,0,0
0:5:51.149,1530.66,86.6188,0,0.000885,0,0
0:5:51.552,1532.26,86.7085,0,0.000885,0,0
0:5:51.954,1533.84,86.7981,0,0.000885,0,0
0:5:52.359,1536.08,86.9222,0,0.000885,0,0
0:5:52.754,1538.26,87.0463,0,0.000885,0,0
0:5:53.150,1539.03,87.0877,0,0.000885,0,0
0:5:53.545,1540.09,87.1497,0,0.000885,0,0
0:5:53.943,1542.44,87.2876,0,0.000885,0,0
0:5:54.343,1544.44,87.3979,0,0.000885,0,0
0:5:54.746,1545.74,87.4738,0,0.000885,0,0
0:5:55.141,1547.8,87.591,0,0.000885,0,0
0:5:55.539,1549.63,87.6875,0,0.000885,0,0
0:5:55.937,1550.86,87.7634,0,0.000885,0,0
0:5:56.343,1553.22,87.8944,0,0.000885,0,0
0:5:56.747,1555.75,88.0392,0,0.000885,0,0
0:5:57.149,1556.98,88.1081,0,0.000885,0,0
0:5:57.549,1558.22,88.1771,0,0.000885,0,0
0:5:57.947,1559.93,88.2736,0,0.000885,0,0
0:5:58.341,1561.99,88.3908,0,0.000885,0,0
0:5:58.748,1563.58,88.4804,0,0.000885,0,0
0:5:59.146,1565.05,88.5632,0,0.000885,0,0
0:5:59.546,1567.29,88.6873,0,0.000885,0,0
0:5:59.942,1568.94,88.7838,0,0.000885,0,0
0:6:0.334,1570.82,88.8872,0,0.000885,0,0
0:6:0.744,1572.94,89.0113,0,0.000885,0,0
0:6:1.144,1574.47,89.0941,0,0.000885,0,0
0:6:1.550,1576.3,89.1975,0,0.000885,0,0
0:6:1.954,1578.3,89.3147,0,0.000885,0,0
0:6:2.358,1580.01,89.4112,0,0.000885,0,0
0:6:2.757,1581.6,89.5008,0,0.000885,0,0
0:6:3.157,1583.6,89.6112,0,0.000885,0,0
0:6:3.551,1584.66,89.6732,0,0.000885,0,0
0:6:3.947,1586.61,89.7835,0,0.000885,0,0
0:6:4.343,1588.49,89.887,0,0.000885,0,0
0:6:4.743,1589.79,89.9628,0,0.000885,0,0
0:6:5.141,1591.43,90.0593,0,0.000885,0,0
0:6:5.546,1593.79,90.1903,0,0.000885,0,0
0:6:5.950,1595.67,90.2937,0,0.000885,0,0
0:6:6.354,1597.26,90.3834,0,0.000885,0,0
0:6:6.757,1598.91,90.4799,0,0.000885,0,0
0:6:7.158,1600.32,90.5626,0,0.000885,0,0
0:6:7.552,1602.45,90.6798,0,0.000885,0,0
0:6:7.950,1604.68,90.804,0,0.000885,0,0
0:6:8.350,1606.27,90.8936,0,0.000885,0,0
0:6:8.747,1608.57,91.0246,0,0.000885,0,0
0:6:9.142,1610.04,91.1073,0,0.000885,0,0
0:6:9.547,1611.75,91.2038,0,0.000885,0,0
0:6:9.946,1613.16,91.2866,0,0.000885,0,0
0:6:10.346,1615.75,91.4314,0,0.000885,0,0
0:6:10.750,1617.4,91.5279,0,0.000885,0,0
0:6:11.154,1618.76,91.6037,0,0.000885,0,0
0:6:11.559,1620.7,91.7141,0,0.000885,0,0
0:6:11.961,1622,91.783,0,0.000885,0,0
0:6:12.365,1624.35,91.9209,0,0.000885,0,0
0:6:12.760,1625.64,91.9899,0,0.000885,0,0
0:6:13.153,1627.18,92.0795,0,0.000885,0,0
0:6:13.554,1628.65,92.1622,0,0.000885,0,0
0:6:13.952,1630.94,92.2932,0,0.000885,0,0
0:6:14.347,1632.95,92.4035,0,0.000885,0,0
0:6:14.742,1634.59,92.5001,0,0.000885,0,0
0:6:15.148,1635.95,92.5759,0,0.000885,0,0
0:6:15.548,1637.83,92.6793,0,0.000885,0,0
0:6:15.944,1639.84,92.7965,0,0.000885,0,0
0:6:16.349,1641.9,92.9137,0,0.000885,0,0
0:6:16.754,1643.37,92.9965,0,0.000885,0,0
0:6:17.157,1645.25,93.0999,0,0.000885,0,0
0:6:17.560,1646.84,93.1895,0,0.000885,0,0
0:6:17.957,1648.84,93.3068,0,0.000885,0,0
0:6:18.350,1651.43,93.4515,0,0.000885,0,0
0:6:18.748,1652.55,93.5136,0,0.000885,0,0
0:6:19.147,1654.08,93.6032,0,0.000885,0,0
0:6:19.544,1654.97,93.6515,0,0.000885,0,0
0:6:19.949,1657.44,93.7894,0,0.000885,0,0
0:6:20.345,1658.97,93.879,0,0.000885,0,0
0:6:20.744,1661.5,94.0238,0,0.000885,0,0
0:6:21.152,1662.92,94.0996,0,0.000885,0,0
0:6:21.558,1664.63,94.1962,0,0.000885,0,0
0:6:21.960,1666.33,94.2927,0,0.000885,0,0
0:6:22.362,1667.87,94.3823,0,0.000885,0,0
0:6:22.763,1669.1,94.4513,0,0.000885,0,0
0:6:23.161,1670.98,94.5616,0,0.000885,0,0
0:6:23.554,1673.51,94.6995,0,0.000885,0,0
0:6:23.950,1675.58,94.8167,0,0.000885,0,0
0:6:24.348,1677.29,94.9132,0,0.000885,0,0
0:6:24.747,1678.99,95.0098,0,0.000885,0,0
0:6:25.153,1680.7,95.1063,0,0.000885,0,0
0:6:25.547,1681.46,95.1545,0,0.000885,0,0
0:6:25.952,1683,95.2373,0,0.000885,0,0
0:6:26.357,1685.06,95.3545,0,0.000885,0,0
0:6:26.761,1686.88,95.4579,0,0.000885,0,0
0:6:27.164,1689.12,95.582,0,0.000885,0,0
0:6:27.559,1691.12,95.6992,0,0.000885,0,0
0:6:27.958,1693.12,95.8095,0,0.000885,0,0
0:6:28.357,1694.54,95.8923,0,0.000885,0,0
0:6:28.752,1696.72,96.0164,0,0.000885,0,0
0:6:29.147,1698.78,96.1336,0,0.000885,0,0
0:6:29.545,1700.43,96.2232,0,0.000885,0,0
0:6:29.953,1702.37,96.3335,0,0.000885,0,0
0:6:30.350,1704.14,96.437,0,0.000885,0,0
0:6:30.744,1704.72,96.4645,0,0.000885,0,0
0:6:31.149,1706.84,96.5887,0,0.000885,0,0
0:6:31.554,1708.61,96.6852,0,0.000885,0,0
0:6:31.956,1709.91,96.761,0,0.000885,0,0
0:6:32.359,1711.56,96.8576,0,0.000885,0,0
0:6:32.755,1713.56,96.9679,0,0.000885,0,0
0:6:33.152,1715.44,97.0713,0,0.000885,0,0
0:6:33.550,1717.56,97.1954,0,0.000885,0,0
0:6:33.949,1719.62,97.3126,0,0.000885,0,0
0:6:34.352,1721.09,97.3953,0,0.000885,0,0
0:6:34.748,1722.92,97.4988,0,0.000885,0,0
0:6:35.147,1724.45,97.5815,0,0.000885,0,0
0:6:35.545,1726.63,97.7056,0,0.000885,0,0
0:6:35.952,1728.28,97.8021,0,0.000885,0,0
0:6:36.357,1730.63,97.9331,0,0.000885,0,0
0:6:36.762,1732.28,98.0297,0,0.000885,0,0
0:6:37.164,1733.75,98.1124,0,0.000885,0,0
0:6:37.567,1735.7,98.2227,0,0.000885,0,0
0:6:37.963,1736.99,98.2917,0,0.000885,0,0
0:6:38.358,1739.35,98.4296,0,0.000885,0,0
0:6:38.758,1741.06,98.5261,0,0.000885,0,0
0:6:39.156,1742.88,98.6295,0,0.000885,0,0
0:6:39.551,1744.53,98.7191,0,0.000885,0,0
0:6:39.946,1745.65,98.7812,0,0.000885,0,0
0:6:40.345,1747.24,98.8708,0,0.000885,0,0
0:6:40.744,1748.89,98.9673,0,0.000885,0,0
0:6:41.149,1750.83,99.0777,0,0.000885,0,0
0:6:41.553,1752.77,99.188,0,0.000885,0,0
0:6:41.955,1754.72,99.2983,0,0.000885,0,0
0:6:42.356,1756.3,99.3879,0,0.000885,0,0
0:6:42.753,1757.95,99.4776,0,0.000885,0,0
0:6:43.148,1760.01,99.5948,0,0.000885,0,0
0:6:43.544,1761.78,99.6982,0,0.000885,0,0
0:6:43.952,1763.25,99.7809,0,0.000885,0,0
0:6:44.351,1765.14,99.8843,0,0.000885,0,0
0:6:44.747,1767.43,100.015,0,0.000885,0,0
0:6:45.151,1769.08,100.112,0,0.000885,0,0
0:6:45.549,1770.32,100.181,0,0.000885,0,0
0:6:45.952,1772.14,100.284,0,0.000885,0,0
0:6:46.360,1773.62,100.367,0,0.000885,0,0
0:6:46.762,1775.27,100.457,0,0.000885,0,0
0:6:47.164,1777.33,100.574,0,0.000885,0,0
0:6:47.563,1779.45,100.698,0,0.000885,0,0
0:6:47.962,1781.92,100.836,0,0.000885,0,0
0:6:48.359,1783.1,100.905,0,0.000885,0,0
0:6:48.754,1785.28,101.029,0,0.000885,0,0
0:6:49.149,1787.04,101.125,0,0.000885,0,0
0:6:49.548,1788.22,101.194,0,0.000885,0,0
0:6:49.948,1789.75,101.277,0,0.000885,0,0
0:6:50.353,1791.28,101.367,0,0.000885,0,0
0:6:50.748,1793.17,101.47,0,0.000885,0,0
0:6:51.152,1794.99,101.574,0,0.000885,0,0
0:6:51.559,1797.11,101.698,0,0.000885,0,0
0:6:51.962,1798.35,101.767,0,0.000885,0,0
0:6:52.364,1800.17,101.87,0,0.000885,0,0
0:6:52.761,1802.77,102.015,0,0.000885,0,0
0:6:53.159,1804.53,102.118,0,0.000885,0,0
0:6:53.558,1805.88,102.194,0,0.000885,0,0
0:6:53.953,1807.83,102.304,0,0.000885,0,0
0:6:54.350,1809.24,102.38,0,0.000885,0,0
0:6:54.743,1811.19,102.491,0,0.000885,0,0
0:6:55.153,1812.65,102.573,0,0.000885,0,0
0:6:55.552,1814.36,102.67,0,0.000885,0,0
0:6:55.958,1816.19,102.773,0,0.000885,0,0
0:6:56.363,1818.13,102.884,0,0.000885,0,0
0:6:56.767,1819.72,102.973,0,0.000885,0,0
0:6:57.168,1820.84,103.035,0,0.000885,0,0
0:6:57.572,1822.43,103.132,0,0.000885,0,0
0:6:57.968,1824.08,103.221,0,0.000885,0,0
0:6:58.364,1824.73,103.256,0,0.000885,0,0
0:6:58.758,1822.73,103.146,0,0.000885,0,0
0:6:59.155,1822.14,103.111,0,0.000885,0,0
0:6:59.554,1822.73,103.146,0,0.000885,0,0
0:6:59.947,1822.85,103.152,0,0.000885,0,0
0:7:0.350,1751.83,99.1328,0,0.000885,0,0
0:7:0.372,1751.83,99.1328,0,0.000885,0,0