File: DataFile2021-06-09_063425.csv
Test ID:,Date Tested:,Time:,Test Type:,Diameter Avg. (mm):,Cyl. Corr. Factor:,Height (mm):,Age (days):,Weight (kN):,Break Type:,Ramp Rate (MPa/s):,Load at Break (kN):,Stress at Break (MPa):
12,6/9/2021,06:34,Cylinder,100,1,200,0,3.6,3,0.23,510.08,64.95
Sample Time,Load (kN),Stress (MPa),Long. Strain,Trans. Strain,Chan1 Deflection (mm),Chan2 Deflection (mm)
0:0:15.059,5.57362,0.71016,0,0.000885,0,0
0:0:15.354,12.6685,1.61337,0,0.000885,0,0
0:0:15.663,14.8393,1.88916,0,0.000885,0,0
0:0:15.973,14.1943,1.80643,0,0.000885,0,0
0:0:16.268,13.9585,1.77885,0,0.000885,0,0
0:0:16.570,13.6071,1.73058,0,0.000885,0,0
0:0:16.872,13.6649,1.73748,0,0.000885,0,0
0:0:17.170,13.3714,1.70301,0,0.000885,0,0
0:0:17.469,13.2557,1.68922,0,0.000885,0,0
0:0:17.774,13.3714,1.70301,0,0.000885,0,0
0:0:18.074,13.0778,1.66853,0,0.000885,0,0
0:0:18.369,13.0778,1.66853,0,0.000885,0,0
0:0:18.670,12.7264,1.62027,0,0.000885,0,0
0:0:18.973,12.9043,1.64095,0,0.000885,0,0
0:0:19.270,12.7264,1.62027,0,0.000885,0,0
0:0:19.570,13.9585,1.77885,0,0.000885,0,0
0:0:19.874,14.0742,1.79264,0,0.000885,0,0
0:0:20.174,14.7814,1.88227,0,0.000885,0,0
0:0:20.469,15.0127,1.90985,0,0.000885,0,0
0:0:20.773,15.72,1.99948,0,0.000885,0,0
0:0:21.077,16.4807,2.09601,0,0.000885,0,0
0:0:21.382,17.0678,2.17185,0,0.000885,0,0
0:0:21.683,18.0642,2.30285,0,0.000885,0,0
0:0:21.986,18.3,2.33043,0,0.000885,0,0
0:0:22.288,19.1807,2.44074,0,0.000885,0,0
0:0:22.584,19.8836,2.53038,0,0.000885,0,0
0:0:22.882,20.5285,2.61311,0,0.000885,0,0
0:0:23.181,21.4093,2.72343,0,0.000885,0,0
0:0:23.476,22.0543,2.80617,0,0.000885,0,0
0:0:23.780,23.0507,2.93717,0,0.000885,0,0
0:0:24.074,23.2242,2.95785,0,0.000885,0,0
0:0:24.374,23.9893,3.05438,0,0.000885,0,0
0:0:24.670,24.5764,3.13022,0,0.000885,0,0
0:0:24.969,24.9278,3.17159,0,0.000885,0,0
0:0:25.279,25.8041,3.2888,0,0.000885,0,0
0:0:25.584,25.9821,3.30948,0,0.000885,0,0
0:0:25.887,26.4536,3.36464,0,0.000885,0,0
0:0:26.190,26.805,3.4129,0,0.000885,0,0
0:0:26.492,27.5078,3.50254,0,0.000885,0,0
0:0:26.795,27.7436,3.53012,0,0.000885,0,0
0:0:27.090,28.2106,3.59217,0,0.000885,0,0
0:0:27.392,29.2648,3.72317,0,0.000885,0,0
0:0:27.686,29.6163,3.77143,0,0.000885,0,0
0:0:27.987,31.0263,3.9507,0,0.000885,0,0
0:0:28.285,31.4934,4.01275,0,0.000885,0,0
0:0:28.581,31.7292,4.04033,0,0.000885,0,0
0:0:28.882,32.6099,4.15064,0,0.000885,0,0
0:0:29.178,33.1971,4.22649,0,0.000885,0,0
0:0:29.480,33.722,4.29543,0,0.000885,0,0
0:0:29.775,34.0778,4.3368,0,0.000885,0,0
0:0:30.074,34.6027,4.40575,0,0.000885,0,0
0:0:30.373,35.1899,4.48159,0,0.000885,0,0
0:0:30.678,36.1285,4.5988,0,0.000885,0,0
0:0:30.982,36.1285,4.5988,0,0.000885,0,0
0:0:31.284,36.8313,4.68843,0,0.000885,0,0
0:0:31.586,37.7698,4.81254,0,0.000885,0,0
0:0:31.889,38.2414,4.8677,0,0.000885,0,0
0:0:32.187,39.1177,4.97801,0,0.000885,0,0
0:0:32.490,39.4735,5.02628,0,0.000885,0,0
0:0:32.782,39.9406,5.08833,0,0.000885,0,0
0:0:33.084,40.7012,5.18486,0,0.000885,0,0
0:0:33.382,41.2306,5.24691,0,0.000885,0,0
0:0:33.679,41.8177,5.32275,0,0.000885,0,0
0:0:33.980,42.4627,5.40549,0,0.000885,0,0
0:0:34.275,43.1655,5.49512,0,0.000885,0,0
0:0:34.578,43.2856,5.50891,0,0.000885,0,0
0:0:34.873,43.9885,5.59854,0,0.000885,0,0
0:0:35.170,45.0427,5.73644,0,0.000885,0,0
0:0:35.480,45.0427,5.73644,0,0.000885,0,0
0:0:35.784,45.6877,5.81918,0,0.000885,0,0
0:0:36.090,46.6841,5.94328,0,0.000885,0,0
0:0:36.394,47.1556,6.00533,0,0.000885,0,0
0:0:36.695,47.6849,6.07428,0,0.000885,0,0
0:0:36.998,48.3878,6.16391,0,0.000885,0,0
0:0:37.295,48.4456,6.17081,0,0.000885,0,0
0:0:37.599,49.5576,6.3087,0,0.000885,0,0
0:0:37.894,50.4962,6.43281,0,0.000885,0,0
0:0:38.193,50.4384,6.41902,0,0.000885,0,0
0:0:38.492,51.377,6.54312,0,0.000885,0,0
0:0:38.789,51.8485,6.59828,0,0.000885,0,0
0:0:39.090,52.4935,6.68102,0,0.000885,0,0
0:0:39.384,52.787,6.72239,0,0.000885,0,0
0:0:39.686,53.3698,6.79823,0,0.000885,0,0
0:0:39.983,54.077,6.88786,0,0.000885,0,0
0:0:40.281,54.6019,6.94992,0,0.000885,0,0
0:0:40.581,55.4248,7.06023,0,0.000885,0,0
0:0:40.885,55.7184,7.09471,0,0.000885,0,0
0:0:41.190,56.3056,7.17055,0,0.000885,0,0
0:0:41.492,57.0084,7.26018,0,0.000885,0,0
0:0:41.795,58.1827,7.40497,0,0.000885,0,0
0:0:42.097,58.592,7.46013,0,0.000885,0,0
0:0:42.395,58.8277,7.48771,0,0.000885,0,0
0:0:42.696,59.9398,7.6325,0,0.000885,0,0
0:0:42.992,60.4113,7.69455,0,0.000885,0,0
0:0:43.291,60.527,7.70834,0,0.000885,0,0
0:0:43.593,61.0563,7.77039,0,0.000885,0,0
0:0:43.888,61.8748,7.88071,0,0.000885,0,0
0:0:44.191,62.2884,7.92897,0,0.000885,0,0
0:0:44.486,63.2848,8.05997,0,0.000885,0,0
0:0:44.786,63.3427,8.06687,0,0.000885,0,0
0:0:45.086,64.3391,8.19097,0,0.000885,0,0
0:0:45.380,64.6905,8.23923,0,0.000885,0,0
0:0:45.682,65.0419,8.2806,0,0.000885,0,0
0:0:45.987,65.6869,8.36334,0,0.000885,0,0
0:0:46.291,66.3942,8.45297,0,0.000885,0,0
0:0:46.594,67.2705,8.56329,0,0.000885,0,0
0:0:46.895,67.7998,8.63224,0,0.000885,0,0
0:0:47.198,69.032,8.79082,0,0.000885,0,0
0:0:47.494,69.499,8.84597,0,0.000885,0,0
0:0:47.795,69.7348,8.88045,0,0.000885,0,0
0:0:48.092,69.9705,8.90803,0,0.000885,0,0
0:0:48.391,70.4376,8.97008,0,0.000885,0,0
0:0:48.691,71.1449,9.05971,0,0.000885,0,0
0:0:48.986,71.4963,9.10108,0,0.000885,0,0
0:0:49.287,72.3726,9.21829,0,0.000885,0,0
0:0:49.584,72.9019,9.28034,0,0.000885,0,0
0:0:49.882,73.4312,9.34929,0,0.000885,0,0
0:0:50.182,74.4276,9.4734,0,0.000885,0,0
0:0:50.486,74.957,9.54234,0,0.000885,0,0
0:0:50.789,75.602,9.62508,0,0.000885,0,0
0:0:51.093,75.8333,9.65266,0,0.000885,0,0
0:0:51.396,77.0076,9.80434,0,0.000885,0,0
0:0:51.698,77.5948,9.88019,0,0.000885,0,0
0:0:51.996,77.6526,9.88708,0,0.000885,0,0
0:0:52.298,78.4177,9.98361,0,0.000885,0,0
0:0:52.595,78.7068,10.025,0,0.000885,0,0
0:0:52.894,78.9426,10.0526,0,0.000885,0,0
0:0:53.192,79.7655,10.156,0,0.000885,0,0
0:0:53.491,80.7041,10.2732,0,0.000885,0,0
0:0:53.792,81.4069,10.3628,0,0.000885,0,0
0:0:54.088,81.9362,10.4318,0,0.000885,0,0
0:0:54.388,82.2298,10.4662,0,0.000885,0,0
0:0:54.688,82.9326,10.5559,0,0.000885,0,0
0:0:54.984,83.6355,10.6455,0,0.000885,0,0
0:0:55.284,84.2805,10.7282,0,0.000885,0,0
0:0:55.590,84.9254,10.811,0,0.000885,0,0
0:0:55.892,85.6905,10.9075,0,0.000885,0,0
0:0:56.195,86.0998,10.9627,0,0.000885,0,0
0:0:56.498,86.5668,11.0247,0,0.000885,0,0
0:0:56.801,87.6255,11.1557,0,0.000885,0,0
0:0:57.098,87.5632,11.1488,0,0.000885,0,0
0:0:57.399,87.9769,11.204,0,0.000885,0,0
0:0:57.695,88.8577,11.3143,0,0.000885,0,0
0:0:57.995,88.7376,11.3005,0,0.000885,0,0
0:0:58.293,90.0276,11.466,0,0.000885,0,0
0:0:58.589,91.1441,11.6039,0,0.000885,0,0
0:0:58.891,91.7312,11.6797,0,0.000885,0,0
0:0:59.185,91.7312,11.6797,0,0.000885,0,0
0:0:59.486,92.434,11.7694,0,0.000885,0,0
0:0:59.784,93.0212,11.8452,0,0.000885,0,0
0:1:0.082,93.6084,11.921,0,0.000885,0,0
0:1:0.383,94.0754,11.9762,0,0.000885,0,0
0:1:0.686,94.6626,12.052,0,0.000885,0,0
0:1:0.991,95.6012,12.1692,0,0.000885,0,0
0:1:1.293,96.0104,12.2244,0,0.000885,0,0
0:1:1.595,96.6554,12.3071,0,0.000885,0,0
0:1:1.898,97.2426,12.383,0,0.000885,0,0
0:1:2.194,97.594,12.4244,0,0.000885,0,0
0:1:2.497,98.2968,12.514,0,0.000885,0,0
0:1:2.790,99.1775,12.6243,0,0.000885,0,0
0:1:3.092,99.4711,12.6657,0,0.000885,0,0
0:1:3.389,99.9382,12.7277,0,0.000885,0,0
0:1:3.686,100.468,12.7898,0,0.000885,0,0
0:1:3.987,101.113,12.8725,0,0.000885,0,0
0:1:4.283,102.171,13.0104,0,0.000885,0,0
0:1:4.586,102.58,13.0587,0,0.000885,0,0
0:1:4.881,102.99,13.1138,0,0.000885,0,0
0:1:5.181,103.87,13.2241,0,0.000885,0,0
0:1:5.480,104.222,13.2724,0,0.000885,0,0
0:1:5.784,104.925,13.362,0,0.000885,0,0
0:1:6.087,105.276,13.4034,0,0.000885,0,0
0:1:6.390,105.748,13.4655,0,0.000885,0,0
0:1:6.692,107.038,13.6309,0,0.000885,0,0
0:1:6.995,107.095,13.6378,0,0.000885,0,0
0:1:7.293,107.567,13.693,0,0.000885,0,0
0:1:7.595,108.212,13.7757,0,0.000885,0,0
0:1:7.890,108.973,13.8723,0,0.000885,0,0
0:1:8.190,109.44,13.9343,0,0.000885,0,0
0:1:8.488,109.969,14.0033,0,0.000885,0,0
0:1:8.787,110.734,14.0998,0,0.000885,0,0
0:1:9.085,111.673,14.217,0,0.000885,0,0
0:1:9.382,111.788,14.2308,0,0.000885,0,0
0:1:9.684,112.318,14.2997,0,0.000885,0,0
0:1:9.980,112.785,14.3618,0,0.000885,0,0
0:1:10.279,113.43,14.4445,0,0.000885,0,0
0:1:10.579,114.19,14.541,0,0.000885,0,0
0:1:10.881,114.84,14.6238,0,0.000885,0,0
0:1:11.187,115.422,14.6996,0,0.000885,0,0
0:1:11.490,116.13,14.7893,0,0.000885,0,0
0:1:11.792,116.361,14.8168,0,0.000885,0,0
0:1:12.093,117.535,14.9685,0,0.000885,0,0
0:1:12.392,118.007,15.0237,0,0.000885,0,0
0:1:12.690,118.238,15.0581,0,0.000885,0,0
0:1:12.988,119.061,15.1616,0,0.000885,0,0
0:1:13.288,119.355,15.196,0,0.000885,0,0
0:1:13.583,119.88,15.265,0,0.000885,0,0
0:1:13.885,121.054,15.4098,0,0.000885,0,0
0:1:14.182,121.29,15.4443,0,0.000885,0,0
0:1:14.480,121.699,15.4925,0,0.000885,0,0
0:1:14.780,122.522,15.6028,0,0.000885,0,0
0:1:15.075,123.167,15.6787,0,0.000885,0,0
0:1:15.378,123.692,15.7476,0,0.000885,0,0
0:1:15.684,124.163,15.8097,0,0.000885,0,0
0:1:15.986,124.341,15.8304,0,0.000885,0,0
0:1:16.290,125.511,15.982,0,0.000885,0,0
0:1:16.591,125.925,16.0303,0,0.000885,0,0
0:1:16.893,126.156,16.0648,0,0.000885,0,0
0:1:17.188,127.215,16.1958,0,0.000885,0,0
0:1:17.489,127.446,16.2303,0,0.000885,0,0
0:1:17.787,128.736,16.3888,0,0.000885,0,0
0:1:18.086,129.092,16.4371,0,0.000885,0,0
0:1:18.385,129.501,16.4854,0,0.000885,0,0
0:1:18.680,130.262,16.5888,0,0.000885,0,0
0:1:18.982,130.907,16.6646,0,0.000885,0,0
0:1:19.279,131.32,16.7198,0,0.000885,0,0
0:1:19.579,131.845,16.7887,0,0.000885,0,0
0:1:19.877,132.61,16.8853,0,0.000885,0,0
0:1:20.174,133.077,16.9473,0,0.000885,0,0
0:1:20.475,133.843,17.0438,0,0.000885,0,0
0:1:20.779,134.194,17.0852,0,0.000885,0,0
0:1:21.084,134.603,17.1404,0,0.000885,0,0
0:1:21.385,135.012,17.1886,0,0.000885,0,0
0:1:21.688,135.893,17.3058,0,0.000885,0,0
0:1:21.990,136.302,17.3541,0,0.000885,0,0
0:1:22.284,137.01,17.4437,0,0.000885,0,0
0:1:22.587,137.655,17.5265,0,0.000885,0,0
0:1:22.882,138.357,17.6161,0,0.000885,0,0
0:1:23.182,138.593,17.6437,0,0.000885,0,0
0:1:23.482,139.47,17.7609,0,0.000885,0,0
0:1:23.778,140.292,17.8643,0,0.000885,0,0
0:1:24.079,140.702,17.9126,0,0.000885,0,0
0:1:24.371,141.525,18.016,0,0.000885,0,0
0:1:24.675,142.579,18.1539,0,0.000885,0,0
0:1:24.981,143.166,18.2297,0,0.000885,0,0
0:1:25.279,143.224,18.2366,0,0.000885,0,0
0:1:25.580,143.46,18.2642,0,0.000885,0,0
0:1:25.885,144.456,18.3952,0,0.000885,0,0
0:1:26.190,145.043,18.4642,0,0.000885,0,0
0:1:26.491,145.101,18.4779,0,0.000885,0,0
0:1:26.794,145.746,18.5538,0,0.000885,0,0
0:1:27.097,147.036,18.7193,0,0.000885,0,0
0:1:27.393,147.156,18.7331,0,0.000885,0,0
0:1:27.694,148.095,18.8572,0,0.000885,0,0
0:1:27.989,148.095,18.8572,0,0.000885,0,0
0:1:28.290,149.265,19.002,0,0.000885,0,0
0:1:28.587,149.852,19.0778,0,0.000885,0,0
0:1:28.885,150.203,19.1261,0,0.000885,0,0
0:1:29.186,150.732,19.195,0,0.000885,0,0
0:1:29.480,151.671,19.3122,0,0.000885,0,0
0:1:29.783,152.08,19.3605,0,0.000885,0,0
0:1:30.078,152.08,19.3605,0,0.000885,0,0
0:1:30.380,152.903,19.4708,0,0.000885,0,0
0:1:30.686,153.664,19.5673,0,0.000885,0,0
0:1:30.990,154.135,19.6225,0,0.000885,0,0
0:1:31.292,155.363,19.7811,0,0.000885,0,0
0:1:31.593,155.425,19.788,0,0.000885,0,0
0:1:31.895,156.244,19.8914,0,0.000885,0,0
0:1:32.192,156.715,19.9534,0,0.000885,0,0
0:1:32.488,156.715,19.9534,0,0.000885,0,0
0:1:32.788,157.654,20.0706,0,0.000885,0,0
0:1:33.083,158.592,20.1947,0,0.000885,0,0
0:1:33.385,159.06,20.2499,0,0.000885,0,0
0:1:33.680,159.531,20.312,0,0.000885,0,0
0:1:33.982,159.998,20.374,0,0.000885,0,0
0:1:34.279,160.292,20.4085,0,0.000885,0,0
0:1:34.585,161.052,20.505,0,0.000885,0,0
0:1:34.885,161.524,20.5671,0,0.000885,0,0
0:1:35.181,162.405,20.6774,0,0.000885,0,0
0:1:35.485,163.107,20.767,0,0.000885,0,0
0:1:35.790,163.81,20.8566,0,0.000885,0,0
0:1:36.093,164.455,20.9394,0,0.000885,0,0
0:1:36.394,165.158,21.029,0,0.000885,0,0
0:1:36.697,166.097,21.1462,0,0.000885,0,0
0:1:36.999,165.981,21.1324,0,0.000885,0,0
0:1:37.295,167.093,21.2772,0,0.000885,0,0
0:1:37.595,167.213,21.291,0,0.000885,0,0
0:1:37.894,167.622,21.3393,0,0.000885,0,0
0:1:38.190,168.387,21.4427,0,0.000885,0,0
0:1:38.492,169.206,21.5461,0,0.000885,0,0
0:1:38.786,169.615,21.5944,0,0.000885,0,0
0:1:39.088,170.732,21.7392,0,0.000885,0,0
0:1:39.384,170.616,21.7254,0,0.000885,0,0
0:1:39.682,171.083,21.7805,0,0.000885,0,0
0:1:39.983,171.786,21.8702,0,0.000885,0,0
0:1:40.278,172.667,21.9874,0,0.000885,0,0
0:1:40.580,172.724,21.9943,0,0.000885,0,0
0:1:40.884,173.899,22.1391,0,0.000885,0,0
0:1:41.188,174.308,22.1942,0,0.000885,0,0
0:1:41.491,174.722,22.2494,0,0.000885,0,0
0:1:41.793,175.66,22.3666,0,0.000885,0,0
0:1:42.095,176.421,22.4631,0,0.000885,0,0
0:1:42.389,176.83,22.5183,0,0.000885,0,0
0:1:42.692,177.475,22.5941,0,0.000885,0,0
0:1:42.988,178.298,22.7044,0,0.000885,0,0
0:1:43.286,178.182,22.6838,0,0.000885,0,0
0:1:43.586,178.885,22.7734,0,0.000885,0,0
0:1:43.882,179.53,22.8561,0,0.000885,0,0
0:1:44.185,180.117,22.932,0,0.000885,0,0
0:1:44.479,180.936,23.0354,0,0.000885,0,0
0:1:44.781,181.287,23.0836,0,0.000885,0,0
0:1:45.079,182.11,23.1871,0,0.000885,0,0
0:1:45.384,182.64,23.256,0,0.000885,0,0
0:1:45.686,183.049,23.3043,0,0.000885,0,0
0:1:45.991,183.636,23.3801,0,0.000885,0,0
0:1:46.294,184.339,23.4698,0,0.000885,0,0
0:1:46.597,184.517,23.4904,0,0.000885,0,0
0:1:46.898,185.513,23.6214,0,0.000885,0,0
0:1:47.202,185.98,23.6766,0,0.000885,0,0
0:1:47.497,186.683,23.7662,0,0.000885,0,0
0:1:47.800,187.506,23.8765,0,0.000885,0,0
0:1:48.095,188.093,23.9455,0,0.000885,0,0
0:1:48.396,188.738,24.0282,0,0.000885,0,0
0:1:48.693,188.974,24.0627,0,0.000885,0,0
0:1:48.992,190.028,24.1937,0,0.000885,0,0
0:1:49.292,190.379,24.242,0,0.000885,0,0
0:1:49.587,190.789,24.2902,0,0.000885,0,0
0:1:49.889,191.554,24.3868,0,0.000885,0,0
0:1:50.185,191.496,24.3799,0,0.000885,0,0
0:1:50.487,192.786,24.5453,0,0.000885,0,0
0:1:50.790,193.431,24.6281,0,0.000885,0,0
0:1:51.090,194.134,24.7177,0,0.000885,0,0
0:1:51.391,194.721,24.7935,0,0.000885,0,0
0:1:51.692,195.482,24.8901,0,0.000885,0,0
0:1:51.989,195.539,24.897,0,0.000885,0,0
0:1:52.287,196.247,24.9866,0,0.000885,0,0
0:1:52.582,196.714,25.0487,0,0.000885,0,0
0:1:52.879,197.301,25.1176,0,0.000885,0,0
0:1:53.183,198.004,25.2072,0,0.000885,0,0
0:1:53.482,198.591,25.2831,0,0.000885,0,0
0:1:53.786,198.827,25.3175,0,0.000885,0,0
0:1:54.082,199.236,25.3658,0,0.000885,0,0
0:1:54.380,199.881,25.4485,0,0.000885,0,0
0:1:54.683,200.877,25.5795,0,0.000885,0,0
0:1:54.982,200.935,25.5864,0,0.000885,0,0
0:1:55.286,201.931,25.7105,0,0.000885,0,0
0:1:55.587,202.639,25.8002,0,0.000885,0,0
0:1:55.890,203.751,25.945,0,0.000885,0,0
0:1:56.189,203.457,25.9036,0,0.000885,0,0
0:1:56.489,204.044,25.9794,0,0.000885,0,0
0:1:56.789,204.689,26.0622,0,0.000885,0,0
0:1:57.088,205.219,26.1311,0,0.000885,0,0
0:1:57.383,206.393,26.2759,0,0.000885,0,0
0:1:57.681,206.918,26.3449,0,0.000885,0,0
0:1:57.978,207.447,26.4138,0,0.000885,0,0
0:1:58.280,207.856,26.4621,0,0.000885,0,0
0:1:58.580,208.15,26.5034,0,0.000885,0,0
0:1:58.884,209.382,26.662,0,0.000885,0,0
0:1:59.182,209.969,26.731,0,0.000885,0,0
0:1:59.487,210.321,26.7792,0,0.000885,0,0
0:1:59.783,211.024,26.8689,0,0.000885,0,0
0:2:0.081,211.669,26.9516,0,0.000885,0,0
0:2:0.371,211.904,26.9792,0,0.000885,0,0
0:2:0.671,212.434,27.0481,0,0.000885,0,0
0:2:0.974,213.43,27.1722,0,0.000885,0,0
0:2:1.274,213.782,27.2205,0,0.000885,0,0
0:2:1.579,214.72,27.3377,0,0.000885,0,0
0:2:1.875,215.129,27.3929,0,0.000885,0,0
0:2:2.179,215.072,27.386,0,0.000885,0,0
0:2:2.480,215.894,27.4894,0,0.000885,0,0
0:2:2.781,216.713,27.5928,0,0.000885,0,0
0:2:3.085,217.358,27.6756,0,0.000885,0,0
0:2:3.379,217.767,27.7238,0,0.000885,0,0
0:2:3.688,218.474,27.8135,0,0.000885,0,0
0:2:3.982,218.941,27.8755,0,0.000885,0,0
0:2:4.281,219.707,27.972,0,0.000885,0,0
0:2:4.572,220.583,28.0823,0,0.000885,0,0
0:2:4.870,221.054,28.1444,0,0.000885,0,0
0:2:5.179,221.584,28.2133,0,0.000885,0,0
0:2:5.479,222.109,28.2823,0,0.000885,0,0
0:2:5.782,222.518,28.3306,0,0.000885,0,0
0:2:6.082,223.225,28.4202,0,0.000885,0,0
0:2:6.382,223.812,28.496,0,0.000885,0,0
0:2:6.682,224.395,28.5719,0,0.000885,0,0
0:2:6.987,225.218,28.6753,0,0.000885,0,0
0:2:7.287,225.863,28.758,0,0.000885,0,0
0:2:7.579,226.392,28.827,0,0.000885,0,0
0:2:7.879,226.744,28.8683,0,0.000885,0,0
0:2:8.183,227.211,28.9304,0,0.000885,0,0
0:2:8.480,227.856,29.0131,0,0.000885,0,0
0:2:8.786,228.443,29.089,0,0.000885,0,0
0:2:9.081,228.794,29.1303,0,0.000885,0,0
0:2:9.381,229.502,29.22,0,0.000885,0,0
0:2:9.684,230.671,29.3717,0,0.000885,0,0
0:2:9.983,230.965,29.4061,0,0.000885,0,0
0:2:10.275,231.494,29.4751,0,0.000885,0,0
0:2:10.580,232.019,29.544,0,0.000885,0,0
0:2:10.883,232.491,29.5992,0,0.000885,0,0
0:2:11.184,233.429,29.7233,0,0.000885,0,0
0:2:11.483,234.19,29.8198,0,0.000885,0,0
0:2:11.784,234.368,29.8405,0,0.000885,0,0
0:2:12.081,235.013,29.9232,0,0.000885,0,0
0:2:12.373,235.364,29.9646,0,0.000885,0,0
0:2:12.670,236.067,30.0542,0,0.000885,0,0
0:2:12.969,236.654,30.1301,0,0.000885,0,0
0:2:13.283,237.241,30.2059,0,0.000885,0,0
0:2:13.583,238.122,30.3162,0,0.000885,0,0
0:2:13.886,238.296,30.3438,0,0.000885,0,0
0:2:14.182,238.767,30.399,0,0.000885,0,0
0:2:14.489,239.354,30.4748,0,0.000885,0,0
0:2:14.782,239.821,30.5369,0,0.000885,0,0
0:2:15.083,240.524,30.6265,0,0.000885,0,0
0:2:15.383,241.111,30.7024,0,0.000885,0,0
0:2:15.685,241.934,30.8058,0,0.000885,0,0
0:2:15.987,242.401,30.8609,0,0.000885,0,0
0:2:16.288,243.104,30.9506,0,0.000885,0,0
0:2:16.590,244.043,31.0747,0,0.000885,0,0
0:2:16.889,244.688,31.1574,0,0.000885,0,0
0:2:17.189,244.924,31.185,0,0.000885,0,0
0:2:17.483,245.804,31.2953,0,0.000885,0,0
0:2:17.780,246.214,31.3505,0,0.000885,0,0
0:2:18.088,247.624,31.5297,0,0.000885,0,0
0:2:18.379,247.566,31.5228,0,0.000885,0,0
0:2:18.680,247.975,31.5711,0,0.000885,0,0
0:2:18.983,248.384,31.6263,0,0.000885,0,0
0:2:19.282,249.381,31.7504,0,0.000885,0,0
0:2:19.589,249.732,31.7986,0,0.000885,0,0
0:2:19.883,250.261,31.8676,0,0.000885,0,0
0:2:20.182,251.022,31.9641,0,0.000885,0,0
0:2:20.484,251.729,32.0537,0,0.000885,0,0
0:2:20.785,252.196,32.1089,0,0.000885,0,0
0:2:21.088,252.548,32.1571,0,0.000885,0,0
0:2:21.389,252.961,32.2054,0,0.000885,0,0
0:2:21.688,253.371,32.2606,0,0.000885,0,0
0:2:21.989,254.074,32.3502,0,0.000885,0,0
0:2:22.289,254.839,32.4467,0,0.000885,0,0
0:2:22.583,255.715,32.557,0,0.000885,0,0
0:2:22.880,255.893,32.5846,0,0.000885,0,0
0:2:23.175,256.653,32.6811,0,0.000885,0,0
0:2:23.482,257.592,32.7984,0,0.000885,0,0
0:2:23.782,258.295,32.888,0,0.000885,0,0
0:2:24.083,259.118,32.9914,0,0.000885,0,0
0:2:24.383,259.296,33.0121,0,0.000885,0,0
0:2:24.686,260.056,33.1086,0,0.000885,0,0
0:2:24.983,260.466,33.1638,0,0.000885,0,0
0:2:25.290,260.759,33.1983,0,0.000885,0,0
0:2:25.591,261.404,33.281,0,0.000885,0,0
0:2:25.894,261.934,33.3499,0,0.000885,0,0
0:2:26.194,262.401,33.412,0,0.000885,0,0
0:2:26.495,263.401,33.5361,0,0.000885,0,0
0:2:26.794,263.459,33.543,0,0.000885,0,0
0:2:27.088,264.162,33.6326,0,0.000885,0,0
0:2:27.387,265.158,33.7636,0,0.000885,0,0
0:2:27.681,265.688,33.8257,0,0.000885,0,0
0:2:27.981,266.333,33.9084,0,0.000885,0,0
0:2:28.283,266.858,33.9774,0,0.000885,0,0
0:2:28.582,267.271,34.0325,0,0.000885,0,0
0:2:28.887,267.916,34.1153,0,0.000885,0,0
0:2:29.180,268.561,34.1911,0,0.000885,0,0
0:2:29.481,269.558,34.3221,0,0.000885,0,0
0:2:29.783,269.616,34.329,0,0.000885,0,0
0:2:30.081,269.794,34.3497,0,0.000885,0,0
0:2:30.385,270.848,34.4876,0,0.000885,0,0
0:2:30.686,271.377,34.5496,0,0.000885,0,0
0:2:30.988,272.374,34.6806,0,0.000885,0,0
0:2:31.290,273.134,34.7772,0,0.000885,0,0
0:2:31.588,273.37,34.8047,0,0.000885,0,0
0:2:31.890,274.308,34.9288,0,0.000885,0,0
0:2:32.186,274.486,34.9495,0,0.000885,0,0
0:2:32.483,274.896,34.9978,0,0.000885,0,0
0:2:32.787,275.305,35.0529,0,0.000885,0,0
0:2:33.087,276.128,35.1564,0,0.000885,0,0
0:2:33.376,276.831,35.246,0,0.000885,0,0
0:2:33.675,277.885,35.3839,0,0.000885,0,0
0:2:33.984,278.121,35.4115,0,0.000885,0,0
0:2:34.288,278.708,35.4873,0,0.000885,0,0
0:2:34.587,278.944,35.5149,0,0.000885,0,0
0:2:34.878,279.762,35.6183,0,0.000885,0,0
0:2:35.178,280.758,35.7493,0,0.000885,0,0
0:2:35.482,280.936,35.77,0,0.000885,0,0
0:2:35.784,281.991,35.901,0,0.000885,0,0
0:2:36.085,282.284,35.9424,0,0.000885,0,0
0:2:36.385,282.52,35.9699,0,0.000885,0,0
0:2:36.687,283.223,36.0596,0,0.000885,0,0
0:2:36.986,283.574,36.1078,0,0.000885,0,0
0:2:37.286,284.633,36.2388,0,0.000885,0,0
0:2:37.591,284.922,36.2802,0,0.000885,0,0
0:2:37.887,285.571,36.3629,0,0.000885,0,0
0:2:38.185,286.448,36.4733,0,0.000885,0,0
0:2:38.488,287.155,36.5629,0,0.000885,0,0
0:2:38.787,287.738,36.6387,0,0.000885,0,0
0:2:39.082,288.031,36.6732,0,0.000885,0,0
0:2:39.388,288.383,36.7215,0,0.000885,0,0
0:2:39.685,289.028,36.7973,0,0.000885,0,0
0:2:39.988,289.441,36.8525,0,0.000885,0,0
0:2:40.288,290.144,36.9421,0,0.000885,0,0
0:2:40.592,290.847,37.0317,0,0.000885,0,0
0:2:40.894,291.376,37.1007,0,0.000885,0,0
0:2:41.193,292.137,37.1972,0,0.000885,0,0
0:2:41.495,292.488,37.2386,0,0.000885,0,0
0:2:41.794,293.253,37.3351,0,0.000885,0,0
0:2:42.087,293.547,37.3765,0,0.000885,0,0
0:2:42.387,294.601,37.5075,0,0.000885,0,0
0:2:42.689,295.424,37.6178,0,0.000885,0,0
0:2:42.986,296.069,37.6936,0,0.000885,0,0
0:2:43.282,296.243,37.7212,0,0.000885,0,0
0:2:43.587,296.772,37.7833,0,0.000885,0,0
0:2:43.886,297.711,37.9074,0,0.000885,0,0
0:2:44.176,298.413,37.997,0,0.000885,0,0
0:2:44.474,298.649,38.0246,0,0.000885,0,0
0:2:44.783,299.058,38.0797,0,0.000885,0,0
0:2:45.086,299.881,38.1832,0,0.000885,0,0
0:2:45.384,300.233,38.2245,0,0.000885,0,0
0:2:45.687,300.7,38.2866,0,0.000885,0,0
0:2:45.988,301.581,38.3969,0,0.000885,0,0
0:2:46.289,302.052,38.459,0,0.000885,0,0
0:2:46.588,302.226,38.4796,0,0.000885,0,0
0:2:46.890,303.458,38.6382,0,0.000885,0,0
0:2:47.183,303.925,38.7003,0,0.000885,0,0
0:2:47.482,304.338,38.7485,0,0.000885,0,0
0:2:47.787,304.748,38.8037,0,0.000885,0,0
0:2:48.084,306.038,38.9692,0,0.000885,0,0
0:2:48.390,306.389,39.0105,0,0.000885,0,0
0:2:48.685,307.212,39.114,0,0.000885,0,0
0:2:48.984,307.385,39.1346,0,0.000885,0,0
0:2:49.286,308.266,39.2519,0,0.000885,0,0
0:2:49.586,308.675,39.3001,0,0.000885,0,0
0:2:49.891,309.031,39.3484,0,0.000885,0,0
0:2:50.186,309.498,39.4035,0,0.000885,0,0
0:2:50.482,309.97,39.4656,0,0.000885,0,0
0:2:50.785,310.731,39.5621,0,0.000885,0,0
0:2:51.088,311.843,39.7069,0,0.000885,0,0
0:2:51.389,312.43,39.7827,0,0.000885,0,0
0:2:51.689,312.781,39.8241,0,0.000885,0,0
0:2:51.990,313.488,39.9137,0,0.000885,0,0
0:2:52.284,314.249,40.0103,0,0.000885,0,0
0:2:52.583,314.658,40.0654,0,0.000885,0,0
0:2:52.886,314.836,40.0861,0,0.000885,0,0
0:2:53.186,315.833,40.2102,0,0.000885,0,0
0:2:53.487,316.242,40.2654,0,0.000885,0,0
0:2:53.785,316.535,40.2999,0,0.000885,0,0
0:2:54.091,317.123,40.3757,0,0.000885,0,0
0:2:54.385,317.946,40.4791,0,0.000885,0,0
0:2:54.684,318.177,40.5136,0,0.000885,0,0
0:2:54.975,319,40.617,0,0.000885,0,0
0:2:55.275,320.348,40.7894,0,0.000885,0,0
0:2:55.579,320.116,40.7549,0,0.000885,0,0
0:2:55.879,320.641,40.8239,0,0.000885,0,0
0:2:56.185,321.522,40.9342,0,0.000885,0,0
0:2:56.485,322.403,41.0514,0,0.000885,0,0
0:2:56.787,322.99,41.1272,0,0.000885,0,0
0:2:57.085,323.577,41.1962,0,0.000885,0,0
0:2:57.384,323.635,41.2031,0,0.000885,0,0
0:2:57.679,324.631,41.3341,0,0.000885,0,0
0:2:57.985,324.747,41.3479,0,0.000885,0,0
0:2:58.285,325.863,41.4926,0,0.000885,0,0
0:2:58.587,326.037,41.5133,0,0.000885,0,0
0:2:58.885,326.86,41.6168,0,0.000885,0,0
0:2:59.176,327.678,41.7202,0,0.000885,0,0
0:2:59.473,327.914,41.7547,0,0.000885,0,0
0:2:59.771,328.092,41.7753,0,0.000885,0,0
0:3:0.074,329.498,41.9546,0,0.000885,0,0
0:3:0.373,329.324,41.9339,0,0.000885,0,0
0:3:0.676,330.32,42.058,0,0.000885,0,0
0:3:0.978,331.081,42.1545,0,0.000885,0,0
0:3:1.291,334.306,42.5682,0,0.000885,0,0
0:3:1.589,334.306,42.5682,0,0.000885,0,0
0:3:1.890,334.368,42.5751,0,0.000885,0,0
0:3:2.179,333.897,42.5131,0,0.000885,0,0
0:3:2.479,334.658,42.6096,0,0.000885,0,0
0:3:2.786,334.72,42.6165,0,0.000885,0,0
0:3:3.089,334.368,42.5751,0,0.000885,0,0
0:3:3.387,335.307,42.6923,0,0.000885,0,0
0:3:3.690,335.071,42.6648,0,0.000885,0,0
0:3:3.989,335.187,42.6785,0,0.000885,0,0
0:3:4.291,336.241,42.8095,0,0.000885,0,0
0:3:4.589,337.473,42.9681,0,0.000885,0,0
0:3:4.887,338.354,43.0784,0,0.000885,0,0
0:3:5.189,338.648,43.1198,0,0.000885,0,0
0:3:5.490,339.47,43.2232,0,0.000885,0,0
0:3:5.791,340.173,43.3129,0,0.000885,0,0
0:3:6.093,341.054,43.4232,0,0.000885,0,0
0:3:6.394,341.699,43.5059,0,0.000885,0,0
0:3:6.694,342.575,43.6162,0,0.000885,0,0
0:3:6.995,342.753,43.6438,0,0.000885,0,0
0:3:7.288,343.75,43.7679,0,0.000885,0,0
0:3:7.586,344.452,43.8576,0,0.000885,0,0
0:3:7.881,344.866,43.9127,0,0.000885,0,0
0:3:8.188,345.04,43.9334,0,0.000885,0,0
0:3:8.485,345.391,43.9748,0,0.000885,0,0
0:3:8.790,346.156,44.0713,0,0.000885,0,0
0:3:9.089,346.859,44.1609,0,0.000885,0,0
0:3:9.385,347.326,44.223,0,0.000885,0,0
0:3:9.688,348.033,44.3126,0,0.000885,0,0
0:3:9.988,348.5,44.3747,0,0.000885,0,0
0:3:10.291,349.145,44.4574,0,0.000885,0,0
0:3:10.593,349.733,44.5263,0,0.000885,0,0
0:3:10.894,350.142,44.5815,0,0.000885,0,0
0:3:11.196,350.849,44.6711,0,0.000885,0,0
0:3:11.497,351.903,44.809,0,0.000885,0,0
0:3:11.798,352.433,44.8711,0,0.000885,0,0
0:3:12.097,353.078,44.9538,0,0.000885,0,0
0:3:12.392,353.309,44.9883,0,0.000885,0,0
0:3:12.688,353.78,45.0434,0,0.000885,0,0
0:3:12.982,354.247,45.1055,0,0.000885,0,0
0:3:13.278,354.835,45.1813,0,0.000885,0,0
0:3:13.576,355.773,45.2986,0,0.000885,0,0
0:3:13.870,355.893,45.3123,0,0.000885,0,0
0:3:14.170,356.245,45.3606,0,0.000885,0,0
0:3:14.475,357.535,45.5192,0,0.000885,0,0
0:3:14.791,358.06,45.5881,0,0.000885,0,0
0:3:15.090,358.473,45.6433,0,0.000885,0,0
0:3:15.382,359.118,45.726,0,0.000885,0,0
0:3:15.685,359.763,45.8088,0,0.000885,0,0
0:3:15.988,360.35,45.8777,0,0.000885,0,0
0:3:16.289,361.169,45.988,0,0.000885,0,0
0:3:16.588,361.347,46.0087,0,0.000885,0,0
0:3:16.889,362.579,46.1673,0,0.000885,0,0
0:3:17.189,363.046,46.2225,0,0.000885,0,0
0:3:17.481,363.633,46.2983,0,0.000885,0,0
0:3:17.778,364.22,46.3741,0,0.000885,0,0
0:3:18.087,364.745,46.4431,0,0.000885,0,0
0:3:18.390,364.981,46.4707,0,0.000885,0,0
0:3:18.691,365.684,46.5603,0,0.000885,0,0
0:3:18.994,366.213,46.6292,0,0.000885,0,0
0:3:19.292,366.565,46.6706,0,0.000885,0,0
0:3:19.591,367.623,46.8085,0,0.000885,0,0
0:3:19.893,367.855,46.8361,0,0.000885,0,0
0:3:20.191,368.5,46.9188,0,0.000885,0,0
0:3:20.483,369.38,47.0291,0,0.000885,0,0
0:3:20.786,369.732,47.0774,0,0.000885,0,0
0:3:21.090,370.848,47.2153,0,0.000885,0,0
0:3:21.392,371.493,47.298,0,0.000885,0,0
0:3:21.692,372.196,47.3877,0,0.000885,0,0
0:3:21.991,372.138,47.3808,0,0.000885,0,0
0:3:22.290,372.605,47.4428,0,0.000885,0,0
0:3:22.595,373.192,47.5187,0,0.000885,0,0
0:3:22.890,373.664,47.5738,0,0.000885,0,0
0:3:23.188,374.66,47.7048,0,0.000885,0,0
0:3:23.490,374.896,47.7324,0,0.000885,0,0
0:3:23.791,375.772,47.8427,0,0.000885,0,0
0:3:24.095,376.711,47.9668,0,0.000885,0,0
0:3:24.390,376.889,47.9875,0,0.000885,0,0
0:3:24.688,377.534,48.0702,0,0.000885,0,0
0:3:24.981,378.415,48.1806,0,0.000885,0,0
0:3:25.281,378.708,48.215,0,0.000885,0,0
0:3:25.587,379.469,48.3185,0,0.000885,0,0
0:3:25.887,379.82,48.3598,0,0.000885,0,0
0:3:26.187,380.114,48.3943,0,0.000885,0,0
0:3:26.486,380.643,48.4632,0,0.000885,0,0
0:3:26.788,381.052,48.5184,0,0.000885,0,0
0:3:27.091,381.933,48.6287,0,0.000885,0,0
0:3:27.388,382.342,48.6839,0,0.000885,0,0
0:3:27.693,383.223,48.7942,0,0.000885,0,0
0:3:27.989,384.22,48.9183,0,0.000885,0,0
0:3:28.288,384.687,48.9804,0,0.000885,0,0
0:3:28.589,385.216,49.0493,0,0.000885,0,0
0:3:28.889,385.745,49.1114,0,0.000885,0,0
0:3:29.182,386.212,49.1734,0,0.000885,0,0
0:3:29.490,386.915,49.263,0,0.000885,0,0
0:3:29.787,387.565,49.3458,0,0.000885,0,0
0:3:30.079,387.916,49.394,0,0.000885,0,0
0:3:30.379,388.561,49.4699,0,0.000885,0,0
0:3:30.682,388.97,49.525,0,0.000885,0,0
0:3:30.986,389.851,49.6354,0,0.000885,0,0
0:3:31.286,390.438,49.7112,0,0.000885,0,0
0:3:31.586,390.847,49.7664,0,0.000885,0,0
0:3:31.888,391.377,49.8284,0,0.000885,0,0
0:3:32.180,392.782,50.0077,0,0.000885,0,0
0:3:32.478,392.84,50.0215,0,0.000885,0,0
0:3:32.784,393.663,50.1249,0,0.000885,0,0
0:3:33.090,393.837,50.1456,0,0.000885,0,0
0:3:33.390,394.25,50.2007,0,0.000885,0,0
0:3:33.681,395.189,50.3179,0,0.000885,0,0
0:3:33.981,395.95,50.4145,0,0.000885,0,0
0:3:34.284,396.243,50.4489,0,0.000885,0,0
0:3:34.581,397.066,50.5524,0,0.000885,0,0
0:3:34.877,397.475,50.6075,0,0.000885,0,0
0:3:35.181,398.356,50.7178,0,0.000885,0,0
0:3:35.481,398.765,50.773,0,0.000885,0,0
0:3:35.783,399.526,50.8695,0,0.000885,0,0
0:3:36.088,399.82,50.904,0,0.000885,0,0
0:3:36.388,400.585,51.0005,0,0.000885,0,0
0:3:36.689,401.109,51.0695,0,0.000885,0,0
0:3:36.989,401.523,51.1246,0,0.000885,0,0
0:3:37.292,401.99,51.1798,0,0.000885,0,0
0:3:37.593,402.693,51.2694,0,0.000885,0,0
0:3:37.898,403.458,51.3728,0,0.000885,0,0
0:3:38.191,403.689,51.4004,0,0.000885,0,0
0:3:38.489,403.752,51.4073,0,0.000885,0,0
0:3:38.791,404.334,51.4832,0,0.000885,0,0
0:3:39.093,405.335,51.6073,0,0.000885,0,0
0:3:39.384,406.096,51.7038,0,0.000885,0,0
0:3:39.683,406.505,51.7589,0,0.000885,0,0
0:3:39.979,406.977,51.821,0,0.000885,0,0
0:3:40.294,408.147,51.9658,0,0.000885,0,0
0:3:40.594,408.796,52.0485,0,0.000885,0,0
0:3:40.896,409.441,52.1313,0,0.000885,0,0
0:3:41.199,410.024,52.2071,0,0.000885,0,0
0:3:41.498,410.437,52.2554,0,0.000885,0,0
0:3:41.798,411.14,52.345,0,0.000885,0,0
0:3:42.099,411.67,52.4139,0,0.000885,0,0
0:3:42.392,412.137,52.476,0,0.000885,0,0
0:3:42.693,412.839,52.5656,0,0.000885,0,0
0:3:42.998,413.605,52.6622,0,0.000885,0,0
0:3:43.294,414.307,52.7518,0,0.000885,0,0
0:3:43.591,414.774,52.8138,0,0.000885,0,0
0:3:43.885,415.419,52.8897,0,0.000885,0,0
0:3:44.184,415.775,52.9379,0,0.000885,0,0
0:3:44.485,416.242,53,0,0.000885,0,0
0:3:44.784,417.065,53.1034,0,0.000885,0,0
0:3:45.080,417.942,53.2137,0,0.000885,0,0
0:3:45.379,418.413,53.2758,0,0.000885,0,0
0:3:45.681,418.707,53.3103,0,0.000885,0,0
0:3:45.982,419.467,53.4068,0,0.000885,0,0
0:3:46.283,420.29,53.5102,0,0.000885,0,0
0:3:46.583,420.642,53.5585,0,0.000885,0,0
0:3:46.892,421.229,53.6343,0,0.000885,0,0
0:3:47.189,421.522,53.6688,0,0.000885,0,0
0:3:47.493,422.047,53.7377,0,0.000885,0,0
0:3:47.792,422.692,53.8205,0,0.000885,0,0
0:3:48.095,423.457,53.917,0,0.000885,0,0
0:3:48.394,423.867,53.9653,0,0.000885,0,0
0:3:48.698,424.569,54.0549,0,0.000885,0,0
0:3:48.994,425.214,54.1376,0,0.000885,0,0
0:3:49.292,425.859,54.2204,0,0.000885,0,0
0:3:49.594,426.389,54.2893,0,0.000885,0,0
0:3:49.895,426.976,54.3652,0,0.000885,0,0
0:3:50.189,427.857,54.4755,0,0.000885,0,0
0:3:50.489,428.444,54.5513,0,0.000885,0,0
0:3:50.791,428.559,54.5651,0,0.000885,0,0
0:3:51.093,429.32,54.6616,0,0.000885,0,0
0:3:51.395,430.552,54.8202,0,0.000885,0,0
0:3:51.694,430.966,54.8754,0,0.000885,0,0
0:3:51.992,431.139,54.8961,0,0.000885,0,0
0:3:52.297,431.842,54.9857,0,0.000885,0,0
0:3:52.593,432.078,55.0133,0,0.000885,0,0
0:3:52.891,432.839,55.1098,0,0.000885,0,0
0:3:53.192,433.426,55.1856,0,0.000885,0,0
0:3:53.493,433.777,55.2339,0,0.000885,0,0
0:3:53.784,434.364,55.3028,0,0.000885,0,0
0:3:54.082,435.129,55.3994,0,0.000885,0,0
0:3:54.386,435.832,55.489,0,0.000885,0,0
0:3:54.683,436.242,55.5442,0,0.000885,0,0
0:3:54.981,436.651,55.5993,0,0.000885,0,0
0:3:55.283,436.887,55.6269,0,0.000885,0,0
0:3:55.583,438.061,55.7786,0,0.000885,0,0
0:3:55.887,438.528,55.8337,0,0.000885,0,0
0:3:56.186,438.942,55.8889,0,0.000885,0,0
0:3:56.490,439.057,55.9027,0,0.000885,0,0
0:3:56.787,440.232,56.0544,0,0.000885,0,0
0:3:57.087,440.819,56.1233,0,0.000885,0,0
0:3:57.393,441.401,56.1992,0,0.000885,0,0
0:3:57.692,441.931,56.2681,0,0.000885,0,0
0:3:57.986,442.812,56.3784,0,0.000885,0,0
0:3:58.293,443.514,56.4681,0,0.000885,0,0
0:3:58.590,444.044,56.537,0,0.000885,0,0
0:3:58.881,444.631,56.6129,0,0.000885,0,0
0:3:59.182,445.276,56.6956,0,0.000885,0,0
0:3:59.485,445.569,56.7301,0,0.000885,0,0
0:3:59.782,446.272,56.8197,0,0.000885,0,0
0:4:0.079,447.091,56.9231,0,0.000885,0,0
0:4:0.394,447.736,57.0059,0,0.000885,0,0
0:4:0.695,448.207,57.0679,0,0.000885,0,0
0:4:0.998,448.852,57.1506,0,0.000885,0,0
0:4:1.299,449.319,57.2127,0,0.000885,0,0
0:4:1.601,449.733,57.261,0,0.000885,0,0
0:4:1.900,450.436,57.3506,0,0.000885,0,0
0:4:2.201,451.317,57.4609,0,0.000885,0,0
0:4:2.494,451.784,57.523,0,0.000885,0,0
0:4:2.794,452.607,57.6264,0,0.000885,0,0
0:4:3.087,452.958,57.6746,0,0.000885,0,0
0:4:3.396,453.545,57.7436,0,0.000885,0,0
0:4:3.693,454.364,57.8539,0,0.000885,0,0
0:4:3.996,454.835,57.9091,0,0.000885,0,0
0:4:4.296,455.071,57.9435,0,0.000885,0,0
0:4:4.591,456.067,58.0676,0,0.000885,0,0
0:4:4.897,456.125,58.0745,0,0.000885,0,0
0:4:5.192,457.064,58.1918,0,0.000885,0,0
0:4:5.494,457.531,58.2538,0,0.000885,0,0
0:4:5.796,457.824,58.2952,0,0.000885,0,0
0:4:6.097,458.532,58.3848,0,0.000885,0,0
0:4:6.397,459.177,58.4606,0,0.000885,0,0
0:4:6.698,459.879,58.5503,0,0.000885,0,0
0:4:6.994,460.64,58.6537,0,0.000885,0,0
0:4:7.291,460.76,58.6675,0,0.000885,0,0
0:4:7.595,461.636,58.7778,0,0.000885,0,0
0:4:7.895,461.988,58.8192,0,0.000885,0,0
0:4:8.185,462.869,58.9364,0,0.000885,0,0
0:4:8.485,463.634,59.0329,0,0.000885,0,0
0:4:8.779,464.101,59.0881,0,0.000885,0,0
0:4:9.085,464.63,59.157,0,0.000885,0,0
0:4:9.382,465.626,59.288,0,0.000885,0,0
0:4:9.698,465.742,59.3018,0,0.000885,0,0
0:4:9.997,466.156,59.3501,0,0.000885,0,0
0:4:10.290,466.916,59.4466,0,0.000885,0,0
0:4:10.591,467.619,59.5362,0,0.000885,0,0
0:4:10.895,468.149,59.6052,0,0.000885,0,0
0:4:11.196,468.616,59.6672,0,0.000885,0,0
0:4:11.498,469.145,59.7362,0,0.000885,0,0
0:4:11.795,469.554,59.7844,0,0.000885,0,0
0:4:12.094,470.262,59.8741,0,0.000885,0,0
0:4:12.388,470.844,59.9499,0,0.000885,0,0
0:4:12.685,471.552,60.0395,0,0.000885,0,0
0:4:12.982,471.903,60.0878,0,0.000885,0,0
0:4:13.285,472.548,60.1637,0,0.000885,0,0
0:4:13.584,473.366,60.274,0,0.000885,0,0
0:4:13.876,474.074,60.3636,0,0.000885,0,0
0:4:14.185,474.892,60.467,0,0.000885,0,0
0:4:14.493,475.07,60.4877,0,0.000885,0,0
0:4:14.798,475.889,60.5911,0,0.000885,0,0
0:4:15.097,476.596,60.6808,0,0.000885,0,0
0:4:15.388,477.179,60.7566,0,0.000885,0,0
0:4:15.688,477.824,60.8393,0,0.000885,0,0
0:4:15.994,478.117,60.8738,0,0.000885,0,0
0:4:16.295,478.94,60.9772,0,0.000885,0,0
0:4:16.597,479.349,61.0324,0,0.000885,0,0
0:4:16.896,479.701,61.0807,0,0.000885,0,0
0:4:17.196,480.288,61.1496,0,0.000885,0,0
0:4:17.489,481.169,61.2668,0,0.000885,0,0
0:4:17.796,481.52,61.3082,0,0.000885,0,0
0:4:18.095,481.929,61.3633,0,0.000885,0,0
0:4:18.398,482.93,61.4874,0,0.000885,0,0
0:4:18.697,483.161,61.515,0,0.000885,0,0
0:4:18.989,483.749,61.5909,0,0.000885,0,0
0:4:19.287,484.514,61.6874,0,0.000885,0,0
0:4:19.593,485.216,61.777,0,0.000885,0,0
0:4:19.888,485.626,61.8322,0,0.000885,0,0
0:4:20.185,486.271,61.9149,0,0.000885,0,0
0:4:20.488,486.68,61.9632,0,0.000885,0,0
0:4:20.792,487.325,62.0459,0,0.000885,0,0
0:4:21.093,487.796,62.108,0,0.000885,0,0
0:4:21.392,488.326,62.1769,0,0.000885,0,0
0:4:21.694,489.086,62.2734,0,0.000885,0,0
0:4:21.997,489.553,62.3355,0,0.000885,0,0
0:4:22.297,490.319,62.432,0,0.000885,0,0
0:4:22.588,490.728,62.4803,0,0.000885,0,0
0:4:22.898,491.431,62.5699,0,0.000885,0,0
0:4:23.192,491.724,62.6113,0,0.000885,0,0
0:4:23.489,492.254,62.6733,0,0.000885,0,0
0:4:23.797,492.547,62.7147,0,0.000885,0,0
0:4:24.088,493.192,62.7974,0,0.000885,0,0
0:4:24.387,494.246,62.9284,0,0.000885,0,0
0:4:24.682,494.834,63.0043,0,0.000885,0,0
0:4:24.989,495.243,63.0595,0,0.000885,0,0
0:4:25.297,495.599,63.1008,0,0.000885,0,0
0:4:25.598,496.244,63.1836,0,0.000885,0,0
0:4:25.900,496.768,63.2525,0,0.000885,0,0
0:4:26.202,497.298,63.3146,0,0.000885,0,0
0:4:26.501,497.943,63.3973,0,0.000885,0,0
0:4:26.799,498.121,63.4249,0,0.000885,0,0
0:4:27.097,498.997,63.5352,0,0.000885,0,0
0:4:27.395,499.526,63.6041,0,0.000885,0,0
0:4:27.699,499.993,63.6593,0,0.000885,0,0
0:4:27.998,500.759,63.7558,0,0.000885,0,0
0:4:28.289,501.11,63.8041,0,0.000885,0,0
0:4:28.588,502.049,63.9213,0,0.000885,0,0
0:4:28.896,502.4,63.9696,0,0.000885,0,0
0:4:29.199,503.045,64.0523,0,0.000885,0,0
0:4:29.498,503.454,64.1006,0,0.000885,0,0
0:4:29.788,503.868,64.1557,0,0.000885,0,0
0:4:30.088,504.98,64.2936,0,0.000885,0,0
0:4:30.382,505.567,64.3695,0,0.000885,0,0
0:4:30.683,506.328,64.466,0,0.000885,0,0
0:4:30.986,506.448,64.4798,0,0.000885,0,0
0:4:31.287,507.093,64.5625,0,0.000885,0,0
0:4:31.588,507.622,64.6315,0,0.000885,0,0
0:4:31.888,507.974,64.6797,0,0.000885,0,0
0:4:32.185,508.267,64.7142,0,0.000885,0,0
0:4:32.493,509.028,64.8107,0,0.000885,0,0
0:4:32.788,509.909,64.921,0,0.000885,0,0
0:4:33.087,510.26,64.9693,0,0.000885,0,0
0:4:33.379,507.56,64.6246,0,0.000885,0,0
0:4:33.686,506.741,64.5211,0,0.000885,0,0
0:4:33.981,507.68,64.6383,0,0.000885,0,0
0:4:34.286,507.911,64.6728,0,0.000885,0,0
0:4:34.595,507.266,64.5901,0,0.000885,0,0
0:4:34.897,506.39,64.4729,0,0.000885,0,0
0:4:35.196,506.27,64.4591,0,0.000885,0,0
0:4:35.499,506.621,64.5073,0,0.000885,0,0
0:4:35.798,506.799,64.528,0,0.000885,0,0
0:4:36.100,507.329,64.597,0,0.000885,0,0
0:4:36.400,507.796,64.6521,0,0.000885,0,0
0:4:36.700,507.208,64.5832,0,0.000885,0,0
0:4:36.999,507.502,64.6177,0,0.000885,0,0
0:4:37.297,507.386,64.6039,0,0.000885,0,0
0:4:37.589,506.621,64.5073,0,0.000885,0,0
0:4:37.884,505.976,64.4246,0,0.000885,0,0
0:4:38.182,504.393,64.2247,0,0.000885,0,0
0:4:38.485,501.755,63.8868,0,0.000885,0,0
0:4:38.784,501.11,63.8041,0,0.000885,0,0
0:4:39.099,501.168,63.811,0,0.000885,0,0
0:4:39.396,499.993,63.6593,0,0.000885,0,0
0:4:39.689,483.984,61.6253,0,0.000885,0,0
0:4:39.994,462.459,58.8812,0,0.000885,0,0
0:4:40.291,461.227,58.7226,0,0.000885,0,0
0:4:40.596,459.408,58.4951,0,0.000885,0,0
0:4:40.896,457.531,58.2538,0,0.000885,0,0
0:4:41.197,455.071,57.9435,0,0.000885,0,0
0:4:41.495,454.132,57.8194,0,0.000885,0,0
0:4:41.796,453.545,57.7436,0,0.000885,0,0
0:4:42.097,452.313,57.5919,0,0.000885,0,0
0:4:42.397,436.535,55.5786,0,0.000885,0,0
0:4:42.699,430.379,54.7995,0,0.000885,0,0
0:4:42.918,427.972,54.4893,0,0.000885,0,0