File: DataFile2021-06-07_034136.csv
Test ID:,Date Tested:,Time:,Test Type:,Diameter Avg. (mm):,Cyl. Corr. Factor:,Height (mm):,Age (days):,Weight (kN):,Break Type:,Ramp Rate (MPa/s):,Load at Break (kN):,Stress at Break (MPa):
12,6/7/2021,03:41,Cylinder,100,1,200,0,3.6,3,0.23,691.04,87.98
Sample Time,Load (kN),Stress (MPa),Long. Strain,Trans. Strain,Chan1 Deflection (mm),Chan2 Deflection (mm)
0:0:20.512,5.98286,0.758423,0,0.000885,0,0
0:0:20.814,10.3821,1.32379,0,0.000885,0,0
0:0:21.110,10.907,1.38585,0,0.000885,0,0
0:0:21.409,10.2042,1.29621,0,0.000885,0,0
0:0:21.715,10.2042,1.29621,0,0.000885,0,0
0:0:22.012,9.79498,1.24795,0,0.000885,0,0
0:0:22.312,9.5014,1.20658,0,0.000885,0,0
0:0:22.614,9.32347,1.1859,0,0.000885,0,0
0:0:22.914,9.96846,1.26864,0,0.000885,0,0
0:0:23.211,9.55923,1.22037,0,0.000885,0,0
0:0:23.509,9.5014,1.20658,0,0.000885,0,0
0:0:23.816,11.085,1.41343,0,0.000885,0,0
0:0:24.113,11.2629,1.43411,0,0.000885,0,0
0:0:24.414,12.2593,1.55822,0,0.000885,0,0
0:0:24.705,12.9621,1.64785,0,0.000885,0,0
0:0:25.005,12.375,1.5789,0,0.000885,0,0
0:0:25.304,13.8429,1.76506,0,0.000885,0,0
0:0:25.601,14.7814,1.88227,0,0.000885,0,0
0:0:25.901,15.3686,1.95811,0,0.000885,0,0
0:0:26.205,16.2449,2.06843,0,0.000885,0,0
0:0:26.511,16.6586,2.12359,0,0.000885,0,0
0:0:26.814,17.5349,2.2339,0,0.000885,0,0
0:0:27.115,17.5972,2.2408,0,0.000885,0,0
0:0:27.419,18.3,2.33043,0,0.000885,0,0
0:0:27.715,18.8249,2.39938,0,0.000885,0,0
0:0:28.017,19.6478,2.5028,0,0.000885,0,0
0:0:28.312,20.5864,2.62001,0,0.000885,0,0
0:0:28.611,20.8221,2.64759,0,0.000885,0,0
0:0:28.910,21.347,2.71653,0,0.000885,0,0
0:0:29.215,22.2856,2.84064,0,0.000885,0,0
0:0:29.518,23.4599,2.98543,0,0.000885,0,0
0:0:29.813,23.9893,3.05438,0,0.000885,0,0
0:0:30.115,24.5141,3.12333,0,0.000885,0,0
0:0:30.411,25.3949,3.23364,0,0.000885,0,0
0:0:30.710,25.8664,3.29569,0,0.000885,0,0
0:0:31.019,26.9206,3.42669,0,0.000885,0,0
0:0:31.323,27.272,3.47496,0,0.000885,0,0
0:0:31.628,27.6813,3.52322,0,0.000885,0,0
0:0:31.930,28.2684,3.59906,0,0.000885,0,0
0:0:32.233,28.8556,3.67491,0,0.000885,0,0
0:0:32.536,29.1492,3.70938,0,0.000885,0,0
0:0:32.833,29.5006,3.75764,0,0.000885,0,0
0:0:33.134,29.9098,3.80591,0,0.000885,0,0
0:0:33.430,30.2034,3.84727,0,0.000885,0,0
0:0:33.732,30.7906,3.92312,0,0.000885,0,0
0:0:34.027,31.5557,4.01964,0,0.000885,0,0
0:0:34.326,32.2585,4.10928,0,0.000885,0,0
0:0:34.627,32.6677,4.15754,0,0.000885,0,0
0:0:34.923,33.6063,4.28164,0,0.000885,0,0
0:0:35.224,34.4292,4.38507,0,0.000885,0,0
0:0:35.520,34.9541,4.45401,0,0.000885,0,0
0:0:35.822,35.1321,4.4747,0,0.000885,0,0
0:0:36.128,35.777,4.55743,0,0.000885,0,0
0:0:36.431,36.5377,4.65396,0,0.000885,0,0
0:0:36.734,36.8891,4.69533,0,0.000885,0,0
0:0:37.036,37.6542,4.79186,0,0.000885,0,0
0:0:37.337,38.4148,4.88838,0,0.000885,0,0
0:0:37.634,38.6506,4.92286,0,0.000885,0,0
0:0:37.932,39.2378,4.9987,0,0.000885,0,0
0:0:38.232,40.1185,5.10902,0,0.000885,0,0
0:0:38.528,40.5856,5.16417,0,0.000885,0,0
0:0:38.831,41.6398,5.30207,0,0.000885,0,0
0:0:39.127,41.6398,5.30207,0,0.000885,0,0
0:0:39.428,42.5784,5.41928,0,0.000885,0,0
0:0:39.725,43.2856,5.50891,0,0.000885,0,0
0:0:40.023,43.6371,5.55717,0,0.000885,0,0
0:0:40.323,44.3399,5.64681,0,0.000885,0,0
0:0:40.618,44.3977,5.6537,0,0.000885,0,0
0:0:40.919,44.8692,5.71575,0,0.000885,0,0
0:0:41.224,45.6877,5.81918,0,0.000885,0,0
0:0:41.527,46.1014,5.86744,0,0.000885,0,0
0:0:41.830,47.4492,6.03981,0,0.000885,0,0
0:0:42.132,47.6227,6.06049,0,0.000885,0,0
0:0:42.435,48.2677,6.14323,0,0.000885,0,0
0:0:42.731,48.8548,6.21907,0,0.000885,0,0
0:0:43.031,49.5576,6.3087,0,0.000885,0,0
0:0:43.330,49.9713,6.36386,0,0.000885,0,0
0:0:43.627,50.4384,6.41902,0,0.000885,0,0
0:0:43.926,50.7898,6.46728,0,0.000885,0,0
0:0:44.223,51.7284,6.58449,0,0.000885,0,0
0:0:44.524,52.4935,6.68102,0,0.000885,0,0
0:0:44.820,52.6669,6.7086,0,0.000885,0,0
0:0:45.119,53.7834,6.84649,0,0.000885,0,0
0:0:45.419,54.0192,6.88097,0,0.000885,0,0
0:0:45.716,54.6019,6.94992,0,0.000885,0,0
0:0:46.017,55.367,7.04644,0,0.000885,0,0
0:0:46.322,56.3056,7.17055,0,0.000885,0,0
0:0:46.625,56.5992,7.20502,0,0.000885,0,0
0:0:46.928,57.2442,7.28776,0,0.000885,0,0
0:0:47.230,58.0048,7.38429,0,0.000885,0,0
0:0:47.533,58.5341,7.45323,0,0.000885,0,0
0:0:47.829,58.9434,7.50839,0,0.000885,0,0
0:0:48.131,59.5884,7.58423,0,0.000885,0,0
0:0:48.426,59.9976,7.63939,0,0.000885,0,0
0:0:48.728,61.1719,7.79108,0,0.000885,0,0
0:0:49.025,61.3499,7.81176,0,0.000885,0,0
0:0:49.321,62.2262,7.92208,0,0.000885,0,0
0:0:49.623,62.5198,7.96344,0,0.000885,0,0
0:0:49.919,63.227,8.05308,0,0.000885,0,0
0:0:50.220,64.1656,8.17029,0,0.000885,0,0
0:0:50.519,64.8106,8.25302,0,0.000885,0,0
0:0:50.816,65.1042,8.2875,0,0.000885,0,0
0:0:51.116,65.807,8.37713,0,0.000885,0,0
0:0:51.422,66.2162,8.43229,0,0.000885,0,0
0:0:51.724,66.2162,8.43229,0,0.000885,0,0
0:0:52.027,66.8612,8.51503,0,0.000885,0,0
0:0:52.327,67.3906,8.57708,0,0.000885,0,0
0:0:52.630,68.6227,8.73566,0,0.000885,0,0
0:0:52.927,68.854,8.77013,0,0.000885,0,0
0:0:53.229,69.2054,8.8115,0,0.000885,0,0
0:0:53.524,70.0862,8.92182,0,0.000885,0,0
0:0:53.826,70.6155,8.99076,0,0.000885,0,0
0:0:54.124,71.5541,9.10797,0,0.000885,0,0
0:0:54.421,72.3726,9.21829,0,0.000885,0,0
0:0:54.721,72.6083,9.24587,0,0.000885,0,0
0:0:55.016,72.9019,9.28034,0,0.000885,0,0
0:0:55.319,73.5469,9.36308,0,0.000885,0,0
0:0:55.614,74.6056,9.50098,0,0.000885,0,0
0:0:55.917,74.8947,9.53545,0,0.000885,0,0
0:0:56.222,75.3662,9.5975,0,0.000885,0,0
0:0:56.525,75.8333,9.65266,0,0.000885,0,0
0:0:56.828,76.3048,9.71471,0,0.000885,0,0
0:0:57.129,77.1233,9.81813,0,0.000885,0,0
0:0:57.431,77.8305,9.90777,0,0.000885,0,0
0:0:57.728,78.1241,9.94913,0,0.000885,0,0
0:0:58.024,78.8848,10.0457,0,0.000885,0,0
0:0:58.327,79.8233,10.1629,0,0.000885,0,0
0:0:58.621,80.1747,10.2111,0,0.000885,0,0
0:0:58.923,80.4683,10.2456,0,0.000885,0,0
0:0:59.221,80.9977,10.3146,0,0.000885,0,0
0:0:59.520,81.8161,10.418,0,0.000885,0,0
0:0:59.818,82.7547,10.5352,0,0.000885,0,0
0:1:0.113,83.3997,10.6179,0,0.000885,0,0
0:1:0.416,83.9869,10.6938,0,0.000885,0,0
0:1:0.707,84.2226,10.7213,0,0.000885,0,0
0:1:1.014,84.574,10.7696,0,0.000885,0,0
0:1:1.317,84.9254,10.811,0,0.000885,0,0
0:1:1.621,86.0998,10.9627,0,0.000885,0,0
0:1:1.924,86.509,11.0178,0,0.000885,0,0
0:1:2.226,87.154,11.0937,0,0.000885,0,0
0:1:2.528,87.7412,11.1695,0,0.000885,0,0
0:1:2.825,88.2705,11.2385,0,0.000885,0,0
0:1:3.122,89.3826,11.3832,0,0.000885,0,0
0:1:3.421,89.5605,11.4039,0,0.000885,0,0
0:1:3.718,89.9697,11.4522,0,0.000885,0,0
0:1:4.021,90.9083,11.5763,0,0.000885,0,0
0:1:4.315,91.5533,11.659,0,0.000885,0,0
0:1:4.615,91.5533,11.659,0,0.000885,0,0
0:1:4.914,92.5497,11.7831,0,0.000885,0,0
0:1:5.219,92.7855,11.8107,0,0.000885,0,0
0:1:5.520,93.8397,11.9486,0,0.000885,0,0
0:1:5.815,94.6626,12.052,0,0.000885,0,0
0:1:6.118,95.5434,12.1624,0,0.000885,0,0
0:1:6.422,95.3076,12.1348,0,0.000885,0,0
0:1:6.726,96.1883,12.2451,0,0.000885,0,0
0:1:7.028,96.4819,12.2865,0,0.000885,0,0
0:1:7.331,97.3582,12.3968,0,0.000885,0,0
0:1:7.632,97.4783,12.4106,0,0.000885,0,0
0:1:7.930,98.1811,12.5002,0,0.000885,0,0
0:1:8.229,98.4169,12.5278,0,0.000885,0,0
0:1:8.527,99.0619,12.6105,0,0.000885,0,0
0:1:8.825,100.41,12.7829,0,0.000885,0,0
0:1:9.126,100.703,12.8242,0,0.000885,0,0
0:1:9.420,101.464,12.9208,0,0.000885,0,0
0:1:9.723,102.229,13.0173,0,0.000885,0,0
0:1:10.020,102.874,13.1,0,0.000885,0,0
0:1:10.317,102.932,13.1069,0,0.000885,0,0
0:1:10.617,103.692,13.2035,0,0.000885,0,0
0:1:10.918,104.28,13.2793,0,0.000885,0,0
0:1:11.224,104.809,13.3414,0,0.000885,0,0
0:1:11.526,105.103,13.3827,0,0.000885,0,0
0:1:11.828,106.157,13.5137,0,0.000885,0,0
0:1:12.131,106.686,13.5827,0,0.000885,0,0
0:1:12.429,107.505,13.6861,0,0.000885,0,0
0:1:12.730,107.918,13.7413,0,0.000885,0,0
0:1:13.026,108.857,13.8585,0,0.000885,0,0
0:1:13.328,109.208,13.9067,0,0.000885,0,0
0:1:13.622,108.857,13.8585,0,0.000885,0,0
0:1:13.922,110.32,14.0446,0,0.000885,0,0
0:1:14.222,110.556,14.0791,0,0.000885,0,0
0:1:14.517,111.201,14.1618,0,0.000885,0,0
0:1:14.819,112.082,14.2721,0,0.000885,0,0
0:1:15.111,112.727,14.3549,0,0.000885,0,0
0:1:15.416,113.256,14.4169,0,0.000885,0,0
0:1:15.722,113.781,14.4859,0,0.000885,0,0
0:1:16.025,114.195,14.541,0,0.000885,0,0
0:1:16.329,114.955,14.6376,0,0.000885,0,0
0:1:16.632,115.307,14.6789,0,0.000885,0,0
0:1:16.934,116.067,14.7755,0,0.000885,0,0
0:1:17.237,116.655,14.8513,0,0.000885,0,0
0:1:17.536,117.184,14.9203,0,0.000885,0,0
0:1:17.836,117.478,14.9547,0,0.000885,0,0
0:1:18.131,118.358,15.0719,0,0.000885,0,0
0:1:18.433,118.945,15.1409,0,0.000885,0,0
0:1:18.728,119.648,15.2305,0,0.000885,0,0
0:1:19.029,120.351,15.3202,0,0.000885,0,0
0:1:19.326,121.29,15.4443,0,0.000885,0,0
0:1:19.624,121.232,15.4374,0,0.000885,0,0
0:1:19.924,121.877,15.5201,0,0.000885,0,0
0:1:20.219,122.873,15.6442,0,0.000885,0,0
0:1:20.521,122.931,15.6511,0,0.000885,0,0
0:1:20.817,123.87,15.7683,0,0.000885,0,0
0:1:21.120,124.63,15.8717,0,0.000885,0,0
0:1:21.424,124.866,15.8993,0,0.000885,0,0
0:1:21.727,125.453,15.9752,0,0.000885,0,0
0:1:22.030,125.925,16.0303,0,0.000885,0,0
0:1:22.331,126.214,16.0717,0,0.000885,0,0
0:1:22.633,126.921,16.1613,0,0.000885,0,0
0:1:22.930,128.211,16.3268,0,0.000885,0,0
0:1:23.228,128.62,16.375,0,0.000885,0,0
0:1:23.527,128.914,16.4164,0,0.000885,0,0
0:1:23.823,129.795,16.5267,0,0.000885,0,0
0:1:24.126,129.968,16.5474,0,0.000885,0,0
0:1:24.421,130.733,16.6439,0,0.000885,0,0
0:1:24.722,131.436,16.7336,0,0.000885,0,0
0:1:25.020,132.317,16.8439,0,0.000885,0,0
0:1:25.316,132.49,16.8715,0,0.000885,0,0
0:1:25.618,133.193,16.9611,0,0.000885,0,0
0:1:25.912,133.843,17.0438,0,0.000885,0,0
0:1:26.217,134.252,17.0921,0,0.000885,0,0
0:1:26.523,134.897,17.1748,0,0.000885,0,0
0:1:26.827,135.364,17.2369,0,0.000885,0,0
0:1:27.129,136.596,17.3955,0,0.000885,0,0
0:1:27.432,136.947,17.4368,0,0.000885,0,0
0:1:27.734,136.716,17.4093,0,0.000885,0,0
0:1:28.030,137.712,17.5334,0,0.000885,0,0
0:1:28.331,138.415,17.623,0,0.000885,0,0
0:1:28.628,139.118,17.7126,0,0.000885,0,0
0:1:28.926,139.883,17.8092,0,0.000885,0,0
0:1:29.227,140.408,17.8781,0,0.000885,0,0
0:1:29.521,140.292,17.8643,0,0.000885,0,0
0:1:29.822,140.702,17.9126,0,0.000885,0,0
0:1:30.119,142.285,18.1194,0,0.000885,0,0
0:1:30.419,142.872,18.1884,0,0.000885,0,0
0:1:30.717,143.344,18.2504,0,0.000885,0,0
0:1:31.023,143.517,18.2711,0,0.000885,0,0
0:1:31.327,144.34,18.3745,0,0.000885,0,0
0:1:31.630,145.217,18.4917,0,0.000885,0,0
0:1:31.932,145.452,18.5193,0,0.000885,0,0
0:1:32.235,145.862,18.5745,0,0.000885,0,0
0:1:32.533,147.272,18.7537,0,0.000885,0,0
0:1:32.834,147.565,18.7882,0,0.000885,0,0
0:1:33.128,148.268,18.8778,0,0.000885,0,0
0:1:33.431,148.913,18.9606,0,0.000885,0,0
0:1:33.726,149.029,18.9744,0,0.000885,0,0
0:1:34.023,149.794,19.0709,0,0.000885,0,0
0:1:34.322,150.203,19.1261,0,0.000885,0,0
0:1:34.619,150.612,19.1743,0,0.000885,0,0
0:1:34.922,151.551,19.2984,0,0.000885,0,0
0:1:35.216,151.671,19.3122,0,0.000885,0,0
0:1:35.518,152.903,19.4708,0,0.000885,0,0
0:1:35.812,153.37,19.526,0,0.000885,0,0
0:1:36.117,153.37,19.526,0,0.000885,0,0
0:1:36.422,154.073,19.6156,0,0.000885,0,0
0:1:36.725,154.718,19.6983,0,0.000885,0,0
0:1:37.028,155.012,19.7397,0,0.000885,0,0
0:1:37.330,156.012,19.8638,0,0.000885,0,0
0:1:37.629,156.537,19.9327,0,0.000885,0,0
0:1:37.929,157.596,20.0637,0,0.000885,0,0
0:1:38.224,158.121,20.1327,0,0.000885,0,0
0:1:38.527,158.53,20.1878,0,0.000885,0,0
0:1:38.823,159.295,20.2844,0,0.000885,0,0
0:1:39.122,159.589,20.3188,0,0.000885,0,0
0:1:39.420,160.056,20.3809,0,0.000885,0,0
0:1:39.718,160.821,20.4774,0,0.000885,0,0
0:1:40.018,161.76,20.5946,0,0.000885,0,0
0:1:40.310,161.76,20.5946,0,0.000885,0,0
0:1:40.613,162.227,20.6567,0,0.000885,0,0
0:1:40.909,162.756,20.7256,0,0.000885,0,0
0:1:41.211,163.81,20.8566,0,0.000885,0,0
0:1:41.520,164.455,20.9394,0,0.000885,0,0
0:1:41.822,164.691,20.967,0,0.000885,0,0
0:1:42.125,165.745,21.1049,0,0.000885,0,0
0:1:42.426,166.275,21.1738,0,0.000885,0,0
0:1:42.727,166.448,21.1945,0,0.000885,0,0
0:1:43.026,167.622,21.3393,0,0.000885,0,0
0:1:43.323,167.565,21.3324,0,0.000885,0,0
0:1:43.623,168.267,21.422,0,0.000885,0,0
0:1:43.918,169.326,21.5599,0,0.000885,0,0
0:1:44.220,170.029,21.6495,0,0.000885,0,0
0:1:44.512,169.909,21.6357,0,0.000885,0,0
0:1:44.812,171.025,21.7736,0,0.000885,0,0
0:1:45.111,171.906,21.8909,0,0.000885,0,0
0:1:45.420,171.555,21.8426,0,0.000885,0,0
0:1:45.720,173.018,22.0287,0,0.000885,0,0
0:1:46.025,172.845,22.0081,0,0.000885,0,0
0:1:46.328,174.014,22.1597,0,0.000885,0,0
0:1:46.628,173.841,22.1322,0,0.000885,0,0
0:1:46.932,175.54,22.3528,0,0.000885,0,0
0:1:47.235,175.54,22.3528,0,0.000885,0,0
0:1:47.529,175.718,22.3735,0,0.000885,0,0
0:1:47.831,176.599,22.4838,0,0.000885,0,0
0:1:48.128,176.772,22.5045,0,0.000885,0,0
0:1:48.427,177.889,22.6493,0,0.000885,0,0
0:1:48.726,178.534,22.732,0,0.000885,0,0
0:1:49.022,178.943,22.7803,0,0.000885,0,0
0:1:49.324,180.175,22.9389,0,0.000885,0,0
0:1:49.618,180.233,22.9458,0,0.000885,0,0
0:1:49.918,180.291,22.9526,0,0.000885,0,0
0:1:50.217,181.701,23.1319,0,0.000885,0,0
0:1:50.523,181.874,23.1595,0,0.000885,0,0
0:1:50.824,182.755,23.2698,0,0.000885,0,0
0:1:51.129,183.222,23.3319,0,0.000885,0,0
0:1:51.432,183.636,23.3801,0,0.000885,0,0
0:1:51.734,184.454,23.4835,0,0.000885,0,0
0:1:52.036,185.042,23.5594,0,0.000885,0,0
0:1:52.338,185.277,23.587,0,0.000885,0,0
0:1:52.636,186.861,23.7938,0,0.000885,0,0
0:1:52.937,186.977,23.8076,0,0.000885,0,0
0:1:53.233,187.799,23.911,0,0.000885,0,0
0:1:53.531,187.448,23.8696,0,0.000885,0,0
0:1:53.831,188.796,24.0351,0,0.000885,0,0
0:1:54.127,189.032,24.0696,0,0.000885,0,0
0:1:54.429,189.792,24.1661,0,0.000885,0,0
0:1:54.725,190.086,24.2006,0,0.000885,0,0
0:1:55.024,191.202,24.3454,0,0.000885,0,0
0:1:55.322,191.434,24.373,0,0.000885,0,0
0:1:55.619,191.847,24.4281,0,0.000885,0,0
0:1:55.920,192.724,24.5384,0,0.000885,0,0
0:1:56.223,193.547,24.6419,0,0.000885,0,0
0:1:56.525,193.956,24.697,0,0.000885,0,0
0:1:56.825,194.014,24.7039,0,0.000885,0,0
0:1:57.126,194.721,24.7935,0,0.000885,0,0
0:1:57.426,195.366,24.8763,0,0.000885,0,0
0:1:57.721,196.949,25.0762,0,0.000885,0,0
0:1:58.019,196.772,25.0555,0,0.000885,0,0
0:1:58.310,197.768,25.1797,0,0.000885,0,0
0:1:58.609,198.119,25.2279,0,0.000885,0,0
0:1:58.905,198.649,25.29,0,0.000885,0,0
0:1:59.200,198.884,25.3244,0,0.000885,0,0
0:1:59.499,200.174,25.4899,0,0.000885,0,0
0:1:59.813,199.996,25.4623,0,0.000885,0,0
0:2:0.121,200.704,25.552,0,0.000885,0,0
0:2:0.426,201.994,25.7174,0,0.000885,0,0
0:2:0.721,201.874,25.7037,0,0.000885,0,0
0:2:1.021,202.99,25.8484,0,0.000885,0,0
0:2:1.322,202.99,25.8484,0,0.000885,0,0
0:2:1.623,203.226,25.876,0,0.000885,0,0
0:2:1.925,204.574,26.0484,0,0.000885,0,0
0:2:2.224,204.454,26.0346,0,0.000885,0,0
0:2:2.526,206.037,26.2346,0,0.000885,0,0
0:2:2.816,205.392,26.1518,0,0.000885,0,0
0:2:3.119,206.976,26.3518,0,0.000885,0,0
0:2:3.422,206.918,26.3449,0,0.000885,0,0
0:2:3.715,207.977,26.4828,0,0.000885,0,0
0:2:4.013,207.856,26.4621,0,0.000885,0,0
0:2:4.307,209.44,26.6689,0,0.000885,0,0
0:2:4.607,209.791,26.7103,0,0.000885,0,0
0:2:4.901,210.436,26.793,0,0.000885,0,0
0:2:5.207,210.966,26.862,0,0.000885,0,0
0:2:5.505,211.962,26.9861,0,0.000885,0,0
0:2:5.819,212.665,27.0757,0,0.000885,0,0
0:2:6.119,212.549,27.0619,0,0.000885,0,0
0:2:6.421,213.137,27.1378,0,0.000885,0,0
0:2:6.722,213.955,27.2412,0,0.000885,0,0
0:2:7.022,213.488,27.1791,0,0.000885,0,0
0:2:7.322,215.014,27.3791,0,0.000885,0,0
0:2:7.623,215.717,27.4687,0,0.000885,0,0
0:2:7.915,216.184,27.5239,0,0.000885,0,0
0:2:8.213,217.122,27.648,0,0.000885,0,0
0:2:8.511,216.539,27.5721,0,0.000885,0,0
0:2:8.824,217.887,27.7445,0,0.000885,0,0
0:2:9.125,218.474,27.8135,0,0.000885,0,0
0:2:9.428,218.941,27.8755,0,0.000885,0,0
0:2:9.725,219.822,27.9858,0,0.000885,0,0
0:2:10.021,219.586,27.9582,0,0.000885,0,0
0:2:10.315,221.112,28.1513,0,0.000885,0,0
0:2:10.614,221.17,28.1582,0,0.000885,0,0
0:2:10.915,222.46,28.3237,0,0.000885,0,0
0:2:11.215,221.815,28.2409,0,0.000885,0,0
0:2:11.520,223.456,28.4547,0,0.000885,0,0
0:2:11.820,223.812,28.496,0,0.000885,0,0
0:2:12.121,224.337,28.565,0,0.000885,0,0
0:2:12.420,224.631,28.5995,0,0.000885,0,0
0:2:12.722,225.454,28.7029,0,0.000885,0,0
0:2:13.026,226.041,28.7787,0,0.000885,0,0
0:2:13.322,226.801,28.8752,0,0.000885,0,0
0:2:13.621,227.446,28.958,0,0.000885,0,0
0:2:13.923,228.385,29.0821,0,0.000885,0,0
0:2:14.222,229.559,29.2269,0,0.000885,0,0
0:2:14.514,228.852,29.1372,0,0.000885,0,0
0:2:14.812,230.436,29.3372,0,0.000885,0,0
0:2:15.117,230.792,29.3855,0,0.000885,0,0
0:2:15.410,229.969,29.282,0,0.000885,0,0
0:2:15.710,231.143,29.4268,0,0.000885,0,0
0:2:16.012,232.375,29.5854,0,0.000885,0,0
0:2:16.314,232.669,29.6268,0,0.000885,0,0
0:2:16.615,233.314,29.7095,0,0.000885,0,0
0:2:16.915,233.545,29.7371,0,0.000885,0,0
0:2:17.215,234.604,29.8681,0,0.000885,0,0
0:2:17.509,234.541,29.8612,0,0.000885,0,0
0:2:17.808,235.6,29.9991,0,0.000885,0,0
0:2:18.111,235.364,29.9646,0,0.000885,0,0
0:2:18.407,236.77,30.1439,0,0.000885,0,0
0:2:18.705,237.651,30.2611,0,0.000885,0,0
0:2:19.009,237.829,30.2818,0,0.000885,0,0
0:2:19.307,239.061,30.4404,0,0.000885,0,0
0:2:19.601,238.883,30.4128,0,0.000885,0,0
0:2:19.907,239.648,30.5093,0,0.000885,0,0
0:2:20.215,240.876,30.6679,0,0.000885,0,0
0:2:20.516,240.351,30.5989,0,0.000885,0,0
0:2:20.817,241.463,30.7437,0,0.000885,0,0
0:2:21.123,242.637,30.8954,0,0.000885,0,0
0:2:21.422,242.286,30.8471,0,0.000885,0,0
0:2:21.724,243.754,31.0333,0,0.000885,0,0
0:2:22.021,243.282,30.9781,0,0.000885,0,0
0:2:22.322,243.691,31.0264,0,0.000885,0,0
0:2:22.624,245.217,31.2195,0,0.000885,0,0
0:2:22.921,244.866,31.1781,0,0.000885,0,0
0:2:23.217,246.334,31.3643,0,0.000885,0,0
0:2:23.524,246.565,31.3918,0,0.000885,0,0
0:2:23.822,247.21,31.4746,0,0.000885,0,0
0:2:24.113,248.562,31.6469,0,0.000885,0,0
0:2:24.413,247.975,31.5711,0,0.000885,0,0
0:2:24.707,249.616,31.7848,0,0.000885,0,0
0:2:25.012,249.265,31.7366,0,0.000885,0,0
0:2:25.311,249.968,31.8262,0,0.000885,0,0
0:2:25.626,251.378,32.0055,0,0.000885,0,0
0:2:25.925,251.494,32.0193,0,0.000885,0,0
0:2:26.228,252.196,32.1089,0,0.000885,0,0
0:2:26.529,252.841,32.1916,0,0.000885,0,0
0:2:26.829,253.135,32.233,0,0.000885,0,0
0:2:27.129,253.486,32.2744,0,0.000885,0,0
0:2:27.430,254.425,32.3916,0,0.000885,0,0
0:2:27.722,254.131,32.3571,0,0.000885,0,0
0:2:28.022,255.541,32.5364,0,0.000885,0,0
0:2:28.315,256.774,32.6949,0,0.000885,0,0
0:2:28.612,256.418,32.6467,0,0.000885,0,0
0:2:28.909,257.534,32.7915,0,0.000885,0,0
0:2:29.221,258.531,32.9156,0,0.000885,0,0
0:2:29.522,257.943,32.8397,0,0.000885,0,0
0:2:29.825,259.296,33.0121,0,0.000885,0,0
0:2:30.123,259.763,33.0742,0,0.000885,0,0
0:2:30.415,260.056,33.1086,0,0.000885,0,0
0:2:30.724,261.231,33.2603,0,0.000885,0,0
0:2:31.021,262.227,33.3844,0,0.000885,0,0
0:2:31.324,261.818,33.3362,0,0.000885,0,0
0:2:31.624,262.814,33.4603,0,0.000885,0,0
0:2:31.926,263.401,33.5361,0,0.000885,0,0
0:2:32.225,264.513,33.6809,0,0.000885,0,0
0:2:32.526,263.984,33.6119,0,0.000885,0,0
0:2:32.829,264.691,33.7016,0,0.000885,0,0
0:2:33.128,265.803,33.8464,0,0.000885,0,0
0:2:33.421,266.333,33.9084,0,0.000885,0,0
0:2:33.719,266.097,33.8808,0,0.000885,0,0
0:2:34.025,267.503,34.0601,0,0.000885,0,0
0:2:34.317,267.271,34.0325,0,0.000885,0,0
0:2:34.616,268.561,34.1911,0,0.000885,0,0
0:2:34.908,269.442,34.3083,0,0.000885,0,0
0:2:35.208,269.616,34.329,0,0.000885,0,0
0:2:35.512,270.554,34.4462,0,0.000885,0,0
0:2:35.811,270.612,34.4531,0,0.000885,0,0
0:2:36.115,272.022,34.6324,0,0.000885,0,0
0:2:36.416,271.786,34.6048,0,0.000885,0,0
0:2:36.716,273.548,34.8323,0,0.000885,0,0
0:2:37.014,273.134,34.7772,0,0.000885,0,0
0:2:37.314,274.073,34.8944,0,0.000885,0,0
0:2:37.618,274.718,34.9771,0,0.000885,0,0
0:2:37.915,275.483,35.0736,0,0.000885,0,0
0:2:38.213,275.011,35.0185,0,0.000885,0,0
0:2:38.514,276.301,35.1771,0,0.000885,0,0
0:2:38.814,276.595,35.2184,0,0.000885,0,0
0:2:39.117,277.066,35.2736,0,0.000885,0,0
0:2:39.415,278.063,35.4046,0,0.000885,0,0
0:2:39.711,278.708,35.4873,0,0.000885,0,0
0:2:40.006,278.299,35.4322,0,0.000885,0,0
0:2:40.306,279.646,35.6045,0,0.000885,0,0
0:2:40.618,280.585,35.7217,0,0.000885,0,0
0:2:40.919,280.643,35.7355,0,0.000885,0,0
0:2:41.223,281.639,35.8596,0,0.000885,0,0
0:2:41.524,281.639,35.8596,0,0.000885,0,0
0:2:41.825,283.401,36.0803,0,0.000885,0,0
0:2:42.125,283.868,36.1423,0,0.000885,0,0
0:2:42.424,283.574,36.1078,0,0.000885,0,0
0:2:42.715,284.922,36.2802,0,0.000885,0,0
0:2:43.012,284.513,36.2251,0,0.000885,0,0
0:2:43.317,285.509,36.3492,0,0.000885,0,0
0:2:43.612,286.919,36.5284,0,0.000885,0,0
0:2:43.911,287.386,36.5905,0,0.000885,0,0
0:2:44.205,286.626,36.494,0,0.000885,0,0
0:2:44.504,287.622,36.6181,0,0.000885,0,0
0:2:44.809,288.97,36.7904,0,0.000885,0,0
0:2:45.103,289.09,36.8111,0,0.000885,0,0
0:2:45.402,289.615,36.8732,0,0.000885,0,0
0:2:45.714,290.673,37.0111,0,0.000885,0,0
0:2:46.015,291.67,37.1352,0,0.000885,0,0
0:2:46.317,291.083,37.0593,0,0.000885,0,0
0:2:46.618,291.786,37.149,0,0.000885,0,0
0:2:46.918,292.84,37.2868,0,0.000885,0,0
0:2:47.218,293.427,37.3627,0,0.000885,0,0
0:2:47.517,293.196,37.3282,0,0.000885,0,0
0:2:47.824,294.659,37.5144,0,0.000885,0,0
0:2:48.120,294.717,37.5282,0,0.000885,0,0
0:2:48.426,295.131,37.5764,0,0.000885,0,0
0:2:48.721,296.536,37.7557,0,0.000885,0,0
0:2:49.017,296.478,37.7488,0,0.000885,0,0
0:2:49.310,297.417,37.866,0,0.000885,0,0
0:2:49.610,298.178,37.9625,0,0.000885,0,0
0:2:49.926,298.765,38.0384,0,0.000885,0,0
0:2:50.224,299.468,38.128,0,0.000885,0,0
0:2:50.528,300.175,38.2176,0,0.000885,0,0
0:2:50.821,300.175,38.2176,0,0.000885,0,0
0:2:51.120,301.638,38.4038,0,0.000885,0,0
0:2:51.425,301.874,38.4383,0,0.000885,0,0
0:2:51.726,302.871,38.5624,0,0.000885,0,0
0:2:52.027,302.755,38.5486,0,0.000885,0,0
0:2:52.327,302.813,38.5555,0,0.000885,0,0
0:2:52.627,303.164,38.5969,0,0.000885,0,0
0:2:52.919,304.574,38.7761,0,0.000885,0,0
0:2:53.218,304.574,38.7761,0,0.000885,0,0
0:2:53.521,305.802,38.9347,0,0.000885,0,0
0:2:53.818,306.331,39.0036,0,0.000885,0,0
0:2:54.117,306.74,39.0588,0,0.000885,0,0
0:2:54.419,307.679,39.176,0,0.000885,0,0
0:2:54.718,308.324,39.2587,0,0.000885,0,0
0:2:55.011,308.675,39.3001,0,0.000885,0,0
0:2:55.310,309.614,39.4242,0,0.000885,0,0
0:2:55.615,309.908,39.4587,0,0.000885,0,0
0:2:55.916,310.615,39.5483,0,0.000885,0,0
0:2:56.218,311.669,39.6862,0,0.000885,0,0
0:2:56.518,310.966,39.5966,0,0.000885,0,0
0:2:56.818,311.785,39.7,0,0.000885,0,0
0:2:57.118,313.488,39.9137,0,0.000885,0,0
0:2:57.417,313.368,39.9,0,0.000885,0,0
0:2:57.724,314.249,40.0103,0,0.000885,0,0
0:2:58.027,314.836,40.0861,0,0.000885,0,0
0:2:58.327,315.539,40.1758,0,0.000885,0,0
0:2:58.617,315.072,40.1137,0,0.000885,0,0
0:2:58.916,316.184,40.2585,0,0.000885,0,0
0:2:59.210,316.887,40.3481,0,0.000885,0,0
0:2:59.507,316.656,40.3205,0,0.000885,0,0
0:2:59.805,318.003,40.486,0,0.000885,0,0
0:3:0.115,319.529,40.686,0,0.000885,0,0
0:3:0.416,318.533,40.555,0,0.000885,0,0
0:3:0.731,319.881,40.7273,0,0.000885,0,0
0:3:1.032,320.935,40.8652,0,0.000885,0,0
0:3:1.334,320.819,40.8445,0,0.000885,0,0
0:3:1.637,320.877,40.8583,0,0.000885,0,0
0:3:1.935,322.283,41.0376,0,0.000885,0,0
0:3:2.236,323.105,41.141,0,0.000885,0,0
0:3:2.535,322.638,41.079,0,0.000885,0,0
0:3:2.831,324.16,41.272,0,0.000885,0,0
0:3:3.126,324.28,41.2858,0,0.000885,0,0
0:3:3.421,324.867,41.3616,0,0.000885,0,0
0:3:3.714,326.157,41.5271,0,0.000885,0,0
0:3:4.013,326.566,41.5823,0,0.000885,0,0
0:3:4.328,326.215,41.534,0,0.000885,0,0
0:3:4.626,327.856,41.7409,0,0.000885,0,0
0:3:4.920,328.15,41.7822,0,0.000885,0,0
0:3:5.225,328.443,41.8167,0,0.000885,0,0
0:3:5.522,329.262,41.9201,0,0.000885,0,0
0:3:5.827,329.907,42.0029,0,0.000885,0,0
0:3:6.127,329.907,42.0029,0,0.000885,0,0
0:3:6.432,331.259,42.1752,0,0.000885,0,0
0:3:6.732,331.962,42.2649,0,0.000885,0,0
0:3:7.033,331.904,42.258,0,0.000885,0,0
0:3:7.332,333.43,42.451,0,0.000885,0,0
0:3:7.631,332.785,42.3683,0,0.000885,0,0
0:3:7.925,333.955,42.52,0,0.000885,0,0
0:3:8.221,334.835,42.6303,0,0.000885,0,0
0:3:8.528,335.013,42.6579,0,0.000885,0,0
0:3:8.822,336.361,42.8233,0,0.000885,0,0
0:3:9.120,335.89,42.7682,0,0.000885,0,0
0:3:9.422,336.713,42.8716,0,0.000885,0,0
0:3:9.732,337.064,42.913,0,0.000885,0,0
0:3:10.029,338.412,43.0853,0,0.000885,0,0
0:3:10.333,337.767,43.0026,0,0.000885,0,0
0:3:10.631,338.999,43.1612,0,0.000885,0,0
0:3:10.935,339.702,43.2508,0,0.000885,0,0
0:3:11.235,340.115,43.306,0,0.000885,0,0
0:3:11.536,341.521,43.4852,0,0.000885,0,0
0:3:11.836,341.579,43.4921,0,0.000885,0,0
0:3:12.137,342.46,43.6024,0,0.000885,0,0
0:3:12.431,342.989,43.6714,0,0.000885,0,0
0:3:12.730,343.163,43.6921,0,0.000885,0,0
0:3:13.022,344.573,43.8713,0,0.000885,0,0
0:3:13.321,345.275,43.961,0,0.000885,0,0
0:3:13.627,344.746,43.892,0,0.000885,0,0
0:3:13.920,346.45,44.1127,0,0.000885,0,0
0:3:14.229,346.743,44.1471,0,0.000885,0,0
0:3:14.531,346.392,44.1058,0,0.000885,0,0
0:3:14.830,346.681,44.1402,0,0.000885,0,0
0:3:15.133,347.975,44.3057,0,0.000885,0,0
0:3:15.431,348.265,44.3402,0,0.000885,0,0
0:3:15.728,348.794,44.4091,0,0.000885,0,0
0:3:16.028,350.142,44.5815,0,0.000885,0,0
0:3:16.331,350.142,44.5815,0,0.000885,0,0
0:3:16.632,351.374,44.7401,0,0.000885,0,0
0:3:16.930,351.023,44.6918,0,0.000885,0,0
0:3:17.230,352.726,44.9124,0,0.000885,0,0
0:3:17.528,353.602,45.0228,0,0.000885,0,0
0:3:17.833,352.842,44.9262,0,0.000885,0,0
0:3:18.126,354.016,45.0779,0,0.000885,0,0
0:3:18.426,354.425,45.1262,0,0.000885,0,0
0:3:18.717,354.599,45.1469,0,0.000885,0,0
0:3:19.015,355.831,45.3055,0,0.000885,0,0
0:3:19.320,356.476,45.3882,0,0.000885,0,0
0:3:19.624,356.596,45.402,0,0.000885,0,0
0:3:19.923,358.06,45.5881,0,0.000885,0,0
0:3:20.214,358.06,45.5881,0,0.000885,0,0
0:3:20.515,358.94,45.6985,0,0.000885,0,0
0:3:20.818,359.47,45.7674,0,0.000885,0,0
0:3:21.118,359.821,45.8157,0,0.000885,0,0
0:3:21.423,361.169,45.988,0,0.000885,0,0
0:3:21.723,361.578,46.0363,0,0.000885,0,0
0:3:22.022,361.227,45.9949,0,0.000885,0,0
0:3:22.323,362.695,46.1811,0,0.000885,0,0
0:3:22.623,362.343,46.1328,0,0.000885,0,0
0:3:22.918,362.988,46.2156,0,0.000885,0,0
0:3:23.213,363.927,46.3397,0,0.000885,0,0
0:3:23.510,364.042,46.3535,0,0.000885,0,0
0:3:23.804,364.981,46.4707,0,0.000885,0,0
0:3:24.103,365.217,46.4982,0,0.000885,0,0
0:3:24.396,366.155,46.6223,0,0.000885,0,0
0:3:24.693,367.21,46.7533,0,0.000885,0,0
0:3:24.989,367.561,46.8016,0,0.000885,0,0
0:3:25.282,368.384,46.905,0,0.000885,0,0
0:3:25.582,368.851,46.9671,0,0.000885,0,0
0:3:25.875,369.207,47.0085,0,0.000885,0,0
0:3:26.177,369.79,47.0843,0,0.000885,0,0
0:3:26.480,371.2,47.2636,0,0.000885,0,0
0:3:26.782,371.315,47.2774,0,0.000885,0,0
0:3:27.080,371.551,47.3049,0,0.000885,0,0
0:3:27.380,372.605,47.4428,0,0.000885,0,0
0:3:27.679,373.486,47.5531,0,0.000885,0,0
0:3:27.974,373.019,47.4911,0,0.000885,0,0
0:3:28.271,374.189,47.6428,0,0.000885,0,0
0:3:28.567,373.837,47.6014,0,0.000885,0,0
0:3:28.863,374.718,47.7117,0,0.000885,0,0
0:3:29.162,376.066,47.8841,0,0.000885,0,0
0:3:29.454,376.008,47.8772,0,0.000885,0,0
0:3:29.754,377.183,48.022,0,0.000885,0,0
0:3:30.047,377.005,48.0013,0,0.000885,0,0
0:3:30.346,378.295,48.1668,0,0.000885,0,0
0:3:30.641,378.352,48.1737,0,0.000885,0,0
0:3:30.942,378.94,48.2495,0,0.000885,0,0
0:3:31.242,378.882,48.2426,0,0.000885,0,0
0:3:31.545,380.643,48.4632,0,0.000885,0,0
0:3:31.844,380.407,48.4357,0,0.000885,0,0
0:3:32.146,381.991,48.6356,0,0.000885,0,0
0:3:32.444,382.107,48.6494,0,0.000885,0,0
0:3:32.739,383.517,48.8287,0,0.000885,0,0
0:3:33.032,382.814,48.739,0,0.000885,0,0
0:3:33.332,383.868,48.8769,0,0.000885,0,0
0:3:33.635,385.274,49.0562,0,0.000885,0,0
0:3:33.933,384.335,48.9321,0,0.000885,0,0
0:3:34.225,385.567,49.0907,0,0.000885,0,0
0:3:34.522,385.745,49.1114,0,0.000885,0,0
0:3:34.831,387.093,49.2837,0,0.000885,0,0
0:3:35.122,386.977,49.2699,0,0.000885,0,0
0:3:35.422,388.383,49.4492,0,0.000885,0,0
0:3:35.728,388.09,49.4147,0,0.000885,0,0
0:3:36.028,389.264,49.5595,0,0.000885,0,0
0:3:36.331,389.264,49.5595,0,0.000885,0,0
0:3:36.632,390.438,49.7112,0,0.000885,0,0
0:3:36.932,390.963,49.7801,0,0.000885,0,0
0:3:37.232,391.786,49.8836,0,0.000885,0,0
0:3:37.531,392.08,49.918,0,0.000885,0,0
0:3:37.836,392.667,49.9939,0,0.000885,0,0
0:3:38.130,393.192,50.0628,0,0.000885,0,0
0:3:38.438,393.837,50.1456,0,0.000885,0,0
0:3:38.731,394.895,50.2766,0,0.000885,0,0
0:3:39.031,395.42,50.3455,0,0.000885,0,0
0:3:39.334,396.127,50.4351,0,0.000885,0,0
0:3:39.633,396.417,50.4765,0,0.000885,0,0
0:3:39.929,396.83,50.5248,0,0.000885,0,0
0:3:40.221,396.652,50.5041,0,0.000885,0,0
0:3:40.519,397.769,50.642,0,0.000885,0,0
0:3:40.822,398,50.6765,0,0.000885,0,0
0:3:41.124,399.295,50.8419,0,0.000885,0,0
0:3:41.426,399.232,50.835,0,0.000885,0,0
0:3:41.729,400.758,51.0281,0,0.000885,0,0
0:3:42.030,401.167,51.0764,0,0.000885,0,0
0:3:42.329,401.345,51.1039,0,0.000885,0,0
0:3:42.630,402.751,51.2832,0,0.000885,0,0
0:3:42.932,402.226,51.2143,0,0.000885,0,0
0:3:43.230,404.045,51.4418,0,0.000885,0,0
0:3:43.524,403.925,51.428,0,0.000885,0,0
0:3:43.831,404.69,51.5245,0,0.000885,0,0
0:3:44.131,404.864,51.5521,0,0.000885,0,0
0:3:44.421,405.567,51.6417,0,0.000885,0,0
0:3:44.730,406.332,51.7383,0,0.000885,0,0
0:3:45.025,406.332,51.7383,0,0.000885,0,0
0:3:45.331,406.683,51.7796,0,0.000885,0,0
0:3:45.629,407.737,51.9175,0,0.000885,0,0
0:3:45.931,408.796,52.0485,0,0.000885,0,0
0:3:46.233,409.147,52.0968,0,0.000885,0,0
0:3:46.534,410.259,52.2347,0,0.000885,0,0
0:3:46.835,410.086,52.214,0,0.000885,0,0
0:3:47.136,410.962,52.3243,0,0.000885,0,0
0:3:47.431,411.727,52.4208,0,0.000885,0,0
0:3:47.731,411.901,52.4484,0,0.000885,0,0
0:3:48.034,413.191,52.607,0,0.000885,0,0
0:3:48.331,412.724,52.5518,0,0.000885,0,0
0:3:48.624,413.778,52.6828,0,0.000885,0,0
0:3:48.931,414.25,52.7449,0,0.000885,0,0
0:3:49.226,414.601,52.7863,0,0.000885,0,0
0:3:49.531,415.246,52.869,0,0.000885,0,0
0:3:49.832,416.714,53.0552,0,0.000885,0,0
0:3:50.134,416.887,53.0827,0,0.000885,0,0
0:3:50.433,417.417,53.1448,0,0.000885,0,0
0:3:50.726,418.062,53.2275,0,0.000885,0,0
0:3:51.027,418.707,53.3103,0,0.000885,0,0
0:3:51.331,419.174,53.3723,0,0.000885,0,0
0:3:51.633,419.939,53.4688,0,0.000885,0,0
0:3:51.932,420.584,53.5516,0,0.000885,0,0
0:3:52.232,420.642,53.5585,0,0.000885,0,0
0:3:52.539,421.109,53.6205,0,0.000885,0,0
0:3:52.837,422.986,53.8549,0,0.000885,0,0
0:3:53.139,422.812,53.8343,0,0.000885,0,0
0:3:53.438,422.812,53.8343,0,0.000885,0,0
0:3:53.731,423.867,53.9653,0,0.000885,0,0
0:3:54.027,424.747,54.0825,0,0.000885,0,0
0:3:54.323,424.747,54.0825,0,0.000885,0,0
0:3:54.620,425.802,54.2135,0,0.000885,0,0
0:3:54.917,426.74,54.3376,0,0.000885,0,0
0:3:55.218,426.331,54.2824,0,0.000885,0,0
0:3:55.517,426.682,54.3238,0,0.000885,0,0
0:3:55.812,428.208,54.5237,0,0.000885,0,0
0:3:56.114,428.444,54.5513,0,0.000885,0,0
0:3:56.418,428.795,54.5927,0,0.000885,0,0
0:3:56.718,429.32,54.6616,0,0.000885,0,0
0:3:57.018,430.317,54.7926,0,0.000885,0,0
0:3:57.318,430.846,54.8547,0,0.000885,0,0
0:3:57.618,431.842,54.9857,0,0.000885,0,0
0:3:57.914,432.372,55.0546,0,0.000885,0,0
0:3:58.216,432.429,55.0615,0,0.000885,0,0
0:3:58.526,433.252,55.165,0,0.000885,0,0
0:3:58.819,433.662,55.2132,0,0.000885,0,0
0:3:59.119,434.071,55.2684,0,0.000885,0,0
0:3:59.413,434.778,55.358,0,0.000885,0,0
0:3:59.711,435.654,55.4683,0,0.000885,0,0
0:4:0.017,436.829,55.62,0,0.000885,0,0
0:4:0.320,437.474,55.7027,0,0.000885,0,0
0:4:0.620,437.945,55.7579,0,0.000885,0,0
0:4:0.920,437.589,55.7165,0,0.000885,0,0
0:4:1.222,438.764,55.8682,0,0.000885,0,0
0:4:1.523,439.587,55.9716,0,0.000885,0,0
0:4:1.823,440.289,56.0613,0,0.000885,0,0
0:4:2.124,439.996,56.0199,0,0.000885,0,0
0:4:2.425,440.289,56.0613,0,0.000885,0,0
0:4:2.725,441.286,56.1854,0,0.000885,0,0
0:4:3.020,441.989,56.275,0,0.000885,0,0
0:4:3.325,442.927,56.3922,0,0.000885,0,0
0:4:3.622,443.75,56.5025,0,0.000885,0,0
0:4:3.917,444.217,56.5577,0,0.000885,0,0
0:4:4.217,444.689,56.6197,0,0.000885,0,0
0:4:4.521,445.098,56.6749,0,0.000885,0,0
0:4:4.819,445.218,56.6887,0,0.000885,0,0
0:4:5.116,445.801,56.7645,0,0.000885,0,0
0:4:5.421,446.739,56.8817,0,0.000885,0,0
0:4:5.728,447.269,56.9507,0,0.000885,0,0
0:4:6.032,448.029,57.0472,0,0.000885,0,0
0:4:6.334,448.323,57.0817,0,0.000885,0,0
0:4:6.636,449.439,57.2265,0,0.000885,0,0
0:4:6.936,450.027,57.3023,0,0.000885,0,0
0:4:7.238,450.436,57.3506,0,0.000885,0,0
0:4:7.539,451.317,57.4609,0,0.000885,0,0
0:4:7.841,451.726,57.5161,0,0.000885,0,0
0:4:8.134,451.904,57.5367,0,0.000885,0,0
0:4:8.433,452.842,57.6609,0,0.000885,0,0
0:4:8.727,453.487,57.7367,0,0.000885,0,0
0:4:9.032,453.487,57.7367,0,0.000885,0,0
0:4:9.332,454.484,57.8677,0,0.000885,0,0
0:4:9.623,455.302,57.9711,0,0.000885,0,0
0:4:9.923,455.947,58.0539,0,0.000885,0,0
0:4:10.237,456.241,58.0883,0,0.000885,0,0
0:4:10.536,456.77,58.1573,0,0.000885,0,0
0:4:10.833,457.473,58.2469,0,0.000885,0,0
0:4:11.135,457.766,58.2814,0,0.000885,0,0
0:4:11.438,458.469,58.371,0,0.000885,0,0
0:4:11.738,458.763,58.4124,0,0.000885,0,0
0:4:12.038,459.822,58.5434,0,0.000885,0,0
0:4:12.337,460.173,58.5916,0,0.000885,0,0
0:4:12.635,460.991,58.6951,0,0.000885,0,0
0:4:12.932,461.521,58.764,0,0.000885,0,0
0:4:13.234,462.281,58.8605,0,0.000885,0,0
0:4:13.536,463.282,58.9846,0,0.000885,0,0
0:4:13.838,462.695,58.9088,0,0.000885,0,0
0:4:14.135,463.865,59.0605,0,0.000885,0,0
0:4:14.429,464.51,59.1432,0,0.000885,0,0
0:4:14.735,464.982,59.2053,0,0.000885,0,0
0:4:15.035,466.094,59.3432,0,0.000885,0,0
0:4:15.325,465.684,59.2949,0,0.000885,0,0
0:4:15.625,466.623,59.4121,0,0.000885,0,0
0:4:15.919,467.032,59.4673,0,0.000885,0,0
0:4:16.221,467.855,59.5707,0,0.000885,0,0
0:4:16.526,468.851,59.6948,0,0.000885,0,0
0:4:16.825,469.323,59.7569,0,0.000885,0,0
0:4:17.124,469.906,59.8327,0,0.000885,0,0
0:4:17.425,470.493,59.9085,0,0.000885,0,0
0:4:17.723,471.316,60.012,0,0.000885,0,0
0:4:18.029,471.961,60.0947,0,0.000885,0,0
0:4:18.323,472.428,60.1499,0,0.000885,0,0
0:4:18.623,472.548,60.1637,0,0.000885,0,0
0:4:18.926,473.309,60.2671,0,0.000885,0,0
0:4:19.224,473.602,60.3015,0,0.000885,0,0
0:4:19.528,474.189,60.3774,0,0.000885,0,0
0:4:19.824,475.012,60.4808,0,0.000885,0,0
0:4:20.123,475.244,60.5084,0,0.000885,0,0
0:4:20.424,476.182,60.6325,0,0.000885,0,0
0:4:20.726,476.769,60.7014,0,0.000885,0,0
0:4:21.028,477.708,60.8255,0,0.000885,0,0
0:4:21.330,478.001,60.86,0,0.000885,0,0
0:4:21.630,478.473,60.9221,0,0.000885,0,0
0:4:21.933,478.998,60.991,0,0.000885,0,0
0:4:22.233,479.701,61.0807,0,0.000885,0,0
0:4:22.524,480.23,61.1427,0,0.000885,0,0
0:4:22.822,480.933,61.2323,0,0.000885,0,0
0:4:23.118,481.404,61.2944,0,0.000885,0,0
0:4:23.414,481.871,61.3564,0,0.000885,0,0
0:4:23.712,482.223,61.3978,0,0.000885,0,0
0:4:24.005,483.339,61.5426,0,0.000885,0,0
0:4:24.306,483.749,61.5909,0,0.000885,0,0
0:4:24.597,484.629,61.7081,0,0.000885,0,0
0:4:24.896,485.39,61.8046,0,0.000885,0,0
0:4:25.192,485.568,61.8253,0,0.000885,0,0
0:4:25.488,486.155,61.9011,0,0.000885,0,0
0:4:25.786,487.151,62.0252,0,0.000885,0,0
0:4:26.088,487.151,62.0252,0,0.000885,0,0
0:4:26.391,488.032,62.1356,0,0.000885,0,0
0:4:26.690,488.263,62.17,0,0.000885,0,0
0:4:26.990,488.326,62.1769,0,0.000885,0,0
0:4:27.291,489.616,62.3424,0,0.000885,0,0
0:4:27.586,490.492,62.4527,0,0.000885,0,0
0:4:27.885,491.079,62.5286,0,0.000885,0,0
0:4:28.177,491.199,62.5423,0,0.000885,0,0
0:4:28.477,491.724,62.6113,0,0.000885,0,0
0:4:28.772,492.899,62.7561,0,0.000885,0,0
0:4:29.066,493.076,62.7837,0,0.000885,0,0
0:4:29.367,493.895,62.8871,0,0.000885,0,0
0:4:29.660,494.424,62.9491,0,0.000885,0,0
0:4:29.959,494.54,62.9698,0,0.000885,0,0
0:4:30.254,495.421,63.0801,0,0.000885,0,0
0:4:30.551,496.537,63.218,0,0.000885,0,0
0:4:30.848,497.24,63.3077,0,0.000885,0,0
0:4:31.149,497.062,63.287,0,0.000885,0,0
0:4:31.452,497.649,63.3628,0,0.000885,0,0
0:4:31.752,498.41,63.4593,0,0.000885,0,0
0:4:32.053,499.117,63.549,0,0.000885,0,0
0:4:32.353,499.411,63.5835,0,0.000885,0,0
0:4:32.649,500.114,63.6731,0,0.000885,0,0
0:4:32.948,500.816,63.7627,0,0.000885,0,0
0:4:33.242,500.874,63.7765,0,0.000885,0,0
0:4:33.539,501.639,63.873,0,0.000885,0,0
0:4:33.837,502.516,63.9833,0,0.000885,0,0
0:4:34.130,503.454,64.1006,0,0.000885,0,0
0:4:34.427,503.984,64.1695,0,0.000885,0,0
0:4:34.722,504.628,64.2522,0,0.000885,0,0
0:4:35.021,504.513,64.2385,0,0.000885,0,0
0:4:35.324,504.98,64.2936,0,0.000885,0,0
0:4:35.626,505.745,64.3901,0,0.000885,0,0
0:4:35.927,506.328,64.466,0,0.000885,0,0
0:4:36.229,506.915,64.5418,0,0.000885,0,0
0:4:36.527,508.031,64.6866,0,0.000885,0,0
0:4:36.828,508.676,64.7693,0,0.000885,0,0
0:4:37.126,508.912,64.7969,0,0.000885,0,0
0:4:37.432,508.912,64.7969,0,0.000885,0,0
0:4:37.736,510.318,64.9762,0,0.000885,0,0
0:4:38.036,510.496,64.9969,0,0.000885,0,0
0:4:38.340,511.021,65.0658,0,0.000885,0,0
0:4:38.636,511.723,65.1555,0,0.000885,0,0
0:4:38.930,512.956,65.314,0,0.000885,0,0
0:4:39.226,513.133,65.3347,0,0.000885,0,0
0:4:39.525,514.188,65.4657,0,0.000885,0,0
0:4:39.839,514.308,65.4864,0,0.000885,0,0
0:4:40.139,514.775,65.5416,0,0.000885,0,0
0:4:40.432,515.891,65.6864,0,0.000885,0,0
0:4:40.736,515.54,65.6381,0,0.000885,0,0
0:4:41.038,516.474,65.7622,0,0.000885,0,0
0:4:41.339,517.706,65.9139,0,0.000885,0,0
0:4:41.637,517.533,65.8932,0,0.000885,0,0
0:4:41.939,518.471,66.0104,0,0.000885,0,0
0:4:42.245,518.996,66.0794,0,0.000885,0,0
0:4:42.543,520.171,66.231,0,0.000885,0,0
0:4:42.832,520.113,66.2241,0,0.000885,0,0
0:4:43.133,520.522,66.2724,0,0.000885,0,0
0:4:43.438,521.287,66.3689,0,0.000885,0,0
0:4:43.735,522.808,66.5689,0,0.000885,0,0
0:4:44.029,522.751,66.562,0,0.000885,0,0
0:4:44.325,523.102,66.6034,0,0.000885,0,0
0:4:44.625,524.103,66.7275,0,0.000885,0,0
0:4:44.926,524.748,66.8102,0,0.000885,0,0
0:4:45.224,524.748,66.8102,0,0.000885,0,0
0:4:45.523,525.099,66.8585,0,0.000885,0,0
0:4:45.823,527.034,67.1067,0,0.000885,0,0
0:4:46.126,527.443,67.1549,0,0.000885,0,0
0:4:46.425,527.443,67.1549,0,0.000885,0,0
0:4:46.726,527.737,67.1963,0,0.000885,0,0
0:4:47.026,528.382,67.279,0,0.000885,0,0
0:4:47.331,529.436,67.41,0,0.000885,0,0
0:4:47.629,530.495,67.5479,0,0.000885,0,0
0:4:47.931,529.85,67.4652,0,0.000885,0,0
0:4:48.240,530.611,67.5617,0,0.000885,0,0
0:4:48.537,531.665,67.6927,0,0.000885,0,0
0:4:48.831,532.43,67.7893,0,0.000885,0,0
0:4:49.129,532.959,67.8582,0,0.000885,0,0
0:4:49.431,532.603,67.8168,0,0.000885,0,0
0:4:49.731,534.013,67.9892,0,0.000885,0,0
0:4:50.035,534.481,68.0513,0,0.000885,0,0
0:4:50.331,535.77,68.2167,0,0.000885,0,0
0:4:50.628,535.833,68.2236,0,0.000885,0,0
0:4:50.928,535.891,68.2305,0,0.000885,0,0
0:4:51.231,536.945,68.3684,0,0.000885,0,0
0:4:51.532,537.416,68.4236,0,0.000885,0,0
0:4:51.831,538.586,68.5753,0,0.000885,0,0
0:4:52.132,538.938,68.6166,0,0.000885,0,0
0:4:52.426,538.938,68.6166,0,0.000885,0,0
0:4:52.724,539.467,68.6856,0,0.000885,0,0
0:4:53.019,540.17,68.7752,0,0.000885,0,0
0:4:53.316,541.228,68.9131,0,0.000885,0,0
0:4:53.612,542.105,69.0234,0,0.000885,0,0
0:4:53.908,542.225,69.0372,0,0.000885,0,0
0:4:54.206,542.283,69.0441,0,0.000885,0,0
0:4:54.498,542.87,69.1199,0,0.000885,0,0
0:4:54.797,544.16,69.2854,0,0.000885,0,0
0:4:55.092,544.511,69.3268,0,0.000885,0,0
0:4:55.389,544.92,69.3819,0,0.000885,0,0
0:4:55.686,545.628,69.4716,0,0.000885,0,0
0:4:55.987,545.508,69.4578,0,0.000885,0,0
0:4:56.290,547.211,69.6715,0,0.000885,0,0
0:4:56.591,547.736,69.7405,0,0.000885,0,0
0:4:56.889,548.323,69.8163,0,0.000885,0,0
0:4:57.190,548.559,69.8439,0,0.000885,0,0
0:4:57.486,548.795,69.8715,0,0.000885,0,0
0:4:57.786,549.849,70.0094,0,0.000885,0,0
0:4:58.078,550.316,70.0714,0,0.000885,0,0
0:4:58.377,550.846,70.1335,0,0.000885,0,0
0:4:58.671,551.606,70.23,0,0.000885,0,0
0:4:58.966,551.9,70.2714,0,0.000885,0,0
0:4:59.265,552.78,70.3817,0,0.000885,0,0
0:4:59.558,553.603,70.4851,0,0.000885,0,0
0:4:59.858,554.128,70.5541,0,0.000885,0,0
0:5:0.151,554.6,70.6161,0,0.000885,0,0
0:5:0.452,554.893,70.6506,0,0.000885,0,0
0:5:0.754,556.357,70.8367,0,0.000885,0,0
0:5:1.055,556.708,70.885,0,0.000885,0,0
0:5:1.356,557.295,70.9539,0,0.000885,0,0
0:5:1.656,557.709,71.0091,0,0.000885,0,0
0:5:1.956,557.825,71.0229,0,0.000885,0,0
0:5:2.249,557.94,71.0367,0,0.000885,0,0
0:5:2.547,558.412,71.0987,0,0.000885,0,0
0:5:2.844,559.057,71.1815,0,0.000885,0,0
0:5:3.137,559.818,71.278,0,0.000885,0,0
0:5:3.437,560.525,71.3676,0,0.000885,0,0
0:5:3.728,561.05,71.4366,0,0.000885,0,0
0:5:4.027,561.815,71.5331,0,0.000885,0,0
0:5:4.342,562.753,71.6503,0,0.000885,0,0
0:5:4.639,563.22,71.7124,0,0.000885,0,0
0:5:4.945,563.572,71.7537,0,0.000885,0,0
0:5:5.240,564.395,71.8641,0,0.000885,0,0
0:5:5.539,565.213,71.9675,0,0.000885,0,0
0:5:5.842,565.507,72.002,0,0.000885,0,0
0:5:6.143,566.681,72.1536,0,0.000885,0,0
0:5:6.444,567.09,72.2019,0,0.000885,0,0
0:5:6.742,567.793,72.2915,0,0.000885,0,0
0:5:7.043,568.087,72.3329,0,0.000885,0,0
0:5:7.334,568.149,72.3398,0,0.000885,0,0
0:5:7.634,569.377,72.4984,0,0.000885,0,0
0:5:7.929,570.084,72.588,0,0.000885,0,0
0:5:8.224,570.2,72.6018,0,0.000885,0,0
0:5:8.521,570.378,72.6225,0,0.000885,0,0
0:5:8.825,571.196,72.7259,0,0.000885,0,0
0:5:9.125,572.193,72.8569,0,0.000885,0,0
0:5:9.435,572.255,72.8638,0,0.000885,0,0
0:5:9.733,572.78,72.9258,0,0.000885,0,0
0:5:10.030,573.251,72.9879,0,0.000885,0,0
0:5:10.333,574.248,73.112,0,0.000885,0,0
0:5:10.632,574.483,73.1465,0,0.000885,0,0
0:5:10.933,574.95,73.2016,0,0.000885,0,0
0:5:11.234,575.831,73.3188,0,0.000885,0,0
0:5:11.535,576.77,73.4361,0,0.000885,0,0
0:5:11.834,577.179,73.4912,0,0.000885,0,0
0:5:12.138,578.118,73.6084,0,0.000885,0,0
0:5:12.429,578.94,73.7119,0,0.000885,0,0
0:5:12.729,579.701,73.8084,0,0.000885,0,0
0:5:13.029,579.585,73.7946,0,0.000885,0,0
0:5:13.330,580.582,73.9187,0,0.000885,0,0
0:5:13.634,580.698,73.9394,0,0.000885,0,0
0:5:13.929,581.694,74.0635,0,0.000885,0,0
0:5:14.227,581.814,74.0773,0,0.000885,0,0
0:5:14.521,581.872,74.0842,0,0.000885,0,0
0:5:14.820,583.22,74.2565,0,0.000885,0,0
0:5:15.132,583.104,74.2427,0,0.000885,0,0
0:5:15.430,583.922,74.3462,0,0.000885,0,0
0:5:15.726,584.981,74.4841,0,0.000885,0,0
0:5:16.028,585.684,74.5737,0,0.000885,0,0
0:5:16.330,586.445,74.6702,0,0.000885,0,0
0:5:16.631,586.858,74.7185,0,0.000885,0,0
0:5:16.929,586.68,74.6978,0,0.000885,0,0
0:5:17.230,587.913,74.8564,0,0.000885,0,0
0:5:17.535,588.615,74.946,0,0.000885,0,0
0:5:17.845,589.616,75.0701,0,0.000885,0,0
0:5:18.135,589.38,75.0425,0,0.000885,0,0
0:5:18.439,589.91,75.1115,0,0.000885,0,0
0:5:18.732,590.555,75.1942,0,0.000885,0,0
0:5:19.031,591.667,75.3321,0,0.000885,0,0
0:5:19.328,591.729,75.339,0,0.000885,0,0
0:5:19.624,592.196,75.4011,0,0.000885,0,0
0:5:19.925,593.428,75.5596,0,0.000885,0,0
0:5:20.240,594.073,75.6424,0,0.000885,0,0
0:5:20.542,594.251,75.6631,0,0.000885,0,0
0:5:20.846,595.132,75.7734,0,0.000885,0,0
0:5:21.149,595.541,75.8285,0,0.000885,0,0
0:5:21.452,596.542,75.9526,0,0.000885,0,0
0:5:21.752,596.306,75.9251,0,0.000885,0,0
0:5:22.054,597.361,76.0561,0,0.000885,0,0
0:5:22.349,597.774,76.1112,0,0.000885,0,0
0:5:22.647,598.535,76.2078,0,0.000885,0,0
0:5:22.946,599.006,76.2698,0,0.000885,0,0
0:5:23.240,600.181,76.4146,0,0.000885,0,0
0:5:23.541,599.767,76.3663,0,0.000885,0,0
0:5:23.833,600.826,76.4973,0,0.000885,0,0
0:5:24.133,601.649,76.6008,0,0.000885,0,0
0:5:24.430,602.116,76.6628,0,0.000885,0,0
0:5:24.725,601.884,76.6352,0,0.000885,0,0
0:5:25.026,603.29,76.8145,0,0.000885,0,0
0:5:25.319,603.117,76.7938,0,0.000885,0,0
0:5:25.621,603.641,76.8559,0,0.000885,0,0
0:5:25.925,605.345,77.0765,0,0.000885,0,0
0:5:26.228,604.936,77.0213,0,0.000885,0,0
0:5:26.530,606.404,77.2075,0,0.000885,0,0
0:5:26.829,606.342,77.2006,0,0.000885,0,0
0:5:27.132,606.697,77.2489,0,0.000885,0,0
0:5:27.436,607.809,77.3868,0,0.000885,0,0
0:5:27.735,607.222,77.3109,0,0.000885,0,0
0:5:28.032,608.575,77.4833,0,0.000885,0,0
0:5:28.329,609.104,77.5522,0,0.000885,0,0
0:5:28.628,609.629,77.6212,0,0.000885,0,0
0:5:28.924,611.275,77.828,0,0.000885,0,0
0:5:29.224,610.745,77.766,0,0.000885,0,0
0:5:29.520,611.39,77.8418,0,0.000885,0,0
0:5:29.818,612.8,78.0211,0,0.000885,0,0
0:5:30.116,612.213,77.9521,0,0.000885,0,0
0:5:30.412,613.152,78.0693,0,0.000885,0,0
0:5:30.713,614.09,78.1865,0,0.000885,0,0
0:5:31.017,615.207,78.3313,0,0.000885,0,0
0:5:31.319,615.5,78.3658,0,0.000885,0,0
0:5:31.622,616.03,78.4348,0,0.000885,0,0
0:5:31.925,616.911,78.5451,0,0.000885,0,0
0:5:32.225,617.44,78.614,0,0.000885,0,0
0:5:32.521,617.556,78.6278,0,0.000885,0,0
0:5:32.823,618.903,78.8002,0,0.000885,0,0
0:5:33.116,619.317,78.8553,0,0.000885,0,0
0:5:33.416,619.197,78.8415,0,0.000885,0,0
0:5:33.712,619.611,78.8898,0,0.000885,0,0
0:5:34.009,620.727,79.0346,0,0.000885,0,0
0:5:34.309,621.666,79.1518,0,0.000885,0,0
0:5:34.605,621.546,79.138,0,0.000885,0,0
0:5:34.905,621.781,79.1656,0,0.000885,0,0
0:5:35.200,622.546,79.2621,0,0.000885,0,0
0:5:35.502,623.721,79.4138,0,0.000885,0,0
0:5:35.807,624.659,79.531,0,0.000885,0,0
0:5:36.110,625.362,79.6207,0,0.000885,0,0
0:5:36.413,626.065,79.7103,0,0.000885,0,0
0:5:36.716,625.949,79.6965,0,0.000885,0,0
0:5:37.014,626.479,79.7654,0,0.000885,0,0
0:5:37.310,627.181,79.8551,0,0.000885,0,0
0:5:37.609,628.004,79.9585,0,0.000885,0,0
0:5:37.908,628.592,80.0343,0,0.000885,0,0
0:5:38.203,628.592,80.0343,0,0.000885,0,0
0:5:38.503,629.001,80.0895,0,0.000885,0,0
0:5:38.797,629.708,80.1791,0,0.000885,0,0
0:5:39.096,630.353,80.2619,0,0.000885,0,0
0:5:39.392,630.411,80.2688,0,0.000885,0,0
0:5:39.691,632.115,80.4825,0,0.000885,0,0
0:5:39.990,632.702,80.5583,0,0.000885,0,0
0:5:40.286,633.52,80.6618,0,0.000885,0,0
0:5:40.589,633.992,80.7238,0,0.000885,0,0
0:5:40.892,634.05,80.7307,0,0.000885,0,0
0:5:41.196,635.166,80.8686,0,0.000885,0,0
0:5:41.498,635.402,80.9031,0,0.000885,0,0
0:5:41.798,635.691,80.9376,0,0.000885,0,0
0:5:42.102,636.692,81.0686,0,0.000885,0,0
0:5:42.396,637.572,81.1789,0,0.000885,0,0
0:5:42.695,638.102,81.2478,0,0.000885,0,0
0:5:42.994,638.627,81.3099,0,0.000885,0,0
0:5:43.290,638.862,81.3443,0,0.000885,0,0
0:5:43.591,639.156,81.3788,0,0.000885,0,0
0:5:43.885,640.152,81.5098,0,0.000885,0,0
0:5:44.187,640.508,81.5512,0,0.000885,0,0
0:5:44.483,640.86,81.5995,0,0.000885,0,0
0:5:44.781,641.505,81.6822,0,0.000885,0,0
0:5:45.079,641.563,81.6891,0,0.000885,0,0
0:5:45.374,642.15,81.758,0,0.000885,0,0
0:5:45.677,643.853,81.9787,0,0.000885,0,0
0:5:45.981,643.796,81.9718,0,0.000885,0,0
0:5:46.284,643.969,81.9925,0,0.000885,0,0
0:5:46.586,645.553,82.1924,0,0.000885,0,0
0:5:46.888,645.846,82.2338,0,0.000885,0,0
0:5:47.189,647.256,82.413,0,0.000885,0,0
0:5:47.484,647.198,82.4061,0,0.000885,0,0
0:5:47.783,647.434,82.4337,0,0.000885,0,0
0:5:48.079,649.018,82.6337,0,0.000885,0,0
0:5:48.378,648.782,82.6061,0,0.000885,0,0
0:5:48.675,649.721,82.7233,0,0.000885,0,0
0:5:48.971,650.25,82.7922,0,0.000885,0,0
0:5:49.270,650.076,82.7716,0,0.000885,0,0
0:5:49.567,652.069,83.0267,0,0.000885,0,0
0:5:49.865,651.424,82.9439,0,0.000885,0,0
0:5:50.162,652.421,83.068,0,0.000885,0,0
0:5:50.463,653.364,83.1852,0,0.000885,0,0
0:5:50.768,653.301,83.1784,0,0.000885,0,0
0:5:51.070,654.654,83.3507,0,0.000885,0,0
0:5:51.372,654.654,83.3507,0,0.000885,0,0
0:5:51.672,655.183,83.4197,0,0.000885,0,0
0:5:51.972,656.122,83.5369,0,0.000885,0,0
0:5:52.270,655.944,83.5162,0,0.000885,0,0
0:5:52.566,657.647,83.7368,0,0.000885,0,0
0:5:52.867,657.354,83.6955,0,0.000885,0,0
0:5:53.159,658.702,83.8678,0,0.000885,0,0
0:5:53.460,658.47,83.8402,0,0.000885,0,0
0:5:53.757,659.934,84.0264,0,0.000885,0,0
0:5:54.054,659.76,84.0057,0,0.000885,0,0
0:5:54.354,661.402,84.2126,0,0.000885,0,0
0:5:54.648,660.877,84.1436,0,0.000885,0,0
0:5:54.950,662.051,84.2953,0,0.000885,0,0
0:5:55.244,662.754,84.3849,0,0.000885,0,0
0:5:55.547,662.87,84.3987,0,0.000885,0,0
0:5:55.849,663.928,84.5366,0,0.000885,0,0
0:5:56.151,663.515,84.4815,0,0.000885,0,0
0:5:56.453,664.809,84.6469,0,0.000885,0,0
0:5:56.755,665.396,84.7228,0,0.000885,0,0
0:5:57.055,665.57,84.7435,0,0.000885,0,0
0:5:57.351,666.686,84.8883,0,0.000885,0,0
0:5:57.649,666.744,84.8951,0,0.000885,0,0
0:5:57.949,667.509,84.9917,0,0.000885,0,0
0:5:58.244,668.038,85.0537,0,0.000885,0,0
0:5:58.544,668.857,85.164,0,0.000885,0,0
0:5:58.848,669.271,85.2123,0,0.000885,0,0
0:5:59.147,669.386,85.2261,0,0.000885,0,0
0:5:59.445,671.263,85.4674,0,0.000885,0,0
0:5:59.738,671.619,85.5157,0,0.000885,0,0
0:6:0.039,672.086,85.5708,0,0.000885,0,0
0:6:0.333,672.086,85.5708,0,0.000885,0,0
0:6:0.634,672.909,85.6743,0,0.000885,0,0
0:6:0.938,673.439,85.7432,0,0.000885,0,0
0:6:1.243,673.906,85.8053,0,0.000885,0,0
0:6:1.545,674.493,85.8811,0,0.000885,0,0
0:6:1.847,674.906,85.9294,0,0.000885,0,0
0:6:2.149,675.903,86.0604,0,0.000885,0,0
0:6:2.444,676.49,86.1362,0,0.000885,0,0
0:6:2.741,676.899,86.1845,0,0.000885,0,0
0:6:3.048,677.486,86.2603,0,0.000885,0,0
0:6:3.346,677.9,86.3155,0,0.000885,0,0
0:6:3.645,679.426,86.5085,0,0.000885,0,0
0:6:3.937,680.013,86.5844,0,0.000885,0,0
0:6:4.238,680.186,86.605,0,0.000885,0,0
0:6:4.533,680.952,86.7016,0,0.000885,0,0
0:6:4.832,681.303,86.7429,0,0.000885,0,0
0:6:5.129,681.303,86.7429,0,0.000885,0,0
0:6:5.426,682.064,86.8464,0,0.000885,0,0
0:6:5.727,682.419,86.8877,0,0.000885,0,0
0:6:6.030,682.829,86.9429,0,0.000885,0,0
0:6:6.333,684.061,87.0946,0,0.000885,0,0
0:6:6.636,684.119,87.1015,0,0.000885,0,0
0:6:6.938,684.826,87.1911,0,0.000885,0,0
0:6:7.238,685.644,87.3014,0,0.000885,0,0
0:6:7.534,686.761,87.4393,0,0.000885,0,0
0:6:7.835,687.17,87.4945,0,0.000885,0,0
0:6:8.129,687.935,87.591,0,0.000885,0,0
0:6:8.428,688.407,87.653,0,0.000885,0,0
0:6:8.736,688.932,87.7151,0,0.000885,0,0
0:6:9.042,689.581,87.7978,0,0.000885,0,0
0:6:9.342,689.581,87.7978,0,0.000885,0,0
0:6:9.637,690.813,87.9564,0,0.000885,0,0
0:6:9.937,691.107,87.9909,0,0.000885,0,0
0:6:10.233,691.338,88.0254,0,0.000885,0,0
0:6:10.534,667.273,84.9572,0,0.000885,0,0
0:6:10.840,666.98,84.9227,0,0.000885,0,0
0:6:11.139,668.154,85.0744,0,0.000885,0,0
0:6:11.441,669.916,85.295,0,0.000885,0,0
0:6:11.742,671.677,85.5226,0,0.000885,0,0
0:6:12.051,673.145,85.7087,0,0.000885,0,0
0:6:12.349,673.906,85.8053,0,0.000885,0,0
0:6:12.653,668.154,85.0744,0,0.000885,0,0
0:6:12.954,591.436,75.3045,0,0.000885,0,0
0:6:13.247,571.841,72.8086,0,0.000885,0,0
0:6:13.545,566.681,72.1536,0,0.000885,0,0
0:6:13.838,562.869,71.6641,0,0.000885,0,0
0:6:14.145,560.405,71.3538,0,0.000885,0,0
0:6:14.439,556.126,70.8092,0,0.000885,0,0
0:6:14.732,553.368,70.4575,0,0.000885,0,0
0:6:15.032,551.375,70.2024,0,0.000885,0,0
0:6:15.334,500.932,63.7834,0,0.000885,0,0
0:6:15.385,500.932,63.7834,0,0.000885,0,0