File: DataFile2021-07-03_075155.csv
Test ID:,Date Tested:,Time:,Test Type:,Diameter Avg. (mm):,Cyl. Corr. Factor:,Height (mm):,Age (days):,Weight (kN):,Break Type:,Ramp Rate (MPa/s):,Load at Break (kN):,Stress at Break (MPa):
12,7/3/2021,07:51,Cylinder,100,1,200,0,3.6,3,0.25,637.04,81.11
Sample Time,Load (kN),Stress (MPa),Long. Strain,Trans. Strain,Chan1 Deflection (mm),Chan2 Deflection (mm)
0:0:4.307,5.10211,0.648107,0,0.000885,0,0
0:0:4.601,5.39569,0.689476,0,0.000885,0,0
0:0:4.902,5.39569,0.689476,0,0.000885,0,0
0:0:5.199,6.86361,0.875634,0,0.000885,0,0
0:0:5.497,8.15359,1.04111,0,0.000885,0,0
0:0:5.796,8.44717,1.07558,0,0.000885,0,0
0:0:6.091,8.85641,1.13074,0,0.000885,0,0
0:0:6.393,8.505,1.08248,0,0.000885,0,0
0:0:6.687,9.91064,1.26174,0,0.000885,0,0
0:0:6.988,10.2042,1.29621,0,0.000885,0,0
0:0:7.286,10.9693,1.39964,0,0.000885,0,0
0:0:7.592,11.4942,1.46169,0,0.000885,0,0
0:0:7.892,12.2015,1.55132,0,0.000885,0,0
0:0:8.189,12.6107,1.60648,0,0.000885,0,0
0:0:8.489,12.6107,1.60648,0,0.000885,0,0
0:0:8.786,13.785,1.75816,0,0.000885,0,0
0:0:9.093,14.0742,1.79264,0,0.000885,0,0
0:0:9.394,15.2485,1.94432,0,0.000885,0,0
0:0:9.698,15.2485,1.94432,0,0.000885,0,0
0:0:10.002,15.7778,2.00637,0,0.000885,0,0
0:0:10.303,16.4228,2.08911,0,0.000885,0,0
0:0:10.606,17.7128,2.25459,0,0.000885,0,0
0:0:10.907,18.2422,2.32353,0,0.000885,0,0
0:0:11.205,18.945,2.41317,0,0.000885,0,0
0:0:11.505,19.59,2.4959,0,0.000885,0,0
0:0:11.801,20.1193,2.55795,0,0.000885,0,0
0:0:12.100,21.2892,2.70964,0,0.000885,0,0
0:0:12.401,21.6406,2.7579,0,0.000885,0,0
0:0:12.698,22.3479,2.84753,0,0.000885,0,0
0:0:12.998,22.4635,2.86132,0,0.000885,0,0
0:0:13.295,23.6957,3.0199,0,0.000885,0,0
0:0:13.594,23.7535,3.0268,0,0.000885,0,0
0:0:13.892,24.2828,3.08885,0,0.000885,0,0
0:0:14.189,24.6343,3.13711,0,0.000885,0,0
0:0:14.491,25.1591,3.20606,0,0.000885,0,0
0:0:14.797,26.2178,3.33706,0,0.000885,0,0
0:0:15.100,26.3913,3.35775,0,0.000885,0,0
0:0:15.403,26.8628,3.4198,0,0.000885,0,0
0:0:15.705,27.2142,3.46806,0,0.000885,0,0
0:0:16.008,28.2106,3.59217,0,0.000885,0,0
0:0:16.303,28.562,3.63354,0,0.000885,0,0
0:0:16.606,29.1492,3.70938,0,0.000885,0,0
0:0:16.903,29.9098,3.80591,0,0.000885,0,0
0:0:17.200,30.5548,3.88864,0,0.000885,0,0
0:0:17.500,30.9685,3.9438,0,0.000885,0,0
0:0:17.797,31.6713,4.03343,0,0.000885,0,0
0:0:18.099,32.2007,4.10238,0,0.000885,0,0
0:0:18.394,32.9613,4.19891,0,0.000885,0,0
0:0:18.696,33.5485,4.27475,0,0.000885,0,0
0:0:18.993,34.3714,4.37817,0,0.000885,0,0
0:0:19.290,35.0742,4.4678,0,0.000885,0,0
0:0:19.591,35.5991,4.52986,0,0.000885,0,0
0:0:19.896,36.1863,4.6057,0,0.000885,0,0
0:0:20.199,36.7156,4.67465,0,0.000885,0,0
0:0:20.501,37.0092,4.70912,0,0.000885,0,0
0:0:20.803,37.245,4.74359,0,0.000885,0,0
0:0:21.107,38.0056,4.84012,0,0.000885,0,0
0:0:21.402,38.5928,4.91596,0,0.000885,0,0
0:0:21.704,39.4735,5.02628,0,0.000885,0,0
0:0:22.002,39.647,5.04696,0,0.000885,0,0
0:0:22.301,40.5277,5.15728,0,0.000885,0,0
0:0:22.600,40.937,5.21244,0,0.000885,0,0
0:0:22.898,41.9334,5.33654,0,0.000885,0,0
0:0:23.199,42.6407,5.42617,0,0.000885,0,0
0:0:23.494,43.0499,5.48133,0,0.000885,0,0
0:0:23.795,43.517,5.54338,0,0.000885,0,0
0:0:24.093,44.3399,5.64681,0,0.000885,0,0
0:0:24.391,44.8069,5.70196,0,0.000885,0,0
0:0:24.691,44.927,5.72265,0,0.000885,0,0
0:0:24.995,45.7455,5.82607,0,0.000885,0,0
0:0:25.299,46.1592,5.87433,0,0.000885,0,0
0:0:25.601,46.8042,5.95707,0,0.000885,0,0
0:0:25.904,47.8006,6.08807,0,0.000885,0,0
0:0:26.208,48.6813,6.19839,0,0.000885,0,0
0:0:26.504,49.0327,6.23976,0,0.000885,0,0
0:0:26.804,49.6199,6.3156,0,0.000885,0,0
0:0:27.101,49.9713,6.36386,0,0.000885,0,0
0:0:27.402,50.3806,6.41212,0,0.000885,0,0
0:0:27.700,51.2613,6.52934,0,0.000885,0,0
0:0:28.000,51.5549,6.56381,0,0.000885,0,0
0:0:28.300,52.1421,6.63965,0,0.000885,0,0
0:0:28.597,52.9605,6.74307,0,0.000885,0,0
0:0:28.898,53.4899,6.81202,0,0.000885,0,0
0:0:29.193,54.1927,6.90165,0,0.000885,0,0
0:0:29.494,54.6019,6.94992,0,0.000885,0,0
0:0:29.791,54.8955,6.99128,0,0.000885,0,0
0:0:30.095,55.5405,7.07402,0,0.000885,0,0
0:0:30.400,56.4212,7.18434,0,0.000885,0,0
0:0:30.702,56.7727,7.22571,0,0.000885,0,0
0:0:31.005,57.6534,7.34292,0,0.000885,0,0
0:0:31.308,58.7076,7.47392,0,0.000885,0,0
0:0:31.608,59.1791,7.53597,0,0.000885,0,0
0:0:31.907,59.4149,7.56355,0,0.000885,0,0
0:0:32.202,60.2334,7.66697,0,0.000885,0,0
0:0:32.504,60.4691,7.70144,0,0.000885,0,0
0:0:32.799,61.1719,7.79108,0,0.000885,0,0
0:0:33.099,61.937,7.8876,0,0.000885,0,0
0:0:33.397,62.2884,7.92897,0,0.000885,0,0
0:0:33.694,62.8133,7.99792,0,0.000885,0,0
0:0:33.994,64.1656,8.17029,0,0.000885,0,0
0:0:34.290,64.6905,8.23923,0,0.000885,0,0
0:0:34.594,65.1042,8.2875,0,0.000885,0,0
0:0:34.898,65.3933,8.32887,0,0.000885,0,0
0:0:35.202,65.8648,8.38402,0,0.000885,0,0
0:0:35.504,66.3942,8.45297,0,0.000885,0,0
0:0:35.806,67.1548,8.5495,0,0.000885,0,0
0:0:36.107,67.564,8.60466,0,0.000885,0,0
0:0:36.403,68.4448,8.71497,0,0.000885,0,0
0:0:36.703,68.9741,8.78392,0,0.000885,0,0
0:0:37.000,69.3255,8.82529,0,0.000885,0,0
0:0:37.297,69.9127,8.90113,0,0.000885,0,0
0:0:37.597,70.144,8.92871,0,0.000885,0,0
0:0:37.892,71.4384,9.09418,0,0.000885,0,0
0:0:38.195,72.3147,9.2045,0,0.000885,0,0
0:0:38.490,72.3726,9.21829,0,0.000885,0,0
0:0:38.790,72.6083,9.24587,0,0.000885,0,0
0:0:39.088,73.1955,9.32171,0,0.000885,0,0
0:0:39.382,74.0184,9.42513,0,0.000885,0,0
0:0:39.683,74.4855,9.48719,0,0.000885,0,0
0:0:39.990,74.8947,9.53545,0,0.000885,0,0
0:0:40.294,75.8333,9.65266,0,0.000885,0,0
0:0:40.596,76.3626,9.72161,0,0.000885,0,0
0:0:40.900,77.2434,9.83192,0,0.000885,0,0
0:0:41.201,77.359,9.85261,0,0.000885,0,0
0:0:41.498,78.2398,9.96292,0,0.000885,0,0
0:0:41.800,78.8848,10.0457,0,0.000885,0,0
0:0:42.097,79.1205,10.0732,0,0.000885,0,0
0:0:42.395,80.4683,10.2456,0,0.000885,0,0
0:0:42.695,80.584,10.2594,0,0.000885,0,0
0:0:42.991,80.8776,10.3008,0,0.000885,0,0
0:0:43.293,81.0555,10.3215,0,0.000885,0,0
0:0:43.585,81.9941,10.4387,0,0.000885,0,0
0:0:43.890,83.2841,10.6041,0,0.000885,0,0
0:0:44.197,83.5198,10.6317,0,0.000885,0,0
0:0:44.494,84.2805,10.7282,0,0.000885,0,0
0:0:44.794,84.752,10.7903,0,0.000885,0,0
0:0:45.096,85.3347,10.8661,0,0.000885,0,0
0:0:45.401,85.9218,10.942,0,0.000885,0,0
0:0:45.702,86.1576,10.9696,0,0.000885,0,0
0:0:46.006,87.154,11.0937,0,0.000885,0,0
0:0:46.308,87.5632,11.1488,0,0.000885,0,0
0:0:46.605,88.2705,11.2385,0,0.000885,0,0
0:0:46.907,89.089,11.3419,0,0.000885,0,0
0:0:47.203,89.6183,11.4108,0,0.000885,0,0
0:0:47.503,89.9697,11.4522,0,0.000885,0,0
0:0:47.801,91.0862,11.597,0,0.000885,0,0
0:0:48.099,91.0862,11.597,0,0.000885,0,0
0:0:48.398,91.6111,11.6659,0,0.000885,0,0
0:0:48.692,92.6075,11.79,0,0.000885,0,0
0:0:48.994,93.1947,11.8659,0,0.000885,0,0
0:0:49.291,94.2534,12.0038,0,0.000885,0,0
0:0:49.594,94.369,12.0176,0,0.000885,0,0
0:0:49.897,94.369,12.0176,0,0.000885,0,0
0:0:50.201,95.014,12.1003,0,0.000885,0,0
0:0:50.505,95.5434,12.1624,0,0.000885,0,0
0:0:50.806,96.6554,12.3071,0,0.000885,0,0
0:0:51.107,97.0646,12.3623,0,0.000885,0,0
0:0:51.403,97.4205,12.4037,0,0.000885,0,0
0:0:51.703,98.239,12.5071,0,0.000885,0,0
0:0:52.003,98.4747,12.5416,0,0.000885,0,0
0:0:52.299,99.8804,12.7139,0,0.000885,0,0
0:0:52.600,100.294,12.7691,0,0.000885,0,0
0:0:52.896,100.41,12.7829,0,0.000885,0,0
0:0:53.195,101.348,12.907,0,0.000885,0,0
0:0:53.493,101.7,12.9484,0,0.000885,0,0
0:0:53.791,102.345,13.0311,0,0.000885,0,0
0:0:54.091,102.816,13.0931,0,0.000885,0,0
0:0:54.383,103.519,13.1828,0,0.000885,0,0
0:0:54.685,104.044,13.2448,0,0.000885,0,0
0:0:54.993,104.751,13.3345,0,0.000885,0,0
0:0:55.297,105.69,13.4586,0,0.000885,0,0
0:0:55.601,106.335,13.5413,0,0.000885,0,0
0:0:55.901,106.508,13.562,0,0.000885,0,0
0:0:56.205,107.211,13.6516,0,0.000885,0,0
0:0:56.500,107.447,13.6792,0,0.000885,0,0
0:0:56.801,108.385,13.8033,0,0.000885,0,0
0:0:57.099,109.03,13.8791,0,0.000885,0,0
0:0:57.394,109.382,13.9274,0,0.000885,0,0
0:0:57.695,109.969,14.0033,0,0.000885,0,0
0:0:57.993,110.85,14.1136,0,0.000885,0,0
0:0:58.292,111.085,14.1411,0,0.000885,0,0
0:0:58.586,111.553,14.2032,0,0.000885,0,0
0:0:58.886,112.785,14.3618,0,0.000885,0,0
0:0:59.185,112.963,14.3825,0,0.000885,0,0
0:0:59.480,113.43,14.4445,0,0.000885,0,0
0:0:59.782,114.017,14.5204,0,0.000885,0,0
0:1:0.087,114.898,14.6307,0,0.000885,0,0
0:1:0.393,115.191,14.6651,0,0.000885,0,0
0:1:0.695,115.894,14.7548,0,0.000885,0,0
0:1:0.997,116.89,14.8858,0,0.000885,0,0
0:1:1.300,117.362,14.9409,0,0.000885,0,0
0:1:1.597,117.887,15.0099,0,0.000885,0,0
0:1:1.897,118.652,15.1064,0,0.000885,0,0
0:1:2.195,118.71,15.1133,0,0.000885,0,0
0:1:2.492,119.59,15.2236,0,0.000885,0,0
0:1:2.792,119.648,15.2305,0,0.000885,0,0
0:1:3.085,120.88,15.3891,0,0.000885,0,0
0:1:3.387,120.938,15.396,0,0.000885,0,0
0:1:3.694,121.525,15.4718,0,0.000885,0,0
0:1:3.992,122.17,15.5546,0,0.000885,0,0
0:1:4.293,123.403,15.7132,0,0.000885,0,0
0:1:4.587,123.754,15.7545,0,0.000885,0,0
0:1:4.888,124.279,15.8235,0,0.000885,0,0
0:1:5.195,124.924,15.9062,0,0.000885,0,0
0:1:5.499,125.511,15.982,0,0.000885,0,0
0:1:5.802,126.098,16.0579,0,0.000885,0,0
0:1:6.105,126.743,16.1406,0,0.000885,0,0
0:1:6.407,126.979,16.1682,0,0.000885,0,0
0:1:6.704,127.74,16.2647,0,0.000885,0,0
0:1:7.003,128.269,16.3337,0,0.000885,0,0
0:1:7.300,129.03,16.4302,0,0.000885,0,0
0:1:7.599,129.737,16.5198,0,0.000885,0,0
0:1:7.898,129.852,16.5336,0,0.000885,0,0
0:1:8.194,130.32,16.5957,0,0.000885,0,0
0:1:8.496,131.436,16.7336,0,0.000885,0,0
0:1:8.793,131.845,16.7887,0,0.000885,0,0
0:1:9.101,132.139,16.8232,0,0.000885,0,0
0:1:9.401,133.02,16.9335,0,0.000885,0,0
0:1:9.706,133.313,16.9749,0,0.000885,0,0
0:1:10.008,134.719,17.1542,0,0.000885,0,0
0:1:10.312,134.955,17.1817,0,0.000885,0,0
0:1:10.614,135.542,17.2576,0,0.000885,0,0
0:1:10.915,136.071,17.3265,0,0.000885,0,0
0:1:11.214,136.36,17.361,0,0.000885,0,0
0:1:11.515,136.832,17.4231,0,0.000885,0,0
0:1:11.812,137.241,17.4713,0,0.000885,0,0
0:1:12.110,137.828,17.5472,0,0.000885,0,0
0:1:12.410,138.3,17.6092,0,0.000885,0,0
0:1:12.706,139.47,17.7609,0,0.000885,0,0
0:1:13.009,140.292,17.8643,0,0.000885,0,0
0:1:13.304,140.76,17.9195,0,0.000885,0,0
0:1:13.605,141.64,18.0367,0,0.000885,0,0
0:1:13.904,142.872,18.1884,0,0.000885,0,0
0:1:14.198,142.695,18.1677,0,0.000885,0,0
0:1:14.500,143.344,18.2504,0,0.000885,0,0
0:1:14.805,143.869,18.3194,0,0.000885,0,0
0:1:15.108,143.989,18.3332,0,0.000885,0,0
0:1:15.410,144.692,18.4228,0,0.000885,0,0
0:1:15.712,145.101,18.4779,0,0.000885,0,0
0:1:16.015,146.04,18.5952,0,0.000885,0,0
0:1:16.312,146.333,18.6296,0,0.000885,0,0
0:1:16.613,147.681,18.802,0,0.000885,0,0
0:1:16.911,148.384,18.8916,0,0.000885,0,0
0:1:17.208,148.74,18.9399,0,0.000885,0,0
0:1:17.507,148.74,18.9399,0,0.000885,0,0
0:1:17.804,149.736,19.064,0,0.000885,0,0
0:1:18.104,150.439,19.1536,0,0.000885,0,0
0:1:18.399,150.203,19.1261,0,0.000885,0,0
0:1:18.699,150.968,19.2226,0,0.000885,0,0
0:1:18.998,151.493,19.2915,0,0.000885,0,0
0:1:19.295,152.022,19.3536,0,0.000885,0,0
0:1:19.596,153.37,19.526,0,0.000885,0,0
0:1:19.901,153.548,19.5535,0,0.000885,0,0
0:1:20.205,154.487,19.6707,0,0.000885,0,0
0:1:20.507,154.896,19.719,0,0.000885,0,0
0:1:20.809,155.95,19.8569,0,0.000885,0,0
0:1:21.113,156.302,19.8983,0,0.000885,0,0
0:1:21.408,156.715,19.9534,0,0.000885,0,0
0:1:21.710,157.125,20.0086,0,0.000885,0,0
0:1:22.005,157.302,20.0293,0,0.000885,0,0
0:1:22.305,158.766,20.2154,0,0.000885,0,0
0:1:22.603,159.117,20.2568,0,0.000885,0,0
0:1:22.899,159.531,20.312,0,0.000885,0,0
0:1:23.200,159.998,20.374,0,0.000885,0,0
0:1:23.496,160.47,20.4292,0,0.000885,0,0
0:1:23.797,161.408,20.5533,0,0.000885,0,0
0:1:24.094,161.639,20.5809,0,0.000885,0,0
0:1:24.393,162.227,20.6567,0,0.000885,0,0
0:1:24.690,162.756,20.7256,0,0.000885,0,0
0:1:24.998,163.695,20.8429,0,0.000885,0,0
0:1:25.302,164.513,20.9463,0,0.000885,0,0
0:1:25.604,164.575,20.9532,0,0.000885,0,0
0:1:25.906,165.394,21.0566,0,0.000885,0,0
0:1:26.208,165.865,21.1186,0,0.000885,0,0
0:1:26.504,166.862,21.2427,0,0.000885,0,0
0:1:26.805,167.155,21.2841,0,0.000885,0,0
0:1:27.100,167.8,21.3669,0,0.000885,0,0
0:1:27.401,168.387,21.4427,0,0.000885,0,0
0:1:27.699,168.97,21.5116,0,0.000885,0,0
0:1:27.997,169.557,21.5875,0,0.000885,0,0
0:1:28.296,170.554,21.7185,0,0.000885,0,0
0:1:28.589,170.847,21.753,0,0.000885,0,0
0:1:28.894,171.844,21.8771,0,0.000885,0,0
0:1:29.198,171.906,21.8909,0,0.000885,0,0
0:1:29.498,172.315,21.9391,0,0.000885,0,0
0:1:29.798,173.254,22.0563,0,0.000885,0,0
0:1:30.101,173.076,22.0356,0,0.000885,0,0
0:1:30.406,174.077,22.1666,0,0.000885,0,0
0:1:30.708,174.544,22.2218,0,0.000885,0,0
0:1:31.011,175.482,22.3459,0,0.000885,0,0
0:1:31.312,176.363,22.4562,0,0.000885,0,0
0:1:31.609,176.479,22.47,0,0.000885,0,0
0:1:31.912,177.475,22.5941,0,0.000885,0,0
0:1:32.206,178.12,22.6769,0,0.000885,0,0
0:1:32.507,178.649,22.7458,0,0.000885,0,0
0:1:32.805,179.41,22.8423,0,0.000885,0,0
0:1:33.102,179.704,22.8837,0,0.000885,0,0
0:1:33.402,180.291,22.9526,0,0.000885,0,0
0:1:33.696,181.056,23.0492,0,0.000885,0,0
0:1:33.998,181.407,23.0974,0,0.000885,0,0
0:1:34.291,182.11,23.1871,0,0.000885,0,0
0:1:34.595,182.11,23.1871,0,0.000885,0,0
0:1:34.900,182.462,23.2284,0,0.000885,0,0
0:1:35.204,183.636,23.3801,0,0.000885,0,0
0:1:35.507,183.694,23.387,0,0.000885,0,0
0:1:35.808,184.575,23.4973,0,0.000885,0,0
0:1:36.112,185.629,23.6352,0,0.000885,0,0
0:1:36.408,185.98,23.6766,0,0.000885,0,0
0:1:36.706,186.919,23.8007,0,0.000885,0,0
0:1:37.005,187.27,23.8421,0,0.000885,0,0
0:1:37.302,188.502,24.0007,0,0.000885,0,0
0:1:37.604,188.618,24.0144,0,0.000885,0,0
0:1:37.897,188.618,24.0144,0,0.000885,0,0
0:1:38.199,189.677,24.1523,0,0.000885,0,0
0:1:38.496,189.912,24.1799,0,0.000885,0,0
0:1:38.802,190.615,24.2695,0,0.000885,0,0
0:1:39.102,191.26,24.3523,0,0.000885,0,0
0:1:39.398,191.847,24.4281,0,0.000885,0,0
0:1:39.701,192.55,24.5178,0,0.000885,0,0
0:1:40.004,192.959,24.566,0,0.000885,0,0
0:1:40.305,194.192,24.7246,0,0.000885,0,0
0:1:40.605,194.192,24.7246,0,0.000885,0,0
0:1:40.904,195.188,24.8556,0,0.000885,0,0
0:1:41.204,195.188,24.8556,0,0.000885,0,0
0:1:41.497,196.184,24.9797,0,0.000885,0,0
0:1:41.794,197.007,25.0831,0,0.000885,0,0
0:1:42.099,197.301,25.1245,0,0.000885,0,0
0:1:42.394,197.768,25.1797,0,0.000885,0,0
0:1:42.691,198.119,25.2279,0,0.000885,0,0
0:1:42.994,199.645,25.421,0,0.000885,0,0
0:1:43.295,199.529,25.4072,0,0.000885,0,0
0:1:43.587,199.823,25.4417,0,0.000885,0,0
0:1:43.884,200.819,25.5658,0,0.000885,0,0
0:1:44.181,200.997,25.5933,0,0.000885,0,0
0:1:44.485,202.287,25.7588,0,0.000885,0,0
0:1:44.785,202.754,25.814,0,0.000885,0,0
0:1:45.088,202.99,25.8484,0,0.000885,0,0
0:1:45.391,203.577,25.9174,0,0.000885,0,0
0:1:45.690,203.693,25.9381,0,0.000885,0,0
0:1:45.991,205.628,26.1794,0,0.000885,0,0
0:1:46.290,205.277,26.138,0,0.000885,0,0
0:1:46.596,206.273,26.2621,0,0.000885,0,0
0:1:46.894,206.451,26.2828,0,0.000885,0,0
0:1:47.198,207.269,26.3931,0,0.000885,0,0
0:1:47.496,208.328,26.5241,0,0.000885,0,0
0:1:47.791,208.266,26.5172,0,0.000885,0,0
0:1:48.097,208.559,26.5517,0,0.000885,0,0
0:1:48.395,209.204,26.6344,0,0.000885,0,0
0:1:48.685,209.734,26.7034,0,0.000885,0,0
0:1:48.985,210.966,26.862,0,0.000885,0,0
0:1:49.279,210.85,26.8482,0,0.000885,0,0
0:1:49.580,211.962,26.9861,0,0.000885,0,0
0:1:49.883,212.314,27.0343,0,0.000885,0,0
0:1:50.186,213.372,27.1653,0,0.000885,0,0
0:1:50.485,214.191,27.2688,0,0.000885,0,0
0:1:50.783,214.427,27.3032,0,0.000885,0,0
0:1:51.082,214.778,27.3446,0,0.000885,0,0
0:1:51.377,215.307,27.4136,0,0.000885,0,0
0:1:51.680,215.774,27.4756,0,0.000885,0,0
0:1:51.979,216.184,27.5239,0,0.000885,0,0
0:1:52.273,217.122,27.648,0,0.000885,0,0
0:1:52.572,217.358,27.6756,0,0.000885,0,0
0:1:52.866,218.417,27.8066,0,0.000885,0,0
0:1:53.163,218.999,27.8824,0,0.000885,0,0
0:1:53.459,219.88,27.9927,0,0.000885,0,0
0:1:53.754,219.88,27.9927,0,0.000885,0,0
0:1:54.052,220.703,28.103,0,0.000885,0,0
0:1:54.345,220.876,28.1237,0,0.000885,0,0
0:1:54.647,221.584,28.2133,0,0.000885,0,0
0:1:54.950,222.229,28.2961,0,0.000885,0,0
0:1:55.252,222.754,28.365,0,0.000885,0,0
0:1:55.553,223.456,28.4547,0,0.000885,0,0
0:1:55.853,224.395,28.5719,0,0.000885,0,0
0:1:56.154,225.569,28.7236,0,0.000885,0,0
0:1:56.447,225.454,28.7029,0,0.000885,0,0
0:1:56.746,226.566,28.8477,0,0.000885,0,0
0:1:57.041,226.156,28.7925,0,0.000885,0,0
0:1:57.338,227.331,28.9442,0,0.000885,0,0
0:1:57.637,228.207,29.0545,0,0.000885,0,0
0:1:57.928,228.149,29.0476,0,0.000885,0,0
0:1:58.228,228.914,29.1441,0,0.000885,0,0
0:1:58.523,229.324,29.1993,0,0.000885,0,0
0:1:58.820,229.791,29.2613,0,0.000885,0,0
0:1:59.116,230.792,29.3855,0,0.000885,0,0
0:1:59.412,230.965,29.4061,0,0.000885,0,0
0:1:59.711,232.375,29.5854,0,0.000885,0,0
0:2:0.014,232.433,29.5923,0,0.000885,0,0
0:2:0.316,232.958,29.6612,0,0.000885,0,0
0:2:0.615,233.959,29.7854,0,0.000885,0,0
0:2:0.915,234.604,29.8681,0,0.000885,0,0
0:2:1.214,234.426,29.8474,0,0.000885,0,0
0:2:1.508,235.071,29.9301,0,0.000885,0,0
0:2:1.809,236.067,30.0542,0,0.000885,0,0
0:2:2.100,235.774,30.0198,0,0.000885,0,0
0:2:2.399,236.712,30.137,0,0.000885,0,0
0:2:2.693,237.126,30.1921,0,0.000885,0,0
0:2:3.000,238.18,30.3231,0,0.000885,0,0
0:2:3.298,239.234,30.461,0,0.000885,0,0
0:2:3.590,239.47,30.4886,0,0.000885,0,0
0:2:3.890,240.057,30.5645,0,0.000885,0,0
0:2:4.192,240.524,30.6265,0,0.000885,0,0
0:2:4.492,241.054,30.6886,0,0.000885,0,0
0:2:4.798,241.463,30.7437,0,0.000885,0,0
0:2:5.099,242.989,30.9368,0,0.000885,0,0
0:2:5.398,242.579,30.8885,0,0.000885,0,0
0:2:5.699,243.46,30.9988,0,0.000885,0,0
0:2:5.997,243.811,31.0402,0,0.000885,0,0
0:2:6.302,244.866,31.1781,0,0.000885,0,0
0:2:6.597,245.395,31.247,0,0.000885,0,0
0:2:6.893,246.271,31.3574,0,0.000885,0,0
0:2:7.199,246.04,31.3298,0,0.000885,0,0
0:2:7.498,247.388,31.4953,0,0.000885,0,0
0:2:7.790,248.148,31.5987,0,0.000885,0,0
0:2:8.089,248.148,31.5987,0,0.000885,0,0
0:2:8.385,248.736,31.6676,0,0.000885,0,0
0:2:8.688,249.149,31.7228,0,0.000885,0,0
0:2:8.987,249.852,31.8124,0,0.000885,0,0
0:2:9.281,250.849,31.9365,0,0.000885,0,0
0:2:9.581,251.142,31.9779,0,0.000885,0,0
0:2:9.886,252.023,32.0882,0,0.000885,0,0
0:2:10.185,252.432,32.1434,0,0.000885,0,0
0:2:10.485,252.784,32.1847,0,0.000885,0,0
0:2:10.783,253.077,32.2261,0,0.000885,0,0
0:2:11.083,254.016,32.3433,0,0.000885,0,0
0:2:11.376,254.131,32.3571,0,0.000885,0,0
0:2:11.684,255.248,32.5019,0,0.000885,0,0
0:2:11.990,255.484,32.5295,0,0.000885,0,0
0:2:12.286,256.48,32.6536,0,0.000885,0,0
0:2:12.584,256.244,32.626,0,0.000885,0,0
0:2:12.886,257.77,32.819,0,0.000885,0,0
0:2:13.185,258.237,32.8811,0,0.000885,0,0
0:2:13.492,259.589,33.0535,0,0.000885,0,0
0:2:13.795,259.176,32.9983,0,0.000885,0,0
0:2:14.093,260.056,33.1086,0,0.000885,0,0
0:2:14.387,260.586,33.1776,0,0.000885,0,0
0:2:14.688,261.756,33.3293,0,0.000885,0,0
0:2:14.991,261.698,33.3224,0,0.000885,0,0
0:2:15.294,263.046,33.4947,0,0.000885,0,0
0:2:15.594,263.691,33.5775,0,0.000885,0,0
0:2:15.892,263.926,33.605,0,0.000885,0,0
0:2:16.193,264.865,33.7223,0,0.000885,0,0
0:2:16.487,264.104,33.6257,0,0.000885,0,0
0:2:16.786,265.394,33.7912,0,0.000885,0,0
0:2:17.091,266.097,33.8808,0,0.000885,0,0
0:2:17.385,266.275,33.9015,0,0.000885,0,0
0:2:17.685,266.858,33.9774,0,0.000885,0,0
0:2:17.987,267.738,34.0877,0,0.000885,0,0
0:2:18.286,267.859,34.1015,0,0.000885,0,0
0:2:18.591,269.086,34.26,0,0.000885,0,0
0:2:18.888,269.264,34.2807,0,0.000885,0,0
0:2:19.184,269.442,34.3083,0,0.000885,0,0
0:2:19.479,270.67,34.46,0,0.000885,0,0
0:2:19.778,271.141,34.522,0,0.000885,0,0
0:2:20.080,271.902,34.6186,0,0.000885,0,0
0:2:20.382,271.844,34.6117,0,0.000885,0,0
0:2:20.683,273.134,34.7772,0,0.000885,0,0
0:2:20.983,273.37,34.8047,0,0.000885,0,0
0:2:21.283,274.66,34.9702,0,0.000885,0,0
0:2:21.576,274.602,34.9633,0,0.000885,0,0
0:2:21.875,275.541,35.0805,0,0.000885,0,0
0:2:22.170,275.541,35.0805,0,0.000885,0,0
0:2:22.466,276.479,35.2046,0,0.000885,0,0
0:2:22.762,277.533,35.3356,0,0.000885,0,0
0:2:23.058,277.533,35.3356,0,0.000885,0,0
0:2:23.357,278.178,35.4184,0,0.000885,0,0
0:2:23.650,279.059,35.5287,0,0.000885,0,0
0:2:23.950,279.411,35.5769,0,0.000885,0,0
0:2:24.245,280.113,35.6666,0,0.000885,0,0
0:2:24.544,280.879,35.7631,0,0.000885,0,0
0:2:24.848,281.11,35.7907,0,0.000885,0,0
0:2:25.149,281.755,35.8734,0,0.000885,0,0
0:2:25.450,281.991,35.901,0,0.000885,0,0
0:2:25.751,283.165,36.0527,0,0.000885,0,0
0:2:26.049,283.632,36.1147,0,0.000885,0,0
0:2:26.346,283.458,36.0941,0,0.000885,0,0
0:2:26.639,284.864,36.2733,0,0.000885,0,0
0:2:26.940,284.691,36.2457,0,0.000885,0,0
0:2:27.234,285.687,36.3767,0,0.000885,0,0
0:2:27.531,285.803,36.3905,0,0.000885,0,0
0:2:27.827,287.035,36.5491,0,0.000885,0,0
0:2:28.122,287.035,36.5491,0,0.000885,0,0
0:2:28.421,288.151,36.687,0,0.000885,0,0
0:2:28.714,288.676,36.756,0,0.000885,0,0
0:2:29.013,289.735,36.887,0,0.000885,0,0
0:2:29.310,290.322,36.9628,0,0.000885,0,0
0:2:29.610,290.38,36.9697,0,0.000885,0,0
0:2:29.914,291.083,37.0593,0,0.000885,0,0
0:2:30.214,292.021,37.1834,0,0.000885,0,0
0:2:30.515,292.315,37.2179,0,0.000885,0,0
0:2:30.814,292.608,37.2593,0,0.000885,0,0
0:2:31.111,293.605,37.3834,0,0.000885,0,0
0:2:31.408,293.547,37.3765,0,0.000885,0,0
0:2:31.702,294.486,37.4937,0,0.000885,0,0
0:2:32.002,295.073,37.5695,0,0.000885,0,0
0:2:32.294,295.776,37.6592,0,0.000885,0,0
0:2:32.592,295.598,37.6385,0,0.000885,0,0
0:2:32.886,297.301,37.8522,0,0.000885,0,0
0:2:33.201,297.301,37.8522,0,0.000885,0,0
0:2:33.501,298.471,38.0039,0,0.000885,0,0
0:2:33.804,298.591,38.0177,0,0.000885,0,0
0:2:34.102,299.41,38.1211,0,0.000885,0,0
0:2:34.395,300.175,38.2176,0,0.000885,0,0
0:2:34.697,300.468,38.259,0,0.000885,0,0
0:2:35.002,300.993,38.3211,0,0.000885,0,0
0:2:35.304,301.465,38.3831,0,0.000885,0,0
0:2:35.604,302.461,38.5072,0,0.000885,0,0
0:2:35.904,302.928,38.5693,0,0.000885,0,0
0:2:36.201,303.925,38.7003,0,0.000885,0,0
0:2:36.495,303.987,38.7072,0,0.000885,0,0
0:2:36.790,304.574,38.7761,0,0.000885,0,0
0:2:37.089,304.69,38.7968,0,0.000885,0,0
0:2:37.381,306.038,38.9692,0,0.000885,0,0
0:2:37.682,306.216,38.9899,0,0.000885,0,0
0:2:37.976,306.509,39.0243,0,0.000885,0,0
0:2:38.272,307.741,39.1829,0,0.000885,0,0
0:2:38.569,307.799,39.1898,0,0.000885,0,0
0:2:38.864,308.969,39.3415,0,0.000885,0,0
0:2:39.163,309.556,39.4173,0,0.000885,0,0
0:2:39.455,309.792,39.4449,0,0.000885,0,0
0:2:39.756,310.615,39.5483,0,0.000885,0,0
0:2:40.058,310.615,39.5483,0,0.000885,0,0
0:2:40.360,312.021,39.7276,0,0.000885,0,0
0:2:40.662,312.608,39.8034,0,0.000885,0,0
0:2:40.960,312.781,39.8241,0,0.000885,0,0
0:2:41.261,313.84,39.962,0,0.000885,0,0
0:2:41.555,314.076,39.9896,0,0.000885,0,0
0:2:41.853,315.01,40.1068,0,0.000885,0,0
0:2:42.150,314.658,40.0654,0,0.000885,0,0
0:2:42.444,316.184,40.2585,0,0.000885,0,0
0:2:42.742,316.126,40.2516,0,0.000885,0,0
0:2:43.035,316.771,40.3343,0,0.000885,0,0
0:2:43.335,317.007,40.3619,0,0.000885,0,0
0:2:43.629,317.71,40.4515,0,0.000885,0,0
0:2:43.925,318.47,40.5481,0,0.000885,0,0
0:2:44.223,319.178,40.6377,0,0.000885,0,0
0:2:44.525,320.174,40.7687,0,0.000885,0,0
0:2:44.828,320.468,40.8032,0,0.000885,0,0
0:2:45.128,321.406,40.9204,0,0.000885,0,0
0:2:45.428,321.464,40.9273,0,0.000885,0,0
0:2:45.728,322.109,41.01,0,0.000885,0,0
0:2:46.021,322.109,41.01,0,0.000885,0,0
0:2:46.320,323.635,41.2031,0,0.000885,0,0
0:2:46.614,323.928,41.2444,0,0.000885,0,0
0:2:46.913,324.28,41.2858,0,0.000885,0,0
0:2:47.206,325.098,41.3961,0,0.000885,0,0
0:2:47.504,325.57,41.4513,0,0.000885,0,0
0:2:47.798,326.508,41.5754,0,0.000885,0,0
0:2:48.093,326.508,41.5754,0,0.000885,0,0
0:2:48.390,327.62,41.7133,0,0.000885,0,0
0:2:48.694,327.678,41.7202,0,0.000885,0,0
0:2:48.992,328.91,41.8788,0,0.000885,0,0
0:2:49.296,329.324,41.9339,0,0.000885,0,0
0:2:49.596,329.555,41.9615,0,0.000885,0,0
0:2:49.902,330.494,42.0787,0,0.000885,0,0
0:2:50.204,330.027,42.0235,0,0.000885,0,0
0:2:50.505,331.61,42.2235,0,0.000885,0,0
0:2:50.806,332.14,42.2924,0,0.000885,0,0
0:2:51.103,332.198,42.2993,0,0.000885,0,0
0:2:51.398,333.488,42.4579,0,0.000885,0,0
0:2:51.704,333.603,42.4786,0,0.000885,0,0
0:2:52.004,334.075,42.5338,0,0.000885,0,0
0:2:52.304,334.72,42.6165,0,0.000885,0,0
0:2:52.604,335.716,42.7475,0,0.000885,0,0
0:2:52.897,336.183,42.8027,0,0.000885,0,0
0:2:53.206,337.242,42.9405,0,0.000885,0,0
0:2:53.503,337.3,42.9474,0,0.000885,0,0
0:2:53.795,338.003,43.0371,0,0.000885,0,0
0:2:54.095,338.705,43.1267,0,0.000885,0,0
0:2:54.397,339.235,43.1957,0,0.000885,0,0
0:2:54.698,339.35,43.2094,0,0.000885,0,0
0:2:55.002,340.115,43.306,0,0.000885,0,0
0:2:55.304,341.17,43.437,0,0.000885,0,0
0:2:55.605,341.579,43.4921,0,0.000885,0,0
0:2:55.904,342.224,43.5749,0,0.000885,0,0
0:2:56.204,342.575,43.6162,0,0.000885,0,0
0:2:56.496,343.34,43.7128,0,0.000885,0,0
0:2:56.804,344.159,43.8231,0,0.000885,0,0
0:2:57.103,344.279,43.8369,0,0.000885,0,0
0:2:57.404,345.16,43.9472,0,0.000885,0,0
0:2:57.704,346.156,44.0713,0,0.000885,0,0
0:2:58.008,346.45,44.1127,0,0.000885,0,0
0:2:58.306,346.508,44.1196,0,0.000885,0,0
0:2:58.602,347.74,44.2781,0,0.000885,0,0
0:2:58.895,348.091,44.3195,0,0.000885,0,0
0:2:59.194,348.558,44.3816,0,0.000885,0,0
0:2:59.495,348.736,44.4022,0,0.000885,0,0
0:2:59.796,349.381,44.485,0,0.000885,0,0
0:3:0.099,350.613,44.6436,0,0.000885,0,0
0:3:0.398,350.907,44.678,0,0.000885,0,0
0:3:0.700,351.374,44.7401,0,0.000885,0,0
0:3:1.004,351.903,44.809,0,0.000885,0,0
0:3:1.305,353.251,44.9745,0,0.000885,0,0
0:3:1.607,353.371,44.9952,0,0.000885,0,0
0:3:1.905,353.602,45.0228,0,0.000885,0,0
0:3:2.199,354.31,45.1124,0,0.000885,0,0
0:3:2.495,355.186,45.2227,0,0.000885,0,0
0:3:2.793,355.48,45.2641,0,0.000885,0,0
0:3:3.095,356.182,45.3537,0,0.000885,0,0
0:3:3.394,356.418,45.3813,0,0.000885,0,0
0:3:3.689,357.183,45.4778,0,0.000885,0,0
0:3:3.996,358.295,45.6226,0,0.000885,0,0
0:3:4.305,359.06,45.7191,0,0.000885,0,0
0:3:4.606,359.234,45.7398,0,0.000885,0,0
0:3:4.909,359.528,45.7743,0,0.000885,0,0
0:3:5.209,360.057,45.8432,0,0.000885,0,0
0:3:5.511,360.875,45.9467,0,0.000885,0,0
0:3:5.813,361.992,46.0915,0,0.000885,0,0
0:3:6.107,362.285,46.1259,0,0.000885,0,0
0:3:6.405,362.517,46.1604,0,0.000885,0,0
0:3:6.709,363.633,46.2983,0,0.000885,0,0
0:3:7.009,363.985,46.3466,0,0.000885,0,0
0:3:7.301,364.63,46.4293,0,0.000885,0,0
0:3:7.599,365.159,46.4913,0,0.000885,0,0
0:3:7.896,365.684,46.5603,0,0.000885,0,0
0:3:8.199,366.329,46.643,0,0.000885,0,0
0:3:8.499,366.8,46.7051,0,0.000885,0,0
0:3:8.804,367.623,46.8085,0,0.000885,0,0
0:3:9.100,367.681,46.8154,0,0.000885,0,0
0:3:9.395,368.384,46.905,0,0.000885,0,0
0:3:9.697,369.616,47.0636,0,0.000885,0,0
0:3:10.000,370.083,47.1188,0,0.000885,0,0
0:3:10.301,370.377,47.1601,0,0.000885,0,0
0:3:10.601,371.142,47.2567,0,0.000885,0,0
0:3:10.904,371.667,47.3256,0,0.000885,0,0
0:3:11.199,372.254,47.3946,0,0.000885,0,0
0:3:11.506,372.783,47.4635,0,0.000885,0,0
0:3:11.799,373.664,47.5738,0,0.000885,0,0
0:3:12.098,374.073,47.629,0,0.000885,0,0
0:3:12.400,374.603,47.6979,0,0.000885,0,0
0:3:12.699,375.07,47.7531,0,0.000885,0,0
0:3:12.994,375.479,47.8082,0,0.000885,0,0
0:3:13.290,376.124,47.891,0,0.000885,0,0
0:3:13.588,376.947,47.9944,0,0.000885,0,0
0:3:13.881,377.062,48.0082,0,0.000885,0,0
0:3:14.182,377.592,48.0771,0,0.000885,0,0
0:3:14.485,378.295,48.1668,0,0.000885,0,0
0:3:14.786,379.117,48.2702,0,0.000885,0,0
0:3:15.086,379.469,48.3185,0,0.000885,0,0
0:3:15.387,380.581,48.4564,0,0.000885,0,0
0:3:15.686,380.875,48.4977,0,0.000885,0,0
0:3:15.988,381.64,48.5942,0,0.000885,0,0
0:3:16.289,382.107,48.6494,0,0.000885,0,0
0:3:16.594,382.636,48.7184,0,0.000885,0,0
0:3:16.908,382.93,48.7528,0,0.000885,0,0
0:3:17.207,383.459,48.8218,0,0.000885,0,0
0:3:17.499,384.922,49.0079,0,0.000885,0,0
0:3:17.800,385.452,49.0769,0,0.000885,0,0
0:3:18.104,385.861,49.132,0,0.000885,0,0
0:3:18.401,386.212,49.1734,0,0.000885,0,0
0:3:18.697,386.564,49.2217,0,0.000885,0,0
0:3:18.991,387.387,49.3251,0,0.000885,0,0
0:3:19.290,388.441,49.4561,0,0.000885,0,0
0:3:19.593,388.677,49.4906,0,0.000885,0,0
0:3:19.894,389.322,49.5733,0,0.000885,0,0
0:3:20.195,389.615,49.6078,0,0.000885,0,0
0:3:20.495,390.438,49.7112,0,0.000885,0,0
0:3:20.795,391.141,49.8008,0,0.000885,0,0
0:3:21.088,391.844,49.8905,0,0.000885,0,0
0:3:21.388,392.022,49.9111,0,0.000885,0,0
0:3:21.693,392.667,49.9939,0,0.000885,0,0
0:3:21.998,393.427,50.0904,0,0.000885,0,0
0:3:22.306,394.188,50.1869,0,0.000885,0,0
0:3:22.611,394.895,50.2766,0,0.000885,0,0
0:3:22.911,395.189,50.3179,0,0.000885,0,0
0:3:23.201,395.656,50.3731,0,0.000885,0,0
0:3:23.500,396.537,50.4903,0,0.000885,0,0
0:3:23.795,396.946,50.5386,0,0.000885,0,0
0:3:24.091,397.475,50.6075,0,0.000885,0,0
0:3:24.396,397.711,50.6351,0,0.000885,0,0
0:3:24.699,398.53,50.7454,0,0.000885,0,0
0:3:25.001,398.707,50.7661,0,0.000885,0,0
0:3:25.302,399.001,50.8006,0,0.000885,0,0
0:3:25.602,399.997,50.9316,0,0.000885,0,0
0:3:25.905,400.291,50.966,0,0.000885,0,0
0:3:26.198,401.109,51.0695,0,0.000885,0,0
0:3:26.499,402.342,51.228,0,0.000885,0,0
0:3:26.793,402.929,51.3039,0,0.000885,0,0
0:3:27.091,402.813,51.2901,0,0.000885,0,0
0:3:27.386,403.925,51.428,0,0.000885,0,0
0:3:27.690,404.806,51.5383,0,0.000885,0,0
0:3:27.990,405.157,51.5866,0,0.000885,0,0
0:3:28.292,405.86,51.6762,0,0.000885,0,0
0:3:28.592,406.332,51.7383,0,0.000885,0,0
0:3:28.886,407.212,51.8486,0,0.000885,0,0
0:3:29.184,407.737,51.9175,0,0.000885,0,0
0:3:29.481,408.56,52.0209,0,0.000885,0,0
0:3:29.780,408.56,52.0209,0,0.000885,0,0
0:3:30.084,409.672,52.1588,0,0.000885,0,0
0:3:30.384,410.144,52.2209,0,0.000885,0,0
0:3:30.684,410.962,52.3243,0,0.000885,0,0
0:3:30.984,411.082,52.3381,0,0.000885,0,0
0:3:31.282,411.785,52.4277,0,0.000885,0,0
0:3:31.580,412.194,52.4829,0,0.000885,0,0
0:3:31.872,412.43,52.5105,0,0.000885,0,0
0:3:32.172,413.72,52.6759,0,0.000885,0,0
0:3:32.464,413.547,52.6553,0,0.000885,0,0
0:3:32.763,414.601,52.7863,0,0.000885,0,0
0:3:33.060,414.952,52.8345,0,0.000885,0,0
0:3:33.356,415.833,52.9448,0,0.000885,0,0
0:3:33.654,416.127,52.9793,0,0.000885,0,0
0:3:33.946,416.887,53.0827,0,0.000885,0,0
0:3:34.246,417.474,53.1517,0,0.000885,0,0
0:3:34.549,417.71,53.1862,0,0.000885,0,0
0:3:34.851,418.764,53.3172,0,0.000885,0,0
0:3:35.152,419.058,53.3585,0,0.000885,0,0
0:3:35.451,420.17,53.4964,0,0.000885,0,0
0:3:35.753,420.464,53.5378,0,0.000885,0,0
0:3:36.046,421.051,53.6067,0,0.000885,0,0
0:3:36.345,421.402,53.655,0,0.000885,0,0
0:3:36.641,421.989,53.7308,0,0.000885,0,0
0:3:36.935,422.519,53.7998,0,0.000885,0,0
0:3:37.233,422.986,53.8549,0,0.000885,0,0
0:3:37.527,423.809,53.9584,0,0.000885,0,0
0:3:37.829,424.921,54.1032,0,0.000885,0,0
0:3:38.122,424.983,54.1101,0,0.000885,0,0
0:3:38.418,425.686,54.1997,0,0.000885,0,0
0:3:38.716,426.153,54.2617,0,0.000885,0,0
0:3:39.009,426.389,54.2893,0,0.000885,0,0
0:3:39.309,427.505,54.4341,0,0.000885,0,0
0:3:39.612,428.03,54.4962,0,0.000885,0,0
0:3:39.914,428.733,54.5858,0,0.000885,0,0
0:3:40.214,429.32,54.6616,0,0.000885,0,0
0:3:40.514,429.262,54.6547,0,0.000885,0,0
0:3:40.815,429.907,54.7375,0,0.000885,0,0
0:3:41.110,430.846,54.8547,0,0.000885,0,0
0:3:41.409,431.139,54.8961,0,0.000885,0,0
0:3:41.700,432.02,55.0064,0,0.000885,0,0
0:3:41.998,432.55,55.0753,0,0.000885,0,0
0:3:42.295,433.426,55.1856,0,0.000885,0,0
0:3:42.598,433.546,55.1994,0,0.000885,0,0
0:3:42.896,434.484,55.3166,0,0.000885,0,0
0:3:43.198,434.894,55.3718,0,0.000885,0,0
0:3:43.498,436.242,55.5442,0,0.000885,0,0
0:3:43.792,436.477,55.5717,0,0.000885,0,0
0:3:44.090,436.887,55.6269,0,0.000885,0,0
0:3:44.396,437.474,55.7027,0,0.000885,0,0
0:3:44.697,437.709,55.7303,0,0.000885,0,0
0:3:44.999,438.354,55.8131,0,0.000885,0,0
0:3:45.300,438.884,55.882,0,0.000885,0,0
0:3:45.601,439.115,55.9096,0,0.000885,0,0
0:3:45.902,440.347,56.0682,0,0.000885,0,0
0:3:46.208,440.992,56.1509,0,0.000885,0,0
0:3:46.508,441.637,56.2336,0,0.000885,0,0
0:3:46.797,441.931,56.2681,0,0.000885,0,0
0:3:47.097,442.754,56.3715,0,0.000885,0,0
0:3:47.401,442.754,56.3715,0,0.000885,0,0
0:3:47.708,443.808,56.5094,0,0.000885,0,0
0:3:48.005,444.689,56.6197,0,0.000885,0,0
0:3:48.310,445.04,56.6611,0,0.000885,0,0
0:3:48.608,446.037,56.7921,0,0.000885,0,0
0:3:48.901,446.272,56.8197,0,0.000885,0,0
0:3:49.209,446.682,56.8749,0,0.000885,0,0
0:3:49.503,447.153,56.93,0,0.000885,0,0
0:3:49.809,447.678,56.999,0,0.000885,0,0
0:3:50.110,448.616,57.1231,0,0.000885,0,0
0:3:50.410,449.382,57.2196,0,0.000885,0,0
0:3:50.709,449.675,57.2541,0,0.000885,0,0
0:3:51.011,450.027,57.3023,0,0.000885,0,0
0:3:51.314,450.551,57.3644,0,0.000885,0,0
0:3:51.614,451.081,57.4333,0,0.000885,0,0
0:3:51.917,452.019,57.5505,0,0.000885,0,0
0:3:52.213,452.607,57.6264,0,0.000885,0,0
0:3:52.511,452.958,57.6746,0,0.000885,0,0
0:3:52.801,453.719,57.7712,0,0.000885,0,0
0:3:53.102,454.719,57.8953,0,0.000885,0,0
0:3:53.395,455.187,57.9573,0,0.000885,0,0
0:3:53.702,455.48,57.9918,0,0.000885,0,0
0:3:53.998,456.241,58.0883,0,0.000885,0,0
0:3:54.299,456.77,58.1573,0,0.000885,0,0
0:3:54.602,457.179,58.2124,0,0.000885,0,0
0:3:54.902,458.176,58.3365,0,0.000885,0,0
0:3:55.203,458.999,58.44,0,0.000885,0,0
0:3:55.502,459.35,58.4882,0,0.000885,0,0
0:3:55.799,459.466,58.502,0,0.000885,0,0
0:3:56.096,460.404,58.6192,0,0.000885,0,0
0:3:56.389,460.818,58.6744,0,0.000885,0,0
0:3:56.690,461.405,58.7502,0,0.000885,0,0
0:3:56.993,462.166,58.8468,0,0.000885,0,0
0:3:57.289,462.166,58.8468,0,0.000885,0,0
0:3:57.594,463.634,59.0329,0,0.000885,0,0
0:3:57.910,464.043,59.0812,0,0.000885,0,0
0:3:58.209,464.804,59.1777,0,0.000885,0,0
0:3:58.511,464.982,59.2053,0,0.000885,0,0
0:3:58.810,465.684,59.2949,0,0.000885,0,0
0:3:59.113,466.214,59.357,0,0.000885,0,0
0:3:59.415,466.859,59.4397,0,0.000885,0,0
0:3:59.718,467.326,59.5018,0,0.000885,0,0
0:4:0.019,468.206,59.6121,0,0.000885,0,0
0:4:0.318,468.384,59.6397,0,0.000885,0,0
0:4:0.617,469.261,59.75,0,0.000885,0,0
0:4:0.915,469.554,59.7844,0,0.000885,0,0
0:4:1.212,470.262,59.8741,0,0.000885,0,0
0:4:1.515,470.671,59.9292,0,0.000885,0,0
0:4:1.813,471.431,60.0258,0,0.000885,0,0
0:4:2.117,472.37,60.143,0,0.000885,0,0
0:4:2.414,472.548,60.1637,0,0.000885,0,0
0:4:2.710,473.309,60.2671,0,0.000885,0,0
0:4:3.015,473.838,60.3291,0,0.000885,0,0
0:4:3.312,474.719,60.4394,0,0.000885,0,0
0:4:3.614,475.07,60.4877,0,0.000885,0,0
0:4:3.914,475.951,60.598,0,0.000885,0,0
0:4:4.217,476.182,60.6325,0,0.000885,0,0
0:4:4.519,476.596,60.6808,0,0.000885,0,0
0:4:4.820,476.534,60.6739,0,0.000885,0,0
0:4:5.122,477.472,60.7911,0,0.000885,0,0
0:4:5.421,478.411,60.9152,0,0.000885,0,0
0:4:5.722,479.176,61.0117,0,0.000885,0,0
0:4:6.019,479.936,61.1082,0,0.000885,0,0
0:4:6.316,480.466,61.1772,0,0.000885,0,0
0:4:6.610,480.759,61.2117,0,0.000885,0,0
0:4:6.906,481.52,61.3082,0,0.000885,0,0
0:4:7.200,482.049,61.3771,0,0.000885,0,0
0:4:7.500,482.223,61.3978,0,0.000885,0,0
0:4:7.802,483.339,61.5426,0,0.000885,0,0
0:4:8.099,483.691,61.584,0,0.000885,0,0
0:4:8.397,484.394,61.6736,0,0.000885,0,0
0:4:8.700,484.981,61.7494,0,0.000885,0,0
0:4:9.000,485.452,61.8115,0,0.000885,0,0
0:4:9.293,486.035,61.8873,0,0.000885,0,0
0:4:9.595,486.916,61.9977,0,0.000885,0,0
0:4:9.898,487.267,62.039,0,0.000885,0,0
0:4:10.198,487.739,62.1011,0,0.000885,0,0
0:4:10.498,488.441,62.1907,0,0.000885,0,0
0:4:10.799,488.793,62.2321,0,0.000885,0,0
0:4:11.098,489.967,62.3838,0,0.000885,0,0
0:4:11.413,490.141,62.4044,0,0.000885,0,0
0:4:11.712,490.319,62.432,0,0.000885,0,0
0:4:12.006,490.786,62.4872,0,0.000885,0,0
0:4:12.312,491.844,62.6251,0,0.000885,0,0
0:4:12.611,492.431,62.7009,0,0.000885,0,0
0:4:12.914,493.134,62.7906,0,0.000885,0,0
0:4:13.212,493.895,62.8871,0,0.000885,0,0
0:4:13.515,493.895,62.8871,0,0.000885,0,0
0:4:13.812,495.363,63.0732,0,0.000885,0,0
0:4:14.110,495.888,63.1353,0,0.000885,0,0
0:4:14.412,496.244,63.1836,0,0.000885,0,0
0:4:14.714,496.946,63.2732,0,0.000885,0,0
0:4:15.015,497.24,63.3077,0,0.000885,0,0
0:4:15.315,498.646,63.4869,0,0.000885,0,0
0:4:15.616,498.939,63.5283,0,0.000885,0,0
0:4:15.918,499.233,63.5628,0,0.000885,0,0
0:4:16.218,499.993,63.6593,0,0.000885,0,0
0:4:16.510,500.701,63.7489,0,0.000885,0,0
0:4:16.810,501.288,63.8248,0,0.000885,0,0
0:4:17.114,501.639,63.873,0,0.000885,0,0
0:4:17.419,502.222,63.942,0,0.000885,0,0
0:4:17.716,502.284,63.9558,0,0.000885,0,0
0:4:18.020,503.574,64.1143,0,0.000885,0,0
0:4:18.319,503.868,64.1557,0,0.000885,0,0
0:4:18.613,504.744,64.266,0,0.000885,0,0
0:4:18.910,505.1,64.3143,0,0.000885,0,0
0:4:19.203,505.683,64.3832,0,0.000885,0,0
0:4:19.505,506.212,64.4522,0,0.000885,0,0
0:4:19.807,506.973,64.5487,0,0.000885,0,0
0:4:20.111,507.502,64.6177,0,0.000885,0,0
0:4:20.411,507.738,64.6452,0,0.000885,0,0
0:4:20.713,509.264,64.8383,0,0.000885,0,0
0:4:21.006,509.379,64.859,0,0.000885,0,0
0:4:21.303,509.673,64.8935,0,0.000885,0,0
0:4:21.605,510.202,64.9624,0,0.000885,0,0
0:4:21.904,510.847,65.0451,0,0.000885,0,0
0:4:22.198,511.666,65.1486,0,0.000885,0,0
0:4:22.497,512.195,65.2175,0,0.000885,0,0
0:4:22.791,512.195,65.2175,0,0.000885,0,0
0:4:23.097,513.133,65.3347,0,0.000885,0,0
0:4:23.396,513.485,65.3761,0,0.000885,0,0
0:4:23.689,514.366,65.4933,0,0.000885,0,0
0:4:23.989,515.246,65.6036,0,0.000885,0,0
0:4:24.283,515.656,65.6519,0,0.000885,0,0
0:4:24.584,516.358,65.7415,0,0.000885,0,0
0:4:24.889,517.124,65.8449,0,0.000885,0,0
0:4:25.190,517.591,65.9001,0,0.000885,0,0
0:4:25.490,517.826,65.9346,0,0.000885,0,0
0:4:25.790,518.529,66.0242,0,0.000885,0,0
0:4:26.097,519.059,66.0862,0,0.000885,0,0
0:4:26.401,519.935,66.2035,0,0.000885,0,0
0:4:26.698,520.349,66.2517,0,0.000885,0,0
0:4:26.996,520.936,66.3276,0,0.000885,0,0
0:4:27.289,521.638,66.4172,0,0.000885,0,0
0:4:27.589,521.874,66.4448,0,0.000885,0,0
0:4:27.892,522.399,66.5137,0,0.000885,0,0
0:4:28.197,523.28,66.624,0,0.000885,0,0
0:4:28.505,523.925,66.7068,0,0.000885,0,0
0:4:28.818,524.218,66.7481,0,0.000885,0,0
0:4:29.119,524.748,66.8102,0,0.000885,0,0
0:4:29.423,525.566,66.9205,0,0.000885,0,0
0:4:29.724,526.331,67.017,0,0.000885,0,0
0:4:30.026,527.15,67.1205,0,0.000885,0,0
0:4:30.326,527.328,67.1411,0,0.000885,0,0
0:4:30.625,528.088,67.2377,0,0.000885,0,0
0:4:30.919,528.676,67.3135,0,0.000885,0,0
0:4:31.217,528.969,67.348,0,0.000885,0,0
0:4:31.512,529.378,67.4031,0,0.000885,0,0
0:4:31.808,530.726,67.5755,0,0.000885,0,0
0:4:32.117,530.962,67.6031,0,0.000885,0,0
0:4:32.418,531.491,67.672,0,0.000885,0,0
0:4:32.718,532.078,67.7479,0,0.000885,0,0
0:4:33.020,532.43,67.7893,0,0.000885,0,0
0:4:33.318,533.133,67.8789,0,0.000885,0,0
0:4:33.614,533.956,67.9823,0,0.000885,0,0
0:4:33.919,534.187,68.0168,0,0.000885,0,0
0:4:34.217,534.423,68.0444,0,0.000885,0,0
0:4:34.520,535.303,68.1547,0,0.000885,0,0
0:4:34.823,535.833,68.2236,0,0.000885,0,0
0:4:35.123,536.415,68.2995,0,0.000885,0,0
0:4:35.423,536.709,68.3339,0,0.000885,0,0
0:4:35.725,538.644,68.5822,0,0.000885,0,0
0:4:36.018,538.119,68.5132,0,0.000885,0,0
0:4:36.318,539.289,68.6649,0,0.000885,0,0
0:4:36.618,539.231,68.658,0,0.000885,0,0
0:4:36.917,540.757,68.851,0,0.000885,0,0
0:4:37.214,541.402,68.9338,0,0.000885,0,0
0:4:37.507,541.638,68.9614,0,0.000885,0,0
0:4:37.804,542.283,69.0441,0,0.000885,0,0
0:4:38.098,542.518,69.0786,0,0.000885,0,0
0:4:38.398,542.986,69.1337,0,0.000885,0,0
0:4:38.701,543.457,69.1958,0,0.000885,0,0
0:4:38.998,544.863,69.375,0,0.000885,0,0
0:4:39.295,545.098,69.4026,0,0.000885,0,0
0:4:39.597,546.273,69.5543,0,0.000885,0,0
0:4:39.898,545.743,69.4854,0,0.000885,0,0
0:4:40.199,546.976,69.6439,0,0.000885,0,0
0:4:40.500,547.794,69.7474,0,0.000885,0,0
0:4:40.799,547.327,69.6853,0,0.000885,0,0
0:4:41.094,548.323,69.8163,0,0.000885,0,0
0:4:41.392,548.675,69.8577,0,0.000885,0,0
0:4:41.685,549.613,69.9818,0,0.000885,0,0
0:4:41.985,550.668,70.1128,0,0.000885,0,0
0:4:42.277,550.436,70.0852,0,0.000885,0,0
0:4:42.577,551.548,70.2231,0,0.000885,0,0
0:4:42.872,552.078,70.2921,0,0.000885,0,0
0:4:43.169,552.607,70.361,0,0.000885,0,0
0:4:43.466,553.661,70.492,0,0.000885,0,0
0:4:43.760,553.483,70.4713,0,0.000885,0,0
0:4:44.060,553.897,70.5265,0,0.000885,0,0
0:4:44.365,554.6,70.6161,0,0.000885,0,0
0:4:44.665,555.774,70.7609,0,0.000885,0,0
0:4:44.965,555.89,70.7747,0,0.000885,0,0
0:4:45.264,556.063,70.8023,0,0.000885,0,0
0:4:45.563,556.535,70.8574,0,0.000885,0,0
0:4:45.859,557.94,71.0367,0,0.000885,0,0
0:4:46.157,558.528,71.1125,0,0.000885,0,0
0:4:46.453,558.941,71.1677,0,0.000885,0,0
0:4:46.749,559.351,71.2159,0,0.000885,0,0
0:4:47.047,560.111,71.3125,0,0.000885,0,0
0:4:47.340,560.814,71.4021,0,0.000885,0,0
0:4:47.641,561.637,71.5124,0,0.000885,0,0
0:4:47.935,561.93,71.5469,0,0.000885,0,0
0:4:48.231,562.398,71.6089,0,0.000885,0,0
0:4:48.527,562.46,71.6158,0,0.000885,0,0
0:4:48.822,562.166,71.5745,0,0.000885,0,0
0:4:49.123,563.981,71.8089,0,0.000885,0,0
0:4:49.425,564.217,71.8365,0,0.000885,0,0
0:4:49.727,565.449,71.9951,0,0.000885,0,0
0:4:50.027,565.333,71.9813,0,0.000885,0,0
0:4:50.327,566.797,72.1674,0,0.000885,0,0
0:4:50.627,567.793,72.2915,0,0.000885,0,0
0:4:50.922,567.971,72.3191,0,0.000885,0,0
0:4:51.222,568.674,72.4087,0,0.000885,0,0
0:4:51.514,569.203,72.4708,0,0.000885,0,0
0:4:51.810,570.315,72.6156,0,0.000885,0,0
0:4:52.107,570.609,72.6501,0,0.000885,0,0
0:4:52.402,570.787,72.6776,0,0.000885,0,0
0:4:52.701,571.841,72.8086,0,0.000885,0,0
0:4:53.002,571.841,72.8086,0,0.000885,0,0
0:4:53.303,573.251,72.9879,0,0.000885,0,0
0:4:53.618,573.483,73.0155,0,0.000885,0,0
0:4:53.914,573.309,72.9948,0,0.000885,0,0
0:4:54.210,575.186,73.2361,0,0.000885,0,0
0:4:54.512,574.893,73.1947,0,0.000885,0,0
0:4:54.817,575.066,73.2223,0,0.000885,0,0
0:4:55.117,576.183,73.3602,0,0.000885,0,0
0:4:55.416,576.476,73.4016,0,0.000885,0,0
0:4:55.716,576.885,73.4498,0,0.000885,0,0
0:4:56.020,577.766,73.5602,0,0.000885,0,0
0:4:56.318,577.651,73.5464,0,0.000885,0,0
0:4:56.611,578.647,73.6774,0,0.000885,0,0
0:4:56.911,578.94,73.7119,0,0.000885,0,0
0:4:57.215,579.056,73.7256,0,0.000885,0,0
0:4:57.511,579.292,73.7601,0,0.000885,0,0
0:4:57.818,580.23,73.8773,0,0.000885,0,0
0:4:58.120,580.64,73.9325,0,0.000885,0,0
0:4:58.421,581.636,74.0566,0,0.000885,0,0
0:4:58.715,582.401,74.1531,0,0.000885,0,0
0:4:59.010,582.459,74.16,0,0.000885,0,0
0:4:59.305,583.22,74.2565,0,0.000885,0,0
0:4:59.605,583.629,74.3117,0,0.000885,0,0
0:4:59.909,584.216,74.3875,0,0.000885,0,0
0:5:0.210,585.097,74.4979,0,0.000885,0,0
0:5:0.511,585.568,74.5599,0,0.000885,0,0
0:5:0.811,585.742,74.5806,0,0.000885,0,0
0:5:1.110,585.978,74.6082,0,0.000885,0,0
0:5:1.418,586.738,74.7047,0,0.000885,0,0
0:5:1.710,587.561,74.8081,0,0.000885,0,0
0:5:2.010,588.38,74.9184,0,0.000885,0,0
0:5:2.316,588.851,74.9736,0,0.000885,0,0
0:5:2.612,589.496,75.0563,0,0.000885,0,0
0:5:2.911,590.319,75.1597,0,0.000885,0,0
0:5:3.206,590.844,75.2287,0,0.000885,0,0
0:5:3.506,591.725,75.339,0,0.000885,0,0
0:5:3.811,592.374,75.4217,0,0.000885,0,0
0:5:4.117,593.371,75.5528,0,0.000885,0,0
0:5:4.421,594.073,75.6424,0,0.000885,0,0
0:5:4.726,594.309,75.67,0,0.000885,0,0
0:5:5.027,595.074,75.7665,0,0.000885,0,0
0:5:5.329,595.599,75.8354,0,0.000885,0,0
0:5:5.628,596.244,75.9182,0,0.000885,0,0
0:5:5.926,596.894,76.0009,0,0.000885,0,0
0:5:6.222,597.712,76.1043,0,0.000885,0,0
0:5:6.524,597.832,76.1181,0,0.000885,0,0
0:5:6.817,599.064,76.2767,0,0.000885,0,0
0:5:7.120,600.181,76.4146,0,0.000885,0,0
0:5:7.416,600.648,76.4766,0,0.000885,0,0
0:5:7.721,601.119,76.5387,0,0.000885,0,0
0:5:8.021,601.822,76.6283,0,0.000885,0,0
0:5:8.317,602.231,76.6766,0,0.000885,0,0
0:5:8.618,602.996,76.7731,0,0.000885,0,0
0:5:8.911,603.468,76.8352,0,0.000885,0,0
0:5:9.213,603.762,76.8696,0,0.000885,0,0
0:5:9.520,604.58,76.98,0,0.000885,0,0
0:5:9.823,605.581,77.1041,0,0.000885,0,0
0:5:10.125,606.284,77.1937,0,0.000885,0,0
0:5:10.427,606.755,77.2558,0,0.000885,0,0
0:5:10.727,607.107,77.2971,0,0.000885,0,0
0:5:11.026,607.574,77.3592,0,0.000885,0,0
0:5:11.321,607.925,77.4005,0,0.000885,0,0
0:5:11.623,608.512,77.4764,0,0.000885,0,0
0:5:11.917,608.926,77.5315,0,0.000885,0,0
0:5:12.217,609.162,77.5591,0,0.000885,0,0
0:5:12.513,610.216,77.697,0,0.000885,0,0
0:5:12.809,610.861,77.7798,0,0.000885,0,0
0:5:13.109,611.626,77.8763,0,0.000885,0,0
0:5:13.404,612.035,77.9245,0,0.000885,0,0
0:5:13.706,612.507,77.9866,0,0.000885,0,0
0:5:14.001,613.267,78.0831,0,0.000885,0,0
0:5:14.305,613.797,78.1521,0,0.000885,0,0
0:5:14.608,614.206,78.2003,0,0.000885,0,0
0:5:14.910,615.207,78.3313,0,0.000885,0,0
0:5:15.213,615.91,78.421,0,0.000885,0,0
0:5:15.517,616.381,78.483,0,0.000885,0,0
0:5:15.817,616.439,78.4899,0,0.000885,0,0
0:5:16.113,617.142,78.5795,0,0.000885,0,0
0:5:16.409,617.965,78.683,0,0.000885,0,0
0:5:16.712,618.903,78.8002,0,0.000885,0,0
0:5:17.019,619.317,78.8553,0,0.000885,0,0
0:5:17.314,619.433,78.8691,0,0.000885,0,0
0:5:17.612,619.9,78.9312,0,0.000885,0,0
0:5:17.909,620.78,79.0415,0,0.000885,0,0
0:5:18.209,620.843,79.0484,0,0.000885,0,0
0:5:18.517,621.368,79.1173,0,0.000885,0,0
0:5:18.813,621.955,79.1932,0,0.000885,0,0
0:5:19.111,622.368,79.2414,0,0.000885,0,0
0:5:19.414,623.423,79.3793,0,0.000885,0,0
0:5:19.720,623.716,79.4138,0,0.000885,0,0
0:5:20.023,624.361,79.4966,0,0.000885,0,0
0:5:20.325,625.42,79.6276,0,0.000885,0,0
0:5:20.627,625.887,79.6896,0,0.000885,0,0
0:5:20.925,626.301,79.7448,0,0.000885,0,0
0:5:21.223,627.004,79.8344,0,0.000885,0,0
0:5:21.518,627.475,79.8896,0,0.000885,0,0
0:5:21.821,628.004,79.9585,0,0.000885,0,0
0:5:22.113,629.059,80.0964,0,0.000885,0,0
0:5:22.413,629.882,80.1998,0,0.000885,0,0
0:5:22.710,630.055,80.2205,0,0.000885,0,0
0:5:23.008,630.291,80.2481,0,0.000885,0,0
0:5:23.307,631.114,80.3584,0,0.000885,0,0
0:5:23.601,631.465,80.3998,0,0.000885,0,0
0:5:23.902,632.052,80.4756,0,0.000885,0,0
0:5:24.200,633.049,80.5997,0,0.000885,0,0
0:5:24.503,633.342,80.6411,0,0.000885,0,0
0:5:24.807,633.756,80.6893,0,0.000885,0,0
0:5:25.110,634.752,80.8203,0,0.000885,0,0
0:5:25.412,635.104,80.8617,0,0.000885,0,0
0:5:25.715,635.811,80.9513,0,0.000885,0,0
0:5:26.012,636.22,81.0065,0,0.000885,0,0
0:5:26.312,636.22,81.0065,0,0.000885,0,0
0:5:26.617,635.927,80.972,0,0.000885,0,0
0:5:26.918,636.278,81.0134,0,0.000885,0,0
0:5:27.210,637.043,81.1099,0,0.000885,0,0
0:5:27.511,636.865,81.0892,0,0.000885,0,0
0:5:27.807,634.988,80.8479,0,0.000885,0,0
0:5:28.101,633.284,80.6342,0,0.000885,0,0
0:5:28.402,631.816,80.448,0,0.000885,0,0
0:5:28.589,618.668,78.7726,0,0.000885,0,0