File: DataFile2021-06-29_055520.csv
Test ID:,Date Tested:,Time:,Test Type:,Diameter Avg. (mm):,Cyl. Corr. Factor:,Height (mm):,Age (days):,Weight (kN):,Break Type:,Ramp Rate (MPa/s):,Load at Break (kN):,Stress at Break (MPa):
12,6/29/2021,05:55,Cylinder,100,1,200,0,3.6,3,0.23,235.01,29.92
Sample Time,Load (kN),Stress (MPa),Long. Strain,Trans. Strain,Chan1 Deflection (mm),Chan2 Deflection (mm)
0:0:22.483,5.28004,0.668791,0,0.000885,0,0
0:0:22.687,4.39929,0.558475,0,0.000885,0,0
0:0:22.881,6.57002,0.834266,0,0.000885,0,0
0:0:23.081,9.73716,1.24106,0,0.000885,0,0
0:0:23.282,16.8899,2.15116,0,0.000885,0,0
0:0:23.488,17.2413,2.19253,0,0.000885,0,0
0:0:23.690,17.0678,2.17185,0,0.000885,0,0
0:0:23.887,17.1835,2.18564,0,0.000885,0,0
0:0:24.083,17.0678,2.17185,0,0.000885,0,0
0:0:24.287,16.7164,2.13048,0,0.000885,0,0
0:0:24.480,16.3027,2.07532,0,0.000885,0,0
0:0:24.680,16.1871,2.06153,0,0.000885,0,0
0:0:24.877,16.1293,2.05464,0,0.000885,0,0
0:0:25.075,16.3027,2.07532,0,0.000885,0,0
0:0:25.277,15.9513,2.03395,0,0.000885,0,0
0:0:25.481,15.8935,2.02706,0,0.000885,0,0
0:0:25.683,15.9513,2.03395,0,0.000885,0,0
0:0:25.891,15.72,1.99948,0,0.000885,0,0
0:0:26.089,15.6577,1.99258,0,0.000885,0,0
0:0:26.290,15.5999,1.98569,0,0.000885,0,0
0:0:26.495,15.72,1.99948,0,0.000885,0,0
0:0:26.695,15.4843,1.9719,0,0.000885,0,0
0:0:26.893,15.5421,1.9788,0,0.000885,0,0
0:0:27.090,15.72,1.99948,0,0.000885,0,0
0:0:27.291,15.72,1.99948,0,0.000885,0,0
0:0:27.483,15.5999,1.98569,0,0.000885,0,0
0:0:27.684,15.5999,1.98569,0,0.000885,0,0
0:0:27.887,15.3686,1.95811,0,0.000885,0,0
0:0:28.089,15.3686,1.95811,0,0.000885,0,0
0:0:28.292,16.5963,2.11669,0,0.000885,0,0
0:0:28.493,16.365,2.08222,0,0.000885,0,0
0:0:28.695,16.5385,2.1029,0,0.000885,0,0
0:0:28.896,16.7164,2.13048,0,0.000885,0,0
0:0:29.097,17.0678,2.17185,0,0.000885,0,0
0:0:29.299,17.5349,2.2339,0,0.000885,0,0
0:0:29.497,17.8863,2.27527,0,0.000885,0,0
0:0:29.698,18.3578,2.33732,0,0.000885,0,0
0:0:29.897,19.0028,2.42006,0,0.000885,0,0
0:0:30.093,19.0028,2.42006,0,0.000885,0,0
0:0:30.295,19.9992,2.54417,0,0.000885,0,0
0:0:30.492,20.4084,2.59932,0,0.000885,0,0
0:0:30.691,20.702,2.6338,0,0.000885,0,0
0:0:30.892,21.1157,2.68896,0,0.000885,0,0
0:0:31.090,22.1699,2.81996,0,0.000885,0,0
0:0:31.291,22.6993,2.8889,0,0.000885,0,0
0:0:31.488,23.0507,2.93717,0,0.000885,0,0
0:0:31.688,23.5756,2.99922,0,0.000885,0,0
0:0:31.887,23.8692,3.04059,0,0.000885,0,0
0:0:32.093,25.1013,3.19917,0,0.000885,0,0
0:0:32.295,25.515,3.24743,0,0.000885,0,0
0:0:32.491,25.515,3.24743,0,0.000885,0,0
0:0:32.691,26.0977,3.32327,0,0.000885,0,0
0:0:32.894,25.9242,3.30259,0,0.000885,0,0
0:0:33.098,26.3335,3.35085,0,0.000885,0,0
0:0:33.301,26.8628,3.4198,0,0.000885,0,0
0:0:33.503,27.3299,3.48185,0,0.000885,0,0
0:0:33.706,27.5078,3.50254,0,0.000885,0,0
0:0:33.908,27.7436,3.53012,0,0.000885,0,0
0:0:34.109,27.7436,3.53012,0,0.000885,0,0
0:0:34.311,28.095,3.57838,0,0.000885,0,0
0:0:34.509,28.74,3.66112,0,0.000885,0,0
0:0:34.709,29.0335,3.69559,0,0.000885,0,0
0:0:34.911,29.6207,3.77143,0,0.000885,0,0
0:0:35.106,29.6207,3.77143,0,0.000885,0,0
0:0:35.309,30.2657,3.85417,0,0.000885,0,0
0:0:35.506,30.6171,3.89554,0,0.000885,0,0
0:0:35.704,30.9107,3.93691,0,0.000885,0,0
0:0:35.906,31.3778,3.99206,0,0.000885,0,0
0:0:36.101,32.0227,4.0748,0,0.000885,0,0
0:0:36.302,32.432,4.12996,0,0.000885,0,0
0:0:36.500,32.7834,4.17133,0,0.000885,0,0
0:0:36.698,33.3127,4.24028,0,0.000885,0,0
0:0:36.900,33.7842,4.30233,0,0.000885,0,0
0:0:37.096,33.8421,4.30922,0,0.000885,0,0
0:0:37.298,34.2513,4.36438,0,0.000885,0,0
0:0:37.496,34.7806,4.42643,0,0.000885,0,0
0:0:37.693,34.7806,4.42643,0,0.000885,0,0
0:0:37.897,35.3678,4.50228,0,0.000885,0,0
0:0:38.097,35.777,4.55743,0,0.000885,0,0
0:0:38.301,36.3064,4.61949,0,0.000885,0,0
0:0:38.504,36.8891,4.69533,0,0.000885,0,0
0:0:38.705,37.067,4.72291,0,0.000885,0,0
0:0:38.908,37.3606,4.75738,0,0.000885,0,0
0:0:39.110,38.1835,4.8608,0,0.000885,0,0
0:0:39.312,37.9478,4.83322,0,0.000885,0,0
0:0:39.513,38.5349,4.90907,0,0.000885,0,0
0:0:39.707,39.002,4.96423,0,0.000885,0,0
0:0:39.910,39.5313,5.03317,0,0.000885,0,0
0:0:40.109,39.5892,5.04007,0,0.000885,0,0
0:0:40.308,40.2342,5.1228,0,0.000885,0,0
0:0:40.509,40.4699,5.15038,0,0.000885,0,0
0:0:40.703,40.7635,5.19175,0,0.000885,0,0
0:0:40.905,41.3507,5.26759,0,0.000885,0,0
0:0:41.105,41.8177,5.32275,0,0.000885,0,0
0:0:41.303,42.3471,5.3917,0,0.000885,0,0
0:0:41.504,42.7563,5.44686,0,0.000885,0,0
0:0:41.700,43.1077,5.48823,0,0.000885,0,0
0:0:41.900,43.4013,5.5227,0,0.000885,0,0
0:0:42.099,43.8105,5.57786,0,0.000885,0,0
0:0:42.296,43.8105,5.57786,0,0.000885,0,0
0:0:42.499,44.5178,5.66749,0,0.000885,0,0
0:0:42.695,44.8069,5.70196,0,0.000885,0,0
0:0:42.895,45.572,5.80539,0,0.000885,0,0
0:0:43.096,45.7455,5.82607,0,0.000885,0,0
0:0:43.300,46.0391,5.86054,0,0.000885,0,0
0:0:43.503,46.4528,5.9157,0,0.000885,0,0
0:0:43.706,46.8042,5.95707,0,0.000885,0,0
0:0:43.908,47.2713,6.01912,0,0.000885,0,0
0:0:44.111,47.7428,6.08118,0,0.000885,0,0
0:0:44.311,47.8584,6.09497,0,0.000885,0,0
0:0:44.514,48.9126,6.22597,0,0.000885,0,0
0:0:44.712,48.8548,6.21907,0,0.000885,0,0
0:0:44.910,49.3263,6.28112,0,0.000885,0,0
0:0:45.112,49.5576,6.3087,0,0.000885,0,0
0:0:45.307,49.442,6.29491,0,0.000885,0,0
0:0:45.508,49.9135,6.35697,0,0.000885,0,0
0:0:45.708,50.2026,6.39144,0,0.000885,0,0
0:0:45.904,51.0834,6.50176,0,0.000885,0,0
0:0:46.106,51.7284,6.58449,0,0.000885,0,0
0:0:46.302,52.0798,6.63276,0,0.000885,0,0
0:0:46.503,52.6669,6.7086,0,0.000885,0,0
0:0:46.704,53.0184,6.74997,0,0.000885,0,0
0:0:46.900,53.0806,6.75686,0,0.000885,0,0
0:0:47.103,53.3698,6.79823,0,0.000885,0,0
0:0:47.299,53.7834,6.84649,0,0.000885,0,0
0:0:47.500,54.5441,6.94302,0,0.000885,0,0
0:0:47.702,54.9533,6.99818,0,0.000885,0,0
0:0:47.905,55.1313,7.01886,0,0.000885,0,0
0:0:48.108,55.367,7.04644,0,0.000885,0,0
0:0:48.311,55.7763,7.1016,0,0.000885,0,0
0:0:48.513,56.4212,7.18434,0,0.000885,0,0
0:0:48.715,56.9506,7.25328,0,0.000885,0,0
0:0:48.917,57.1863,7.28086,0,0.000885,0,0
0:0:49.120,57.4176,7.30844,0,0.000885,0,0
0:0:49.317,57.8892,7.3705,0,0.000885,0,0
0:0:49.514,58.4763,7.44634,0,0.000885,0,0
0:0:49.716,58.8277,7.48771,0,0.000885,0,0
0:0:49.913,59.237,7.54286,0,0.000885,0,0
0:0:50.113,59.2948,7.54976,0,0.000885,0,0
0:0:50.313,59.8241,7.61871,0,0.000885,0,0
0:0:50.508,60.1755,7.66008,0,0.000885,0,0
0:0:50.710,60.8784,7.74971,0,0.000885,0,0
0:0:50.909,60.9985,7.7635,0,0.000885,0,0
0:0:51.107,61.2298,7.79797,0,0.000885,0,0
0:0:51.309,61.4655,7.82555,0,0.000885,0,0
0:0:51.503,62.2884,7.92897,0,0.000885,0,0
0:0:51.705,62.4619,7.94966,0,0.000885,0,0
0:0:51.905,62.6977,7.98413,0,0.000885,0,0
0:0:52.101,63.0491,8.0255,0,0.000885,0,0
0:0:52.302,63.4583,8.08066,0,0.000885,0,0
0:0:52.498,64.1656,8.17029,0,0.000885,0,0
0:0:52.699,64.3969,8.19787,0,0.000885,0,0
0:0:52.901,65.162,8.29439,0,0.000885,0,0
0:0:53.104,65.5134,8.34266,0,0.000885,0,0
0:0:53.307,65.807,8.37713,0,0.000885,0,0
0:0:53.509,66.2741,8.43918,0,0.000885,0,0
0:0:53.711,66.452,8.45987,0,0.000885,0,0
0:0:53.914,66.6877,8.48745,0,0.000885,0,0
0:0:54.115,67.4484,8.59087,0,0.000885,0,0
0:0:54.317,68.0355,8.65982,0,0.000885,0,0
0:0:54.515,68.2713,8.69429,0,0.000885,0,0
0:0:54.713,68.6805,8.74255,0,0.000885,0,0
0:0:54.915,68.5604,8.72876,0,0.000885,0,0
0:0:55.110,68.7962,8.75634,0,0.000885,0,0
0:0:55.312,69.8549,8.89424,0,0.000885,0,0
0:0:55.510,69.499,8.84597,0,0.000885,0,0
0:0:55.707,70.5577,8.98387,0,0.000885,0,0
0:0:55.909,70.6733,8.99766,0,0.000885,0,0
0:0:56.105,71.2605,9.0735,0,0.000885,0,0
0:0:56.306,71.5541,9.10797,0,0.000885,0,0
0:0:56.506,72.1991,9.19071,0,0.000885,0,0
0:0:56.701,72.4348,9.22519,0,0.000885,0,0
0:0:56.903,72.5505,9.23897,0,0.000885,0,0
0:0:57.102,73.0798,9.30792,0,0.000885,0,0
0:0:57.300,73.4312,9.34929,0,0.000885,0,0
0:0:57.501,74.0762,9.43203,0,0.000885,0,0
0:0:57.696,74.312,9.45961,0,0.000885,0,0
0:0:57.898,74.8369,9.52855,0,0.000885,0,0
0:0:58.101,75.0148,9.54924,0,0.000885,0,0
0:0:58.304,75.5397,9.61819,0,0.000885,0,0
0:0:58.507,76.069,9.68713,0,0.000885,0,0
0:0:58.709,76.247,9.70782,0,0.000885,0,0
0:0:58.911,76.3626,9.72161,0,0.000885,0,0
0:0:59.112,77.1855,9.82503,0,0.000885,0,0
0:0:59.313,77.1233,9.81813,0,0.000885,0,0
0:0:59.516,78.0618,9.94224,0,0.000885,0,0
0:0:59.712,78.4177,9.98361,0,0.000885,0,0
0:0:59.911,78.8848,10.0457,0,0.000885,0,0
0:1:0.111,78.8269,10.0388,0,0.000885,0,0
0:1:0.307,79.2362,10.087,0,0.000885,0,0
0:1:0.510,79.7077,10.1491,0,0.000885,0,0
0:1:0.706,80.6463,10.2663,0,0.000885,0,0
0:1:0.905,80.6463,10.2663,0,0.000885,0,0
0:1:1.106,81.1133,10.3283,0,0.000885,0,0
0:1:1.301,81.4069,10.3628,0,0.000885,0,0
0:1:1.503,81.874,10.4249,0,0.000885,0,0
0:1:1.701,82.2877,10.48,0,0.000885,0,0
0:1:1.897,82.2298,10.4662,0,0.000885,0,0
0:1:2.100,82.9326,10.5559,0,0.000885,0,0
0:1:2.296,83.2841,10.6041,0,0.000885,0,0
0:1:2.497,83.6355,10.6455,0,0.000885,0,0
0:1:2.697,83.8712,10.68,0,0.000885,0,0
0:1:2.893,84.4584,10.7558,0,0.000885,0,0
0:1:3.095,84.574,10.7696,0,0.000885,0,0
0:1:3.297,85.6905,10.9075,0,0.000885,0,0
0:1:3.501,85.8062,10.9282,0,0.000885,0,0
0:1:3.704,86.1576,10.9696,0,0.000885,0,0
0:1:3.906,86.509,11.0178,0,0.000885,0,0
0:1:4.108,87.3898,11.1281,0,0.000885,0,0
0:1:4.310,87.7412,11.1695,0,0.000885,0,0
0:1:4.511,87.9769,11.204,0,0.000885,0,0
0:1:4.714,88.3862,11.2522,0,0.000885,0,0
0:1:4.908,88.3862,11.2522,0,0.000885,0,0
0:1:5.110,89.0312,11.335,0,0.000885,0,0
0:1:5.307,89.2091,11.3557,0,0.000885,0,0
0:1:5.505,89.3247,11.3763,0,0.000885,0,0
0:1:5.707,90.5569,11.528,0,0.000885,0,0
0:1:5.903,90.5569,11.528,0,0.000885,0,0
0:1:6.102,90.5569,11.528,0,0.000885,0,0
0:1:6.302,91.4376,11.6452,0,0.000885,0,0
0:1:6.498,91.5533,11.659,0,0.000885,0,0
0:1:6.700,92.1983,11.7418,0,0.000885,0,0
0:1:6.899,92.434,11.7694,0,0.000885,0,0
0:1:7.100,92.6075,11.79,0,0.000885,0,0
0:1:7.299,92.9011,11.8314,0,0.000885,0,0
0:1:7.495,93.5461,11.9141,0,0.000885,0,0
0:1:7.697,93.724,11.9348,0,0.000885,0,0
0:1:7.900,94.2534,12.0038,0,0.000885,0,0
0:1:8.104,94.7204,12.0589,0,0.000885,0,0
0:1:8.306,95.3076,12.1348,0,0.000885,0,0
0:1:8.509,95.9526,12.2175,0,0.000885,0,0
0:1:8.711,96.1261,12.2382,0,0.000885,0,0
0:1:8.910,96.0682,12.2313,0,0.000885,0,0
0:1:9.112,97.1269,12.3692,0,0.000885,0,0
0:1:9.314,97.3004,12.3899,0,0.000885,0,0
0:1:9.509,97.7096,12.4381,0,0.000885,0,0
0:1:9.711,97.9454,12.4726,0,0.000885,0,0
0:1:9.911,98.5326,12.5485,0,0.000885,0,0
0:1:10.108,98.7683,12.576,0,0.000885,0,0
0:1:10.310,98.7683,12.576,0,0.000885,0,0
0:1:10.505,98.884,12.5898,0,0.000885,0,0
0:1:10.705,99.4133,12.6588,0,0.000885,0,0
0:1:10.907,100.058,12.7415,0,0.000885,0,0
0:1:11.102,100.352,12.776,0,0.000885,0,0
0:1:11.304,100.819,12.838,0,0.000885,0,0
0:1:11.500,100.703,12.8242,0,0.000885,0,0
0:1:11.699,101.935,12.9759,0,0.000885,0,0
0:1:11.901,102.638,13.0656,0,0.000885,0,0
0:1:12.096,102.932,13.1069,0,0.000885,0,0
0:1:12.298,103.168,13.1345,0,0.000885,0,0
0:1:12.496,103.577,13.1897,0,0.000885,0,0
0:1:12.693,103.928,13.231,0,0.000885,0,0
0:1:12.895,104.28,13.2793,0,0.000885,0,0
0:1:13.097,104.164,13.2655,0,0.000885,0,0
0:1:13.301,104.867,13.3551,0,0.000885,0,0
0:1:13.504,104.925,13.362,0,0.000885,0,0
0:1:13.706,106.099,13.5068,0,0.000885,0,0
0:1:13.908,106.215,13.5206,0,0.000885,0,0
0:1:14.110,106.566,13.5689,0,0.000885,0,0
0:1:14.312,106.922,13.6103,0,0.000885,0,0
0:1:14.514,107.683,13.7137,0,0.000885,0,0
0:1:14.709,107.918,13.7413,0,0.000885,0,0
0:1:14.911,107.976,13.7481,0,0.000885,0,0
0:1:15.110,108.27,13.7826,0,0.000885,0,0
0:1:15.308,108.857,13.8585,0,0.000885,0,0
0:1:15.510,109.502,13.9412,0,0.000885,0,0
0:1:15.706,109.795,13.9826,0,0.000885,0,0
0:1:15.905,110.263,14.0377,0,0.000885,0,0
0:1:16.105,110.672,14.0929,0,0.000885,0,0
0:1:16.303,110.85,14.1136,0,0.000885,0,0
0:1:16.505,111.143,14.148,0,0.000885,0,0
0:1:16.701,111.673,14.217,0,0.000885,0,0
0:1:16.901,111.553,14.2032,0,0.000885,0,0
0:1:17.100,112.024,14.2653,0,0.000885,0,0
0:1:17.297,112.607,14.3411,0,0.000885,0,0
0:1:17.500,113.136,14.4031,0,0.000885,0,0
0:1:17.696,113.372,14.4376,0,0.000885,0,0
0:1:17.895,115.013,14.6445,0,0.000885,0,0
0:1:18.096,115.013,14.6445,0,0.000885,0,0
0:1:18.299,114.84,14.6238,0,0.000885,0,0
0:1:18.502,115.013,14.6445,0,0.000885,0,0
0:1:18.705,115.6,14.7203,0,0.000885,0,0
0:1:18.908,115.836,14.7479,0,0.000885,0,0
0:1:19.110,116.13,14.7893,0,0.000885,0,0
0:1:19.312,116.712,14.8582,0,0.000885,0,0
0:1:19.514,117.126,14.9134,0,0.000885,0,0
0:1:19.712,117.242,14.9271,0,0.000885,0,0
0:1:19.911,117.593,14.9754,0,0.000885,0,0
0:1:20.112,118.18,15.0444,0,0.000885,0,0
0:1:20.307,118.532,15.0926,0,0.000885,0,0
0:1:20.509,118.883,15.134,0,0.000885,0,0
0:1:20.709,119.355,15.196,0,0.000885,0,0
0:1:20.906,120.058,15.2857,0,0.000885,0,0
0:1:21.108,120.525,15.3477,0,0.000885,0,0
0:1:21.304,120.702,15.3684,0,0.000885,0,0
0:1:21.504,120.818,15.3822,0,0.000885,0,0
0:1:21.706,121.757,15.4994,0,0.000885,0,0
0:1:21.900,122.05,15.5408,0,0.000885,0,0
0:1:22.102,122.522,15.6028,0,0.000885,0,0
0:1:22.298,122.695,15.6235,0,0.000885,0,0
0:1:22.496,123.282,15.6994,0,0.000885,0,0
0:1:22.699,123.576,15.7338,0,0.000885,0,0
0:1:22.901,123.927,15.7821,0,0.000885,0,0
0:1:23.104,123.927,15.7821,0,0.000885,0,0
0:1:23.307,124.399,15.8373,0,0.000885,0,0
0:1:23.510,124.63,15.8717,0,0.000885,0,0
0:1:23.712,125.805,16.0165,0,0.000885,0,0
0:1:23.912,125.983,16.0372,0,0.000885,0,0
0:1:24.114,126.098,16.0579,0,0.000885,0,0
0:1:24.316,126.628,16.1199,0,0.000885,0,0
0:1:24.511,126.743,16.1406,0,0.000885,0,0
0:1:24.712,127.273,16.2027,0,0.000885,0,0
0:1:24.911,127.566,16.244,0,0.000885,0,0
0:1:25.110,128.153,16.3199,0,0.000885,0,0
0:1:25.311,127.918,16.2854,0,0.000885,0,0
0:1:25.505,128.678,16.3819,0,0.000885,0,0
0:1:25.708,129.381,16.4716,0,0.000885,0,0
0:1:25.907,130.026,16.5543,0,0.000885,0,0
0:1:26.105,130.497,16.6164,0,0.000885,0,0
0:1:26.307,130.613,16.6302,0,0.000885,0,0
0:1:26.503,130.733,16.6439,0,0.000885,0,0
0:1:26.703,131.378,16.7267,0,0.000885,0,0
0:1:26.903,131.2,16.706,0,0.000885,0,0
0:1:27.101,131.672,16.768,0,0.000885,0,0
0:1:27.303,131.845,16.7887,0,0.000885,0,0
0:1:27.498,132.842,16.9128,0,0.000885,0,0
0:1:27.698,133.429,16.9887,0,0.000885,0,0
0:1:27.900,134.074,17.0714,0,0.000885,0,0
0:1:28.104,134.252,17.0921,0,0.000885,0,0
0:1:28.307,134.719,17.1542,0,0.000885,0,0
0:1:28.509,135.19,17.2162,0,0.000885,0,0
0:1:28.711,135.133,17.2024,0,0.000885,0,0
0:1:28.913,135.248,17.2231,0,0.000885,0,0
0:1:29.115,135.778,17.2852,0,0.000885,0,0
0:1:29.317,136.071,17.3265,0,0.000885,0,0
0:1:29.515,136.89,17.4299,0,0.000885,0,0
0:1:29.714,137.299,17.4851,0,0.000885,0,0
0:1:29.916,137.77,17.5403,0,0.000885,0,0
0:1:30.112,138.18,17.5954,0,0.000885,0,0
0:1:30.313,138.531,17.6368,0,0.000885,0,0
0:1:30.512,138.825,17.6782,0,0.000885,0,0
0:1:30.710,139.176,17.7195,0,0.000885,0,0
0:1:30.912,139.296,17.7333,0,0.000885,0,0
0:1:31.108,139.705,17.7885,0,0.000885,0,0
0:1:31.309,140.408,17.8781,0,0.000885,0,0
0:1:31.509,141.053,17.9608,0,0.000885,0,0
0:1:31.703,141.231,17.9815,0,0.000885,0,0
0:1:31.905,141.818,18.0574,0,0.000885,0,0
0:1:32.103,142.405,18.1332,0,0.000885,0,0
0:1:32.302,142.112,18.0918,0,0.000885,0,0
0:1:32.503,142.815,18.1815,0,0.000885,0,0
0:1:32.698,143.05,18.2159,0,0.000885,0,0
0:1:32.900,143.575,18.278,0,0.000885,0,0
0:1:33.102,143.517,18.2711,0,0.000885,0,0
0:1:33.305,144.162,18.3538,0,0.000885,0,0
0:1:33.507,144.692,18.4228,0,0.000885,0,0
0:1:33.710,145.452,18.5193,0,0.000885,0,0
0:1:33.911,145.337,18.5055,0,0.000885,0,0
0:1:34.112,145.63,18.54,0,0.000885,0,0
0:1:34.314,146.155,18.6089,0,0.000885,0,0
0:1:34.515,146.097,18.6021,0,0.000885,0,0
0:1:34.712,146.862,18.6986,0,0.000885,0,0
0:1:34.912,147.33,18.7606,0,0.000885,0,0
0:1:35.111,147.975,18.8434,0,0.000885,0,0
0:1:35.308,148.152,18.8641,0,0.000885,0,0
0:1:35.511,148.855,18.9537,0,0.000885,0,0
0:1:35.707,148.855,18.9537,0,0.000885,0,0
0:1:35.908,149.442,19.0295,0,0.000885,0,0
0:1:36.109,149.678,19.0571,0,0.000885,0,0
0:1:36.307,150.03,19.1054,0,0.000885,0,0
0:1:36.509,150.612,19.1743,0,0.000885,0,0
0:1:36.706,151.026,19.2295,0,0.000885,0,0
0:1:36.905,151.2,19.2502,0,0.000885,0,0
0:1:37.107,151.787,19.326,0,0.000885,0,0
0:1:37.300,152.138,19.3743,0,0.000885,0,0
0:1:37.502,152.667,19.4363,0,0.000885,0,0
0:1:37.701,152.725,19.4432,0,0.000885,0,0
0:1:37.899,153.428,19.5328,0,0.000885,0,0
0:1:38.100,153.49,19.5397,0,0.000885,0,0
0:1:38.302,154.073,19.6156,0,0.000885,0,0
0:1:38.506,154.487,19.6707,0,0.000885,0,0
0:1:38.709,154.896,19.719,0,0.000885,0,0
0:1:38.911,154.954,19.7328,0,0.000885,0,0
0:1:39.113,155.247,19.7673,0,0.000885,0,0
0:1:39.314,156.07,19.8707,0,0.000885,0,0
0:1:39.515,156.657,19.9465,0,0.000885,0,0
0:1:39.717,157.067,20.0017,0,0.000885,0,0
0:1:39.913,157.418,20.0431,0,0.000885,0,0
0:1:40.115,157.827,20.0982,0,0.000885,0,0
0:1:40.311,157.712,20.0775,0,0.000885,0,0
0:1:40.511,158.65,20.2016,0,0.000885,0,0
0:1:40.711,158.824,20.2223,0,0.000885,0,0
0:1:40.908,159.117,20.2568,0,0.000885,0,0
0:1:41.109,159.411,20.2982,0,0.000885,0,0
0:1:41.307,159.705,20.3326,0,0.000885,0,0
0:1:41.505,160.292,20.4085,0,0.000885,0,0
0:1:41.707,160.763,20.4705,0,0.000885,0,0
0:1:41.904,161.408,20.5533,0,0.000885,0,0
0:1:42.103,161.23,20.5257,0,0.000885,0,0
0:1:42.302,161.933,20.6153,0,0.000885,0,0
0:1:42.498,162.52,20.6912,0,0.000885,0,0
0:1:42.700,162.929,20.7463,0,0.000885,0,0
0:1:42.902,163.05,20.7601,0,0.000885,0,0
0:1:43.106,163.459,20.8153,0,0.000885,0,0
0:1:43.308,163.637,20.836,0,0.000885,0,0
0:1:43.511,164.34,20.9256,0,0.000885,0,0
0:1:43.714,164.513,20.9463,0,0.000885,0,0
0:1:43.915,165.1,21.0221,0,0.000885,0,0
0:1:44.117,165.278,21.0428,0,0.000885,0,0
0:1:44.319,165.865,21.1186,0,0.000885,0,0
0:1:44.514,166.039,21.1393,0,0.000885,0,0
0:1:44.715,166.684,21.2221,0,0.000885,0,0
0:1:44.915,167.155,21.2841,0,0.000885,0,0
0:1:45.111,166.977,21.2634,0,0.000885,0,0
0:1:45.314,167.8,21.3669,0,0.000885,0,0
0:1:45.510,168.325,21.4289,0,0.000885,0,0
0:1:45.709,168.503,21.4565,0,0.000885,0,0
0:1:45.910,169.326,21.5599,0,0.000885,0,0
0:1:46.105,169.557,21.5875,0,0.000885,0,0
0:1:46.308,169.851,21.6289,0,0.000885,0,0
0:1:46.505,170.144,21.6633,0,0.000885,0,0
0:1:46.704,170.265,21.6771,0,0.000885,0,0
0:1:46.905,170.674,21.7323,0,0.000885,0,0
0:1:47.101,171.199,21.8012,0,0.000885,0,0
0:1:47.303,171.786,21.8702,0,0.000885,0,0
0:1:47.500,171.906,21.8909,0,0.000885,0,0
0:1:47.698,172.431,21.9529,0,0.000885,0,0
0:1:47.901,172.902,22.015,0,0.000885,0,0
0:1:48.103,173.369,22.077,0,0.000885,0,0
0:1:48.307,173.605,22.1046,0,0.000885,0,0
0:1:48.510,174.135,22.1735,0,0.000885,0,0
0:1:48.712,174.78,22.2563,0,0.000885,0,0
0:1:48.915,175.131,22.2976,0,0.000885,0,0
0:1:49.115,175.131,22.2976,0,0.000885,0,0
0:1:49.317,175.949,22.4011,0,0.000885,0,0
0:1:49.518,176.07,22.4149,0,0.000885,0,0
0:1:49.714,176.83,22.5183,0,0.000885,0,0
0:1:49.916,177.008,22.539,0,0.000885,0,0
0:1:50.111,177.359,22.5803,0,0.000885,0,0
0:1:50.311,177.302,22.5734,0,0.000885,0,0
0:1:50.513,178.062,22.67,0,0.000885,0,0
0:1:50.707,178.004,22.6631,0,0.000885,0,0
0:1:50.909,179.001,22.7941,0,0.000885,0,0
0:1:51.108,179.179,22.8148,0,0.000885,0,0
0:1:51.306,179.762,22.8906,0,0.000885,0,0
0:1:51.508,179.824,22.8975,0,0.000885,0,0
0:1:51.705,180.527,22.9871,0,0.000885,0,0
0:1:51.905,180.994,23.0423,0,0.000885,0,0
0:1:52.103,180.994,23.0423,0,0.000885,0,0
0:1:52.301,181.35,23.0905,0,0.000885,0,0
0:1:52.503,181.639,23.125,0,0.000885,0,0
0:1:52.700,182.226,23.2009,0,0.000885,0,0
0:1:52.900,182.519,23.2422,0,0.000885,0,0
0:1:53.102,183.049,23.3043,0,0.000885,0,0
0:1:53.305,183.578,23.3732,0,0.000885,0,0
0:1:53.508,183.867,23.4077,0,0.000885,0,0
0:1:53.711,184.223,23.456,0,0.000885,0,0
0:1:53.913,184.397,23.4766,0,0.000885,0,0
0:1:54.114,185.162,23.5732,0,0.000885,0,0
0:1:54.317,185.807,23.6559,0,0.000885,0,0
0:1:54.518,185.687,23.6421,0,0.000885,0,0
0:1:54.717,186.332,23.7249,0,0.000885,0,0
0:1:54.914,186.452,23.7386,0,0.000885,0,0
0:1:55.117,187.034,23.8145,0,0.000885,0,0
0:1:55.311,187.212,23.8352,0,0.000885,0,0
0:1:55.514,187.506,23.8765,0,0.000885,0,0
0:1:55.713,187.799,23.911,0,0.000885,0,0
0:1:55.908,188.329,23.98,0,0.000885,0,0
0:1:56.110,188.56,24.0075,0,0.000885,0,0
0:1:56.308,189.619,24.1454,0,0.000885,0,0
0:1:56.507,189.734,24.1592,0,0.000885,0,0
0:1:56.709,190.264,24.2282,0,0.000885,0,0
0:1:56.905,190.202,24.2144,0,0.000885,0,0
0:1:57.106,190.379,24.242,0,0.000885,0,0
0:1:57.304,191.024,24.3247,0,0.000885,0,0
0:1:57.502,191.202,24.3454,0,0.000885,0,0
0:1:57.705,191.847,24.4281,0,0.000885,0,0
0:1:57.907,192.199,24.4695,0,0.000885,0,0
0:1:58.110,192.786,24.5453,0,0.000885,0,0
0:1:58.311,193.017,24.5729,0,0.000885,0,0
0:1:58.513,193.604,24.6488,0,0.000885,0,0
0:1:58.711,194.192,24.7246,0,0.000885,0,0
0:1:58.912,194.894,24.8142,0,0.000885,0,0
0:1:59.114,195.072,24.8349,0,0.000885,0,0
0:1:59.311,196.069,24.9659,0,0.000885,0,0
0:1:59.506,196.127,24.9728,0,0.000885,0,0
0:1:59.706,196.069,24.9659,0,0.000885,0,0
0:1:59.903,196.304,24.9935,0,0.000885,0,0
0:2:0.101,197.301,25.1176,0,0.000885,0,0
0:2:0.301,197.71,25.1728,0,0.000885,0,0
0:2:0.492,197.888,25.1934,0,0.000885,0,0
0:2:0.692,197.83,25.1865,0,0.000885,0,0
0:2:0.889,198.413,25.2624,0,0.000885,0,0
0:2:1.098,198.827,25.3175,0,0.000885,0,0
0:2:1.299,199.058,25.3451,0,0.000885,0,0
0:2:1.501,199.236,25.3658,0,0.000885,0,0
0:2:1.701,199.645,25.421,0,0.000885,0,0
0:2:1.899,199.996,25.4623,0,0.000885,0,0
0:2:2.093,199.996,25.4623,0,0.000885,0,0
0:2:2.296,200.704,25.552,0,0.000885,0,0
0:2:2.488,201.055,25.6002,0,0.000885,0,0
0:2:2.687,201.286,25.6278,0,0.000885,0,0
0:2:2.887,201.931,25.7105,0,0.000885,0,0
0:2:3.090,203.106,25.8622,0,0.000885,0,0
0:2:3.291,203.399,25.8967,0,0.000885,0,0
0:2:3.492,203.809,25.9519,0,0.000885,0,0
0:2:3.692,203.929,25.9657,0,0.000885,0,0
0:2:3.892,204.516,26.0415,0,0.000885,0,0
0:2:4.092,204.747,26.0691,0,0.000885,0,0
0:2:4.292,205.041,26.1036,0,0.000885,0,0
0:2:4.500,205.512,26.1656,0,0.000885,0,0
0:2:4.698,205.392,26.1518,0,0.000885,0,0
0:2:4.897,205.979,26.2277,0,0.000885,0,0
0:2:5.102,206.682,26.3173,0,0.000885,0,0
0:2:5.302,206.509,26.2966,0,0.000885,0,0
0:2:5.499,207.389,26.4069,0,0.000885,0,0
0:2:5.704,207.799,26.4552,0,0.000885,0,0
0:2:5.905,208.034,26.4897,0,0.000885,0,0
0:2:6.100,208.559,26.5517,0,0.000885,0,0
0:2:6.299,208.622,26.5655,0,0.000885,0,0
0:2:6.498,209.734,26.7034,0,0.000885,0,0
0:2:6.702,209.618,26.6896,0,0.000885,0,0
0:2:6.902,210.027,26.7448,0,0.000885,0,0
0:2:7.099,210.143,26.7586,0,0.000885,0,0
0:2:7.297,210.672,26.8206,0,0.000885,0,0
0:2:7.494,211.081,26.8758,0,0.000885,0,0
0:2:7.688,211.375,26.9102,0,0.000885,0,0
0:2:7.889,211.726,26.9585,0,0.000885,0,0
0:2:8.090,212.607,27.0688,0,0.000885,0,0
0:2:8.289,212.727,27.0826,0,0.000885,0,0
0:2:8.491,213.079,27.1309,0,0.000885,0,0
0:2:8.692,213.31,27.1584,0,0.000885,0,0
0:2:8.893,214.075,27.255,0,0.000885,0,0
0:2:9.093,214.249,27.2826,0,0.000885,0,0
0:2:9.294,214.6,27.3239,0,0.000885,0,0
0:2:9.498,215.014,27.3791,0,0.000885,0,0
0:2:9.690,215.659,27.4618,0,0.000885,0,0
0:2:9.890,216.126,27.517,0,0.000885,0,0
0:2:10.089,216.713,27.5928,0,0.000885,0,0
0:2:10.283,216.597,27.579,0,0.000885,0,0
0:2:10.484,216.833,27.6066,0,0.000885,0,0
0:2:10.680,217.242,27.6618,0,0.000885,0,0
0:2:10.876,217.536,27.6962,0,0.000885,0,0
0:2:11.076,217.767,27.7238,0,0.000885,0,0
0:2:11.271,218.648,27.841,0,0.000885,0,0
0:2:11.471,218.999,27.8824,0,0.000885,0,0
0:2:11.668,219.351,27.9307,0,0.000885,0,0
0:2:11.862,219.529,27.9513,0,0.000885,0,0
0:2:12.063,219.822,27.9858,0,0.000885,0,0
0:2:12.258,220.645,28.0961,0,0.000885,0,0
0:2:12.457,220.583,28.0823,0,0.000885,0,0
0:2:12.657,220.819,28.1168,0,0.000885,0,0
0:2:12.860,221.112,28.1513,0,0.000885,0,0
0:2:13.062,221.464,28.1996,0,0.000885,0,0
0:2:13.263,221.993,28.2616,0,0.000885,0,0
0:2:13.462,222.229,28.2961,0,0.000885,0,0
0:2:13.662,222.811,28.3719,0,0.000885,0,0
0:2:13.862,223.225,28.4202,0,0.000885,0,0
0:2:14.064,224.044,28.5236,0,0.000885,0,0
0:2:14.261,224.222,28.5512,0,0.000885,0,0
0:2:14.457,224.982,28.6477,0,0.000885,0,0
0:2:14.657,224.457,28.5788,0,0.000885,0,0
0:2:14.854,225.396,28.696,0,0.000885,0,0
0:2:15.051,225.805,28.7511,0,0.000885,0,0
0:2:15.250,226.334,28.8201,0,0.000885,0,0
0:2:15.445,226.334,28.8201,0,0.000885,0,0
0:2:15.645,227.095,28.9166,0,0.000885,0,0
0:2:15.841,227.211,28.9304,0,0.000885,0,0
0:2:16.039,227.504,28.9649,0,0.000885,0,0
0:2:16.240,228.149,29.0476,0,0.000885,0,0
0:2:16.431,228.385,29.0821,0,0.000885,0,0
0:2:16.632,228.972,29.151,0,0.000885,0,0
0:2:16.829,228.621,29.1097,0,0.000885,0,0
0:2:17.026,229.559,29.2269,0,0.000885,0,0
0:2:17.225,229.559,29.2269,0,0.000885,0,0
0:2:17.419,230.262,29.3165,0,0.000885,0,0
0:2:17.618,230.378,29.3303,0,0.000885,0,0
0:2:17.819,230.965,29.4061,0,0.000885,0,0
0:2:18.021,231.143,29.4268,0,0.000885,0,0
0:2:18.223,231.788,29.5096,0,0.000885,0,0
0:2:18.423,231.668,29.4958,0,0.000885,0,0
0:2:18.623,232.197,29.5647,0,0.000885,0,0
0:2:18.823,232.255,29.5716,0,0.000885,0,0
0:2:19.022,232.9,29.6544,0,0.000885,0,0
0:2:19.224,233.136,29.6819,0,0.000885,0,0
0:2:19.420,233.487,29.7302,0,0.000885,0,0
0:2:19.617,233.839,29.7716,0,0.000885,0,0
0:2:19.818,233.896,29.7785,0,0.000885,0,0
0:2:20.013,234.132,29.8129,0,0.000885,0,0
0:2:20.213,234.541,29.8612,0,0.000885,0,0
0:2:20.409,234.897,29.9095,0,0.000885,0,0
0:2:20.605,234.955,29.9164,0,0.000885,0,0
0:2:20.806,234.777,29.8957,0,0.000885,0,0
0:2:21.001,234.777,29.8957,0,0.000885,0,0
0:2:21.199,234.835,29.9026,0,0.000885,0,0
0:2:21.396,235.013,29.9232,0,0.000885,0,0
0:2:21.601,234.897,29.9095,0,0.000885,0,0
0:2:21.802,234.897,29.9095,0,0.000885,0,0
0:2:21.998,234.661,29.875,0,0.000885,0,0
0:2:22.205,234.074,29.806,0,0.000885,0,0
0:2:22.404,233.781,29.7647,0,0.000885,0,0
0:2:22.605,233.136,29.6819,0,0.000885,0,0
0:2:22.804,232.082,29.5509,0,0.000885,0,0
0:2:23.004,230.729,29.3786,0,0.000885,0,0
0:2:23.205,229.381,29.2062,0,0.000885,0,0
0:2:23.407,227.095,28.9166,0,0.000885,0,0
0:2:23.607,225.396,28.696,0,0.000885,0,0
0:2:23.807,220.645,28.0961,0,0.000885,0,0
0:2:24.005,217.122,27.648,0,0.000885,0,0
0:2:24.206,209.267,26.6413,0,0.000885,0,0
0:2:24.407,205.041,26.1036,0,0.000885,0,0
0:2:24.601,195.014,24.828,0,0.000885,0,0
0:2:24.800,189.089,24.0765,0,0.000885,0,0
0:2:25.000,177.124,22.5528,0,0.000885,0,0
0:2:25.206,170.789,21.7461,0,0.000885,0,0
0:2:25.237,170.789,21.7461,0,0.000885,0,0