File: DataFile2021-06-08_052343.csv
Test ID:,Date Tested:,Time:,Test Type:,Diameter Avg. (mm):,Cyl. Corr. Factor:,Height (mm):,Age (days):,Weight (kN):,Break Type:,Ramp Rate (MPa/s):,Load at Break (kN):,Stress at Break (MPa):
12,6/8/2021,05:23,Cylinder,150,1,300,0,3.6,1,0.24,829.22,46.93
Sample Time,Load (kN),Stress (MPa),Long. Strain,Trans. Strain,Chan1 Deflection (mm),Chan2 Deflection (mm)
0:0:16.853,8.85641,0.503317,0,0.000885,0,0
0:0:17.051,14.7814,0.834266,0,0.000885,0,0
0:0:17.252,17.3036,0.979056,0,0.000885,0,0
0:0:17.449,16.9522,0.958371,0,0.000885,0,0
0:0:17.650,16.1293,0.910108,0,0.000885,0,0
0:0:17.847,15.8357,0.896318,0,0.000885,0,0
0:0:18.044,15.5999,0.882529,0,0.000885,0,0
0:0:18.243,15.6577,0.889424,0,0.000885,0,0
0:0:18.440,15.5421,0.882529,0,0.000885,0,0
0:0:18.638,16.0136,0.903213,0,0.000885,0,0
0:0:18.838,16.1293,0.910108,0,0.000885,0,0
0:0:19.032,15.7778,0.889424,0,0.000885,0,0
0:0:19.234,16.365,0.923897,0,0.000885,0,0
0:0:19.431,15.9513,0.903213,0,0.000885,0,0
0:0:19.629,17.8863,1.01353,0,0.000885,0,0
0:0:19.831,18.4156,1.04111,0,0.000885,0,0
0:0:20.027,18.5936,1.0549,0,0.000885,0,0
0:0:20.226,19.0606,1.07558,0,0.000885,0,0
0:0:20.426,19.4699,1.10316,0,0.000885,0,0
0:0:20.623,20.8221,1.179,0,0.000885,0,0
0:0:20.824,21.7029,1.22727,0,0.000885,0,0
0:0:21.022,23.1663,1.31,0,0.000885,0,0
0:0:21.221,24.1627,1.36516,0,0.000885,0,0
0:0:21.422,25.515,1.441,0,0.000885,0,0
0:0:21.619,26.0399,1.47548,0,0.000885,0,0
0:0:21.821,27.6235,1.56511,0,0.000885,0,0
0:0:22.018,28.562,1.61337,0,0.000885,0,0
0:0:22.217,30.2657,1.7099,0,0.000885,0,0
0:0:22.419,31.0263,1.75816,0,0.000885,0,0
0:0:22.620,31.9649,1.80643,0,0.000885,0,0
0:0:22.823,32.7834,1.85469,0,0.000885,0,0
0:0:23.027,33.9577,1.92364,0,0.000885,0,0
0:0:23.229,34.367,1.94432,0,0.000885,0,0
0:0:23.432,35.5413,2.01327,0,0.000885,0,0
0:0:23.633,35.8349,2.02706,0,0.000885,0,0
0:0:23.835,36.9514,2.08911,0,0.000885,0,0
0:0:24.037,37.3606,2.11669,0,0.000885,0,0
0:0:24.233,38.357,2.17185,0,0.000885,0,0
0:0:24.435,38.8864,2.19943,0,0.000885,0,0
0:0:24.632,40.5856,2.29595,0,0.000885,0,0
0:0:24.832,41.1727,2.33043,0,0.000885,0,0
0:0:25.032,41.3507,2.33732,0,0.000885,0,0
0:0:25.228,42.6407,2.41317,0,0.000885,0,0
0:0:25.430,43.0499,2.43385,0,0.000885,0,0
0:0:25.627,44.1619,2.4959,0,0.000885,0,0
0:0:25.826,44.8069,2.53727,0,0.000885,0,0
0:0:26.028,46.4528,2.6269,0,0.000885,0,0
0:0:26.223,47.6849,2.69585,0,0.000885,0,0
0:0:26.425,48.2677,2.73032,0,0.000885,0,0
0:0:26.623,49.2062,2.78548,0,0.000885,0,0
0:0:26.821,49.6777,2.81306,0,0.000885,0,0
0:0:27.023,50.2026,2.84064,0,0.000885,0,0
0:0:27.226,51.5549,2.91648,0,0.000885,0,0
0:0:27.430,51.6705,2.92338,0,0.000885,0,0
0:0:27.633,53.1385,3.00611,0,0.000885,0,0
0:0:27.835,53.6633,3.03369,0,0.000885,0,0
0:0:28.036,55.1313,3.11643,0,0.000885,0,0
0:0:28.238,55.7184,3.1509,0,0.000885,0,0
0:0:28.440,57.1241,3.23364,0,0.000885,0,0
0:0:28.640,57.4755,3.25433,0,0.000885,0,0
0:0:28.836,58.7699,3.32327,0,0.000885,0,0
0:0:29.038,59.4149,3.36464,0,0.000885,0,0
0:0:29.237,60.7049,3.43359,0,0.000885,0,0
0:0:29.434,61.3499,3.47496,0,0.000885,0,0
0:0:29.636,62.4041,3.53012,0,0.000885,0,0
0:0:29.831,62.9334,3.56459,0,0.000885,0,0
0:0:30.032,63.5784,3.59906,0,0.000885,0,0
0:0:30.232,65.0419,3.6818,0,0.000885,0,0
0:0:30.429,65.4556,3.70248,0,0.000885,0,0
0:0:30.631,66.5676,3.76454,0,0.000885,0,0
0:0:30.826,67.3327,3.8128,0,0.000885,0,0
0:0:31.028,68.1512,3.85417,0,0.000885,0,0
0:0:31.228,68.7384,3.88864,0,0.000885,0,0
0:0:31.425,69.9705,3.95759,0,0.000885,0,0
0:0:31.628,70.6155,3.99896,0,0.000885,0,0
0:0:31.823,72.3147,4.09549,0,0.000885,0,0
0:0:32.023,72.8441,4.12306,0,0.000885,0,0
0:0:32.225,73.8405,4.17822,0,0.000885,0,0
0:0:32.429,74.0762,4.19201,0,0.000885,0,0
0:0:32.632,75.3084,4.26096,0,0.000885,0,0
0:0:32.835,75.9534,4.29543,0,0.000885,0,0
0:0:33.036,77.7727,4.39886,0,0.000885,0,0
0:0:33.238,77.8884,4.40575,0,0.000885,0,0
0:0:33.440,79.3563,4.48849,0,0.000885,0,0
0:0:33.642,80.1169,4.53675,0,0.000885,0,0
0:0:33.839,80.9977,4.58501,0,0.000885,0,0
0:0:34.037,81.4647,4.61259,0,0.000885,0,0
0:0:34.240,82.1675,4.64707,0,0.000885,0,0
0:0:34.436,82.8748,4.68843,0,0.000885,0,0
0:0:34.638,83.6355,4.7298,0,0.000885,0,0
0:0:34.837,84.9254,4.80565,0,0.000885,0,0
0:0:35.033,85.6283,4.84701,0,0.000885,0,0
0:0:35.235,86.8026,4.90907,0,0.000885,0,0
0:0:35.433,87.6255,4.95733,0,0.000885,0,0
0:0:35.634,88.6219,5.01249,0,0.000885,0,0
0:0:35.834,89.3247,5.05386,0,0.000885,0,0
0:0:36.030,90.5569,5.1228,0,0.000885,0,0
0:0:36.232,91.3175,5.16417,0,0.000885,0,0
0:0:36.431,92.8433,5.25381,0,0.000885,0,0
0:0:36.629,93.2525,5.27449,0,0.000885,0,0
0:0:36.831,93.8975,5.31586,0,0.000885,0,0
0:0:37.027,94.8361,5.36412,0,0.000885,0,0
0:0:37.227,95.6012,5.41238,0,0.000885,0,0
0:0:37.430,95.8369,5.42617,0,0.000885,0,0
0:0:37.633,96.949,5.48823,0,0.000885,0,0
0:0:37.836,97.8876,5.53649,0,0.000885,0,0
0:0:38.039,99.2932,5.61923,0,0.000885,0,0
0:0:38.241,99.6491,5.63991,0,0.000885,0,0
0:0:38.442,101.113,5.72265,0,0.000885,0,0
0:0:38.641,102.109,5.77781,0,0.000885,0,0
0:0:38.844,103.283,5.84675,0,0.000885,0,0
0:0:39.042,103.692,5.86744,0,0.000885,0,0
0:0:39.241,103.986,5.88123,0,0.000885,0,0
0:0:39.441,105.627,5.97775,0,0.000885,0,0
0:0:39.639,106.272,6.01223,0,0.000885,0,0
0:0:39.841,107.86,6.10186,0,0.000885,0,0
0:0:40.039,108.212,6.12254,0,0.000885,0,0
0:0:40.237,109.208,6.1777,0,0.000885,0,0
0:0:40.438,109.911,6.21907,0,0.000885,0,0
0:0:40.634,110.556,6.25354,0,0.000885,0,0
0:0:40.835,110.734,6.26733,0,0.000885,0,0
0:0:41.034,112.491,6.36386,0,0.000885,0,0
0:0:41.231,112.785,6.38455,0,0.000885,0,0
0:0:41.433,113.959,6.4466,0,0.000885,0,0
0:0:41.628,114.426,6.47418,0,0.000885,0,0
0:0:41.828,116.067,6.5707,0,0.000885,0,0
0:0:42.030,116.89,6.61207,0,0.000885,0,0
0:0:42.235,117.771,6.66723,0,0.000885,0,0
0:0:42.437,118.652,6.71549,0,0.000885,0,0
0:0:42.640,120.058,6.79134,0,0.000885,0,0
0:0:42.842,121.112,6.85339,0,0.000885,0,0
0:0:43.044,121.757,6.88786,0,0.000885,0,0
0:0:43.245,122.695,6.94302,0,0.000885,0,0
0:0:43.448,124.221,7.03265,0,0.000885,0,0
0:0:43.646,124.221,7.03265,0,0.000885,0,0
0:0:43.844,125.511,7.1016,0,0.000885,0,0
0:0:44.046,125.631,7.10849,0,0.000885,0,0
0:0:44.242,126.156,7.13607,0,0.000885,0,0
0:0:44.443,127.037,7.19123,0,0.000885,0,0
0:0:44.641,127.74,7.22571,0,0.000885,0,0
0:0:44.838,129.443,7.32223,0,0.000885,0,0
0:0:45.040,129.852,7.34981,0,0.000885,0,0
0:0:45.238,130.965,7.41186,0,0.000885,0,0
0:0:45.439,131.32,7.43255,0,0.000885,0,0
0:0:45.639,132.784,7.51529,0,0.000885,0,0
0:0:45.834,133.487,7.55665,0,0.000885,0,0
0:0:46.037,135.426,7.66008,0,0.000885,0,0
0:0:46.235,135.542,7.66697,0,0.000885,0,0
0:0:46.433,136.538,7.72902,0,0.000885,0,0
0:0:46.633,137.183,7.7635,0,0.000885,0,0
0:0:46.829,137.944,7.80487,0,0.000885,0,0
0:0:47.032,138.593,7.83934,0,0.000885,0,0
0:0:47.233,139.705,7.90829,0,0.000885,0,0
0:0:47.436,140.408,7.94276,0,0.000885,0,0
0:0:47.640,142.05,8.03929,0,0.000885,0,0
0:0:47.842,142.637,8.07376,0,0.000885,0,0
0:0:48.043,143.282,8.10823,0,0.000885,0,0
0:0:48.245,144.162,8.1565,0,0.000885,0,0
0:0:48.449,145.573,8.23923,0,0.000885,0,0
0:0:48.650,146.097,8.26681,0,0.000885,0,0
0:0:48.845,146.92,8.31508,0,0.000885,0,0
0:0:49.045,147.681,8.35645,0,0.000885,0,0
0:0:49.246,148.384,8.39781,0,0.000885,0,0
0:0:49.443,149.558,8.45987,0,0.000885,0,0
0:0:49.643,150.145,8.49434,0,0.000885,0,0
0:0:49.840,151.551,8.57708,0,0.000885,0,0
0:0:50.041,152.08,8.60466,0,0.000885,0,0
0:0:50.242,153.548,8.68739,0,0.000885,0,0
0:0:50.439,153.664,8.69429,0,0.000885,0,0
0:0:50.641,155.19,8.78392,0,0.000885,0,0
0:0:50.839,155.541,8.80461,0,0.000885,0,0
0:0:51.037,156.889,8.88045,0,0.000885,0,0
0:0:51.239,157.712,8.92182,0,0.000885,0,0
0:0:51.436,158.472,8.97008,0,0.000885,0,0
0:0:51.637,159.06,8.99766,0,0.000885,0,0
0:0:51.836,160.821,9.10108,0,0.000885,0,0
0:0:52.033,161.524,9.14245,0,0.000885,0,0
0:0:52.236,162.52,9.19761,0,0.000885,0,0
0:0:52.437,162.756,9.2114,0,0.000885,0,0
0:0:52.642,163.868,9.27345,0,0.000885,0,0
0:0:52.843,164.513,9.30792,0,0.000885,0,0
0:0:53.046,165.22,9.34929,0,0.000885,0,0
0:0:53.248,166.159,9.40445,0,0.000885,0,0
0:0:53.450,167.387,9.4734,0,0.000885,0,0
0:0:53.652,167.858,9.50098,0,0.000885,0,0
0:0:53.851,168.797,9.54924,0,0.000885,0,0
0:0:54.049,169.557,9.5975,0,0.000885,0,0
0:0:54.250,170.087,9.62508,0,0.000885,0,0
0:0:54.447,171.728,9.71471,0,0.000885,0,0
0:0:54.650,171.906,9.7285,0,0.000885,0,0
0:0:54.848,173.49,9.81813,0,0.000885,0,0
0:0:55.045,174.077,9.85261,0,0.000885,0,0
0:0:55.248,175.304,9.92156,0,0.000885,0,0
0:0:55.444,175.718,9.94224,0,0.000885,0,0
0:0:55.643,177.711,10.0595,0,0.000885,0,0
0:0:55.844,178.004,10.0732,0,0.000885,0,0
0:0:56.042,179.294,10.1491,0,0.000885,0,0
0:0:56.243,180.117,10.1905,0,0.000885,0,0
0:0:56.439,180.762,10.2318,0,0.000885,0,0
0:0:56.639,181.35,10.2594,0,0.000885,0,0
0:0:56.841,182.11,10.3077,0,0.000885,0,0
0:0:57.036,182.64,10.3352,0,0.000885,0,0
0:0:57.239,184.575,10.4456,0,0.000885,0,0
0:0:57.441,184.984,10.4662,0,0.000885,0,0
0:0:57.646,186.452,10.549,0,0.000885,0,0
0:0:57.848,186.625,10.5628,0,0.000885,0,0
0:0:58.051,187.857,10.6317,0,0.000885,0,0
0:0:58.252,188.444,10.6662,0,0.000885,0,0
0:0:58.453,189.912,10.7489,0,0.000885,0,0
0:0:58.654,190.437,10.7765,0,0.000885,0,0
0:0:58.856,190.379,10.7765,0,0.000885,0,0
0:0:59.053,191.847,10.8592,0,0.000885,0,0
0:0:59.253,192.021,10.8661,0,0.000885,0,0
0:0:59.450,193.604,10.9558,0,0.000885,0,0
0:0:59.647,194.249,10.9902,0,0.000885,0,0
0:0:59.848,195.308,11.0523,0,0.000885,0,0
0:1:0.043,195.953,11.0868,0,0.000885,0,0
0:1:0.242,197.652,11.1833,0,0.000885,0,0
0:1:0.439,198.004,11.204,0,0.000885,0,0
0:1:0.635,199.472,11.2867,0,0.000885,0,0
0:1:0.835,199.996,11.3143,0,0.000885,0,0
0:1:1.031,200.641,11.3557,0,0.000885,0,0
0:1:1.229,201.931,11.4246,0,0.000885,0,0
0:1:1.428,202.99,11.4867,0,0.000885,0,0
0:1:1.624,203.226,11.5005,0,0.000885,0,0
0:1:1.825,204.102,11.5487,0,0.000885,0,0
0:1:2.020,205.334,11.6177,0,0.000885,0,0
0:1:2.219,205.806,11.6452,0,0.000885,0,0
0:1:2.419,207.799,11.7556,0,0.000885,0,0
0:1:2.622,208.386,11.79,0,0.000885,0,0
0:1:2.823,209.267,11.8452,0,0.000885,0,0
0:1:3.024,209.791,11.8728,0,0.000885,0,0
0:1:3.223,211.317,11.9555,0,0.000885,0,0
0:1:3.424,211.375,11.9624,0,0.000885,0,0
0:1:3.624,212.607,12.0314,0,0.000885,0,0
0:1:3.824,212.843,12.0451,0,0.000885,0,0
0:1:4.020,213.955,12.1072,0,0.000885,0,0
0:1:4.219,214.191,12.121,0,0.000885,0,0
0:1:4.419,215.774,12.2106,0,0.000885,0,0
0:1:4.612,216.304,12.2382,0,0.000885,0,0
0:1:4.814,217.767,12.3209,0,0.000885,0,0
0:1:5.010,217.829,12.3278,0,0.000885,0,0
0:1:5.207,218.354,12.3554,0,0.000885,0,0
0:1:5.408,220.116,12.4588,0,0.000885,0,0
0:1:5.602,220.761,12.4933,0,0.000885,0,0
0:1:5.801,222.051,12.5622,0,0.000885,0,0
0:1:5.999,222.638,12.5967,0,0.000885,0,0
0:1:6.195,223.75,12.6588,0,0.000885,0,0
0:1:6.395,224.689,12.7139,0,0.000885,0,0
0:1:6.591,225.16,12.7415,0,0.000885,0,0
0:1:6.789,226.041,12.7898,0,0.000885,0,0
0:1:6.986,227.153,12.8518,0,0.000885,0,0
0:1:7.191,227.74,12.8863,0,0.000885,0,0
0:1:7.392,229.324,12.9759,0,0.000885,0,0
0:1:7.592,229.617,12.9966,0,0.000885,0,0
0:1:7.793,231.085,13.0794,0,0.000885,0,0
0:1:7.995,231.73,13.1138,0,0.000885,0,0
0:1:8.196,233.078,13.1897,0,0.000885,0,0
0:1:8.396,233.487,13.2104,0,0.000885,0,0
0:1:8.595,233.781,13.231,0,0.000885,0,0
0:1:8.795,235.48,13.3276,0,0.000885,0,0
0:1:8.994,235.951,13.3551,0,0.000885,0,0
0:1:9.189,237.299,13.431,0,0.000885,0,0
0:1:9.387,237.357,13.431,0,0.000885,0,0
0:1:9.585,238.767,13.5137,0,0.000885,0,0
0:1:9.781,239.354,13.5413,0,0.000885,0,0
0:1:9.982,240.76,13.624,0,0.000885,0,0
0:1:10.176,241.232,13.6516,0,0.000885,0,0
0:1:10.376,242.108,13.6999,0,0.000885,0,0
0:1:10.574,242.753,13.7344,0,0.000885,0,0
0:1:10.781,244.043,13.8102,0,0.000885,0,0
0:1:10.980,244.399,13.8309,0,0.000885,0,0
0:1:11.196,245.804,13.9067,0,0.000885,0,0
0:1:11.394,246.391,13.9412,0,0.000885,0,0
0:1:11.593,247.446,14.0033,0,0.000885,0,0
0:1:11.790,248.148,14.0446,0,0.000885,0,0
0:1:11.990,249.265,14.1067,0,0.000885,0,0
0:1:12.191,250.088,14.1549,0,0.000885,0,0
0:1:12.394,250.906,14.1963,0,0.000885,0,0
0:1:12.596,251.787,14.2515,0,0.000885,0,0
0:1:12.795,253.193,14.3273,0,0.000885,0,0
0:1:12.996,253.429,14.3411,0,0.000885,0,0
0:1:13.195,254.309,14.3894,0,0.000885,0,0
0:1:13.396,255.599,14.4652,0,0.000885,0,0
0:1:13.594,256.244,14.4997,0,0.000885,0,0
0:1:13.787,257.828,14.5893,0,0.000885,0,0
0:1:13.991,257.943,14.5962,0,0.000885,0,0
0:1:14.184,259.002,14.6583,0,0.000885,0,0
0:1:14.382,259.585,14.6927,0,0.000885,0,0
0:1:14.580,260.817,14.7617,0,0.000885,0,0
0:1:14.775,261.231,14.7824,0,0.000885,0,0
0:1:14.976,262.401,14.8513,0,0.000885,0,0
0:1:15.182,262.694,14.8651,0,0.000885,0,0
0:1:15.379,264.398,14.9616,0,0.000885,0,0
0:1:15.579,265.043,14.9961,0,0.000885,0,0
0:1:15.783,266.742,15.0926,0,0.000885,0,0
0:1:15.982,266.684,15.0926,0,0.000885,0,0
0:1:16.191,267.859,15.1547,0,0.000885,0,0
0:1:16.398,268.032,15.1685,0,0.000885,0,0
0:1:16.598,269.558,15.2512,0,0.000885,0,0
0:1:16.791,269.616,15.2581,0,0.000885,0,0
0:1:16.993,271.257,15.3477,0,0.000885,0,0
0:1:17.194,271.551,15.3684,0,0.000885,0,0
0:1:17.397,272.961,15.4443,0,0.000885,0,0
0:1:17.596,273.192,15.458,0,0.000885,0,0
0:1:17.797,275.483,15.589,0,0.000885,0,0
0:1:17.999,276.243,15.6304,0,0.000885,0,0
0:1:18.198,276.359,15.6373,0,0.000885,0,0
0:1:18.399,277.827,15.72,0,0.000885,0,0
0:1:18.599,278.121,15.7407,0,0.000885,0,0
0:1:18.793,279.468,15.8166,0,0.000885,0,0
0:1:18.993,280.056,15.851,0,0.000885,0,0
0:1:19.191,281.466,15.9269,0,0.000885,0,0
0:1:19.385,281.466,15.9269,0,0.000885,0,0
0:1:19.586,282.871,16.0096,0,0.000885,0,0
0:1:19.792,283.574,16.0441,0,0.000885,0,0
0:1:19.991,285.158,16.1337,0,0.000885,0,0
0:1:20.188,285.687,16.1682,0,0.000885,0,0
0:1:20.393,286.506,16.2096,0,0.000885,0,0
0:1:20.593,287.213,16.2509,0,0.000885,0,0
0:1:20.799,288.267,16.313,0,0.000885,0,0
0:1:20.995,288.739,16.3406,0,0.000885,0,0
0:1:21.197,289.851,16.4026,0,0.000885,0,0
0:1:21.390,290.322,16.4302,0,0.000885,0,0
0:1:21.591,291.492,16.4923,0,0.000885,0,0
0:1:21.787,291.843,16.5129,0,0.000885,0,0
0:1:21.982,292.373,16.5474,0,0.000885,0,0
0:1:22.182,294.543,16.6646,0,0.000885,0,0
0:1:22.382,295.011,16.6922,0,0.000885,0,0
0:1:22.586,295.949,16.7474,0,0.000885,0,0
0:1:22.787,296.945,16.8025,0,0.000885,0,0
0:1:22.987,297.826,16.8508,0,0.000885,0,0
0:1:23.188,298.823,16.9128,0,0.000885,0,0
0:1:23.386,299.646,16.9542,0,0.000885,0,0
0:1:23.587,301.051,17.0369,0,0.000885,0,0
0:1:23.788,301.465,17.0576,0,0.000885,0,0
0:1:23.992,302.283,17.1059,0,0.000885,0,0
0:1:24.193,303.4,17.1679,0,0.000885,0,0
0:1:24.388,303.636,17.1817,0,0.000885,0,0
0:1:24.585,305.041,17.2645,0,0.000885,0,0
0:1:24.786,305.508,17.2852,0,0.000885,0,0
0:1:24.979,306.625,17.3541,0,0.000885,0,0
0:1:25.180,307.741,17.4162,0,0.000885,0,0
0:1:25.385,308.738,17.4713,0,0.000885,0,0
0:1:25.594,309.383,17.5058,0,0.000885,0,0
0:1:25.794,310.201,17.5541,0,0.000885,0,0
0:1:25.987,311.024,17.6023,0,0.000885,0,0
0:1:26.186,311.963,17.6506,0,0.000885,0,0
0:1:26.383,313.137,17.7195,0,0.000885,0,0
0:1:26.580,313.195,17.7264,0,0.000885,0,0
0:1:26.781,314.894,17.8161,0,0.000885,0,0
0:1:26.984,314.894,17.8161,0,0.000885,0,0
0:1:27.183,316.42,17.9057,0,0.000885,0,0
0:1:27.383,316.829,17.9264,0,0.000885,0,0
0:1:27.586,318.297,18.0091,0,0.000885,0,0
0:1:27.786,318.706,18.0367,0,0.000885,0,0
0:1:27.988,319.703,18.0918,0,0.000885,0,0
0:1:28.188,320.468,18.1332,0,0.000885,0,0
0:1:28.388,321.406,18.1884,0,0.000885,0,0
0:1:28.589,322.403,18.2435,0,0.000885,0,0
0:1:28.791,323.221,18.2918,0,0.000885,0,0
0:1:28.987,324.28,18.3538,0,0.000885,0,0
0:1:29.194,325.156,18.4021,0,0.000885,0,0
0:1:29.394,326.388,18.4711,0,0.000885,0,0
0:1:29.586,326.918,18.4986,0,0.000885,0,0
0:1:29.786,327.798,18.5469,0,0.000885,0,0
0:1:29.984,328.737,18.6021,0,0.000885,0,0
0:1:30.189,329.618,18.6503,0,0.000885,0,0
0:1:30.392,330.908,18.7262,0,0.000885,0,0
0:1:30.595,331.201,18.74,0,0.000885,0,0
0:1:30.795,332.958,18.8434,0,0.000885,0,0
0:1:30.993,333.252,18.8572,0,0.000885,0,0
0:1:31.186,334.426,18.9261,0,0.000885,0,0
0:1:31.387,334.835,18.9468,0,0.000885,0,0
0:1:31.594,335.774,19.002,0,0.000885,0,0
0:1:31.789,336.655,19.0502,0,0.000885,0,0
0:1:31.992,337.358,19.0916,0,0.000885,0,0
0:1:32.194,338.59,19.1605,0,0.000885,0,0
0:1:32.396,339.119,19.1881,0,0.000885,0,0
0:1:32.596,340.289,19.2571,0,0.000885,0,0
0:1:32.798,341.054,19.2984,0,0.000885,0,0
0:1:32.999,341.757,19.3398,0,0.000885,0,0
0:1:33.198,342.575,19.3881,0,0.000885,0,0
0:1:33.399,343.34,19.4294,0,0.000885,0,0
0:1:33.597,344.337,19.4846,0,0.000885,0,0
0:1:33.792,345.097,19.526,0,0.000885,0,0
0:1:33.993,346.214,19.5949,0,0.000885,0,0
0:1:34.186,347.153,19.6432,0,0.000885,0,0
0:1:34.386,348.265,19.7052,0,0.000885,0,0
0:1:34.584,349.03,19.7535,0,0.000885,0,0
0:1:34.787,350.32,19.8224,0,0.000885,0,0
0:1:34.987,350.849,19.8569,0,0.000885,0,0
0:1:35.184,352.139,19.9258,0,0.000885,0,0
0:1:35.394,352.957,19.9741,0,0.000885,0,0
0:1:35.592,353.838,20.0224,0,0.000885,0,0
0:1:35.796,354.483,20.0568,0,0.000885,0,0
0:1:35.996,355.364,20.112,0,0.000885,0,0
0:1:36.194,356.009,20.1465,0,0.000885,0,0
0:1:36.400,356.948,20.2016,0,0.000885,0,0
0:1:36.600,357.535,20.2292,0,0.000885,0,0
0:1:36.794,358.94,20.312,0,0.000885,0,0
0:1:36.994,359.412,20.3395,0,0.000885,0,0
0:1:37.194,360.817,20.4154,0,0.000885,0,0
0:1:37.397,361.227,20.443,0,0.000885,0,0
0:1:37.598,362.228,20.4981,0,0.000885,0,0
0:1:37.798,362.873,20.5326,0,0.000885,0,0
0:1:38.000,364.394,20.6222,0,0.000885,0,0
0:1:38.201,364.63,20.636,0,0.000885,0,0
0:1:38.400,365.92,20.705,0,0.000885,0,0
0:1:38.601,366.916,20.7601,0,0.000885,0,0
0:1:38.798,367.561,20.8015,0,0.000885,0,0
0:1:38.995,368.678,20.8635,0,0.000885,0,0
0:1:39.195,369.674,20.9187,0,0.000885,0,0
0:1:39.398,370.612,20.9739,0,0.000885,0,0
0:1:39.599,371.257,21.0083,0,0.000885,0,0
0:1:39.795,371.729,21.0359,0,0.000885,0,0
0:1:39.990,373.019,21.1117,0,0.000885,0,0
0:1:40.193,373.78,21.1531,0,0.000885,0,0
0:1:40.396,375.012,21.2221,0,0.000885,0,0
0:1:40.596,375.715,21.2634,0,0.000885,0,0
0:1:40.793,375.95,21.2772,0,0.000885,0,0
0:1:40.986,377.65,21.3737,0,0.000885,0,0
0:1:41.186,377.65,21.3737,0,0.000885,0,0
0:1:41.394,379.175,21.4565,0,0.000885,0,0
0:1:41.593,379.469,21.4703,0,0.000885,0,0
0:1:41.790,380.875,21.553,0,0.000885,0,0
0:1:41.995,381.052,21.5599,0,0.000885,0,0
0:1:42.195,382.636,21.6495,0,0.000885,0,0
0:1:42.395,383.103,21.6771,0,0.000885,0,0
0:1:42.598,384.807,21.7736,0,0.000885,0,0
0:1:42.798,385.274,21.8012,0,0.000885,0,0
0:1:43.000,386.564,21.8771,0,0.000885,0,0
0:1:43.200,386.8,21.8909,0,0.000885,0,0
0:1:43.401,388.21,21.9667,0,0.000885,0,0
0:1:43.601,388.97,22.0081,0,0.000885,0,0
0:1:43.802,390.145,22.077,0,0.000885,0,0
0:1:43.997,390.905,22.1184,0,0.000885,0,0
0:1:44.196,391.959,22.1804,0,0.000885,0,0
0:1:44.393,392.604,22.2149,0,0.000885,0,0
0:1:44.587,393.249,22.2563,0,0.000885,0,0
0:1:44.788,394.544,22.3252,0,0.000885,0,0
0:1:44.995,395.247,22.3666,0,0.000885,0,0
0:1:45.193,396.065,22.4149,0,0.000885,0,0
0:1:45.390,396.479,22.4355,0,0.000885,0,0
0:1:45.584,397.942,22.5183,0,0.000885,0,0
0:1:45.786,398.414,22.5459,0,0.000885,0,0
0:1:45.993,399.584,22.6148,0,0.000885,0,0
0:1:46.188,399.877,22.6286,0,0.000885,0,0
0:1:46.389,401.581,22.7251,0,0.000885,0,0
0:1:46.584,401.754,22.732,0,0.000885,0,0
0:1:46.784,403.574,22.8354,0,0.000885,0,0
0:1:46.980,403.983,22.863,0,0.000885,0,0
0:1:47.176,405.629,22.9526,0,0.000885,0,0
0:1:47.377,405.1,22.9251,0,0.000885,0,0
0:1:47.579,406.274,22.9871,0,0.000885,0,0
0:1:47.780,406.505,23.0009,0,0.000885,0,0
0:1:47.982,408.267,23.1043,0,0.000885,0,0
0:1:48.183,408.56,23.1181,0,0.000885,0,0
0:1:48.383,409.908,23.194,0,0.000885,0,0
0:1:48.582,410.317,23.2215,0,0.000885,0,0
0:1:48.783,411.901,23.3112,0,0.000885,0,0
0:1:48.983,412.43,23.3388,0,0.000885,0,0
0:1:49.185,413.778,23.4146,0,0.000885,0,0
0:1:49.386,414.014,23.4284,0,0.000885,0,0
0:1:49.594,415.713,23.5249,0,0.000885,0,0
0:1:49.788,416.358,23.5594,0,0.000885,0,0
0:1:49.989,416.714,23.5801,0,0.000885,0,0
0:1:50.195,417.942,23.649,0,0.000885,0,0
0:1:50.394,418.297,23.6697,0,0.000885,0,0
0:1:50.590,419.761,23.7524,0,0.000885,0,0
0:1:50.786,420.112,23.7731,0,0.000885,0,0
0:1:50.986,421.522,23.8559,0,0.000885,0,0
0:1:51.194,421.874,23.8765,0,0.000885,0,0
0:1:51.391,423.751,23.98,0,0.000885,0,0
0:1:51.588,423.809,23.98,0,0.000885,0,0
0:1:51.783,425.099,24.0558,0,0.000885,0,0
0:1:51.983,425.979,24.1041,0,0.000885,0,0
0:1:52.183,427.443,24.1868,0,0.000885,0,0
0:1:52.386,428.088,24.2282,0,0.000885,0,0
0:1:52.587,428.853,24.2695,0,0.000885,0,0
0:1:52.787,428.733,24.2627,0,0.000885,0,0
0:1:52.988,429.849,24.3247,0,0.000885,0,0
0:1:53.189,430.201,24.3454,0,0.000885,0,0
0:1:53.389,431.9,24.4419,0,0.000885,0,0
0:1:53.589,432.372,24.4695,0,0.000885,0,0
0:1:53.783,434.191,24.5729,0,0.000885,0,0
0:1:53.985,434.422,24.5867,0,0.000885,0,0
0:1:54.181,434.716,24.6005,0,0.000885,0,0
0:1:54.387,436.713,24.7108,0,0.000885,0,0
0:1:54.587,437.122,24.7384,0,0.000885,0,0
0:1:54.780,438.764,24.828,0,0.000885,0,0
0:1:54.980,439.173,24.8556,0,0.000885,0,0
0:1:55.179,440.934,24.9521,0,0.000885,0,0
0:1:55.373,440.934,24.9521,0,0.000885,0,0
0:1:55.575,442.696,25.0487,0,0.000885,0,0
0:1:55.788,442.812,25.0555,0,0.000885,0,0
0:1:55.989,443.986,25.1245,0,0.000885,0,0
0:1:56.197,444.511,25.1521,0,0.000885,0,0
0:1:56.403,445.801,25.2279,0,0.000885,0,0
0:1:56.603,446.037,25.2417,0,0.000885,0,0
0:1:56.797,447.736,25.3382,0,0.000885,0,0
0:1:56.998,447.798,25.3382,0,0.000885,0,0
0:1:57.198,448.968,25.4072,0,0.000885,0,0
0:1:57.400,449.03,25.4072,0,0.000885,0,0
0:1:57.602,450.32,25.483,0,0.000885,0,0
0:1:57.802,450.845,25.5106,0,0.000885,0,0
0:1:58.003,452.486,25.6071,0,0.000885,0,0
0:1:58.203,453.074,25.6416,0,0.000885,0,0
0:1:58.403,454.657,25.7312,0,0.000885,0,0
0:1:58.603,454.777,25.7381,0,0.000885,0,0
0:1:58.799,456.303,25.8209,0,0.000885,0,0
0:1:58.998,457.121,25.8691,0,0.000885,0,0
0:1:59.195,457.651,25.8967,0,0.000885,0,0
0:1:59.390,459.114,25.9794,0,0.000885,0,0
0:1:59.590,459.408,26.0001,0,0.000885,0,0
0:1:59.796,461.169,26.0967,0,0.000885,0,0
0:1:59.995,461.343,26.1036,0,0.000885,0,0
0:2:0.192,462.695,26.1863,0,0.000885,0,0
0:2:0.387,462.811,26.1932,0,0.000885,0,0
0:2:0.588,464.221,26.269,0,0.000885,0,0
0:2:0.795,464.221,26.269,0,0.000885,0,0
0:2:0.991,465.333,26.3311,0,0.000885,0,0
0:2:1.190,465.92,26.3656,0,0.000885,0,0
0:2:1.396,467.619,26.4621,0,0.000885,0,0
0:2:1.595,467.855,26.4759,0,0.000885,0,0
0:2:1.790,469.554,26.5724,0,0.000885,0,0
0:2:1.987,469.554,26.5724,0,0.000885,0,0
0:2:2.188,471.138,26.662,0,0.000885,0,0
0:2:2.389,470.964,26.6482,0,0.000885,0,0
0:2:2.591,472.664,26.7448,0,0.000885,0,0
0:2:2.791,473.251,26.7792,0,0.000885,0,0
0:2:2.992,475.07,26.8827,0,0.000885,0,0
0:2:3.192,475.128,26.8896,0,0.000885,0,0
0:2:3.395,476.769,26.9792,0,0.000885,0,0
0:2:3.596,477.356,27.0137,0,0.000885,0,0
0:2:3.803,478.704,27.0895,0,0.000885,0,0
0:2:3.999,479.118,27.1102,0,0.000885,0,0
0:2:4.199,479.291,27.124,0,0.000885,0,0
0:2:4.402,480.639,27.1998,0,0.000885,0,0
0:2:4.602,480.875,27.2136,0,0.000885,0,0
0:2:4.800,482.049,27.2757,0,0.000885,0,0
0:2:4.996,482.636,27.3101,0,0.000885,0,0
0:2:5.197,484.394,27.4136,0,0.000885,0,0
0:2:5.389,484.451,27.4136,0,0.000885,0,0
0:2:5.587,486.035,27.5032,0,0.000885,0,0
0:2:5.787,486.564,27.5308,0,0.000885,0,0
0:2:5.980,487.561,27.5928,0,0.000885,0,0
0:2:6.181,488.384,27.6342,0,0.000885,0,0
0:2:6.387,489.553,27.7031,0,0.000885,0,0
0:2:6.596,490.376,27.7514,0,0.000885,0,0
0:2:6.793,491.257,27.7997,0,0.000885,0,0
0:2:6.988,491.96,27.841,0,0.000885,0,0
0:2:7.189,493.486,27.9238,0,0.000885,0,0
0:2:7.390,493.601,27.9307,0,0.000885,0,0
0:2:7.593,495.185,28.0203,0,0.000885,0,0
0:2:7.796,495.599,28.0479,0,0.000885,0,0
0:2:7.996,497.298,28.1444,0,0.000885,0,0
0:2:8.197,497.943,28.1789,0,0.000885,0,0
0:2:8.396,498.588,28.2133,0,0.000885,0,0
0:2:8.597,499.117,28.2409,0,0.000885,0,0
0:2:8.793,499.82,28.2823,0,0.000885,0,0
0:2:9.001,500.932,28.3443,0,0.000885,0,0
0:2:9.202,501.871,28.3995,0,0.000885,0,0
0:2:9.398,502.694,28.4478,0,0.000885,0,0
0:2:9.603,503.454,28.4891,0,0.000885,0,0
0:2:9.802,504.041,28.5236,0,0.000885,0,0
0:2:9.998,504.98,28.5788,0,0.000885,0,0
0:2:10.198,505.745,28.6201,0,0.000885,0,0
0:2:10.393,506.857,28.6822,0,0.000885,0,0
0:2:10.588,507.386,28.7098,0,0.000885,0,0
0:2:10.789,508.556,28.7787,0,0.000885,0,0
0:2:10.984,509.557,28.8339,0,0.000885,0,0
0:2:11.184,510.433,28.8821,0,0.000885,0,0
0:2:11.382,511.959,28.9718,0,0.000885,0,0
0:2:11.586,512.546,29.0062,0,0.000885,0,0
0:2:11.787,513.894,29.0821,0,0.000885,0,0
0:2:11.991,514.014,29.089,0,0.000885,0,0
0:2:12.191,514.953,29.1372,0,0.000885,0,0
0:2:12.391,515.54,29.1717,0,0.000885,0,0
0:2:12.596,517.706,29.2958,0,0.000885,0,0
0:2:12.797,517.826,29.3027,0,0.000885,0,0
0:2:12.997,518.293,29.3303,0,0.000885,0,0
0:2:13.198,519.059,29.3717,0,0.000885,0,0
0:2:13.398,520.113,29.4337,0,0.000885,0,0
0:2:13.598,520.994,29.482,0,0.000885,0,0
0:2:13.798,521.932,29.5371,0,0.000885,0,0
0:2:13.991,522.808,29.5854,0,0.000885,0,0
0:2:14.190,523.689,29.6337,0,0.000885,0,0
0:2:14.390,524.57,29.6819,0,0.000885,0,0
0:2:14.592,525.157,29.7164,0,0.000885,0,0
0:2:14.793,526.683,29.806,0,0.000885,0,0
0:2:14.988,527.208,29.8336,0,0.000885,0,0
0:2:15.185,528.676,29.9164,0,0.000885,0,0
0:2:15.386,528.969,29.9301,0,0.000885,0,0
0:2:15.579,530.495,30.0198,0,0.000885,0,0
0:2:15.781,531.02,30.0474,0,0.000885,0,0
0:2:15.977,532.021,30.1094,0,0.000885,0,0
0:2:16.174,532.723,30.1439,0,0.000885,0,0
0:2:16.373,533.248,30.1784,0,0.000885,0,0
0:2:16.568,535.01,30.2749,0,0.000885,0,0
0:2:16.767,535.655,30.3094,0,0.000885,0,0
0:2:16.964,536.771,30.3783,0,0.000885,0,0
0:2:17.159,537.474,30.4128,0,0.000885,0,0
0:2:17.360,538.413,30.4679,0,0.000885,0,0
0:2:17.560,539.231,30.5162,0,0.000885,0,0
0:2:17.763,540.054,30.5576,0,0.000885,0,0
0:2:17.964,540.29,30.5714,0,0.000885,0,0
0:2:18.164,541.931,30.6679,0,0.000885,0,0
0:2:18.365,542.105,30.6748,0,0.000885,0,0
0:2:18.564,543.106,30.7299,0,0.000885,0,0
0:2:18.764,543.457,30.7506,0,0.000885,0,0
0:2:18.967,544.978,30.8402,0,0.000885,0,0
0:2:19.162,545.45,30.8678,0,0.000885,0,0
0:2:19.361,546.74,30.9368,0,0.000885,0,0
0:2:19.556,547.621,30.9919,0,0.000885,0,0
0:2:19.753,548.145,31.0195,0,0.000885,0,0
0:2:19.954,549.729,31.1091,0,0.000885,0,0
0:2:20.149,550.552,31.1574,0,0.000885,0,0
0:2:20.349,551.197,31.1919,0,0.000885,0,0
0:2:20.544,551.958,31.2333,0,0.000885,0,0
0:2:20.742,552.896,31.2884,0,0.000885,0,0
0:2:20.943,553.777,31.3367,0,0.000885,0,0
0:2:21.137,554.658,31.3849,0,0.000885,0,0
0:2:21.337,555.538,31.4401,0,0.000885,0,0
0:2:21.533,556.299,31.4815,0,0.000885,0,0
0:2:21.729,556.828,31.509,0,0.000885,0,0
0:2:21.931,557.767,31.5642,0,0.000885,0,0
0:2:22.132,558.47,31.6056,0,0.000885,0,0
0:2:22.334,560.583,31.7228,0,0.000885,0,0
0:2:22.533,561.17,31.7573,0,0.000885,0,0
0:2:22.733,561.93,31.7986,0,0.000885,0,0
0:2:22.934,563.456,31.8883,0,0.000885,0,0
0:2:23.134,563.981,31.9158,0,0.000885,0,0
0:2:23.334,565.213,31.9848,0,0.000885,0,0
0:2:23.532,565.391,31.9917,0,0.000885,0,0
0:2:23.727,566.503,32.0606,0,0.000885,0,0
0:2:23.926,566.623,32.0675,0,0.000885,0,0
0:2:24.124,567.971,32.1434,0,0.000885,0,0
0:2:24.321,568.265,32.1571,0,0.000885,0,0
0:2:24.520,569.319,32.2192,0,0.000885,0,0
0:2:24.714,570.026,32.2537,0,0.000885,0,0
0:2:24.913,571.548,32.3433,0,0.000885,0,0
0:2:25.112,571.899,32.364,0,0.000885,0,0
0:2:25.307,572.78,32.4123,0,0.000885,0,0
0:2:25.508,574.363,32.5019,0,0.000885,0,0
0:2:25.701,574.835,32.5295,0,0.000885,0,0
0:2:25.900,576.067,32.5984,0,0.000885,0,0
0:2:26.100,576.943,32.6467,0,0.000885,0,0
0:2:26.302,577.824,32.6949,0,0.000885,0,0
0:2:26.503,578.527,32.7363,0,0.000885,0,0
0:2:26.699,579.937,32.819,0,0.000885,0,0
0:2:26.905,580.288,32.8397,0,0.000885,0,0
0:2:27.104,581.285,32.8949,0,0.000885,0,0
0:2:27.305,581.814,32.9225,0,0.000885,0,0
0:2:27.507,582.575,32.9638,0,0.000885,0,0
0:2:27.708,583.104,32.9983,0,0.000885,0,0
0:2:27.907,584.394,33.0673,0,0.000885,0,0
0:2:28.108,584.923,33.1017,0,0.000885,0,0
0:2:28.307,586.213,33.1707,0,0.000885,0,0
0:2:28.508,587.325,33.2327,0,0.000885,0,0
0:2:28.707,588.615,33.3086,0,0.000885,0,0
0:2:28.901,588.615,33.3086,0,0.000885,0,0
0:2:29.102,590.435,33.412,0,0.000885,0,0
0:2:29.298,590.902,33.4396,0,0.000885,0,0
0:2:29.494,591.547,33.474,0,0.000885,0,0
0:2:29.693,592.605,33.5361,0,0.000885,0,0
0:2:29.887,593.25,33.5706,0,0.000885,0,0
0:2:30.089,594.131,33.6188,0,0.000885,0,0
0:2:30.286,595.185,33.6809,0,0.000885,0,0
0:2:30.484,595.835,33.7154,0,0.000885,0,0
0:2:30.686,596.48,33.7567,0,0.000885,0,0
0:2:30.880,597.418,33.805,0,0.000885,0,0
0:2:31.081,598.121,33.8464,0,0.000885,0,0
0:2:31.279,599.709,33.936,0,0.000885,0,0
0:2:31.476,599.767,33.9429,0,0.000885,0,0
0:2:31.679,601.351,34.0325,0,0.000885,0,0
0:2:31.873,601.88,34.0601,0,0.000885,0,0
0:2:32.072,602.289,34.0808,0,0.000885,0,0
0:2:32.273,603.993,34.1773,0,0.000885,0,0
0:2:32.476,604.402,34.2049,0,0.000885,0,0
0:2:32.677,606.164,34.3014,0,0.000885,0,0
0:2:32.879,606.048,34.2945,0,0.000885,0,0
0:2:33.081,607.747,34.391,0,0.000885,0,0
0:2:33.282,607.689,34.391,0,0.000885,0,0
0:2:33.483,609.335,34.4807,0,0.000885,0,0
0:2:33.685,609.86,34.5083,0,0.000885,0,0
0:2:33.883,610.861,34.5703,0,0.000885,0,0
0:2:34.080,611.097,34.5841,0,0.000885,0,0
0:2:34.282,612.622,34.6668,0,0.000885,0,0
0:2:34.477,613.089,34.6944,0,0.000885,0,0
0:2:34.680,614.5,34.7703,0,0.000885,0,0
0:2:34.887,615.496,34.8323,0,0.000885,0,0
0:2:35.092,616.497,34.8875,0,0.000885,0,0
0:2:35.293,616.964,34.9151,0,0.000885,0,0
0:2:35.489,617.787,34.9564,0,0.000885,0,0
0:2:35.689,618.961,35.0254,0,0.000885,0,0
0:2:35.889,619.958,35.0805,0,0.000885,0,0
0:2:36.085,620.603,35.1219,0,0.000885,0,0
0:2:36.285,621.252,35.1564,0,0.000885,0,0
0:2:36.482,622.248,35.2115,0,0.000885,0,0
0:2:36.681,623.303,35.2736,0,0.000885,0,0
0:2:36.883,623.832,35.3012,0,0.000885,0,0
0:2:37.085,625.358,35.3908,0,0.000885,0,0
0:2:37.288,625.945,35.4184,0,0.000885,0,0
0:2:37.490,627.706,35.5218,0,0.000885,0,0
0:2:37.691,628,35.5356,0,0.000885,0,0
0:2:37.892,628.881,35.5907,0,0.000885,0,0
0:2:38.093,629.583,35.6252,0,0.000885,0,0
0:2:38.295,630.291,35.6666,0,0.000885,0,0
0:2:38.504,631.581,35.7424,0,0.000885,0,0
0:2:38.701,632.346,35.7838,0,0.000885,0,0
0:2:38.902,633.164,35.8321,0,0.000885,0,0
0:2:39.108,634.459,35.901,0,0.000885,0,0
0:2:39.307,634.81,35.9217,0,0.000885,0,0
0:2:39.507,636.042,35.9906,0,0.000885,0,0
0:2:39.701,636.572,36.0251,0,0.000885,0,0
0:2:39.903,637.159,36.0527,0,0.000885,0,0
0:2:40.102,637.977,36.1009,0,0.000885,0,0
0:2:40.299,639.094,36.163,0,0.000885,0,0
0:2:40.501,639.623,36.1975,0,0.000885,0,0
0:2:40.694,640.855,36.2664,0,0.000885,0,0
0:2:40.894,641.678,36.3147,0,0.000885,0,0
0:2:41.093,642.381,36.3492,0,0.000885,0,0
0:2:41.291,643.965,36.4388,0,0.000885,0,0
0:2:41.491,644.378,36.4664,0,0.000885,0,0
0:2:41.687,645.553,36.5284,0,0.000885,0,0
0:2:41.888,646.313,36.5767,0,0.000885,0,0
0:2:42.088,647.723,36.6525,0,0.000885,0,0
0:2:42.292,648.253,36.6801,0,0.000885,0,0
0:2:42.494,649.133,36.7353,0,0.000885,0,0
0:2:42.695,650.245,36.7973,0,0.000885,0,0
0:2:42.896,651.068,36.8456,0,0.000885,0,0
0:2:43.100,651.833,36.887,0,0.000885,0,0
0:2:43.302,652.478,36.9214,0,0.000885,0,0
0:2:43.504,653.417,36.9766,0,0.000885,0,0
0:2:43.700,654.12,37.018,0,0.000885,0,0
0:2:43.900,654.769,37.0524,0,0.000885,0,0
0:2:44.097,655.939,37.1214,0,0.000885,0,0
0:2:44.305,656.82,37.1696,0,0.000885,0,0
0:2:44.506,657.527,37.211,0,0.000885,0,0
0:2:44.701,658.995,37.2937,0,0.000885,0,0
0:2:44.900,659.462,37.3213,0,0.000885,0,0
0:2:45.101,660.463,37.3765,0,0.000885,0,0
0:2:45.296,661.05,37.411,0,0.000885,0,0
0:2:45.497,662.576,37.4937,0,0.000885,0,0
0:2:45.705,663.101,37.5213,0,0.000885,0,0
0:2:45.903,664.333,37.5971,0,0.000885,0,0
0:2:46.104,664.92,37.6247,0,0.000885,0,0
0:2:46.302,666.037,37.6867,0,0.000885,0,0
0:2:46.500,666.86,37.735,0,0.000885,0,0
0:2:46.700,667.327,37.7626,0,0.000885,0,0
0:2:46.893,668.385,37.8246,0,0.000885,0,0
0:2:47.094,669.15,37.866,0,0.000885,0,0
0:2:47.297,669.675,37.8936,0,0.000885,0,0
0:2:47.502,671.143,37.9763,0,0.000885,0,0
0:2:47.704,671.615,38.0039,0,0.000885,0,0
0:2:47.906,673.67,38.1211,0,0.000885,0,0
0:2:48.107,674.137,38.1487,0,0.000885,0,0
0:2:48.308,675.075,38.2039,0,0.000885,0,0
0:2:48.509,675.605,38.2314,0,0.000885,0,0
0:2:48.712,676.192,38.2659,0,0.000885,0,0
0:2:48.907,677.251,38.3211,0,0.000885,0,0
0:2:49.108,677.838,38.3555,0,0.000885,0,0
0:2:49.305,678.541,38.3969,0,0.000885,0,0
0:2:49.503,679.595,38.459,0,0.000885,0,0
0:2:49.705,681.476,38.5624,0,0.000885,0,0
0:2:49.910,681.77,38.5831,0,0.000885,0,0
0:2:50.110,683.06,38.652,0,0.000885,0,0
0:2:50.309,683.469,38.6796,0,0.000885,0,0
0:2:50.506,684.999,38.7623,0,0.000885,0,0
0:2:50.708,685.467,38.7899,0,0.000885,0,0
0:2:50.905,685.876,38.8106,0,0.000885,0,0
0:2:51.103,687.112,38.8795,0,0.000885,0,0
0:2:51.303,688.109,38.9416,0,0.000885,0,0
0:2:51.496,688.638,38.9692,0,0.000885,0,0
0:2:51.700,689.457,39.0174,0,0.000885,0,0
0:2:51.897,690.222,39.0588,0,0.000885,0,0
0:2:52.095,691.69,39.1415,0,0.000885,0,0
0:2:52.297,692.277,39.176,0,0.000885,0,0
0:2:52.501,693.802,39.2587,0,0.000885,0,0
0:2:52.704,694.332,39.2932,0,0.000885,0,0
0:2:52.906,695.15,39.3346,0,0.000885,0,0
0:2:53.107,695.737,39.3691,0,0.000885,0,0
0:2:53.307,697.09,39.4449,0,0.000885,0,0
0:2:53.509,697.441,39.4656,0,0.000885,0,0
0:2:53.709,698.438,39.5207,0,0.000885,0,0
0:2:53.910,699.025,39.5552,0,0.000885,0,0
0:2:54.104,699.905,39.6035,0,0.000885,0,0
0:2:54.306,701.431,39.6931,0,0.000885,0,0
0:2:54.502,702.138,39.7345,0,0.000885,0,0
0:2:54.701,703.313,39.7965,0,0.000885,0,0
0:2:54.903,704.194,39.8517,0,0.000885,0,0
0:2:55.096,704.896,39.8862,0,0.000885,0,0
0:2:55.297,705.777,39.9413,0,0.000885,0,0
0:2:55.495,706.364,39.9689,0,0.000885,0,0
0:2:55.692,706.773,39.9965,0,0.000885,0,0
0:2:55.893,707.948,40.0585,0,0.000885,0,0
0:2:56.090,708.477,40.093,0,0.000885,0,0
0:2:56.288,710.296,40.1964,0,0.000885,0,0
0:2:56.488,711.293,40.2516,0,0.000885,0,0
0:2:56.684,712.058,40.293,0,0.000885,0,0
0:2:56.884,712.352,40.3136,0,0.000885,0,0
0:2:57.086,714.055,40.4102,0,0.000885,0,0
0:2:57.290,714.171,40.4171,0,0.000885,0,0
0:2:57.492,715.697,40.4998,0,0.000885,0,0
0:2:57.693,716.106,40.5205,0,0.000885,0,0
0:2:57.894,716.284,40.5343,0,0.000885,0,0
0:2:58.095,717.867,40.6239,0,0.000885,0,0
0:2:58.297,718.281,40.6446,0,0.000885,0,0
0:2:58.498,719.749,40.7273,0,0.000885,0,0
0:2:58.693,720.274,40.7618,0,0.000885,0,0
0:2:58.893,720.923,40.7963,0,0.000885,0,0
0:2:59.092,721.92,40.8514,0,0.000885,0,0
0:2:59.289,723.036,40.9135,0,0.000885,0,0
0:2:59.491,723.681,40.9549,0,0.000885,0,0
0:2:59.695,725.38,41.0514,0,0.000885,0,0
0:2:59.895,726.203,41.0928,0,0.000885,0,0
0:3:0.095,726.439,41.1065,0,0.000885,0,0
0:3:0.292,727.435,41.1617,0,0.000885,0,0
0:3:0.493,729.139,41.2582,0,0.000885,0,0
0:3:0.689,729.726,41.2927,0,0.000885,0,0
0:3:0.888,730.781,41.3548,0,0.000885,0,0
0:3:1.088,731.43,41.3892,0,0.000885,0,0
0:3:1.284,731.839,41.4168,0,0.000885,0,0
0:3:1.485,732.426,41.4444,0,0.000885,0,0
0:3:1.692,734.188,41.5478,0,0.000885,0,0
0:3:1.891,734.717,41.5754,0,0.000885,0,0
0:3:2.091,735.011,41.5961,0,0.000885,0,0
0:3:2.293,736.594,41.6857,0,0.000885,0,0
0:3:2.497,737.297,41.7202,0,0.000885,0,0
0:3:2.701,738.414,41.7822,0,0.000885,0,0
0:3:2.902,738.765,41.8029,0,0.000885,0,0
0:3:3.104,740.527,41.9063,0,0.000885,0,0
0:3:3.304,741.229,41.9477,0,0.000885,0,0
0:3:3.506,741.759,41.9753,0,0.000885,0,0
0:3:3.704,742.288,42.0029,0,0.000885,0,0
0:3:3.901,743.462,42.0718,0,0.000885,0,0
0:3:4.103,743.814,42.0925,0,0.000885,0,0
0:3:4.297,745.34,42.1752,0,0.000885,0,0
0:3:4.497,746.105,42.2235,0,0.000885,0,0
0:3:4.698,746.692,42.2511,0,0.000885,0,0
0:3:4.892,747.217,42.2855,0,0.000885,0,0
0:3:5.094,749.45,42.4097,0,0.000885,0,0
0:3:5.290,750.273,42.4579,0,0.000885,0,0
0:3:5.490,751.153,42.5062,0,0.000885,0,0
0:3:5.691,751.736,42.5407,0,0.000885,0,0
0:3:5.887,753.088,42.6165,0,0.000885,0,0
0:3:6.086,753.791,42.6579,0,0.000885,0,0
0:3:6.283,753.733,42.651,0,0.000885,0,0
0:3:6.481,754.966,42.7199,0,0.000885,0,0
0:3:6.683,755.673,42.7613,0,0.000885,0,0
0:3:6.879,756.433,42.8027,0,0.000885,0,0
0:3:7.079,757.199,42.8509,0,0.000885,0,0
0:3:7.280,758.724,42.9337,0,0.000885,0,0
0:3:7.483,758.546,42.9268,0,0.000885,0,0
0:3:7.685,759.778,42.9957,0,0.000885,0,0
0:3:7.887,760.486,43.0371,0,0.000885,0,0
0:3:8.089,761.954,43.1198,0,0.000885,0,0
0:3:8.290,762.772,43.1612,0,0.000885,0,0
0:3:8.493,763.946,43.2301,0,0.000885,0,0
0:3:8.692,764.476,43.2577,0,0.000885,0,0
0:3:8.902,766.179,43.3542,0,0.000885,0,0
0:3:9.110,766.411,43.368,0,0.000885,0,0
0:3:9.311,767.647,43.437,0,0.000885,0,0
0:3:9.505,768.114,43.4645,0,0.000885,0,0
0:3:9.707,768.88,43.5128,0,0.000885,0,0
0:3:9.907,769.876,43.568,0,0.000885,0,0
0:3:10.103,770.992,43.63,0,0.000885,0,0
0:3:10.304,771.58,43.6645,0,0.000885,0,0
0:3:10.498,772.46,43.7128,0,0.000885,0,0
0:3:10.697,773.279,43.761,0,0.000885,0,0
0:3:10.898,774.747,43.8438,0,0.000885,0,0
0:3:11.093,775.512,43.8851,0,0.000885,0,0
0:3:11.294,776.922,43.9679,0,0.000885,0,0
0:3:11.499,777.216,43.9817,0,0.000885,0,0
0:3:11.697,777.389,43.9886,0,0.000885,0,0
0:3:11.899,778.857,44.0713,0,0.000885,0,0
0:3:12.105,779.502,44.1127,0,0.000885,0,0
0:3:12.307,780.325,44.154,0,0.000885,0,0
0:3:12.508,780.676,44.1747,0,0.000885,0,0
0:3:12.711,781.793,44.2437,0,0.000885,0,0
0:3:12.912,782.496,44.2781,0,0.000885,0,0
0:3:13.112,783.728,44.3471,0,0.000885,0,0
0:3:13.315,784.377,44.3884,0,0.000885,0,0
0:3:13.512,785.903,44.4712,0,0.000885,0,0
0:3:13.711,786.548,44.5126,0,0.000885,0,0
0:3:13.912,787.896,44.5884,0,0.000885,0,0
0:3:14.108,788.189,44.6022,0,0.000885,0,0
0:3:14.309,789.777,44.6918,0,0.000885,0,0
0:3:14.507,790.244,44.7194,0,0.000885,0,0
0:3:14.703,791.361,44.7814,0,0.000885,0,0
0:3:14.904,791.828,44.809,0,0.000885,0,0
0:3:15.099,793.065,44.878,0,0.000885,0,0
0:3:15.298,793.532,44.9056,0,0.000885,0,0
0:3:15.498,795.057,44.9883,0,0.000885,0,0
0:3:15.692,795.235,45.0021,0,0.000885,0,0
0:3:15.894,796.467,45.071,0,0.000885,0,0
0:3:16.091,797.17,45.1124,0,0.000885,0,0
0:3:16.289,797.642,45.14,0,0.000885,0,0
0:3:16.490,799.052,45.2158,0,0.000885,0,0
0:3:16.694,799.577,45.2503,0,0.000885,0,0
0:3:16.896,800.515,45.2986,0,0.000885,0,0
0:3:17.095,801.396,45.3468,0,0.000885,0,0
0:3:17.300,802.69,45.4227,0,0.000885,0,0
0:3:17.504,803.278,45.4571,0,0.000885,0,0
0:3:17.705,804.452,45.5192,0,0.000885,0,0
0:3:17.905,805.039,45.5537,0,0.000885,0,0
0:3:18.108,805.978,45.6088,0,0.000885,0,0
0:3:18.308,806.503,45.6364,0,0.000885,0,0
0:3:18.511,807.855,45.7122,0,0.000885,0,0
0:3:18.706,808.384,45.7467,0,0.000885,0,0
0:3:18.907,809.732,45.8226,0,0.000885,0,0
0:3:19.106,809.968,45.8363,0,0.000885,0,0
0:3:19.300,811.2,45.9053,0,0.000885,0,0
0:3:19.503,811.903,45.9467,0,0.000885,0,0
0:3:19.698,813.433,46.0294,0,0.000885,0,0
0:3:19.896,813.958,46.0639,0,0.000885,0,0
0:3:20.098,814.959,46.119,0,0.000885,0,0
0:3:20.305,815.484,46.1466,0,0.000885,0,0
0:3:20.506,816.658,46.2156,0,0.000885,0,0
0:3:20.711,817.129,46.2431,0,0.000885,0,0
0:3:20.910,818.184,46.2983,0,0.000885,0,0
0:3:21.111,818.949,46.3397,0,0.000885,0,0
0:3:21.307,820.065,46.4086,0,0.000885,0,0
0:3:21.508,820.595,46.4362,0,0.000885,0,0
0:3:21.707,821.062,46.4638,0,0.000885,0,0
0:3:21.904,822.178,46.5258,0,0.000885,0,0
0:3:22.105,822.881,46.5672,0,0.000885,0,0
0:3:22.308,823.997,46.6292,0,0.000885,0,0
0:3:22.510,824.349,46.6499,0,0.000885,0,0
0:3:22.713,825.345,46.7051,0,0.000885,0,0
0:3:22.914,825.995,46.7396,0,0.000885,0,0
0:3:23.117,826.813,46.7878,0,0.000885,0,0
0:3:23.317,827.458,46.8223,0,0.000885,0,0
0:3:23.519,828.108,46.8637,0,0.000885,0,0
0:3:23.719,828.459,46.8843,0,0.000885,0,0
0:3:23.914,828.575,46.8843,0,0.000885,0,0
0:3:24.115,829.22,46.9257,0,0.000885,0,0
0:3:24.311,829.104,46.9188,0,0.000885,0,0
0:3:24.510,829.22,46.9257,0,0.000885,0,0
0:3:24.711,828.868,46.905,0,0.000885,0,0
0:3:24.905,828.575,46.8843,0,0.000885,0,0
0:3:25.104,826.933,46.7947,0,0.000885,0,0
0:3:25.301,824.994,46.6844,0,0.000885,0,0
0:3:25.497,816.484,46.2018,0,0.000885,0,0
0:3:25.698,809.968,45.8363,0,0.000885,0,0
0:3:25.905,777.861,44.0161,0,0.000885,0,0
0:3:26.104,737.769,41.7478,0,0.000885,0,0
0:3:26.300,669.502,37.8867,0,0.000885,0,0