File: DataFile2021-07-28_091328.csv
Test ID:,Date Tested:,Time:,Test Type:,Diameter Avg. (mm):,Cyl. Corr. Factor:,Height (mm):,Age (days):,Weight (kN):,Break Type:,Ramp Rate (MPa/s):,Load at Break (kN):,Stress at Break (MPa):
12,7/28/2021,09:13,Cylinder,150,1,300,0,13.69,3,0.35,2203.71,124.71
Sample Time,Load (kN),Stress (MPa),Long. Strain,Trans. Strain,Chan1 Deflection (mm),Chan2 Deflection (mm)
0:0:8.467,5.51135,0.310264,0,0.000885,0,0
0:0:8.766,6.21861,0.351633,0,0.000885,0,0
0:0:9.060,7.73991,0.441264,0,0.000885,0,0
0:0:9.364,8.79858,0.496423,0,0.000885,0,0
0:0:9.658,11.0271,0.620528,0,0.000885,0,0
0:0:9.958,13.7228,0.779108,0,0.000885,0,0
0:0:10.255,16.4807,0.930792,0,0.000885,0,0
0:0:10.553,18.0064,1.02042,0,0.000885,0,0
0:0:10.855,20.1193,1.13763,0,0.000885,0,0
0:0:11.147,20.9956,1.1859,0,0.000885,0,0
0:0:11.450,22.2856,1.26174,0,0.000885,0,0
0:0:11.757,24.1049,1.36516,0,0.000885,0,0
0:0:12.056,26.3335,1.48927,0,0.000885,0,0
0:0:12.354,27.6813,1.56511,0,0.000885,0,0
0:0:12.649,28.6821,1.62027,0,0.000885,0,0
0:0:12.952,29.7942,1.68922,0,0.000885,0,0
0:0:13.256,30.8484,1.74437,0,0.000885,0,0
0:0:13.558,32.6677,1.84779,0,0.000885,0,0
0:0:13.856,33.8421,1.91674,0,0.000885,0,0
0:0:14.160,35.0742,1.98569,0,0.000885,0,0
0:0:14.465,36.7156,2.07532,0,0.000885,0,0
0:0:14.769,38.4727,2.17874,0,0.000885,0,0
0:0:15.072,40.1185,2.26838,0,0.000885,0,0
0:0:15.373,41.3507,2.33732,0,0.000885,0,0
0:0:15.673,43.0499,2.43385,0,0.000885,0,0
0:0:15.974,45.8078,2.59243,0,0.000885,0,0
0:0:16.267,47.7428,2.70274,0,0.000885,0,0
0:0:16.570,49.5576,2.80617,0,0.000885,0,0
0:0:16.865,51.5549,2.91648,0,0.000885,0,0
0:0:17.167,53.8991,3.04748,0,0.000885,0,0
0:0:17.464,57.8313,3.27501,0,0.000885,0,0
0:0:17.763,60.4691,3.4198,0,0.000885,0,0
0:0:18.065,63.1647,3.57148,0,0.000885,0,0
0:0:18.358,66.1006,3.74385,0,0.000885,0,0
0:0:18.662,68.6227,3.88175,0,0.000885,0,0
0:0:18.967,72.4348,4.09549,0,0.000885,0,0
0:0:19.270,75.0148,4.24717,0,0.000885,0,0
0:0:19.573,76.9498,4.35749,0,0.000885,0,0
0:0:19.876,78.4755,4.44022,0,0.000885,0,0
0:0:20.178,80.1747,4.53675,0,0.000885,0,0
0:0:20.475,80.9398,4.57812,0,0.000885,0,0
0:0:20.774,82.1097,4.64707,0,0.000885,0,0
0:0:21.072,83.1684,4.70912,0,0.000885,0,0
0:0:21.370,84.8676,4.80565,0,0.000885,0,0
0:0:21.671,86.6247,4.90217,0,0.000885,0,0
0:0:21.966,88.1504,4.9918,0,0.000885,0,0
0:0:22.269,89.5027,5.06765,0,0.000885,0,0
0:0:22.565,91.024,5.15038,0,0.000885,0,0
0:0:22.863,92.6075,5.24002,0,0.000885,0,0
0:0:23.163,95.5434,5.40549,0,0.000885,0,0
0:0:23.460,97.594,5.5227,0,0.000885,0,0
0:0:23.762,100.058,5.6606,0,0.000885,0,0
0:0:24.068,101.7,5.75712,0,0.000885,0,0
0:0:24.370,104.693,5.9226,0,0.000885,0,0
0:0:24.675,106.686,6.03981,0,0.000885,0,0
0:0:24.976,108.328,6.12944,0,0.000885,0,0
0:0:25.280,110.027,6.22597,0,0.000885,0,0
0:0:25.576,112.433,6.36386,0,0.000885,0,0
0:0:25.877,113.723,6.43281,0,0.000885,0,0
0:0:26.173,115.071,6.50865,0,0.000885,0,0
0:0:26.472,116.655,6.59828,0,0.000885,0,0
0:0:26.772,117.829,6.66723,0,0.000885,0,0
0:0:27.068,120.235,6.80513,0,0.000885,0,0
0:0:27.370,122.228,6.91544,0,0.000885,0,0
0:0:27.666,124.048,7.01886,0,0.000885,0,0
0:0:27.966,125.689,7.11539,0,0.000885,0,0
0:0:28.264,127.682,7.22571,0,0.000885,0,0
0:0:28.564,130.555,7.39118,0,0.000885,0,0
0:0:28.863,132.023,7.47392,0,0.000885,0,0
0:0:29.168,133.313,7.54286,0,0.000885,0,0
0:0:29.472,134.839,7.6325,0,0.000885,0,0
0:0:29.775,137.535,7.78418,0,0.000885,0,0
0:0:30.077,138.767,7.85313,0,0.000885,0,0
0:0:30.380,140.235,7.93587,0,0.000885,0,0
0:0:30.676,142.05,8.03929,0,0.000885,0,0
0:0:30.978,143.989,8.1496,0,0.000885,0,0
0:0:31.273,146.391,8.2875,0,0.000885,0,0
0:0:31.573,148.095,8.37713,0,0.000885,0,0
0:0:31.872,149.967,8.48745,0,0.000885,0,0
0:0:32.169,152.316,8.61845,0,0.000885,0,0
0:0:32.469,153.722,8.70118,0,0.000885,0,0
0:0:32.767,156.48,8.85287,0,0.000885,0,0
0:0:33.068,158.179,8.94939,0,0.000885,0,0
0:0:33.365,159.411,9.01834,0,0.000885,0,0
0:0:33.663,161.115,9.11487,0,0.000885,0,0
0:0:33.964,162.462,9.19071,0,0.000885,0,0
0:0:34.268,165.336,9.35619,0,0.000885,0,0
0:0:34.573,166.977,9.44582,0,0.000885,0,0
0:0:34.876,168.797,9.54924,0,0.000885,0,0
0:0:35.178,170.202,9.63198,0,0.000885,0,0
0:0:35.481,172.845,9.78366,0,0.000885,0,0
0:0:35.778,174.544,9.88019,0,0.000885,0,0
0:0:36.079,176.421,9.98361,0,0.000885,0,0
0:0:36.375,178.062,10.0732,0,0.000885,0,0
0:0:36.677,180.175,10.1973,0,0.000885,0,0
0:0:36.972,182.052,10.3008,0,0.000885,0,0
0:0:37.273,183.752,10.3973,0,0.000885,0,0
0:0:37.572,185.513,10.5007,0,0.000885,0,0
0:0:37.868,186.861,10.5766,0,0.000885,0,0
0:0:38.170,189.205,10.7076,0,0.000885,0,0
0:0:38.468,190.909,10.8041,0,0.000885,0,0
0:0:38.769,192.786,10.9075,0,0.000885,0,0
0:0:39.073,194.369,10.9971,0,0.000885,0,0
0:0:39.373,196.304,11.1075,0,0.000885,0,0
0:0:39.676,198.591,11.2385,0,0.000885,0,0
0:0:39.974,200.468,11.3419,0,0.000885,0,0
0:0:40.273,202.052,11.4315,0,0.000885,0,0
0:0:40.568,203.871,11.5349,0,0.000885,0,0
0:0:40.865,205.334,11.6177,0,0.000885,0,0
0:0:41.162,207.856,11.7625,0,0.000885,0,0
0:0:41.458,209.734,11.8659,0,0.000885,0,0
0:0:41.758,211.144,11.9486,0,0.000885,0,0
0:0:42.049,212.785,12.0382,0,0.000885,0,0
0:0:42.350,214.369,12.1279,0,0.000885,0,0
0:0:42.655,217.064,12.2865,0,0.000885,0,0
0:0:42.950,218.706,12.3761,0,0.000885,0,0
0:0:43.258,220.467,12.4726,0,0.000885,0,0
0:0:43.553,221.815,12.5554,0,0.000885,0,0
0:0:43.853,224.279,12.6932,0,0.000885,0,0
0:0:44.156,225.921,12.7829,0,0.000885,0,0
0:0:44.458,227.798,12.8932,0,0.000885,0,0
0:0:44.758,229.559,12.9897,0,0.000885,0,0
0:0:45.058,231.201,13.0862,0,0.000885,0,0
0:0:45.358,233.959,13.2379,0,0.000885,0,0
0:0:45.653,235.658,13.3345,0,0.000885,0,0
0:0:45.950,237.477,13.4379,0,0.000885,0,0
0:0:46.255,239.061,13.5275,0,0.000885,0,0
0:0:46.551,240.818,13.6309,0,0.000885,0,0
0:0:46.860,242.931,13.7481,0,0.000885,0,0
0:0:47.153,244.163,13.8171,0,0.000885,0,0
0:0:47.453,246.156,13.9274,0,0.000885,0,0
0:0:47.756,247.975,14.0308,0,0.000885,0,0
0:0:48.054,250.671,14.1825,0,0.000885,0,0
0:0:48.347,252.139,14.2653,0,0.000885,0,0
0:0:48.655,253.664,14.3549,0,0.000885,0,0
0:0:48.955,255.541,14.4583,0,0.000885,0,0
0:0:49.257,258.179,14.61,0,0.000885,0,0
0:0:49.560,259.821,14.6996,0,0.000885,0,0
0:0:49.860,261.462,14.7961,0,0.000885,0,0
0:0:50.160,263.224,14.8927,0,0.000885,0,0
0:0:50.459,264.629,14.9754,0,0.000885,0,0
0:0:50.753,267.214,15.1202,0,0.000885,0,0
0:0:51.053,268.677,15.2029,0,0.000885,0,0
0:0:51.356,270.145,15.2857,0,0.000885,0,0
0:0:51.653,272.138,15.4029,0,0.000885,0,0
0:0:51.959,273.837,15.4994,0,0.000885,0,0
0:0:52.255,276.243,15.6304,0,0.000885,0,0
0:0:52.554,277.711,15.7132,0,0.000885,0,0
0:0:52.856,279.704,15.8304,0,0.000885,0,0
0:0:53.156,281.346,15.92,0,0.000885,0,0
0:0:53.459,283.926,16.0648,0,0.000885,0,0
0:0:53.761,285.393,16.1475,0,0.000885,0,0
0:0:54.063,287.213,16.2509,0,0.000885,0,0
0:0:54.364,288.676,16.3337,0,0.000885,0,0
0:0:54.664,290.322,16.4302,0,0.000885,0,0
0:0:54.966,292.84,16.5681,0,0.000885,0,0
0:0:55.263,294.953,16.6922,0,0.000885,0,0
0:0:55.560,296.127,16.7543,0,0.000885,0,0
0:0:55.855,298.24,16.8784,0,0.000885,0,0
0:0:56.153,299.703,16.9611,0,0.000885,0,0
0:0:56.456,302.519,17.1197,0,0.000885,0,0
0:0:56.755,303.987,17.2024,0,0.000885,0,0
0:0:57.059,305.628,17.2921,0,0.000885,0,0
0:0:57.356,307.212,17.3817,0,0.000885,0,0
0:0:57.654,310.201,17.5541,0,0.000885,0,0
0:0:57.956,311.611,17.6368,0,0.000885,0,0
0:0:58.256,312.781,17.6988,0,0.000885,0,0
0:0:58.559,315.072,17.8298,0,0.000885,0,0
0:0:58.861,316.713,17.9195,0,0.000885,0,0
0:0:59.165,318.764,18.0367,0,0.000885,0,0
0:0:59.466,320.641,18.147,0,0.000885,0,0
0:0:59.767,322.109,18.2297,0,0.000885,0,0
0:1:0.068,323.693,18.3194,0,0.000885,0,0
0:1:0.367,326.451,18.4711,0,0.000885,0,0
0:1:0.662,327.972,18.5607,0,0.000885,0,0
0:1:0.959,329.675,18.6572,0,0.000885,0,0
0:1:1.255,331.553,18.7606,0,0.000885,0,0
0:1:1.547,333.545,18.8778,0,0.000885,0,0
0:1:1.847,335.716,18.9951,0,0.000885,0,0
0:1:2.153,337.593,19.1054,0,0.000885,0,0
0:1:2.459,338.825,19.1743,0,0.000885,0,0
0:1:2.758,340.818,19.2846,0,0.000885,0,0
0:1:3.062,343.283,19.4225,0,0.000885,0,0
0:1:3.360,344.808,19.5122,0,0.000885,0,0
0:1:3.654,346.33,19.5949,0,0.000885,0,0
0:1:3.955,348.62,19.7259,0,0.000885,0,0
0:1:4.259,350.142,19.8155,0,0.000885,0,0
0:1:4.559,352.726,19.9603,0,0.000885,0,0
0:1:4.860,354.19,20.0431,0,0.000885,0,0
0:1:5.160,355.715,20.1327,0,0.000885,0,0
0:1:5.461,357.766,20.243,0,0.000885,0,0
0:1:5.754,359.643,20.3533,0,0.000885,0,0
0:1:6.053,361.578,20.4636,0,0.000885,0,0
0:1:6.357,363.575,20.574,0,0.000885,0,0
0:1:6.653,365.039,20.6567,0,0.000885,0,0
0:1:6.959,366.743,20.7532,0,0.000885,0,0
0:1:7.255,368.913,20.8773,0,0.000885,0,0
0:1:7.554,370.906,20.9876,0,0.000885,0,0
0:1:7.858,372.432,21.0773,0,0.000885,0,0
0:1:8.155,373.722,21.1462,0,0.000885,0,0
0:1:8.461,375.772,21.2634,0,0.000885,0,0
0:1:8.755,378.352,21.4082,0,0.000885,0,0
0:1:9.055,379.998,21.5047,0,0.000885,0,0
0:1:9.358,381.288,21.5737,0,0.000885,0,0
0:1:9.659,383.459,21.6978,0,0.000885,0,0
0:1:9.962,385.567,21.8219,0,0.000885,0,0
0:1:10.260,387.738,21.9391,0,0.000885,0,0
0:1:10.563,389.437,22.0356,0,0.000885,0,0
0:1:10.856,391.141,22.1322,0,0.000885,0,0
0:1:11.155,392.84,22.2287,0,0.000885,0,0
0:1:11.460,395.54,22.3804,0,0.000885,0,0
0:1:11.756,396.83,22.4562,0,0.000885,0,0
0:1:12.054,398.765,22.5665,0,0.000885,0,0
0:1:12.358,399.94,22.6286,0,0.000885,0,0
0:1:12.658,401.932,22.7458,0,0.000885,0,0
0:1:12.960,404.161,22.8699,0,0.000885,0,0
0:1:13.260,405.98,22.9733,0,0.000885,0,0
0:1:13.555,407.444,23.0561,0,0.000885,0,0
0:1:13.858,409.73,23.1871,0,0.000885,0,0
0:1:14.159,411.901,23.3112,0,0.000885,0,0
0:1:14.462,413.311,23.387,0,0.000885,0,0
0:1:14.761,415.068,23.4904,0,0.000885,0,0
0:1:15.061,417.065,23.6008,0,0.000885,0,0
0:1:15.358,418.413,23.6766,0,0.000885,0,0
0:1:15.658,420.877,23.8145,0,0.000885,0,0
0:1:15.960,422.87,23.9317,0,0.000885,0,0
0:1:16.260,424.276,24.0075,0,0.000885,0,0
0:1:16.554,426.215,24.1179,0,0.000885,0,0
0:1:16.861,427.972,24.2213,0,0.000885,0,0
0:1:17.159,430.201,24.3454,0,0.000885,0,0
0:1:17.454,432.078,24.4488,0,0.000885,0,0
0:1:17.754,433.719,24.5453,0,0.000885,0,0
0:1:18.057,435.539,24.6488,0,0.000885,0,0
0:1:18.354,438.119,24.7935,0,0.000885,0,0
0:1:18.662,439.467,24.8694,0,0.000885,0,0
0:1:18.963,441.286,24.9728,0,0.000885,0,0
0:1:19.266,442.869,25.0624,0,0.000885,0,0
0:1:19.567,444.159,25.1314,0,0.000885,0,0
0:1:19.869,446.739,25.2831,0,0.000885,0,0
0:1:20.169,448.501,25.3796,0,0.000885,0,0
0:1:20.463,450.142,25.4761,0,0.000885,0,0
0:1:20.763,451.784,25.5658,0,0.000885,0,0
0:1:21.057,454.484,25.7174,0,0.000885,0,0
0:1:21.356,456.067,25.8071,0,0.000885,0,0
0:1:21.659,457.709,25.9036,0,0.000885,0,0
0:1:21.956,459.35,25.9932,0,0.000885,0,0
0:1:22.255,460.934,26.0829,0,0.000885,0,0
0:1:22.558,463.985,26.2552,0,0.000885,0,0
0:1:22.859,465.804,26.3587,0,0.000885,0,0
0:1:23.162,467.619,26.4621,0,0.000885,0,0
0:1:23.458,469.674,26.5793,0,0.000885,0,0
0:1:23.755,470.907,26.6482,0,0.000885,0,0
0:1:24.057,473.251,26.7792,0,0.000885,0,0
0:1:24.360,474.305,26.8413,0,0.000885,0,0
0:1:24.662,476.182,26.9447,0,0.000885,0,0
0:1:24.961,477.944,27.0481,0,0.000885,0,0
0:1:25.263,480.639,27.1998,0,0.000885,0,0
0:1:25.557,481.578,27.255,0,0.000885,0,0
0:1:25.857,483.397,27.3515,0,0.000885,0,0
0:1:26.149,485.274,27.4618,0,0.000885,0,0
0:1:26.460,486.916,27.5515,0,0.000885,0,0
0:1:26.764,489.731,27.71,0,0.000885,0,0
0:1:27.060,491.315,27.7997,0,0.000885,0,0
0:1:27.359,493.37,27.9169,0,0.000885,0,0
0:1:27.663,494.891,28.0065,0,0.000885,0,0
0:1:27.961,497.24,28.1375,0,0.000885,0,0
0:1:28.258,498.824,28.2271,0,0.000885,0,0
0:1:28.551,500.581,28.3306,0,0.000885,0,0
0:1:28.848,502.458,28.434,0,0.000885,0,0
0:1:29.151,504.099,28.5236,0,0.000885,0,0
0:1:29.456,506.799,28.6822,0,0.000885,0,0
0:1:29.758,508.147,28.758,0,0.000885,0,0
0:1:30.056,509.909,28.8546,0,0.000885,0,0
0:1:30.357,511.786,28.958,0,0.000885,0,0
0:1:30.660,513.543,29.0614,0,0.000885,0,0
0:1:30.961,516.123,29.2062,0,0.000885,0,0
0:1:31.263,517.648,29.2958,0,0.000885,0,0
0:1:31.562,518.881,29.3648,0,0.000885,0,0
0:1:31.859,520.406,29.4475,0,0.000885,0,0
0:1:32.163,522.808,29.5854,0,0.000885,0,0
0:1:32.463,524.748,29.6957,0,0.000885,0,0
0:1:32.757,526.625,29.7991,0,0.000885,0,0
0:1:33.055,528.204,29.8888,0,0.000885,0,0
0:1:33.361,529.908,29.9853,0,0.000885,0,0
0:1:33.656,532.194,30.1163,0,0.000885,0,0
0:1:33.950,533.778,30.2059,0,0.000885,0,0
0:1:34.257,535.477,30.3025,0,0.000885,0,0
0:1:34.560,537.532,30.4197,0,0.000885,0,0
0:1:34.860,539.645,30.5369,0,0.000885,0,0
0:1:35.160,541.286,30.6334,0,0.000885,0,0
0:1:35.461,543.221,30.7368,0,0.000885,0,0
0:1:35.755,544.92,30.8334,0,0.000885,0,0
0:1:36.055,546.855,30.9437,0,0.000885,0,0
0:1:36.359,549.378,31.0885,0,0.000885,0,0
0:1:36.656,550.73,31.1643,0,0.000885,0,0
0:1:36.951,552.251,31.2539,0,0.000885,0,0
0:1:37.257,554.306,31.3643,0,0.000885,0,0
0:1:37.556,556.005,31.4608,0,0.000885,0,0
0:1:37.860,558.941,31.6263,0,0.000885,0,0
0:1:38.157,560.169,31.7021,0,0.000885,0,0
0:1:38.463,561.815,31.7917,0,0.000885,0,0
0:1:38.757,563.398,31.8814,0,0.000885,0,0
0:1:39.060,565.8,32.0193,0,0.000885,0,0
0:1:39.363,567.326,32.102,0,0.000885,0,0
0:1:39.664,569.146,32.2054,0,0.000885,0,0
0:1:39.965,570.729,32.295,0,0.000885,0,0
0:1:40.265,572.606,32.4054,0,0.000885,0,0
0:1:40.567,574.777,32.5226,0,0.000885,0,0
0:1:40.860,576.125,32.6053,0,0.000885,0,0
0:1:41.159,578.118,32.7156,0,0.000885,0,0
0:1:41.453,579.937,32.819,0,0.000885,0,0
0:1:41.760,582.223,32.95,0,0.000885,0,0
0:1:42.058,584.158,33.0535,0,0.000885,0,0
0:1:42.362,586.093,33.1638,0,0.000885,0,0
0:1:42.661,587.383,33.2396,0,0.000885,0,0
0:1:42.958,589.438,33.3568,0,0.000885,0,0
0:1:43.257,591.965,33.5016,0,0.000885,0,0
0:1:43.564,593.784,33.5982,0,0.000885,0,0
0:1:43.867,595.016,33.674,0,0.000885,0,0
0:1:44.171,596.778,33.7705,0,0.000885,0,0
0:1:44.472,599.242,33.9084,0,0.000885,0,0
0:1:44.775,601.061,34.0118,0,0.000885,0,0
0:1:45.077,602.414,34.0877,0,0.000885,0,0
0:1:45.373,604.464,34.2049,0,0.000885,0,0
0:1:45.676,606.755,34.3359,0,0.000885,0,0
0:1:45.970,608.045,34.4117,0,0.000885,0,0
0:1:46.269,610.687,34.5565,0,0.000885,0,0
0:1:46.568,612.04,34.6324,0,0.000885,0,0
0:1:46.863,613.739,34.7289,0,0.000885,0,0
0:1:47.164,615.5,34.8323,0,0.000885,0,0
0:1:47.460,617.791,34.9564,0,0.000885,0,0
0:1:47.759,619.553,35.0598,0,0.000885,0,0
0:1:48.057,620.901,35.1357,0,0.000885,0,0
0:1:48.351,622.604,35.2322,0,0.000885,0,0
0:1:48.651,625.131,35.377,0,0.000885,0,0
0:1:48.958,626.714,35.4666,0,0.000885,0,0
0:1:49.261,628.414,35.5632,0,0.000885,0,0
0:1:49.563,630.002,35.6528,0,0.000885,0,0
0:1:49.864,632.057,35.77,0,0.000885,0,0
0:1:50.167,634.463,35.901,0,0.000885,0,0
0:1:50.461,636.456,36.0182,0,0.000885,0,0
0:1:50.763,638.511,36.1354,0,0.000885,0,0
0:1:51.057,639.57,36.1906,0,0.000885,0,0
0:1:51.357,641.976,36.3285,0,0.000885,0,0
0:1:51.664,643.618,36.4181,0,0.000885,0,0
0:1:51.961,645.263,36.5146,0,0.000885,0,0
0:1:52.260,646.731,36.5974,0,0.000885,0,0
0:1:52.554,648.199,36.6801,0,0.000885,0,0
0:1:52.858,650.606,36.818,0,0.000885,0,0
0:1:53.163,652.541,36.9283,0,0.000885,0,0
0:1:53.459,654.538,37.0386,0,0.000885,0,0
0:1:53.758,656.593,37.1558,0,0.000885,0,0
0:1:54.061,657.767,37.2248,0,0.000885,0,0
0:1:54.365,660.583,37.3834,0,0.000885,0,0
0:1:54.667,661.931,37.4592,0,0.000885,0,0
0:1:54.970,663.341,37.5351,0,0.000885,0,0
0:1:55.271,665.396,37.6523,0,0.000885,0,0
0:1:55.569,668.39,37.8246,0,0.000885,0,0
0:1:55.871,669.386,37.8798,0,0.000885,0,0
0:1:56.166,671.326,37.9901,0,0.000885,0,0
0:1:56.466,672.909,38.0797,0,0.000885,0,0
0:1:56.762,674.199,38.1487,0,0.000885,0,0
0:1:57.059,677.077,38.3142,0,0.000885,0,0
0:1:57.360,678.723,38.4107,0,0.000885,0,0
0:1:57.663,680.364,38.5003,0,0.000885,0,0
0:1:57.965,681.89,38.59,0,0.000885,0,0
0:1:58.260,684.532,38.7347,0,0.000885,0,0
0:1:58.559,685.88,38.8106,0,0.000885,0,0
0:1:58.855,687.935,38.9278,0,0.000885,0,0
0:1:59.159,689.817,39.0381,0,0.000885,0,0
0:1:59.463,691.107,39.1071,0,0.000885,0,0
0:1:59.765,693.571,39.245,0,0.000885,0,0
0:2:0.066,695.097,39.3346,0,0.000885,0,0
0:2:0.370,697.036,39.4449,0,0.000885,0,0
0:2:0.666,698.913,39.5483,0,0.000885,0,0
0:2:0.967,701.436,39.6931,0,0.000885,0,0
0:2:1.263,703.197,39.7896,0,0.000885,0,0
0:2:1.563,704.785,39.8793,0,0.000885,0,0
0:2:1.859,706.604,39.9827,0,0.000885,0,0
0:2:2.153,708.539,40.093,0,0.000885,0,0
0:2:2.453,710.652,40.2171,0,0.000885,0,0
0:2:2.760,712.062,40.293,0,0.000885,0,0
0:2:3.061,713.766,40.3895,0,0.000885,0,0
0:2:3.354,715.35,40.4791,0,0.000885,0,0
0:2:3.654,717.169,40.5825,0,0.000885,0,0
0:2:3.965,719.166,40.6998,0,0.000885,0,0
0:2:4.270,720.865,40.7894,0,0.000885,0,0
0:2:4.572,722.685,40.8928,0,0.000885,0,0
0:2:4.875,724.918,41.0238,0,0.000885,0,0
0:2:5.176,727.791,41.1824,0,0.000885,0,0
0:2:5.479,729.731,41.2927,0,0.000885,0,0
0:2:5.774,731.314,41.3823,0,0.000885,0,0
0:2:6.076,732.96,41.4789,0,0.000885,0,0
0:2:6.370,734.659,41.5754,0,0.000885,0,0
0:2:6.670,737.302,41.7202,0,0.000885,0,0
0:2:6.968,738.182,41.7753,0,0.000885,0,0
0:2:7.263,739.535,41.8512,0,0.000885,0,0
0:2:7.565,741.412,41.9546,0,0.000885,0,0
0:2:7.859,742.938,42.0442,0,0.000885,0,0
0:2:8.159,745.286,42.1752,0,0.000885,0,0
0:2:8.454,746.87,42.2649,0,0.000885,0,0
0:2:8.763,748.747,42.3683,0,0.000885,0,0
0:2:9.063,750.744,42.4855,0,0.000885,0,0
0:2:9.367,753.271,42.6234,0,0.000885,0,0
0:2:9.670,754.854,42.713,0,0.000885,0,0
0:2:9.972,756.616,42.8164,0,0.000885,0,0
0:2:10.274,758.021,42.8923,0,0.000885,0,0
0:2:10.577,760.726,43.0509,0,0.000885,0,0
0:2:10.872,762.777,43.1612,0,0.000885,0,0
0:2:11.173,764.071,43.237,0,0.000885,0,0
0:2:11.468,765.77,43.3335,0,0.000885,0,0
0:2:11.766,767.238,43.4163,0,0.000885,0,0
0:2:12.065,770.058,43.5749,0,0.000885,0,0
0:2:12.360,771.406,43.6507,0,0.000885,0,0
0:2:12.661,773.052,43.7472,0,0.000885,0,0
0:2:12.954,774.693,43.8369,0,0.000885,0,0
0:2:13.256,776.397,43.9334,0,0.000885,0,0
0:2:13.563,778.919,44.0782,0,0.000885,0,0
0:2:13.865,780.623,44.1747,0,0.000885,0,0
0:2:14.168,782.442,44.2781,0,0.000885,0,0
0:2:14.471,784.382,44.3884,0,0.000885,0,0
0:2:14.774,787.375,44.5539,0,0.000885,0,0
0:2:15.076,789.017,44.6504,0,0.000885,0,0
0:2:15.375,790.485,44.7332,0,0.000885,0,0
0:2:15.673,792.362,44.8366,0,0.000885,0,0
0:2:15.968,793.714,44.9124,0,0.000885,0,0
0:2:16.270,796.12,45.0503,0,0.000885,0,0
0:2:16.565,797.82,45.1469,0,0.000885,0,0
0:2:16.866,799.288,45.2296,0,0.000885,0,0
0:2:17.162,800.698,45.3123,0,0.000885,0,0
0:2:17.461,802.108,45.3882,0,0.000885,0,0
0:2:17.759,804.808,45.5399,0,0.000885,0,0
0:2:18.065,806.213,45.6226,0,0.000885,0,0
0:2:18.365,808.389,45.7467,0,0.000885,0,0
0:2:18.660,810.088,45.8432,0,0.000885,0,0
0:2:18.962,812.494,45.9811,0,0.000885,0,0
0:2:19.266,814.198,46.0708,0,0.000885,0,0
0:2:19.568,815.844,46.1673,0,0.000885,0,0
0:2:19.871,817.605,46.2638,0,0.000885,0,0
0:2:20.171,820.363,46.4224,0,0.000885,0,0
0:2:20.472,822.005,46.5189,0,0.000885,0,0
0:2:20.768,823.53,46.6017,0,0.000885,0,0
0:2:21.066,824.825,46.6775,0,0.000885,0,0
0:2:21.365,826.524,46.774,0,0.000885,0,0
0:2:21.660,829.46,46.9395,0,0.000885,0,0
0:2:21.962,830.928,47.0222,0,0.000885,0,0
0:2:22.254,832.511,47.1119,0,0.000885,0,0
0:2:22.554,834.215,47.2084,0,0.000885,0,0
0:2:22.864,835.919,47.3049,0,0.000885,0,0
0:2:23.168,838.267,47.4359,0,0.000885,0,0
0:2:23.469,840.612,47.5669,0,0.000885,0,0
0:2:23.764,841.906,47.6428,0,0.000885,0,0
0:2:24.067,843.783,47.7462,0,0.000885,0,0
0:2:24.370,845.954,47.8703,0,0.000885,0,0
0:2:24.674,847.6,47.9668,0,0.000885,0,0
0:2:24.975,849.183,48.0565,0,0.000885,0,0
0:2:25.277,851.296,48.1737,0,0.000885,0,0
0:2:25.579,853.881,48.3185,0,0.000885,0,0
0:2:25.875,855.873,48.4357,0,0.000885,0,0
0:2:26.174,857.461,48.5253,0,0.000885,0,0
0:2:26.471,858.867,48.6011,0,0.000885,0,0
0:2:26.767,860.513,48.6977,0,0.000885,0,0
0:2:27.068,862.154,48.7873,0,0.000885,0,0
0:2:27.363,864.209,48.9045,0,0.000885,0,0
0:2:27.664,865.442,48.9735,0,0.000885,0,0
0:2:27.961,867.203,49.0769,0,0.000885,0,0
0:2:28.257,869.08,49.1803,0,0.000885,0,0
0:2:28.554,870.962,49.2837,0,0.000885,0,0
0:2:28.860,873.426,49.4285,0,0.000885,0,0
0:2:29.164,875.361,49.5388,0,0.000885,0,0
0:2:29.466,877.123,49.6354,0,0.000885,0,0
0:2:29.767,878.711,49.725,0,0.000885,0,0
0:2:30.071,881.291,49.8698,0,0.000885,0,0
0:2:30.367,882.816,49.9594,0,0.000885,0,0
0:2:30.667,884.578,50.0559,0,0.000885,0,0
0:2:30.961,886.281,50.1525,0,0.000885,0,0
0:2:31.263,887.923,50.249,0,0.000885,0,0
0:2:31.557,890.156,50.3731,0,0.000885,0,0
0:2:31.854,892.033,50.4765,0,0.000885,0,0
0:2:32.167,893.852,50.5799,0,0.000885,0,0
0:2:32.469,895.556,50.6765,0,0.000885,0,0
0:2:32.771,898.078,50.8213,0,0.000885,0,0
0:2:33.066,899.079,50.8764,0,0.000885,0,0
0:2:33.366,900.956,50.9867,0,0.000885,0,0
0:2:33.663,902.598,51.0764,0,0.000885,0,0
0:2:33.966,904.359,51.1798,0,0.000885,0,0
0:2:34.270,906.886,51.3177,0,0.000885,0,0
0:2:34.572,908.821,51.428,0,0.000885,0,0
0:2:34.873,910.173,51.5038,0,0.000885,0,0
0:2:35.174,912.166,51.621,0,0.000885,0,0
0:2:35.474,914.928,51.7727,0,0.000885,0,0
0:2:35.771,916.921,51.8899,0,0.000885,0,0
0:2:36.066,918.153,51.9589,0,0.000885,0,0
0:2:36.367,919.857,52.0554,0,0.000885,0,0
0:2:36.663,921.502,52.145,0,0.000885,0,0
0:2:36.961,923.553,52.2623,0,0.000885,0,0
0:2:37.257,925.493,52.3726,0,0.000885,0,0
0:2:37.554,927.018,52.4553,0,0.000885,0,0
0:2:37.866,928.602,52.5449,0,0.000885,0,0
0:2:38.157,930.599,52.6622,0,0.000885,0,0
0:2:38.461,933.063,52.8001,0,0.000885,0,0
0:2:38.755,934.709,52.8966,0,0.000885,0,0
0:2:39.059,936.235,52.9793,0,0.000885,0,0
0:2:39.364,938.228,53.0896,0,0.000885,0,0
0:2:39.668,940.639,53.2275,0,0.000885,0,0
0:2:39.968,941.871,53.2965,0,0.000885,0,0
0:2:40.270,943.632,53.3999,0,0.000885,0,0
0:2:40.570,945.51,53.5033,0,0.000885,0,0
0:2:40.868,947.858,53.6343,0,0.000885,0,0
0:2:41.164,949.62,53.7377,0,0.000885,0,0
0:2:41.464,951.67,53.8549,0,0.000885,0,0
0:2:41.768,953.258,53.9446,0,0.000885,0,0
0:2:42.070,954.606,54.0204,0,0.000885,0,0
0:2:42.366,957.07,54.1583,0,0.000885,0,0
0:2:42.666,959.068,54.2755,0,0.000885,0,0
0:2:42.963,960.771,54.3652,0,0.000885,0,0
0:2:43.255,962.239,54.4548,0,0.000885,0,0
0:2:43.557,964.001,54.5513,0,0.000885,0,0
0:2:43.863,966.581,54.6961,0,0.000885,0,0
0:2:44.165,968.284,54.7926,0,0.000885,0,0
0:2:44.470,969.695,54.8754,0,0.000885,0,0
0:2:44.772,971.162,54.9581,0,0.000885,0,0
0:2:45.075,973.92,55.1098,0,0.000885,0,0
0:2:45.375,975.446,55.1994,0,0.000885,0,0
0:2:45.677,977.208,55.296,0,0.000885,0,0
0:2:45.972,979.2,55.4132,0,0.000885,0,0
0:2:46.271,980.495,55.4821,0,0.000885,0,0
0:2:46.569,983.075,55.6338,0,0.000885,0,0
0:2:46.865,984.836,55.7303,0,0.000885,0,0
0:2:47.166,986.656,55.8337,0,0.000885,0,0
0:2:47.458,988.181,55.9165,0,0.000885,0,0
0:2:47.758,989.769,56.0061,0,0.000885,0,0
0:2:48.056,992.527,56.1647,0,0.000885,0,0
0:2:48.354,994.111,56.2543,0,0.000885,0,0
0:2:48.652,996.05,56.3646,0,0.000885,0,0
0:2:48.957,997.162,56.4267,0,0.000885,0,0
0:2:49.263,1000.28,56.606,0,0.000885,0,0
0:2:49.564,1001.74,56.6887,0,0.000885,0,0
0:2:49.865,1003.21,56.7714,0,0.000885,0,0
0:2:50.167,1004.68,56.8542,0,0.000885,0,0
0:2:50.463,1006.5,56.9576,0,0.000885,0,0
0:2:50.765,1009.2,57.1093,0,0.000885,0,0
0:2:51.057,1011.02,57.2127,0,0.000885,0,0
0:2:51.358,1012.31,57.2816,0,0.000885,0,0
0:2:51.665,1014.42,57.4057,0,0.000885,0,0
0:2:51.963,1016.48,57.523,0,0.000885,0,0
0:2:52.259,1018.59,57.6402,0,0.000885,0,0
0:2:52.566,1020.59,57.7505,0,0.000885,0,0
0:2:52.867,1021.82,57.8263,0,0.000885,0,0
0:2:53.163,1023.7,57.9298,0,0.000885,0,0
0:2:53.460,1025.69,58.0401,0,0.000885,0,0
0:2:53.759,1027.28,58.1297,0,0.000885,0,0
0:2:54.060,1029.04,58.2331,0,0.000885,0,0
0:2:54.366,1030.74,58.3296,0,0.000885,0,0
0:2:54.669,1033.32,58.4744,0,0.000885,0,0
0:2:54.971,1035.03,58.571,0,0.000885,0,0
0:2:55.272,1036.67,58.6606,0,0.000885,0,0
0:2:55.569,1038.37,58.7571,0,0.000885,0,0
0:2:55.868,1040.37,58.8743,0,0.000885,0,0
0:2:56.164,1042.6,58.9984,0,0.000885,0,0
0:2:56.464,1044.77,59.1225,0,0.000885,0,0
0:2:56.758,1046.06,59.1915,0,0.000885,0,0
0:2:57.056,1048.05,59.3087,0,0.000885,0,0
0:2:57.354,1049,59.3639,0,0.000885,0,0
0:2:57.651,1051.58,59.5087,0,0.000885,0,0
0:2:57.951,1053.4,59.6121,0,0.000885,0,0
0:2:58.255,1054.92,59.6948,0,0.000885,0,0
0:2:58.556,1056.51,59.7844,0,0.000885,0,0
0:2:58.865,1059.09,59.9292,0,0.000885,0,0
0:2:59.167,1061.03,60.0395,0,0.000885,0,0
0:2:59.472,1062.91,60.1499,0,0.000885,0,0
0:2:59.772,1064.2,60.2188,0,0.000885,0,0
0:3:0.074,1067.07,60.3843,0,0.000885,0,0
0:3:0.375,1068.36,60.4601,0,0.000885,0,0
0:3:0.675,1069.89,60.5429,0,0.000885,0,0
0:3:0.973,1071.65,60.6463,0,0.000885,0,0
0:3:1.269,1073.36,60.7428,0,0.000885,0,0
0:3:1.570,1075.94,60.8876,0,0.000885,0,0
0:3:1.865,1076.94,60.9428,0,0.000885,0,0
0:3:2.166,1079.64,61.0944,0,0.000885,0,0
0:3:2.458,1081.16,61.1841,0,0.000885,0,0
0:3:2.757,1083.1,61.2875,0,0.000885,0,0
0:3:3.058,1085.8,61.4461,0,0.000885,0,0
0:3:3.361,1086.86,61.5012,0,0.000885,0,0
0:3:3.664,1088.73,61.6116,0,0.000885,0,0
0:3:3.968,1090.44,61.7081,0,0.000885,0,0
0:3:4.273,1092.73,61.8391,0,0.000885,0,0
0:3:4.574,1094.08,61.9149,0,0.000885,0,0
0:3:4.876,1095.95,62.0183,0,0.000885,0,0
0:3:5.177,1097.71,62.1149,0,0.000885,0,0
0:3:5.471,1099.48,62.2183,0,0.000885,0,0
0:3:5.773,1102.35,62.3838,0,0.000885,0,0
0:3:6.069,1103.41,62.4389,0,0.000885,0,0
0:3:6.367,1104.93,62.5286,0,0.000885,0,0
0:3:6.675,1106.7,62.6251,0,0.000885,0,0
0:3:6.971,1108.58,62.7354,0,0.000885,0,0
0:3:7.272,1110.81,62.8595,0,0.000885,0,0
0:3:7.569,1112.86,62.9767,0,0.000885,0,0
0:3:7.866,1114.62,63.0732,0,0.000885,0,0
0:3:8.167,1116.38,63.1767,0,0.000885,0,0
0:3:8.470,1119.43,63.349,0,0.000885,0,0
0:3:8.771,1120.37,63.3973,0,0.000885,0,0
0:3:9.076,1122.31,63.5076,0,0.000885,0,0
0:3:9.378,1123.43,63.5697,0,0.000885,0,0
0:3:9.681,1125.89,63.7145,0,0.000885,0,0
0:3:9.981,1127.54,63.8041,0,0.000885,0,0
0:3:10.283,1129.53,63.9213,0,0.000885,0,0
0:3:10.578,1131.12,64.0109,0,0.000885,0,0
0:3:10.880,1133.17,64.1212,0,0.000885,0,0
0:3:11.174,1135.69,64.266,0,0.000885,0,0
0:3:11.474,1136.81,64.3281,0,0.000885,0,0
0:3:11.771,1138.81,64.4453,0,0.000885,0,0
0:3:12.066,1140.39,64.5349,0,0.000885,0,0
0:3:12.367,1141.8,64.6108,0,0.000885,0,0
0:3:12.660,1144.26,64.7487,0,0.000885,0,0
0:3:12.961,1146.14,64.859,0,0.000885,0,0
0:3:13.256,1148.08,64.9693,0,0.000885,0,0
0:3:13.555,1149.67,65.0589,0,0.000885,0,0
0:3:13.866,1151.13,65.1417,0,0.000885,0,0
0:3:14.169,1153.83,65.2934,0,0.000885,0,0
0:3:14.474,1155.95,65.4106,0,0.000885,0,0
0:3:14.775,1157.94,65.5278,0,0.000885,0,0
0:3:15.076,1159.88,65.6381,0,0.000885,0,0
0:3:15.379,1161.7,65.7415,0,0.000885,0,0
0:3:15.675,1162.81,65.8036,0,0.000885,0,0
0:3:15.976,1164.51,65.9001,0,0.000885,0,0
0:3:16.269,1166.86,66.0311,0,0.000885,0,0
0:3:16.570,1167.92,66.0931,0,0.000885,0,0
0:3:16.867,1169.8,66.1966,0,0.000885,0,0
0:3:17.173,1172.03,66.3207,0,0.000885,0,0
0:3:17.472,1173.61,66.4103,0,0.000885,0,0
0:3:17.768,1175.38,66.5137,0,0.000885,0,0
0:3:18.070,1177.96,66.6585,0,0.000885,0,0
0:3:18.365,1179.66,66.755,0,0.000885,0,0
0:3:18.663,1181.66,66.8654,0,0.000885,0,0
0:3:18.960,1183.24,66.955,0,0.000885,0,0
0:3:19.262,1185.24,67.0722,0,0.000885,0,0
0:3:19.569,1187.7,67.2101,0,0.000885,0,0
0:3:19.871,1189.23,67.2997,0,0.000885,0,0
0:3:20.174,1191.28,67.41,0,0.000885,0,0
0:3:20.476,1192.4,67.479,0,0.000885,0,0
0:3:20.774,1195.27,67.6376,0,0.000885,0,0
0:3:21.073,1196.45,67.7065,0,0.000885,0,0
0:3:21.367,1197.91,67.7893,0,0.000885,0,0
0:3:21.669,1199.79,67.8927,0,0.000885,0,0
0:3:21.962,1201.85,68.0099,0,0.000885,0,0
0:3:22.261,1204.43,68.1547,0,0.000885,0,0
0:3:22.571,1206.02,68.2443,0,0.000885,0,0
0:3:22.867,1207.43,68.327,0,0.000885,0,0
0:3:23.168,1209.07,68.4167,0,0.000885,0,0
0:3:23.471,1210.71,68.5132,0,0.000885,0,0
0:3:23.773,1212.83,68.6304,0,0.000885,0,0
0:3:24.077,1214.82,68.7476,0,0.000885,0,0
0:3:24.381,1216.41,68.8373,0,0.000885,0,0
0:3:24.683,1218.11,68.9338,0,0.000885,0,0
0:3:24.983,1220.81,69.0855,0,0.000885,0,0
0:3:25.286,1222.51,69.182,0,0.000885,0,0
0:3:25.580,1224.21,69.2785,0,0.000885,0,0
0:3:25.880,1225.56,69.3544,0,0.000885,0,0
0:3:26.177,1227.5,69.4647,0,0.000885,0,0
0:3:26.474,1230.02,69.6026,0,0.000885,0,0
0:3:26.774,1231.43,69.6853,0,0.000885,0,0
0:3:27.068,1232.66,69.7543,0,0.000885,0,0
0:3:27.370,1234.84,69.8784,0,0.000885,0,0
0:3:27.663,1236.6,69.9749,0,0.000885,0,0
0:3:27.961,1238.95,70.1128,0,0.000885,0,0
0:3:28.259,1241.12,70.23,0,0.000885,0,0
0:3:28.555,1242.76,70.3265,0,0.000885,0,0
0:3:28.856,1244.64,70.4299,0,0.000885,0,0
0:3:29.160,1247.34,70.5816,0,0.000885,0,0
0:3:29.462,1248.22,70.6368,0,0.000885,0,0
0:3:29.764,1250.1,70.7402,0,0.000885,0,0
0:3:30.068,1251.62,70.8298,0,0.000885,0,0
0:3:30.369,1252.8,70.8919,0,0.000885,0,0
0:3:30.664,1255.62,71.0505,0,0.000885,0,0
0:3:30.964,1257.32,71.147,0,0.000885,0,0
0:3:31.258,1259.26,71.2573,0,0.000885,0,0
0:3:31.558,1261.13,71.3676,0,0.000885,0,0
0:3:31.856,1263.54,71.4986,0,0.000885,0,0
0:3:32.161,1264.95,71.5814,0,0.000885,0,0
0:3:32.461,1266.53,71.671,0,0.000885,0,0
0:3:32.758,1268.53,71.7813,0,0.000885,0,0
0:3:33.057,1270,71.8641,0,0.000885,0,0
0:3:33.354,1272.64,72.0157,0,0.000885,0,0
0:3:33.661,1274.34,72.1123,0,0.000885,0,0
0:3:33.961,1276.28,72.2226,0,0.000885,0,0
0:3:34.264,1277.92,72.3122,0,0.000885,0,0
0:3:34.570,1279.86,72.4225,0,0.000885,0,0
0:3:34.872,1281.62,72.526,0,0.000885,0,0
0:3:35.174,1283.5,72.6294,0,0.000885,0,0
0:3:35.476,1285.26,72.7328,0,0.000885,0,0
0:3:35.771,1287.32,72.85,0,0.000885,0,0
0:3:36.072,1289.66,72.981,0,0.000885,0,0
0:3:36.364,1291.13,73.0637,0,0.000885,0,0
0:3:36.664,1292.66,73.1465,0,0.000885,0,0
0:3:36.962,1294.53,73.2568,0,0.000885,0,0
0:3:37.269,1295.82,73.3257,0,0.000885,0,0
0:3:37.569,1298.17,73.4636,0,0.000885,0,0
0:3:37.862,1300.58,73.5946,0,0.000885,0,0
0:3:38.163,1302.46,73.705,0,0.000885,0,0
0:3:38.469,1304.4,73.8153,0,0.000885,0,0
0:3:38.772,1306.33,73.9256,0,0.000885,0,0
0:3:39.077,1307.74,74.0014,0,0.000885,0,0
0:3:39.380,1309.33,74.0911,0,0.000885,0,0
0:3:39.682,1310.79,74.1738,0,0.000885,0,0
0:3:39.982,1313.08,74.3048,0,0.000885,0,0
0:3:40.284,1315.02,74.4151,0,0.000885,0,0
0:3:40.580,1317.13,74.5323,0,0.000885,0,0
0:3:40.877,1319.01,74.6426,0,0.000885,0,0
0:3:41.178,1320.65,74.7323,0,0.000885,0,0
0:3:41.472,1323.24,74.8771,0,0.000885,0,0
0:3:41.774,1324.29,74.9391,0,0.000885,0,0
0:3:42.069,1325.65,75.015,0,0.000885,0,0
0:3:42.365,1327.64,75.1322,0,0.000885,0,0
0:3:42.675,1329.17,75.2149,0,0.000885,0,0
0:3:42.970,1331.87,75.3666,0,0.000885,0,0
0:3:43.273,1333.57,75.4631,0,0.000885,0,0
0:3:43.565,1335.62,75.5803,0,0.000885,0,0
0:3:43.870,1337.44,75.6838,0,0.000885,0,0
0:3:44.176,1339.56,75.801,0,0.000885,0,0
0:3:44.480,1341.2,75.8975,0,0.000885,0,0
0:3:44.780,1343.02,76.0009,0,0.000885,0,0
0:3:45.082,1344.84,76.1043,0,0.000885,0,0
0:3:45.384,1346.25,76.1802,0,0.000885,0,0
0:3:45.681,1349.24,76.3525,0,0.000885,0,0
0:3:45.978,1350.77,76.4353,0,0.000885,0,0
0:3:46.279,1352.47,76.5318,0,0.000885,0,0
0:3:46.572,1353.88,76.6145,0,0.000885,0,0
0:3:46.874,1355.64,76.7111,0,0.000885,0,0
0:3:47.170,1357.87,76.8421,0,0.000885,0,0
0:3:47.465,1359.4,76.9248,0,0.000885,0,0
0:3:47.766,1361.04,77.0213,0,0.000885,0,0
0:3:48.071,1362.92,77.1248,0,0.000885,0,0
0:3:48.373,1365.44,77.2695,0,0.000885,0,0
0:3:48.669,1367.21,77.3661,0,0.000885,0,0
0:3:48.971,1368.44,77.435,0,0.000885,0,0
0:3:49.276,1370.08,77.5315,0,0.000885,0,0
0:3:49.578,1371.72,77.6212,0,0.000885,0,0
0:3:49.881,1374.48,77.7798,0,0.000885,0,0
0:3:50.183,1376.07,77.8694,0,0.000885,0,0
0:3:50.481,1378.12,77.9866,0,0.000885,0,0
0:3:50.781,1379.65,78.0693,0,0.000885,0,0
0:3:51.076,1382.76,78.2486,0,0.000885,0,0
0:3:51.378,1384.34,78.3382,0,0.000885,0,0
0:3:51.673,1385.63,78.4141,0,0.000885,0,0
0:3:51.973,1387.34,78.5106,0,0.000885,0,0
0:3:52.270,1389.04,78.6002,0,0.000885,0,0
0:3:52.576,1391.86,78.7657,0,0.000885,0,0
0:3:52.878,1393.44,78.8553,0,0.000885,0,0
0:3:53.171,1394.74,78.9243,0,0.000885,0,0
0:3:53.471,1396.55,79.0277,0,0.000885,0,0
0:3:53.766,1398.37,79.1311,0,0.000885,0,0
0:3:54.071,1400.6,79.2552,0,0.000885,0,0
0:3:54.375,1402.31,79.3518,0,0.000885,0,0
0:3:54.677,1403.89,79.4414,0,0.000885,0,0
0:3:54.981,1405.89,79.5586,0,0.000885,0,0
0:3:55.282,1408.41,79.6965,0,0.000885,0,0
0:3:55.583,1408.59,79.7103,0,0.000885,0,0
0:3:55.881,1410.46,79.8137,0,0.000885,0,0
0:3:56.178,1411.87,79.8964,0,0.000885,0,0
0:3:56.478,1413.87,80.0068,0,0.000885,0,0
0:3:56.774,1417.1,80.1929,0,0.000885,0,0
0:3:57.072,1419.21,80.3101,0,0.000885,0,0
0:3:57.371,1420.97,80.4136,0,0.000885,0,0
0:3:57.664,1423.03,80.5239,0,0.000885,0,0
0:3:57.966,1424.85,80.6273,0,0.000885,0,0
0:3:58.272,1427.55,80.7859,0,0.000885,0,0
0:3:58.571,1428.96,80.8617,0,0.000885,0,0
0:3:58.866,1430.42,80.9445,0,0.000885,0,0
0:3:59.171,1432.19,81.0479,0,0.000885,0,0
0:3:59.476,1434.12,81.1513,0,0.000885,0,0
0:3:59.778,1435.88,81.2547,0,0.000885,0,0
0:4:0.081,1437.23,81.3306,0,0.000885,0,0
0:4:0.382,1439.28,81.4478,0,0.000885,0,0
0:4:0.680,1441.34,81.565,0,0.000885,0,0
0:4:0.980,1443.51,81.6891,0,0.000885,0,0
0:4:1.276,1445.39,81.7925,0,0.000885,0,0
0:4:1.577,1447.03,81.8821,0,0.000885,0,0
0:4:1.871,1448.97,81.9925,0,0.000885,0,0
0:4:2.168,1450.85,82.1028,0,0.000885,0,0
0:4:2.470,1452.55,82.1993,0,0.000885,0,0
0:4:2.762,1453.79,82.2682,0,0.000885,0,0
0:4:3.064,1455.78,82.3786,0,0.000885,0,0
0:4:3.359,1457.54,82.482,0,0.000885,0,0
0:4:3.659,1460.07,82.6199,0,0.000885,0,0
0:4:3.956,1462.06,82.7371,0,0.000885,0,0
0:4:4.259,1464.18,82.8543,0,0.000885,0,0
0:4:4.563,1465.41,82.9232,0,0.000885,0,0
0:4:4.866,1467.17,83.0267,0,0.000885,0,0
0:4:5.167,1469.22,83.1439,0,0.000885,0,0
0:4:5.471,1471.28,83.2542,0,0.000885,0,0
0:4:5.778,1472.57,83.33,0,0.000885,0,0
0:4:6.079,1473.8,83.399,0,0.000885,0,0
0:4:6.374,1475.86,83.5162,0,0.000885,0,0
0:4:6.675,1477.85,83.6265,0,0.000885,0,0
0:4:6.971,1479.68,83.7299,0,0.000885,0,0
0:4:7.266,1482.04,83.8678,0,0.000885,0,0
0:4:7.567,1483.69,83.9575,0,0.000885,0,0
0:4:7.861,1485.87,84.0816,0,0.000885,0,0
0:4:8.162,1487.69,84.185,0,0.000885,0,0
0:4:8.459,1489.22,84.2746,0,0.000885,0,0
0:4:8.760,1491.22,84.3849,0,0.000885,0,0
0:4:9.064,1493.46,84.5159,0,0.000885,0,0
0:4:9.367,1494.87,84.5918,0,0.000885,0,0
0:4:9.671,1496.4,84.6814,0,0.000885,0,0
0:4:9.972,1498.46,84.7986,0,0.000885,0,0
0:4:10.271,1500.17,84.8951,0,0.000885,0,0
0:4:10.572,1502.94,85.0468,0,0.000885,0,0
0:4:10.865,1504.65,85.1434,0,0.000885,0,0
0:4:11.167,1506.24,85.233,0,0.000885,0,0
0:4:11.471,1507.77,85.3226,0,0.000885,0,0
0:4:11.772,1510.71,85.4881,0,0.000885,0,0
0:4:12.081,1512.3,85.5777,0,0.000885,0,0
0:4:12.376,1514.07,85.6811,0,0.000885,0,0
0:4:12.678,1515.6,85.7639,0,0.000885,0,0
0:4:12.973,1516.95,85.8397,0,0.000885,0,0
0:4:13.273,1519.37,85.9776,0,0.000885,0,0
0:4:13.568,1521.43,86.0948,0,0.000885,0,0
0:4:13.874,1522.84,86.1776,0,0.000885,0,0
0:4:14.176,1524.85,86.2879,0,0.000885,0,0
0:4:14.478,1527.08,86.412,0,0.000885,0,0
0:4:14.781,1528.56,86.5016,0,0.000885,0,0
0:4:15.082,1530.44,86.605,0,0.000885,0,0
0:4:15.380,1531.91,86.6878,0,0.000885,0,0
0:4:15.679,1533.74,86.7912,0,0.000885,0,0
0:4:15.975,1535.98,86.9153,0,0.000885,0,0
0:4:16.275,1537.86,87.0256,0,0.000885,0,0
0:4:16.569,1539.45,87.1153,0,0.000885,0,0
0:4:16.867,1541.22,87.2118,0,0.000885,0,0
0:4:17.176,1542.86,87.3083,0,0.000885,0,0
0:4:17.473,1545.22,87.4393,0,0.000885,0,0
0:4:17.773,1546.93,87.5358,0,0.000885,0,0
0:4:18.065,1548.46,87.6255,0,0.000885,0,0
0:4:18.368,1550.34,87.7289,0,0.000885,0,0
0:4:18.663,1552.4,87.8461,0,0.000885,0,0
0:4:18.965,1554.7,87.9771,0,0.000885,0,0
0:4:19.269,1556.7,88.0943,0,0.000885,0,0
0:4:19.574,1558.17,88.1771,0,0.000885,0,0
0:4:19.875,1559.82,88.2667,0,0.000885,0,0
0:4:20.178,1562.41,88.4115,0,0.000885,0,0
0:4:20.478,1563.94,88.5011,0,0.000885,0,0
0:4:20.777,1565.59,88.5976,0,0.000885,0,0
0:4:21.081,1567.48,88.7011,0,0.000885,0,0
0:4:21.382,1569.72,88.8252,0,0.000885,0,0
0:4:21.678,1571.25,88.9148,0,0.000885,0,0
0:4:21.977,1573.07,89.0182,0,0.000885,0,0
0:4:22.275,1574.48,89.1009,0,0.000885,0,0
0:4:22.570,1576.31,89.1975,0,0.000885,0,0
0:4:22.872,1579.02,89.3561,0,0.000885,0,0
0:4:23.164,1580.61,89.4457,0,0.000885,0,0
0:4:23.466,1582.43,89.5491,0,0.000885,0,0
0:4:23.774,1584.26,89.6525,0,0.000885,0,0
0:4:24.077,1585.73,89.7353,0,0.000885,0,0
0:4:24.381,1587.91,89.8594,0,0.000885,0,0
0:4:24.684,1589.73,89.9628,0,0.000885,0,0
0:4:24.985,1591.62,90.0662,0,0.000885,0,0
0:4:25.286,1592.73,90.1283,0,0.000885,0,0
0:4:25.584,1595.56,90.2937,0,0.000885,0,0
0:4:25.884,1597.21,90.3834,0,0.000885,0,0
0:4:26.179,1598.62,90.4661,0,0.000885,0,0
0:4:26.480,1600.39,90.5626,0,0.000885,0,0
0:4:26.776,1602.45,90.6798,0,0.000885,0,0
0:4:27.076,1605.1,90.8315,0,0.000885,0,0
0:4:27.382,1606.81,90.9281,0,0.000885,0,0
0:4:27.678,1608.69,91.0315,0,0.000885,0,0
0:4:27.980,1609.93,91.1004,0,0.000885,0,0
0:4:28.275,1611.52,91.1901,0,0.000885,0,0
0:4:28.575,1613.88,91.328,0,0.000885,0,0
0:4:28.869,1615.64,91.4245,0,0.000885,0,0
0:4:29.173,1617.29,91.521,0,0.000885,0,0
0:4:29.476,1619.12,91.6244,0,0.000885,0,0
0:4:29.780,1621.71,91.7692,0,0.000885,0,0
0:4:30.082,1623.24,91.8589,0,0.000885,0,0
0:4:30.383,1625.24,91.9692,0,0.000885,0,0
0:4:30.681,1626.77,92.0588,0,0.000885,0,0
0:4:30.981,1628.36,92.1484,0,0.000885,0,0
0:4:31.276,1630.83,92.2863,0,0.000885,0,0
0:4:31.578,1632.19,92.3622,0,0.000885,0,0
0:4:31.873,1634.37,92.4863,0,0.000885,0,0
0:4:32.170,1635.96,92.5759,0,0.000885,0,0
0:4:32.469,1637.49,92.6655,0,0.000885,0,0
0:4:32.776,1640.14,92.8103,0,0.000885,0,0
0:4:33.077,1642.02,92.9206,0,0.000885,0,0
0:4:33.368,1643.49,93.0034,0,0.000885,0,0
0:4:33.668,1645.14,93.093,0,0.000885,0,0
0:4:33.966,1647.38,93.224,0,0.000885,0,0
0:4:34.269,1649.03,93.3136,0,0.000885,0,0
0:4:34.575,1651.03,93.4309,0,0.000885,0,0
0:4:34.876,1652.44,93.5067,0,0.000885,0,0
0:4:35.179,1654.97,93.6515,0,0.000885,0,0
0:4:35.480,1656.62,93.748,0,0.000885,0,0
0:4:35.778,1658.22,93.8376,0,0.000885,0,0
0:4:36.078,1660.22,93.948,0,0.000885,0,0
0:4:36.381,1661.86,94.0445,0,0.000885,0,0
0:4:36.683,1664.69,94.2031,0,0.000885,0,0
0:4:36.980,1665.87,94.272,0,0.000885,0,0
0:4:37.277,1667.58,94.3685,0,0.000885,0,0
0:4:37.577,1669.4,94.472,0,0.000885,0,0
0:4:37.869,1671.29,94.5754,0,0.000885,0,0
0:4:38.170,1673.58,94.7064,0,0.000885,0,0
0:4:38.465,1675.7,94.8236,0,0.000885,0,0
0:4:38.768,1677,94.8994,0,0.000885,0,0
0:4:39.074,1678.83,95.0029,0,0.000885,0,0
0:4:39.378,1680.89,95.1201,0,0.000885,0,0
0:4:39.678,1682.36,95.2028,0,0.000885,0,0
0:4:39.981,1684.18,95.3062,0,0.000885,0,0
0:4:40.280,1685.83,95.3959,0,0.000885,0,0
0:4:40.579,1687.89,95.5131,0,0.000885,0,0
0:4:40.875,1690.19,95.6441,0,0.000885,0,0
0:4:41.176,1692.01,95.7475,0,0.000885,0,0
0:4:41.478,1693.78,95.8509,0,0.000885,0,0
0:4:41.780,1695.25,95.9337,0,0.000885,0,0
0:4:42.077,1697.61,96.0647,0,0.000885,0,0
0:4:42.372,1699.08,96.1474,0,0.000885,0,0
0:4:42.671,1700.79,96.2439,0,0.000885,0,0
0:4:42.967,1702.67,96.3542,0,0.000885,0,0
0:4:43.267,1704.91,96.4783,0,0.000885,0,0
0:4:43.562,1706.32,96.5611,0,0.000885,0,0
0:4:43.865,1708.62,96.6852,0,0.000885,0,0
0:4:44.169,1710.27,96.7817,0,0.000885,0,0
0:4:44.472,1711.86,96.8713,0,0.000885,0,0
0:4:44.776,1713.57,96.9679,0,0.000885,0,0
0:4:45.078,1716.28,97.1196,0,0.000885,0,0
0:4:45.376,1718.39,97.2437,0,0.000885,0,0
0:4:45.672,1719.81,97.3195,0,0.000885,0,0
0:4:45.968,1721.22,97.4022,0,0.000885,0,0
0:4:46.270,1723.05,97.5057,0,0.000885,0,0
0:4:46.575,1725.46,97.6436,0,0.000885,0,0
0:4:46.877,1727.11,97.7332,0,0.000885,0,0
0:4:47.183,1728.87,97.8366,0,0.000885,0,0
0:4:47.478,1730.58,97.9331,0,0.000885,0,0
0:4:47.779,1732.52,98.0434,0,0.000885,0,0
0:4:48.072,1734.58,98.1607,0,0.000885,0,0
0:4:48.376,1736.35,98.2572,0,0.000885,0,0
0:4:48.669,1738.06,98.3537,0,0.000885,0,0
0:4:48.970,1739.89,98.4571,0,0.000885,0,0
0:4:49.276,1742.12,98.5812,0,0.000885,0,0
0:4:49.579,1743.83,98.6778,0,0.000885,0,0
0:4:49.881,1745.83,98.795,0,0.000885,0,0
0:4:50.182,1747.48,98.8846,0,0.000885,0,0
0:4:50.482,1749.49,99.0018,0,0.000885,0,0
0:4:50.780,1751.07,99.0915,0,0.000885,0,0
0:4:51.078,1752.96,99.1949,0,0.000885,0,0
0:4:51.378,1754.43,99.2776,0,0.000885,0,0
0:4:51.670,1756.26,99.381,0,0.000885,0,0
0:4:51.971,1759.14,99.5465,0,0.000885,0,0
0:4:52.266,1760.61,99.6292,0,0.000885,0,0
0:4:52.565,1762.26,99.7258,0,0.000885,0,0
0:4:52.862,1763.73,99.8085,0,0.000885,0,0
0:4:53.159,1765.38,99.8981,0,0.000885,0,0
0:4:53.461,1767.97,100.05,0,0.000885,0,0
0:4:53.765,1770.03,100.16,0,0.000885,0,0
0:4:54.066,1771.45,100.243,0,0.000885,0,0
0:4:54.371,1773.04,100.333,0,0.000885,0,0
0:4:54.673,1775.39,100.464,0,0.000885,0,0
0:4:54.976,1776.92,100.553,0,0.000885,0,0
0:4:55.278,1778.39,100.636,0,0.000885,0,0
0:4:55.581,1780.75,100.767,0,0.000885,0,0
0:4:55.885,1783.11,100.905,0,0.000885,0,0
0:4:56.183,1784.99,101.008,0,0.000885,0,0
0:4:56.482,1786.58,101.098,0,0.000885,0,0
0:4:56.778,1788.11,101.187,0,0.000885,0,0
0:4:57.078,1789.58,101.27,0,0.000885,0,0
0:4:57.370,1792.35,101.429,0,0.000885,0,0
0:4:57.671,1793.94,101.518,0,0.000885,0,0
0:4:57.967,1795.76,101.622,0,0.000885,0,0
0:4:58.265,1797.53,101.718,0,0.000885,0,0
0:4:58.564,1799.12,101.808,0,0.000885,0,0
0:4:58.868,1801.65,101.953,0,0.000885,0,0
0:4:59.172,1803.01,102.029,0,0.000885,0,0
0:4:59.474,1804.6,102.118,0,0.000885,0,0
0:4:59.778,1806.42,102.222,0,0.000885,0,0
0:5:0.081,1809.13,102.373,0,0.000885,0,0
0:5:0.376,1810.48,102.449,0,0.000885,0,0
0:5:0.677,1812.25,102.553,0,0.000885,0,0
0:5:0.981,1814.49,102.677,0,0.000885,0,0
0:5:1.280,1816.08,102.766,0,0.000885,0,0
0:5:1.578,1818.44,102.904,0,0.000885,0,0
0:5:1.873,1819.85,102.98,0,0.000885,0,0
0:5:2.173,1821.61,103.084,0,0.000885,0,0
0:5:2.466,1823.38,103.18,0,0.000885,0,0
0:5:2.769,1825.74,103.318,0,0.000885,0,0
0:5:3.064,1827.45,103.414,0,0.000885,0,0
0:5:3.364,1829.27,103.518,0,0.000885,0,0
0:5:3.669,1830.56,103.587,0,0.000885,0,0
0:5:3.972,1832.57,103.704,0,0.000885,0,0
0:5:4.278,1834.98,103.842,0,0.000885,0,0
0:5:4.580,1836.51,103.925,0,0.000885,0,0
0:5:4.882,1838.57,104.042,0,0.000885,0,0
0:5:5.183,1840.28,104.138,0,0.000885,0,0
0:5:5.482,1842.64,104.269,0,0.000885,0,0
0:5:5.782,1844.05,104.352,0,0.000885,0,0
0:5:6.077,1845.58,104.442,0,0.000885,0,0
0:5:6.379,1847.35,104.538,0,0.000885,0,0
0:5:6.671,1849.17,104.642,0,0.000885,0,0
0:5:6.972,1851.71,104.787,0,0.000885,0,0
0:5:7.269,1853.53,104.89,0,0.000885,0,0
0:5:7.564,1855.3,104.986,0,0.000885,0,0
0:5:7.863,1856.77,105.069,0,0.000885,0,0
0:5:8.159,1858.3,105.159,0,0.000885,0,0
0:5:8.460,1860.89,105.304,0,0.000885,0,0
0:5:8.756,1862.72,105.407,0,0.000885,0,0
0:5:9.058,1864.42,105.504,0,0.000885,0,0
0:5:9.363,1865.95,105.593,0,0.000885,0,0
0:5:9.665,1867.72,105.69,0,0.000885,0,0
0:5:9.969,1870.43,105.841,0,0.000885,0,0
0:5:10.270,1871.55,105.91,0,0.000885,0,0
0:5:10.570,1873.55,106.021,0,0.000885,0,0
0:5:10.867,1875.26,106.117,0,0.000885,0,0
0:5:11.165,1877.32,106.234,0,0.000885,0,0
0:5:11.465,1879.5,106.359,0,0.000885,0,0
0:5:11.769,1881.03,106.441,0,0.000885,0,0
0:5:12.069,1882.62,106.538,0,0.000885,0,0
0:5:12.367,1883.97,106.614,0,0.000885,0,0
0:5:12.665,1886.86,106.772,0,0.000885,0,0
0:5:12.962,1888.63,106.876,0,0.000885,0,0
0:5:13.267,1890.39,106.972,0,0.000885,0,0
0:5:13.569,1891.8,107.055,0,0.000885,0,0
0:5:13.863,1894.4,107.2,0,0.000885,0,0
0:5:14.165,1896.04,107.296,0,0.000885,0,0
0:5:14.469,1897.51,107.379,0,0.000885,0,0
0:5:14.772,1899.46,107.489,0,0.000885,0,0
0:5:15.075,1901.05,107.579,0,0.000885,0,0
0:5:15.378,1903.87,107.737,0,0.000885,0,0
0:5:15.680,1905.17,107.813,0,0.000885,0,0
0:5:15.973,1907.05,107.917,0,0.000885,0,0
0:5:16.283,1908.82,108.02,0,0.000885,0,0
0:5:16.582,1911.29,108.158,0,0.000885,0,0
0:5:16.878,1913,108.255,0,0.000885,0,0
0:5:17.180,1914.47,108.337,0,0.000885,0,0
0:5:17.482,1916.36,108.441,0,0.000885,0,0
0:5:17.784,1918.36,108.558,0,0.000885,0,0
0:5:18.080,1920.19,108.661,0,0.000885,0,0
0:5:18.374,1921.6,108.737,0,0.000885,0,0
0:5:18.673,1923.42,108.841,0,0.000885,0,0
0:5:18.979,1925.31,108.951,0,0.000885,0,0
0:5:19.282,1927.72,109.089,0,0.000885,0,0
0:5:19.585,1929.31,109.178,0,0.000885,0,0
0:5:19.885,1931.37,109.296,0,0.000885,0,0
0:5:20.187,1933.26,109.399,0,0.000885,0,0
0:5:20.483,1935.08,109.503,0,0.000885,0,0
0:5:20.784,1936.73,109.599,0,0.000885,0,0
0:5:21.080,1938.67,109.709,0,0.000885,0,0
0:5:21.379,1940.44,109.806,0,0.000885,0,0
0:5:21.673,1941.97,109.896,0,0.000885,0,0
0:5:21.972,1944.74,110.047,0,0.000885,0,0
0:5:22.271,1946.09,110.123,0,0.000885,0,0
0:5:22.565,1947.98,110.233,0,0.000885,0,0
0:5:22.867,1949.69,110.33,0,0.000885,0,0
0:5:23.162,1950.8,110.392,0,0.000885,0,0
0:5:23.461,1953.34,110.537,0,0.000885,0,0
0:5:23.759,1955.4,110.654,0,0.000885,0,0
0:5:24.061,1957.34,110.764,0,0.000885,0,0
0:5:24.366,1959.22,110.868,0,0.000885,0,0
0:5:24.669,1960.64,110.95,0,0.000885,0,0
0:5:24.971,1963.05,111.088,0,0.000885,0,0
0:5:25.272,1964.29,111.157,0,0.000885,0,0
0:5:25.580,1966.41,111.274,0,0.000885,0,0
0:5:25.881,1967.82,111.357,0,0.000885,0,0
0:5:26.175,1970.47,111.509,0,0.000885,0,0
0:5:26.476,1971.71,111.578,0,0.000885,0,0
0:5:26.771,1973.59,111.681,0,0.000885,0,0
0:5:27.069,1975.3,111.778,0,0.000885,0,0
0:5:27.369,1977.12,111.881,0,0.000885,0,0
0:5:27.673,1979.89,112.04,0,0.000885,0,0
0:5:27.974,1981.37,112.123,0,0.000885,0,0
0:5:28.281,1983.25,112.226,0,0.000885,0,0
0:5:28.581,1984.9,112.322,0,0.000885,0,0
0:5:28.876,1987.37,112.46,0,0.000885,0,0
0:5:29.181,1989.08,112.557,0,0.000885,0,0
0:5:29.485,1990.49,112.64,0,0.000885,0,0
0:5:29.788,1991.73,112.709,0,0.000885,0,0
0:5:30.090,1993.96,112.833,0,0.000885,0,0
0:5:30.393,1995.49,112.922,0,0.000885,0,0
0:5:30.690,1997.5,113.033,0,0.000885,0,0
0:5:30.988,1999.38,113.143,0,0.000885,0,0
0:5:31.286,2001.27,113.246,0,0.000885,0,0
0:5:31.585,2004.39,113.426,0,0.000885,0,0
0:5:31.880,2005.86,113.508,0,0.000885,0,0
0:5:32.177,2007.92,113.626,0,0.000885,0,0
0:5:32.475,2009.28,113.701,0,0.000885,0,0
0:5:32.783,2010.86,113.791,0,0.000885,0,0
0:5:33.083,2013.34,113.929,0,0.000885,0,0
0:5:33.388,2014.87,114.019,0,0.000885,0,0
0:5:33.691,2016.58,114.115,0,0.000885,0,0
0:5:33.995,2017.75,114.184,0,0.000885,0,0
0:5:34.299,2020.52,114.336,0,0.000885,0,0
0:5:34.601,2022.05,114.425,0,0.000885,0,0
0:5:34.902,2023.94,114.529,0,0.000885,0,0
0:5:35.203,2025.53,114.618,0,0.000885,0,0
0:5:35.497,2027.94,114.756,0,0.000885,0,0
0:5:35.798,2029.83,114.867,0,0.000885,0,0
0:5:36.094,2031.48,114.956,0,0.000885,0,0
0:5:36.390,2033.24,115.06,0,0.000885,0,0
0:5:36.690,2034.95,115.156,0,0.000885,0,0
0:5:36.986,2036.65,115.253,0,0.000885,0,0
0:5:37.287,2039.54,115.411,0,0.000885,0,0
0:5:37.582,2041.31,115.515,0,0.000885,0,0
0:5:37.881,2042.78,115.598,0,0.000885,0,0
0:5:38.180,2044.25,115.68,0,0.000885,0,0
0:5:38.473,2047.08,115.839,0,0.000885,0,0
0:5:38.774,2048.25,115.908,0,0.000885,0,0
0:5:39.080,2049.91,116.004,0,0.000885,0,0
0:5:39.382,2051.14,116.073,0,0.000885,0,0
0:5:39.685,2052.79,116.163,0,0.000885,0,0
0:5:39.987,2055.85,116.335,0,0.000885,0,0
0:5:40.289,2057.68,116.439,0,0.000885,0,0
0:5:40.585,2059.44,116.542,0,0.000885,0,0
0:5:40.887,2061.03,116.632,0,0.000885,0,0
0:5:41.183,2063.51,116.77,0,0.000885,0,0
0:5:41.480,2065.51,116.887,0,0.000885,0,0
0:5:41.778,2066.92,116.963,0,0.000885,0,0
0:5:42.073,2068.45,117.052,0,0.000885,0,0
0:5:42.375,2069.93,117.135,0,0.000885,0,0
0:5:42.670,2072.69,117.294,0,0.000885,0,0
0:5:42.971,2074.28,117.383,0,0.000885,0,0
0:5:43.269,2076.11,117.487,0,0.000885,0,0
0:5:43.574,2077.93,117.59,0,0.000885,0,0
0:5:43.873,2079.11,117.652,0,0.000885,0,0
0:5:44.176,2081.59,117.797,0,0.000885,0,0
0:5:44.481,2083.64,117.907,0,0.000885,0,0
0:5:44.784,2085.06,117.99,0,0.000885,0,0
0:5:45.085,2086.59,118.08,0,0.000885,0,0
0:5:45.388,2089.24,118.224,0,0.000885,0,0
0:5:45.683,2090.71,118.307,0,0.000885,0,0
0:5:45.985,2092.83,118.431,0,0.000885,0,0
0:5:46.281,2094.54,118.528,0,0.000885,0,0
0:5:46.578,2095.83,118.597,0,0.000885,0,0
0:5:46.876,2098.07,118.728,0,0.000885,0,0
0:5:47.172,2100.01,118.838,0,0.000885,0,0
0:5:47.473,2102.31,118.969,0,0.000885,0,0
0:5:47.767,2103.9,119.059,0,0.000885,0,0
0:5:48.067,2105.25,119.135,0,0.000885,0,0
0:5:48.364,2108.02,119.293,0,0.000885,0,0
0:5:48.663,2109.49,119.376,0,0.000885,0,0
0:5:48.960,2111.38,119.479,0,0.000885,0,0
0:5:49.262,2113.09,119.576,0,0.000885,0,0
0:5:49.566,2114.44,119.652,0,0.000885,0,0
0:5:49.869,2116.91,119.79,0,0.000885,0,0
0:5:50.171,2118.27,119.872,0,0.000885,0,0
0:5:50.472,2119.92,119.962,0,0.000885,0,0
0:5:50.770,2121.62,120.058,0,0.000885,0,0
0:5:51.070,2123.92,120.189,0,0.000885,0,0
0:5:51.366,2125.86,120.3,0,0.000885,0,0
0:5:51.667,2127.22,120.376,0,0.000885,0,0
0:5:51.972,2128.63,120.458,0,0.000885,0,0
0:5:52.269,2130.87,120.582,0,0.000885,0,0
0:5:52.569,2133.87,120.755,0,0.000885,0,0
0:5:52.874,2135.4,120.838,0,0.000885,0,0
0:5:53.174,2137.46,120.955,0,0.000885,0,0
0:5:53.470,2138.99,121.044,0,0.000885,0,0
0:5:53.771,2141.47,121.182,0,0.000885,0,0
0:5:54.076,2142.76,121.258,0,0.000885,0,0
0:5:54.377,2143.94,121.32,0,0.000885,0,0
0:5:54.683,2145.76,121.424,0,0.000885,0,0
0:5:54.984,2148.36,121.575,0,0.000885,0,0
0:5:55.287,2149.89,121.658,0,0.000885,0,0
0:5:55.582,2151.83,121.768,0,0.000885,0,0
0:5:55.879,2153.48,121.865,0,0.000885,0,0
0:5:56.177,2155.48,121.975,0,0.000885,0,0
0:5:56.484,2158.43,122.141,0,0.000885,0,0
0:5:56.785,2160.13,122.237,0,0.000885,0,0
0:5:57.077,2161.43,122.313,0,0.000885,0,0
0:5:57.377,2162.78,122.389,0,0.000885,0,0
0:5:57.673,2164.31,122.478,0,0.000885,0,0
0:5:57.972,2166.55,122.603,0,0.000885,0,0
0:5:58.271,2168.2,122.692,0,0.000885,0,0
0:5:58.564,2170.44,122.823,0,0.000885,0,0
0:5:58.867,2172.26,122.927,0,0.000885,0,0
0:5:59.172,2173.38,122.989,0,0.000885,0,0
0:5:59.473,2175.86,123.127,0,0.000885,0,0
0:5:59.775,2177.68,123.23,0,0.000885,0,0
0:6:0.075,2179.57,123.34,0,0.000885,0,0
0:6:0.378,2179.04,123.306,0,0.000885,0,0
0:6:0.683,2180.39,123.382,0,0.000885,0,0
0:6:0.982,2181.1,123.423,0,0.000885,0,0
0:6:1.278,2182.51,123.506,0,0.000885,0,0
0:6:1.575,2184.22,123.602,0,0.000885,0,0
0:6:1.873,2185.75,123.685,0,0.000885,0,0
0:6:2.169,2188.63,123.851,0,0.000885,0,0
0:6:2.469,2190.28,123.947,0,0.000885,0,0
0:6:2.764,2191.99,124.044,0,0.000885,0,0
0:6:3.071,2194.23,124.168,0,0.000885,0,0
0:6:3.372,2197.11,124.333,0,0.000885,0,0
0:6:3.667,2199.05,124.443,0,0.000885,0,0
0:6:3.968,2201.12,124.561,0,0.000885,0,0
0:6:4.273,2202.59,124.643,0,0.000885,0,0
0:6:4.574,2203.71,124.705,0,0.000885,0,0
0:6:4.877,2194.34,124.175,0,0.000885,0,0
0:6:4.989,2194.34,124.175,0,0.000885,0,0