File: DataFile2021-06-29_055152.csv
Test ID:,Date Tested:,Time:,Test Type:,Diameter Avg. (mm):,Cyl. Corr. Factor:,Height (mm):,Age (days):,Weight (kN):,Break Type:,Ramp Rate (MPa/s):,Load at Break (kN):,Stress at Break (MPa):
12,6/29/2021,05:51,Cylinder,100,1,200,0,3.6,3,0.22,214.37,27.3
Sample Time,Load (kN),Stress (MPa),Long. Strain,Trans. Strain,Chan1 Deflection (mm),Chan2 Deflection (mm)
0:0:18.049,6.15634,0.786002,0,0.000885,0,0
0:0:18.150,10.2042,1.29621,0,0.000885,0,0
0:0:18.248,13.9585,1.77885,0,0.000885,0,0
0:0:18.344,13.9585,1.77885,0,0.000885,0,0
0:0:18.443,15.72,1.99948,0,0.000885,0,0
0:0:18.544,16.1293,2.05464,0,0.000885,0,0
0:0:18.644,16.1293,2.05464,0,0.000885,0,0
0:0:18.744,15.8357,2.01327,0,0.000885,0,0
0:0:18.841,16.1293,2.05464,0,0.000885,0,0
0:0:18.940,15.8935,2.02706,0,0.000885,0,0
0:0:19.041,15.8935,2.02706,0,0.000885,0,0
0:0:19.141,15.7778,2.00637,0,0.000885,0,0
0:0:19.239,15.3063,1.95122,0,0.000885,0,0
0:0:19.337,14.7814,1.88227,0,0.000885,0,0
0:0:19.436,14.7814,1.88227,0,0.000885,0,0
0:0:19.536,14.5457,1.85469,0,0.000885,0,0
0:0:19.637,14.6035,1.86158,0,0.000885,0,0
0:0:19.736,14.43,1.83401,0,0.000885,0,0
0:0:19.833,14.43,1.83401,0,0.000885,0,0
0:0:19.931,14.3678,1.82711,0,0.000885,0,0
0:0:20.032,14.43,1.83401,0,0.000885,0,0
0:0:20.134,14.43,1.83401,0,0.000885,0,0
0:0:20.233,14.4879,1.84779,0,0.000885,0,0
0:0:20.331,14.3678,1.82711,0,0.000885,0,0
0:0:20.427,14.2521,1.81332,0,0.000885,0,0
0:0:20.528,14.2521,1.81332,0,0.000885,0,0
0:0:20.629,14.2521,1.81332,0,0.000885,0,0
0:0:20.729,13.8429,1.76506,0,0.000885,0,0
0:0:20.826,14.0742,1.79264,0,0.000885,0,0
0:0:20.923,14.0742,1.79264,0,0.000885,0,0
0:0:21.023,13.8429,1.76506,0,0.000885,0,0
0:0:21.124,13.9007,1.77195,0,0.000885,0,0
0:0:21.224,13.6649,1.73748,0,0.000885,0,0
0:0:21.322,13.6649,1.73748,0,0.000885,0,0
0:0:21.419,13.4292,1.7099,0,0.000885,0,0
0:0:21.518,13.4915,1.71679,0,0.000885,0,0
0:0:21.619,13.4915,1.71679,0,0.000885,0,0
0:0:21.720,13.4292,1.7099,0,0.000885,0,0
0:0:21.818,13.4292,1.7099,0,0.000885,0,0
0:0:21.916,13.4292,1.7099,0,0.000885,0,0
0:0:22.014,13.4292,1.7099,0,0.000885,0,0
0:0:22.116,13.785,1.75816,0,0.000885,0,0
0:0:22.216,12.9043,1.64095,0,0.000885,0,0
0:0:22.315,13.5493,1.72369,0,0.000885,0,0
0:0:22.411,13.5493,1.72369,0,0.000885,0,0
0:0:22.510,13.5493,1.72369,0,0.000885,0,0
0:0:22.610,14.1943,1.80643,0,0.000885,0,0
0:0:22.711,14.1943,1.80643,0,0.000885,0,0
0:0:22.811,14.0742,1.79264,0,0.000885,0,0
0:0:22.907,14.2521,1.81332,0,0.000885,0,0
0:0:23.005,14.8971,1.89606,0,0.000885,0,0
0:0:23.105,14.8971,1.89606,0,0.000885,0,0
0:0:23.207,14.8393,1.88916,0,0.000885,0,0
0:0:23.307,14.6613,1.86848,0,0.000885,0,0
0:0:23.409,15.4264,1.96501,0,0.000885,0,0
0:0:23.509,15.4264,1.96501,0,0.000885,0,0
0:0:23.612,15.72,1.99948,0,0.000885,0,0
0:0:23.711,15.4264,1.96501,0,0.000885,0,0
0:0:23.813,15.4843,1.9719,0,0.000885,0,0
0:0:23.914,15.4843,1.9719,0,0.000885,0,0
0:0:24.015,15.6577,1.99258,0,0.000885,0,0
0:0:24.116,16.1871,2.06153,0,0.000885,0,0
0:0:24.217,16.365,2.08222,0,0.000885,0,0
0:0:24.317,16.365,2.08222,0,0.000885,0,0
0:0:24.419,16.8899,2.15116,0,0.000885,0,0
0:0:24.518,17.1257,2.17874,0,0.000885,0,0
0:0:24.620,17.5349,2.2339,0,0.000885,0,0
0:0:24.720,17.5349,2.2339,0,0.000885,0,0
0:0:24.821,17.3614,2.21322,0,0.000885,0,0
0:0:24.921,17.8863,2.27527,0,0.000885,0,0
0:0:25.018,18.0064,2.29595,0,0.000885,0,0
0:0:25.116,18.0064,2.29595,0,0.000885,0,0
0:0:25.217,18.5936,2.3649,0,0.000885,0,0
0:0:25.318,19.0028,2.42006,0,0.000885,0,0
0:0:25.420,19.1185,2.43385,0,0.000885,0,0
0:0:25.515,19.1185,2.43385,0,0.000885,0,0
0:0:25.614,19.412,2.47522,0,0.000885,0,0
0:0:25.715,19.7056,2.50969,0,0.000885,0,0
0:0:25.816,19.7056,2.50969,0,0.000885,0,0
0:0:25.916,19.8257,2.52348,0,0.000885,0,0
0:0:26.012,20.3506,2.59243,0,0.000885,0,0
0:0:26.111,20.7643,2.64069,0,0.000885,0,0
0:0:26.212,20.7643,2.64069,0,0.000885,0,0
0:0:26.313,20.9956,2.67517,0,0.000885,0,0
0:0:26.414,21.5249,2.73722,0,0.000885,0,0
0:0:26.512,22.0543,2.80617,0,0.000885,0,0
0:0:26.609,22.0543,2.80617,0,0.000885,0,0
0:0:26.711,22.4057,2.85443,0,0.000885,0,0
0:0:26.811,22.6993,2.8889,0,0.000885,0,0
0:0:26.912,22.7571,2.8958,0,0.000885,0,0
0:0:27.010,22.7571,2.8958,0,0.000885,0,0
0:0:27.107,23.5177,2.99232,0,0.000885,0,0
0:0:27.207,23.6957,3.0199,0,0.000885,0,0
0:0:27.309,23.6957,3.0199,0,0.000885,0,0
0:0:27.409,23.8692,3.04059,0,0.000885,0,0
0:0:27.509,23.9314,3.04748,0,0.000885,0,0
0:0:27.607,24.6343,3.13711,0,0.000885,0,0
0:0:27.705,24.6343,3.13711,0,0.000885,0,0
0:0:27.806,24.9278,3.17159,0,0.000885,0,0
0:0:27.907,24.87,3.16469,0,0.000885,0,0
0:0:28.005,25.3949,3.23364,0,0.000885,0,0
0:0:28.102,25.3949,3.23364,0,0.000885,0,0
0:0:28.200,25.6307,3.26122,0,0.000885,0,0
0:0:28.302,25.6885,3.26811,0,0.000885,0,0
0:0:28.404,26.2178,3.33706,0,0.000885,0,0
0:0:28.504,26.2178,3.33706,0,0.000885,0,0
0:0:28.605,26.6849,3.39912,0,0.000885,0,0
0:0:28.708,26.7427,3.40601,0,0.000885,0,0
0:0:28.809,26.6271,3.39222,0,0.000885,0,0
0:0:28.910,26.6271,3.39222,0,0.000885,0,0
0:0:29.010,26.5692,3.38533,0,0.000885,0,0
0:0:29.112,26.9785,3.43359,0,0.000885,0,0
0:0:29.213,27.3299,3.48185,0,0.000885,0,0
0:0:29.314,27.3299,3.48185,0,0.000885,0,0
0:0:29.415,27.3877,3.48875,0,0.000885,0,0
0:0:29.517,27.7436,3.53012,0,0.000885,0,0
0:0:29.617,28.095,3.57838,0,0.000885,0,0
0:0:29.718,28.095,3.57838,0,0.000885,0,0
0:0:29.819,28.1528,3.58527,0,0.000885,0,0
0:0:29.921,28.3886,3.61285,0,0.000885,0,0
0:0:30.021,28.562,3.63354,0,0.000885,0,0
0:0:30.118,28.562,3.63354,0,0.000885,0,0
0:0:30.216,29.0335,3.69559,0,0.000885,0,0
0:0:30.317,29.385,3.74385,0,0.000885,0,0
0:0:30.418,29.385,3.74385,0,0.000885,0,0
0:0:30.520,29.6207,3.77143,0,0.000885,0,0
0:0:30.617,29.852,3.79901,0,0.000885,0,0
0:0:30.715,30.1456,3.84038,0,0.000885,0,0
0:0:30.815,30.1456,3.84038,0,0.000885,0,0
0:0:30.917,30.497,3.88175,0,0.000885,0,0
0:0:31.017,30.6749,3.90243,0,0.000885,0,0
0:0:31.114,30.6749,3.90243,0,0.000885,0,0
0:0:31.212,30.6749,3.90243,0,0.000885,0,0
0:0:31.312,31.0842,3.95759,0,0.000885,0,0
0:0:31.412,31.2043,3.97138,0,0.000885,0,0
0:0:31.514,31.6135,4.02654,0,0.000885,0,0
0:0:31.612,31.6135,4.02654,0,0.000885,0,0
0:0:31.710,31.9071,4.06101,0,0.000885,0,0
0:0:31.809,31.9649,4.06791,0,0.000885,0,0
0:0:31.910,31.9649,4.06791,0,0.000885,0,0
0:0:32.011,32.1384,4.09549,0,0.000885,0,0
0:0:32.110,32.5521,4.14375,0,0.000885,0,0
0:0:32.207,32.7878,4.17133,0,0.000885,0,0
0:0:32.305,32.7878,4.17133,0,0.000885,0,0
0:0:32.406,33.2549,4.23338,0,0.000885,0,0
0:0:32.508,33.4907,4.26096,0,0.000885,0,0
0:0:32.608,33.6641,4.28854,0,0.000885,0,0
0:0:32.706,33.6641,4.28854,0,0.000885,0,0
0:0:32.804,33.7842,4.30233,0,0.000885,0,0
0:0:32.905,34.4292,4.38507,0,0.000885,0,0
0:0:33.007,34.8385,4.43333,0,0.000885,0,0
0:0:33.106,34.8385,4.43333,0,0.000885,0,0
0:0:33.204,35.0742,4.4678,0,0.000885,0,0
0:0:33.301,35.3055,4.49538,0,0.000885,0,0
0:0:33.402,35.2477,4.48849,0,0.000885,0,0
0:0:33.503,35.2477,4.48849,0,0.000885,0,0
0:0:33.605,36.0128,4.58501,0,0.000885,0,0
0:0:33.706,35.777,4.55743,0,0.000885,0,0
0:0:33.807,35.777,4.55743,0,0.000885,0,0
0:0:33.908,36.3642,4.63328,0,0.000885,0,0
0:0:34.011,36.8313,4.68843,0,0.000885,0,0
0:0:34.112,37.1827,4.7367,0,0.000885,0,0
0:0:34.213,37.1827,4.7367,0,0.000885,0,0
0:0:34.314,37.712,4.79875,0,0.000885,0,0
0:0:34.415,37.712,4.79875,0,0.000885,0,0
0:0:34.516,37.8277,4.81944,0,0.000885,0,0
0:0:34.617,37.8277,4.81944,0,0.000885,0,0
0:0:34.717,37.89,4.82633,0,0.000885,0,0
0:0:34.819,38.357,4.88149,0,0.000885,0,0
0:0:34.918,38.8285,4.94354,0,0.000885,0,0
0:0:35.020,38.8285,4.94354,0,0.000885,0,0
0:0:35.120,38.7663,4.93665,0,0.000885,0,0
0:0:35.219,39.1221,4.97801,0,0.000885,0,0
0:0:35.317,39.002,4.96423,0,0.000885,0,0
0:0:35.415,39.002,4.96423,0,0.000885,0,0
0:0:35.517,39.4112,5.01938,0,0.000885,0,0
0:0:35.617,39.7671,5.06075,0,0.000885,0,0
0:0:35.716,39.9406,5.08833,0,0.000885,0,0
0:0:35.815,39.9406,5.08833,0,0.000885,0,0
0:0:35.913,40.1185,5.10902,0,0.000885,0,0
0:0:36.015,40.6434,5.17796,0,0.000885,0,0
0:0:36.116,40.9948,5.21933,0,0.000885,0,0
0:0:36.214,40.9948,5.21933,0,0.000885,0,0
0:0:36.311,40.8213,5.19865,0,0.000885,0,0
0:0:36.410,41.1727,5.24002,0,0.000885,0,0
0:0:36.511,41.1149,5.23312,0,0.000885,0,0
0:0:36.612,41.1149,5.23312,0,0.000885,0,0
0:0:36.710,41.4663,5.28138,0,0.000885,0,0
0:0:36.808,41.6398,5.30207,0,0.000885,0,0
0:0:36.907,41.6398,5.30207,0,0.000885,0,0
0:0:37.008,42.2892,5.38481,0,0.000885,0,0
0:0:37.109,42.227,5.37791,0,0.000885,0,0
0:0:37.210,42.872,5.46065,0,0.000885,0,0
0:0:37.307,42.872,5.46065,0,0.000885,0,0
0:0:37.405,43.4591,5.53649,0,0.000885,0,0
0:0:37.505,43.517,5.54338,0,0.000885,0,0
0:0:37.607,43.4591,5.53649,0,0.000885,0,0
0:0:37.707,43.4591,5.53649,0,0.000885,0,0
0:0:37.803,43.6949,5.56407,0,0.000885,0,0
0:0:37.902,44.282,5.63991,0,0.000885,0,0
0:0:38.002,44.5178,5.66749,0,0.000885,0,0
0:0:38.103,44.5178,5.66749,0,0.000885,0,0
0:0:38.205,44.6335,5.68128,0,0.000885,0,0
0:0:38.304,44.8692,5.71575,0,0.000885,0,0
0:0:38.407,45.0427,5.73644,0,0.000885,0,0
0:0:38.509,45.0427,5.73644,0,0.000885,0,0
0:0:38.610,45.1628,5.75023,0,0.000885,0,0
0:0:38.712,45.6299,5.81228,0,0.000885,0,0
0:0:38.813,45.9234,5.84675,0,0.000885,0,0
0:0:38.914,45.9234,5.84675,0,0.000885,0,0
0:0:39.015,46.5106,5.9226,0,0.000885,0,0
0:0:39.116,46.4528,5.9157,0,0.000885,0,0
0:0:39.217,46.6263,5.93639,0,0.000885,0,0
0:0:39.317,46.6263,5.93639,0,0.000885,0,0
0:0:39.419,47.0399,5.99154,0,0.000885,0,0
0:0:39.520,47.6849,6.07428,0,0.000885,0,0
0:0:39.621,47.8006,6.08807,0,0.000885,0,0
0:0:39.722,47.8006,6.08807,0,0.000885,0,0
0:0:39.820,47.9162,6.10186,0,0.000885,0,0
0:0:39.917,48.0363,6.11565,0,0.000885,0,0
0:0:40.016,48.0363,6.11565,0,0.000885,0,0
0:0:40.117,48.2098,6.13633,0,0.000885,0,0
0:0:40.218,48.5034,6.1777,0,0.000885,0,0
0:0:40.319,48.6191,6.19149,0,0.000885,0,0
0:0:40.416,48.6191,6.19149,0,0.000885,0,0
0:0:40.514,49.2062,6.26733,0,0.000885,0,0
0:0:40.616,49.2685,6.27423,0,0.000885,0,0
0:0:40.716,49.7356,6.32939,0,0.000885,0,0
0:0:40.817,49.7356,6.32939,0,0.000885,0,0
0:0:40.915,50.3227,6.40523,0,0.000885,0,0
0:0:41.013,50.3806,6.41212,0,0.000885,0,0
0:0:41.112,50.8521,6.47418,0,0.000885,0,0
0:0:41.213,50.8521,6.47418,0,0.000885,0,0
0:0:41.314,51.2613,6.52934,0,0.000885,0,0
0:0:41.414,51.4348,6.55002,0,0.000885,0,0
0:0:41.512,51.4348,6.55002,0,0.000885,0,0
0:0:41.610,51.6127,6.5707,0,0.000885,0,0
0:0:41.711,52.2577,6.65344,0,0.000885,0,0
0:0:41.813,52.3734,6.66723,0,0.000885,0,0
0:0:41.911,52.3734,6.66723,0,0.000885,0,0
0:0:42.008,52.3734,6.66723,0,0.000885,0,0
0:0:42.106,52.8449,6.72928,0,0.000885,0,0
0:0:42.207,52.787,6.72239,0,0.000885,0,0
0:0:42.307,52.787,6.72239,0,0.000885,0,0
0:0:42.409,53.0806,6.75686,0,0.000885,0,0
0:0:42.506,52.9605,6.74307,0,0.000885,0,0
0:0:42.604,53.2541,6.77755,0,0.000885,0,0
0:0:42.705,53.2541,6.77755,0,0.000885,0,0
0:0:42.806,53.6055,6.82581,0,0.000885,0,0
0:0:42.906,53.7834,6.84649,0,0.000885,0,0
0:0:43.004,53.7834,6.84649,0,0.000885,0,0
0:0:43.101,54.1349,6.89476,0,0.000885,0,0
0:0:43.202,54.3706,6.92234,0,0.000885,0,0
0:0:43.303,54.6019,6.94992,0,0.000885,0,0
0:0:43.404,54.6019,6.94992,0,0.000885,0,0
0:0:43.505,54.8377,6.98439,0,0.000885,0,0
0:0:43.607,55.1891,7.02576,0,0.000885,0,0
0:0:43.710,55.3092,7.03955,0,0.000885,0,0
0:0:43.811,55.3092,7.03955,0,0.000885,0,0
0:0:43.913,55.8341,7.10849,0,0.000885,0,0
0:0:44.012,56.0698,7.13607,0,0.000885,0,0
0:0:44.114,56.3634,7.17744,0,0.000885,0,0
0:0:44.214,56.3634,7.17744,0,0.000885,0,0
0:0:44.317,57.0084,7.26018,0,0.000885,0,0
0:0:44.417,57.3598,7.30155,0,0.000885,0,0
0:0:44.518,57.302,7.29465,0,0.000885,0,0
0:0:44.618,57.302,7.29465,0,0.000885,0,0
0:0:44.720,57.8892,7.3705,0,0.000885,0,0
0:0:44.821,58.592,7.46013,0,0.000885,0,0
0:0:44.922,58.2984,7.42565,0,0.000885,0,0
0:0:45.019,58.2984,7.42565,0,0.000885,0,0
0:0:45.117,58.2984,7.42565,0,0.000885,0,0
0:0:45.216,58.2984,7.42565,0,0.000885,0,0
0:0:45.317,58.8856,7.4946,0,0.000885,0,0
0:0:45.418,58.8856,7.4946,0,0.000885,0,0
0:0:45.518,59.1791,7.53597,0,0.000885,0,0
0:0:45.615,59.1791,7.53597,0,0.000885,0,0
0:0:45.713,59.7663,7.61181,0,0.000885,0,0
0:0:45.814,59.7663,7.61181,0,0.000885,0,0
0:0:45.915,59.704,7.60492,0,0.000885,0,0
0:0:46.014,60.527,7.70834,0,0.000885,0,0
0:0:46.111,60.527,7.70834,0,0.000885,0,0
0:0:46.209,60.4113,7.69455,0,0.000885,0,0
0:0:46.311,60.7049,7.72902,0,0.000885,0,0
0:0:46.412,60.5848,7.71523,0,0.000885,0,0
0:0:46.512,60.5848,7.71523,0,0.000885,0,0
0:0:46.609,60.9362,7.7566,0,0.000885,0,0
0:0:46.708,60.8784,7.74971,0,0.000885,0,0
0:0:46.809,61.5234,7.83244,0,0.000885,0,0
0:0:46.910,61.5234,7.83244,0,0.000885,0,0
0:0:47.010,61.8748,7.88071,0,0.000885,0,0
0:0:47.108,61.9949,7.8945,0,0.000885,0,0
0:0:47.205,62.4041,7.94276,0,0.000885,0,0
0:0:47.305,62.4041,7.94276,0,0.000885,0,0
0:0:47.407,62.6399,7.97723,0,0.000885,0,0
0:0:47.508,62.8712,8.00481,0,0.000885,0,0
0:0:47.606,63.1647,8.03929,0,0.000885,0,0
0:0:47.704,63.1647,8.03929,0,0.000885,0,0
0:0:47.803,63.227,8.05308,0,0.000885,0,0
0:0:47.905,64.0455,8.1565,0,0.000885,0,0
0:0:48.005,64.0455,8.1565,0,0.000885,0,0
0:0:48.102,64.1656,8.17029,0,0.000885,0,0
0:0:48.200,64.2813,8.18408,0,0.000885,0,0
0:0:48.297,64.6905,8.23923,0,0.000885,0,0
0:0:48.400,64.6905,8.23923,0,0.000885,0,0
0:0:48.502,65.0419,8.2806,0,0.000885,0,0
0:0:48.602,65.3933,8.32887,0,0.000885,0,0
0:0:48.703,65.3933,8.32887,0,0.000885,0,0
0:0:48.805,65.3933,8.32887,0,0.000885,0,0
0:0:48.907,65.5712,8.34955,0,0.000885,0,0
0:0:49.008,65.807,8.37713,0,0.000885,0,0
0:0:49.110,66.0383,8.4116,0,0.000885,0,0
0:0:49.210,66.0383,8.4116,0,0.000885,0,0
0:0:49.311,66.2741,8.43918,0,0.000885,0,0
0:0:49.412,66.5676,8.47366,0,0.000885,0,0
0:0:49.513,66.8034,8.50813,0,0.000885,0,0
0:0:49.613,66.8034,8.50813,0,0.000885,0,0
0:0:49.714,67.1548,8.5495,0,0.000885,0,0
0:0:49.815,67.5062,8.59776,0,0.000885,0,0
0:0:49.915,67.9777,8.65292,0,0.000885,0,0
0:0:50.016,67.9777,8.65292,0,0.000885,0,0
0:0:50.117,68.209,8.68739,0,0.000885,0,0
0:0:50.215,68.387,8.70808,0,0.000885,0,0
0:0:50.314,68.5026,8.72187,0,0.000885,0,0
0:0:50.414,68.5026,8.72187,0,0.000885,0,0
0:0:50.514,69.032,8.79082,0,0.000885,0,0
0:0:50.614,69.4412,8.83908,0,0.000885,0,0
0:0:50.713,69.4412,8.83908,0,0.000885,0,0
0:0:50.811,69.4412,8.83908,0,0.000885,0,0
0:0:50.912,70.0862,8.92182,0,0.000885,0,0
0:0:51.013,70.2063,8.93561,0,0.000885,0,0
0:0:51.114,70.2063,8.93561,0,0.000885,0,0
0:0:51.210,70.2063,8.93561,0,0.000885,0,0
0:0:51.308,70.4376,8.97008,0,0.000885,0,0
0:0:51.408,70.4376,8.97008,0,0.000885,0,0
0:0:51.510,70.4376,8.97008,0,0.000885,0,0
0:0:51.610,70.9091,9.02524,0,0.000885,0,0
0:0:51.706,70.9091,9.02524,0,0.000885,0,0
0:0:51.805,71.2027,9.06661,0,0.000885,0,0
0:0:51.905,71.2027,9.06661,0,0.000885,0,0
0:0:52.006,71.9055,9.15624,0,0.000885,0,0
0:0:52.108,72.0834,9.17692,0,0.000885,0,0
0:0:52.206,72.1413,9.18382,0,0.000885,0,0
0:0:52.302,72.1413,9.18382,0,0.000885,0,0
0:0:52.402,73.1377,9.31482,0,0.000885,0,0
0:0:52.503,73.022,9.29413,0,0.000885,0,0
0:0:52.604,73.022,9.29413,0,0.000885,0,0
0:0:52.703,73.2533,9.32861,0,0.000885,0,0
0:0:52.802,73.2533,9.32861,0,0.000885,0,0
0:0:52.897,73.4312,9.34929,0,0.000885,0,0
0:0:53.001,73.4312,9.34929,0,0.000885,0,0
0:0:53.102,73.4891,9.35619,0,0.000885,0,0
0:0:53.201,74.0184,9.42513,0,0.000885,0,0
0:0:53.296,74.3698,9.4665,0,0.000885,0,0
0:0:53.394,74.3698,9.4665,0,0.000885,0,0
0:0:53.496,74.6634,9.50787,0,0.000885,0,0
0:0:53.597,75.0148,9.54924,0,0.000885,0,0
0:0:53.701,75.424,9.6044,0,0.000885,0,0
0:0:53.802,75.424,9.6044,0,0.000885,0,0
0:0:53.905,75.7755,9.64577,0,0.000885,0,0
0:0:54.005,75.7176,9.63887,0,0.000885,0,0
0:0:54.107,76.3626,9.72161,0,0.000885,0,0
0:0:54.208,76.3626,9.72161,0,0.000885,0,0
0:0:54.308,76.247,9.70782,0,0.000885,0,0
0:0:54.409,76.3048,9.71471,0,0.000885,0,0
0:0:54.510,76.8341,9.78366,0,0.000885,0,0
0:0:54.611,76.8341,9.78366,0,0.000885,0,0
0:0:54.712,77.2434,9.83192,0,0.000885,0,0
0:0:54.812,77.3012,9.84571,0,0.000885,0,0
0:0:54.912,77.2434,9.83192,0,0.000885,0,0
0:0:55.013,77.2434,9.83192,0,0.000885,0,0
0:0:55.115,78.004,9.93535,0,0.000885,0,0
0:0:55.216,78.3554,9.97671,0,0.000885,0,0
0:0:55.314,78.5334,9.9974,0,0.000885,0,0
0:0:55.413,78.5334,9.9974,0,0.000885,0,0
0:0:55.512,78.5334,9.9974,0,0.000885,0,0
0:0:55.614,78.5912,10.0043,0,0.000885,0,0
0:0:55.713,78.5912,10.0043,0,0.000885,0,0
0:0:55.810,79.2362,10.087,0,0.000885,0,0
0:0:55.910,79.7077,10.1491,0,0.000885,0,0
0:0:56.008,79.7077,10.1491,0,0.000885,0,0
0:0:56.110,79.7077,10.1491,0,0.000885,0,0
0:0:56.211,80.3527,10.2318,0,0.000885,0,0
0:0:56.309,80.7619,10.2801,0,0.000885,0,0
0:0:56.407,80.7041,10.2732,0,0.000885,0,0
0:0:56.508,80.7041,10.2732,0,0.000885,0,0
0:0:56.607,80.8197,10.287,0,0.000885,0,0
0:0:56.708,80.9977,10.3146,0,0.000885,0,0
0:0:56.806,81.1133,10.3283,0,0.000885,0,0
0:0:56.904,81.1133,10.3283,0,0.000885,0,0
0:0:57.005,81.2912,10.349,0,0.000885,0,0
0:0:57.105,81.5226,10.3766,0,0.000885,0,0
0:0:57.207,81.9362,10.4318,0,0.000885,0,0
0:0:57.305,81.9362,10.4318,0,0.000885,0,0
0:0:57.403,82.1097,10.4525,0,0.000885,0,0
0:0:57.504,82.5812,10.5145,0,0.000885,0,0
0:0:57.605,82.5812,10.5145,0,0.000885,0,0
0:0:57.706,83.2262,10.5972,0,0.000885,0,0
0:0:57.803,83.3997,10.6179,0,0.000885,0,0
0:0:57.898,83.5776,10.6386,0,0.000885,0,0
0:0:58.001,83.5776,10.6386,0,0.000885,0,0
0:0:58.102,83.8134,10.6731,0,0.000885,0,0
0:0:58.202,84.0447,10.7007,0,0.000885,0,0
0:0:58.304,84.3383,10.7351,0,0.000885,0,0
0:0:58.404,84.3383,10.7351,0,0.000885,0,0
0:0:58.507,84.5162,10.7627,0,0.000885,0,0
0:0:58.608,84.9254,10.811,0,0.000885,0,0
0:0:58.710,84.9833,10.8179,0,0.000885,0,0
0:0:58.810,84.9833,10.8179,0,0.000885,0,0
0:0:58.912,85.4548,10.8799,0,0.000885,0,0
0:0:59.013,85.6283,10.9006,0,0.000885,0,0
0:0:59.115,85.7484,10.9144,0,0.000885,0,0
0:0:59.214,85.7484,10.9144,0,0.000885,0,0
0:0:59.315,86.042,10.9558,0,0.000885,0,0
0:0:59.416,86.4512,11.004,0,0.000885,0,0
0:0:59.517,86.9805,11.073,0,0.000885,0,0
0:0:59.618,86.9805,11.073,0,0.000885,0,0
0:0:59.719,86.9805,11.073,0,0.000885,0,0
0:0:59.820,87.154,11.0937,0,0.000885,0,0
0:0:59.917,87.5054,11.1419,0,0.000885,0,0
0:1:0.017,87.5054,11.1419,0,0.000885,0,0
0:1:0.117,87.799,11.1764,0,0.000885,0,0
0:1:0.219,87.8568,11.1833,0,0.000885,0,0
0:1:0.319,88.2082,11.2316,0,0.000885,0,0
0:1:0.417,88.2082,11.2316,0,0.000885,0,0
0:1:0.516,88.3862,11.2522,0,0.000885,0,0
0:1:0.617,88.2705,11.2385,0,0.000885,0,0
0:1:0.717,88.2705,11.2385,0,0.000885,0,0
0:1:0.816,88.8577,11.3143,0,0.000885,0,0
0:1:0.914,89.1468,11.3488,0,0.000885,0,0
0:1:1.012,89.8541,11.4384,0,0.000885,0,0
0:1:1.114,89.8541,11.4384,0,0.000885,0,0
0:1:1.215,90.0854,11.4729,0,0.000885,0,0
0:1:1.314,90.3211,11.5005,0,0.000885,0,0
0:1:1.412,90.7304,11.5556,0,0.000885,0,0
0:1:1.511,90.7304,11.5556,0,0.000885,0,0
0:1:1.612,90.8505,11.5694,0,0.000885,0,0
0:1:1.714,90.9661,11.5832,0,0.000885,0,0
0:1:1.813,91.0862,11.597,0,0.000885,0,0
0:1:1.910,91.0862,11.597,0,0.000885,0,0
0:1:2.008,91.4955,11.6521,0,0.000885,0,0
0:1:2.109,91.6111,11.6659,0,0.000885,0,0
0:1:2.210,92.3762,11.7625,0,0.000885,0,0
0:1:2.310,92.3762,11.7625,0,0.000885,0,0
0:1:2.409,92.4919,11.7762,0,0.000885,0,0
0:1:2.506,92.4919,11.7762,0,0.000885,0,0
0:1:2.607,92.4919,11.7762,0,0.000885,0,0
0:1:2.709,92.6698,11.7969,0,0.000885,0,0
0:1:2.808,92.8433,11.8245,0,0.000885,0,0
0:1:2.906,92.9589,11.8383,0,0.000885,0,0
0:1:3.003,92.9589,11.8383,0,0.000885,0,0
0:1:3.104,93.6084,11.921,0,0.000885,0,0
0:1:3.205,94.0176,11.9693,0,0.000885,0,0
0:1:3.307,94.369,12.0176,0,0.000885,0,0
0:1:3.408,94.369,12.0176,0,0.000885,0,0
0:1:3.510,94.4268,12.0245,0,0.000885,0,0
0:1:3.611,94.7783,12.0658,0,0.000885,0,0
0:1:3.713,94.9562,12.0934,0,0.000885,0,0
0:1:3.814,94.9562,12.0934,0,0.000885,0,0
0:1:3.915,95.1297,12.1141,0,0.000885,0,0
0:1:4.016,95.2498,12.1279,0,0.000885,0,0
0:1:4.118,95.3654,12.1417,0,0.000885,0,0
0:1:4.218,95.3654,12.1417,0,0.000885,0,0
0:1:4.320,95.6012,12.1692,0,0.000885,0,0
0:1:4.420,96.0104,12.2244,0,0.000885,0,0
0:1:4.522,96.2462,12.252,0,0.000885,0,0
0:1:4.622,96.2462,12.252,0,0.000885,0,0
0:1:4.724,96.5398,12.2934,0,0.000885,0,0
0:1:4.825,96.8333,12.3278,0,0.000885,0,0
0:1:4.924,97.0068,12.3485,0,0.000885,0,0
0:1:5.021,97.0068,12.3485,0,0.000885,0,0
0:1:5.122,97.5362,12.4175,0,0.000885,0,0
0:1:5.223,98.1811,12.5002,0,0.000885,0,0
0:1:5.323,98.2968,12.514,0,0.000885,0,0
0:1:5.420,98.2968,12.514,0,0.000885,0,0
0:1:5.519,98.5326,12.5485,0,0.000885,0,0
0:1:5.619,98.4747,12.5416,0,0.000885,0,0
0:1:5.721,98.9418,12.5967,0,0.000885,0,0
0:1:5.821,98.9418,12.5967,0,0.000885,0,0
0:1:5.920,99.1197,12.6174,0,0.000885,0,0
0:1:6.016,99.4133,12.6588,0,0.000885,0,0
0:1:6.116,99.4133,12.6588,0,0.000885,0,0
0:1:6.217,99.5868,12.6795,0,0.000885,0,0
0:1:6.318,100.116,12.7484,0,0.000885,0,0
0:1:6.417,100.352,12.776,0,0.000885,0,0
0:1:6.513,100.352,12.776,0,0.000885,0,0
0:1:6.613,100.352,12.776,0,0.000885,0,0
0:1:6.715,100.588,12.8036,0,0.000885,0,0
0:1:6.815,100.877,12.8449,0,0.000885,0,0
0:1:6.915,100.877,12.8449,0,0.000885,0,0
0:1:7.011,100.939,12.8518,0,0.000885,0,0
0:1:7.111,101.17,12.8794,0,0.000885,0,0
0:1:7.212,101.815,12.9621,0,0.000885,0,0
0:1:7.313,101.815,12.9621,0,0.000885,0,0
0:1:7.412,102.523,13.0518,0,0.000885,0,0
0:1:7.510,102.403,13.038,0,0.000885,0,0
0:1:7.607,102.403,13.038,0,0.000885,0,0
0:1:7.708,102.932,13.1069,0,0.000885,0,0
0:1:7.809,103.283,13.1483,0,0.000885,0,0
0:1:7.910,102.874,13.1,0,0.000885,0,0
0:1:8.008,102.874,13.1,0,0.000885,0,0
0:1:8.106,103.341,13.1552,0,0.000885,0,0
0:1:8.207,103.577,13.1897,0,0.000885,0,0
0:1:8.308,103.755,13.2104,0,0.000885,0,0
0:1:8.409,103.755,13.2104,0,0.000885,0,0
0:1:8.510,104.044,13.2448,0,0.000885,0,0
0:1:8.613,104.4,13.2931,0,0.000885,0,0
0:1:8.715,104.631,13.3207,0,0.000885,0,0
0:1:8.814,104.631,13.3207,0,0.000885,0,0
0:1:8.916,104.925,13.362,0,0.000885,0,0
0:1:9.017,105.338,13.4103,0,0.000885,0,0
0:1:9.118,105.805,13.4724,0,0.000885,0,0
0:1:9.219,105.805,13.4724,0,0.000885,0,0
0:1:9.318,105.57,13.4448,0,0.000885,0,0
0:1:9.419,106.041,13.4999,0,0.000885,0,0
0:1:9.520,106.277,13.5344,0,0.000885,0,0
0:1:9.621,106.277,13.5344,0,0.000885,0,0
0:1:9.722,106.45,13.5551,0,0.000885,0,0
0:1:9.823,106.686,13.5827,0,0.000885,0,0
0:1:9.923,106.922,13.6103,0,0.000885,0,0
0:1:10.020,106.922,13.6103,0,0.000885,0,0
0:1:10.119,106.98,13.624,0,0.000885,0,0
0:1:10.220,107.447,13.6792,0,0.000885,0,0
0:1:10.322,107.683,13.7137,0,0.000885,0,0
0:1:10.422,107.683,13.7137,0,0.000885,0,0
0:1:10.520,108.034,13.755,0,0.000885,0,0
0:1:10.618,108.15,13.7688,0,0.000885,0,0
0:1:10.719,108.15,13.7688,0,0.000885,0,0
0:1:10.821,108.621,13.8309,0,0.000885,0,0
0:1:10.920,109.03,13.8791,0,0.000885,0,0
0:1:11.018,109.208,13.9067,0,0.000885,0,0
0:1:11.116,109.208,13.9067,0,0.000885,0,0
0:1:11.217,109.795,13.9826,0,0.000885,0,0
0:1:11.317,109.675,13.9619,0,0.000885,0,0
0:1:11.418,110.32,14.0446,0,0.000885,0,0
0:1:11.514,110.32,14.0446,0,0.000885,0,0
0:1:11.612,110.556,14.0791,0,0.000885,0,0
0:1:11.713,110.734,14.0998,0,0.000885,0,0
0:1:11.814,110.614,14.086,0,0.000885,0,0
0:1:11.915,110.614,14.086,0,0.000885,0,0
0:1:12.012,110.85,14.1136,0,0.000885,0,0
0:1:12.110,111.846,14.2377,0,0.000885,0,0
0:1:12.210,111.846,14.2377,0,0.000885,0,0
0:1:12.312,111.788,14.2308,0,0.000885,0,0
0:1:12.412,111.846,14.2377,0,0.000885,0,0
0:1:12.509,112.255,14.2928,0,0.000885,0,0
0:1:12.607,112.255,14.2928,0,0.000885,0,0
0:1:12.706,112.197,14.2859,0,0.000885,0,0
0:1:12.808,112.433,14.3135,0,0.000885,0,0
0:1:12.909,113.02,14.3894,0,0.000885,0,0
0:1:13.006,113.02,14.3894,0,0.000885,0,0
0:1:13.104,112.963,14.3825,0,0.000885,0,0
0:1:13.204,113.02,14.3894,0,0.000885,0,0
0:1:13.305,113.608,14.4652,0,0.000885,0,0
0:1:13.406,113.608,14.4652,0,0.000885,0,0
0:1:13.507,114.19,14.541,0,0.000885,0,0
0:1:13.608,114.368,14.5617,0,0.000885,0,0
0:1:13.709,114.19,14.541,0,0.000885,0,0
0:1:13.811,114.19,14.541,0,0.000885,0,0
0:1:13.912,114.484,14.5755,0,0.000885,0,0
0:1:14.015,114.84,14.6238,0,0.000885,0,0
0:1:14.115,115.249,14.672,0,0.000885,0,0
0:1:14.216,115.249,14.672,0,0.000885,0,0
0:1:14.317,115.6,14.7203,0,0.000885,0,0
0:1:14.419,115.658,14.7272,0,0.000885,0,0
0:1:14.518,116.188,14.7961,0,0.000885,0,0
0:1:14.619,116.188,14.7961,0,0.000885,0,0
0:1:14.720,116.423,14.8237,0,0.000885,0,0
0:1:14.822,116.833,14.8789,0,0.000885,0,0
0:1:14.922,117.126,14.9134,0,0.000885,0,0
0:1:15.021,117.126,14.9134,0,0.000885,0,0
0:1:15.119,117.3,14.934,0,0.000885,0,0
0:1:15.220,117.535,14.9685,0,0.000885,0,0
0:1:15.320,117.535,14.9685,0,0.000885,0,0
0:1:15.422,117.771,14.9961,0,0.000885,0,0
0:1:15.520,118.123,15.0375,0,0.000885,0,0
0:1:15.618,118.238,15.0581,0,0.000885,0,0
0:1:15.716,118.238,15.0581,0,0.000885,0,0
0:1:15.817,118.416,15.0788,0,0.000885,0,0
0:1:15.918,119.003,15.1547,0,0.000885,0,0
0:1:16.018,119.119,15.1685,0,0.000885,0,0
0:1:16.115,119.119,15.1685,0,0.000885,0,0
0:1:16.215,119.297,15.1892,0,0.000885,0,0
0:1:16.316,119.59,15.2236,0,0.000885,0,0
0:1:16.417,120.115,15.2926,0,0.000885,0,0
0:1:16.516,120.115,15.2926,0,0.000885,0,0
0:1:16.614,120.173,15.2995,0,0.000885,0,0
0:1:16.713,120.351,15.3202,0,0.000885,0,0
0:1:16.812,120.76,15.3753,0,0.000885,0,0
0:1:16.914,120.76,15.3753,0,0.000885,0,0
0:1:17.013,120.76,15.3753,0,0.000885,0,0
0:1:17.111,121.112,15.4236,0,0.000885,0,0
0:1:17.209,121.112,15.4236,0,0.000885,0,0
0:1:17.311,121.525,15.4718,0,0.000885,0,0
0:1:17.410,121.463,15.4649,0,0.000885,0,0
0:1:17.512,121.819,15.5132,0,0.000885,0,0
0:1:17.608,121.819,15.5132,0,0.000885,0,0
0:1:17.707,122.17,15.5546,0,0.000885,0,0
0:1:17.807,122.522,15.6028,0,0.000885,0,0
0:1:17.909,122.637,15.6166,0,0.000885,0,0
0:1:18.007,122.637,15.6166,0,0.000885,0,0
0:1:18.106,122.931,15.6511,0,0.000885,0,0
0:1:18.204,123.282,15.6994,0,0.000885,0,0
0:1:18.305,123.403,15.7132,0,0.000885,0,0
0:1:18.406,123.403,15.7132,0,0.000885,0,0
0:1:18.507,123.692,15.7476,0,0.000885,0,0
0:1:18.607,124.163,15.8097,0,0.000885,0,0
0:1:18.709,124.399,15.8373,0,0.000885,0,0
0:1:18.811,124.399,15.8373,0,0.000885,0,0
0:1:18.912,124.63,15.8717,0,0.000885,0,0
0:1:19.013,124.63,15.8717,0,0.000885,0,0
0:1:19.115,124.808,15.8924,0,0.000885,0,0
0:1:19.215,124.808,15.8924,0,0.000885,0,0
0:1:19.317,125.511,15.982,0,0.000885,0,0
0:1:19.417,125.747,16.0096,0,0.000885,0,0
0:1:19.519,125.747,16.0096,0,0.000885,0,0
0:1:19.619,125.453,15.9752,0,0.000885,0,0
0:1:19.720,126.098,16.0579,0,0.000885,0,0
0:1:19.821,126.392,16.0924,0,0.000885,0,0
0:1:19.922,126.392,16.0924,0,0.000885,0,0
0:1:20.023,126.628,16.1199,0,0.000885,0,0
0:1:20.121,126.743,16.1406,0,0.000885,0,0
0:1:20.220,127.037,16.1751,0,0.000885,0,0
0:1:20.318,127.037,16.1751,0,0.000885,0,0
0:1:20.420,127.388,16.2165,0,0.000885,0,0
0:1:20.521,127.682,16.2578,0,0.000885,0,0
0:1:20.622,128.091,16.3061,0,0.000885,0,0
0:1:20.718,128.091,16.3061,0,0.000885,0,0
0:1:20.817,128.798,16.3957,0,0.000885,0,0
0:1:20.919,129.03,16.4302,0,0.000885,0,0
0:1:21.019,129.15,16.444,0,0.000885,0,0
0:1:21.119,129.15,16.444,0,0.000885,0,0
0:1:21.216,129.675,16.5129,0,0.000885,0,0
0:1:21.314,130.088,16.5612,0,0.000885,0,0
0:1:21.415,130.026,16.5543,0,0.000885,0,0
0:1:21.516,130.026,16.5543,0,0.000885,0,0
0:1:21.617,130.32,16.5957,0,0.000885,0,0
0:1:21.715,130.555,16.6233,0,0.000885,0,0
0:1:21.811,130.555,16.6233,0,0.000885,0,0
0:1:21.912,130.675,16.637,0,0.000885,0,0
0:1:22.014,130.733,16.6439,0,0.000885,0,0
0:1:22.113,130.675,16.637,0,0.000885,0,0
0:1:22.211,130.675,16.637,0,0.000885,0,0
0:1:22.308,131.2,16.706,0,0.000885,0,0
0:1:22.408,131.142,16.6991,0,0.000885,0,0
0:1:22.510,131.672,16.768,0,0.000885,0,0
0:1:22.610,131.672,16.768,0,0.000885,0,0
0:1:22.709,132.197,16.8301,0,0.000885,0,0
0:1:22.806,131.903,16.7956,0,0.000885,0,0
0:1:22.906,132.548,16.8784,0,0.000885,0,0
0:1:23.007,132.548,16.8784,0,0.000885,0,0
0:1:23.108,132.784,16.9059,0,0.000885,0,0
0:1:23.205,132.784,16.9059,0,0.000885,0,0
0:1:23.300,132.784,16.9059,0,0.000885,0,0
0:1:23.401,133.313,16.9749,0,0.000885,0,0
0:1:23.505,133.607,17.0094,0,0.000885,0,0
0:1:23.605,133.607,17.0094,0,0.000885,0,0
0:1:23.705,133.607,17.0094,0,0.000885,0,0
0:1:23.807,134.132,17.0783,0,0.000885,0,0
0:1:23.909,134.661,17.1473,0,0.000885,0,0
0:1:24.010,134.545,17.1335,0,0.000885,0,0
0:1:24.112,134.545,17.1335,0,0.000885,0,0
0:1:24.213,134.777,17.1611,0,0.000885,0,0
0:1:24.315,135.426,17.2438,0,0.000885,0,0
0:1:24.415,135.306,17.23,0,0.000885,0,0
0:1:24.515,135.306,17.23,0,0.000885,0,0
0:1:24.617,135.715,17.2783,0,0.000885,0,0
0:1:24.717,136.302,17.3541,0,0.000885,0,0
0:1:24.818,136.423,17.3679,0,0.000885,0,0
0:1:24.919,136.423,17.3679,0,0.000885,0,0
0:1:25.019,136.423,17.3679,0,0.000885,0,0
0:1:25.120,136.654,17.4024,0,0.000885,0,0
0:1:25.220,137.241,17.4713,0,0.000885,0,0
0:1:25.317,137.241,17.4713,0,0.000885,0,0
0:1:25.417,137.01,17.4437,0,0.000885,0,0
0:1:25.518,137.477,17.5058,0,0.000885,0,0
0:1:25.619,137.77,17.5403,0,0.000885,0,0
0:1:25.719,137.77,17.5403,0,0.000885,0,0
0:1:25.815,137.712,17.5334,0,0.000885,0,0
0:1:25.914,138.357,17.6161,0,0.000885,0,0
0:1:26.016,138.945,17.6919,0,0.000885,0,0
0:1:26.116,138.945,17.6919,0,0.000885,0,0
0:1:26.216,139.002,17.6988,0,0.000885,0,0
0:1:26.314,139.06,17.7057,0,0.000885,0,0
0:1:26.412,139.06,17.7057,0,0.000885,0,0
0:1:26.514,139.354,17.7402,0,0.000885,0,0
0:1:26.614,139.763,17.7954,0,0.000885,0,0
0:1:26.714,139.999,17.8229,0,0.000885,0,0
0:1:26.812,139.999,17.8229,0,0.000885,0,0
0:1:26.911,140.057,17.8298,0,0.000885,0,0
0:1:27.011,140.702,17.9126,0,0.000885,0,0
0:1:27.113,140.822,17.9264,0,0.000885,0,0
0:1:27.212,140.822,17.9264,0,0.000885,0,0
0:1:27.310,140.937,17.9471,0,0.000885,0,0
0:1:27.409,141.405,18.0022,0,0.000885,0,0
0:1:27.508,142.05,18.0849,0,0.000885,0,0
0:1:27.609,142.05,18.0849,0,0.000885,0,0
0:1:27.710,142.227,18.1056,0,0.000885,0,0
0:1:27.808,141.934,18.0712,0,0.000885,0,0
0:1:27.906,141.934,18.0712,0,0.000885,0,0
0:1:28.006,142.343,18.1263,0,0.000885,0,0
0:1:28.108,143.166,18.2297,0,0.000885,0,0
0:1:28.207,143.108,18.2228,0,0.000885,0,0
0:1:28.308,143.108,18.2228,0,0.000885,0,0
0:1:28.410,143.224,18.2366,0,0.000885,0,0
0:1:28.512,143.811,18.3125,0,0.000885,0,0
0:1:28.614,144.047,18.3401,0,0.000885,0,0
0:1:28.716,144.047,18.3401,0,0.000885,0,0
0:1:28.816,143.989,18.3332,0,0.000885,0,0
0:1:28.917,144.456,18.3952,0,0.000885,0,0
0:1:29.018,144.398,18.3883,0,0.000885,0,0
0:1:29.119,144.398,18.3883,0,0.000885,0,0
0:1:29.220,144.634,18.4159,0,0.000885,0,0
0:1:29.321,145.279,18.4986,0,0.000885,0,0
0:1:29.422,145.217,18.4917,0,0.000885,0,0
0:1:29.522,145.217,18.4917,0,0.000885,0,0
0:1:29.624,145.452,18.5193,0,0.000885,0,0
0:1:29.725,145.688,18.5469,0,0.000885,0,0
0:1:29.823,145.688,18.5469,0,0.000885,0,0
0:1:29.921,145.688,18.5469,0,0.000885,0,0
0:1:30.021,146.04,18.5952,0,0.000885,0,0
0:1:30.122,146.862,18.6986,0,0.000885,0,0
0:1:30.223,146.862,18.6986,0,0.000885,0,0
0:1:30.321,146.862,18.6986,0,0.000885,0,0
0:1:30.419,147.214,18.7468,0,0.000885,0,0
0:1:30.518,147.507,18.7813,0,0.000885,0,0
0:1:30.619,147.801,18.8158,0,0.000885,0,0
0:1:30.720,147.801,18.8158,0,0.000885,0,0
0:1:30.820,147.975,18.8434,0,0.000885,0,0
0:1:30.916,148.21,18.871,0,0.000885,0,0
0:1:31.015,148.21,18.871,0,0.000885,0,0
0:1:31.116,148.62,18.9261,0,0.000885,0,0
0:1:31.218,149.149,18.9882,0,0.000885,0,0
0:1:31.318,149.207,18.9951,0,0.000885,0,0
0:1:31.415,149.207,18.9951,0,0.000885,0,0
0:1:31.512,149.442,19.0295,0,0.000885,0,0
0:1:31.613,149.616,19.0502,0,0.000885,0,0
0:1:31.714,149.91,19.0847,0,0.000885,0,0
0:1:31.815,149.91,19.0847,0,0.000885,0,0
0:1:31.911,150.03,19.1054,0,0.000885,0,0
0:1:32.010,150.261,19.133,0,0.000885,0,0
0:1:32.111,150.555,19.1674,0,0.000885,0,0
0:1:32.212,150.555,19.1674,0,0.000885,0,0
0:1:32.313,150.848,19.2088,0,0.000885,0,0
0:1:32.411,151.026,19.2295,0,0.000885,0,0
0:1:32.508,151.377,19.2708,0,0.000885,0,0
0:1:32.608,151.377,19.2708,0,0.000885,0,0
0:1:32.709,151.844,19.3329,0,0.000885,0,0
0:1:32.810,151.844,19.3329,0,0.000885,0,0
0:1:32.908,151.844,19.3329,0,0.000885,0,0
0:1:33.006,152.196,19.3812,0,0.000885,0,0
0:1:33.106,152.432,19.4087,0,0.000885,0,0
0:1:33.207,152.961,19.4777,0,0.000885,0,0
0:1:33.307,152.961,19.4777,0,0.000885,0,0
0:1:33.409,153.134,19.4984,0,0.000885,0,0
0:1:33.510,153.197,19.5053,0,0.000885,0,0
0:1:33.614,153.548,19.5535,0,0.000885,0,0
0:1:33.714,153.548,19.5535,0,0.000885,0,0
0:1:33.816,153.548,19.5535,0,0.000885,0,0
0:1:33.916,153.779,19.5811,0,0.000885,0,0
0:1:34.017,154.135,19.6225,0,0.000885,0,0
0:1:34.118,154.135,19.6225,0,0.000885,0,0
0:1:34.219,154.545,19.6776,0,0.000885,0,0
0:1:34.319,154.66,19.6914,0,0.000885,0,0
0:1:34.421,154.838,19.7121,0,0.000885,0,0
0:1:34.521,154.838,19.7121,0,0.000885,0,0
0:1:34.623,155.599,19.8086,0,0.000885,0,0
0:1:34.724,155.777,19.8362,0,0.000885,0,0
0:1:34.825,156.07,19.8707,0,0.000885,0,0
0:1:34.923,156.07,19.8707,0,0.000885,0,0
0:1:35.020,156.07,19.8707,0,0.000885,0,0
0:1:35.119,156.657,19.9465,0,0.000885,0,0
0:1:35.220,156.773,19.9603,0,0.000885,0,0
0:1:35.320,156.773,19.9603,0,0.000885,0,0
0:1:35.422,156.657,19.9465,0,0.000885,0,0
0:1:35.519,157.302,20.0293,0,0.000885,0,0
0:1:35.617,157.302,20.0293,0,0.000885,0,0
0:1:35.717,157.827,20.0982,0,0.000885,0,0
0:1:35.819,157.947,20.112,0,0.000885,0,0
0:1:35.919,157.885,20.1051,0,0.000885,0,0
0:1:36.016,157.885,20.1051,0,0.000885,0,0
0:1:36.114,158.299,20.1534,0,0.000885,0,0
0:1:36.214,158.766,20.2154,0,0.000885,0,0
0:1:36.315,158.766,20.2154,0,0.000885,0,0
0:1:36.416,158.766,20.2154,0,0.000885,0,0
0:1:36.516,159.002,20.243,0,0.000885,0,0
0:1:36.614,159.237,20.2775,0,0.000885,0,0
0:1:36.712,159.882,20.3533,0,0.000885,0,0
0:1:36.813,159.882,20.3533,0,0.000885,0,0
0:1:36.915,160.176,20.3947,0,0.000885,0,0
0:1:37.013,160.114,20.3878,0,0.000885,0,0
0:1:37.110,160.585,20.443,0,0.000885,0,0
0:1:37.207,160.585,20.443,0,0.000885,0,0
0:1:37.308,160.879,20.4843,0,0.000885,0,0
0:1:37.410,161.23,20.5257,0,0.000885,0,0
0:1:37.510,161.23,20.5257,0,0.000885,0,0
0:1:37.609,161.466,20.5602,0,0.000885,0,0
0:1:37.707,161.639,20.5809,0,0.000885,0,0
0:1:37.807,161.991,20.6222,0,0.000885,0,0
0:1:37.908,161.991,20.6222,0,0.000885,0,0
0:1:38.008,162.227,20.6567,0,0.000885,0,0
0:1:38.106,162.52,20.6912,0,0.000885,0,0
0:1:38.200,163.107,20.767,0,0.000885,0,0
0:1:38.301,163.107,20.767,0,0.000885,0,0
0:1:38.405,163.05,20.7601,0,0.000885,0,0
0:1:38.506,162.929,20.7463,0,0.000885,0,0
0:1:38.607,163.637,20.836,0,0.000885,0,0
0:1:38.709,163.637,20.836,0,0.000885,0,0
0:1:38.810,163.988,20.8773,0,0.000885,0,0
0:1:38.912,164.046,20.8842,0,0.000885,0,0
0:1:39.012,164.633,20.9601,0,0.000885,0,0
0:1:39.114,164.633,20.9601,0,0.000885,0,0
0:1:39.214,164.513,20.9463,0,0.000885,0,0
0:1:39.316,164.927,21.0014,0,0.000885,0,0
0:1:39.416,164.927,21.0014,0,0.000885,0,0
0:1:39.518,164.927,21.0014,0,0.000885,0,0
0:1:39.617,164.807,20.9807,0,0.000885,0,0
0:1:39.719,165.336,21.0497,0,0.000885,0,0
0:1:39.819,165.803,21.1117,0,0.000885,0,0
0:1:39.920,165.803,21.1117,0,0.000885,0,0
0:1:40.021,165.923,21.1255,0,0.000885,0,0
0:1:40.121,166.159,21.1531,0,0.000885,0,0
0:1:40.218,166.159,21.1531,0,0.000885,0,0
0:1:40.318,166.448,21.1945,0,0.000885,0,0
0:1:40.419,166.92,21.2496,0,0.000885,0,0
0:1:40.520,166.568,21.2083,0,0.000885,0,0
0:1:40.619,166.568,21.2083,0,0.000885,0,0
0:1:40.717,167.329,21.3048,0,0.000885,0,0
0:1:40.817,167.742,21.36,0,0.000885,0,0
0:1:40.918,167.8,21.3669,0,0.000885,0,0
0:1:41.019,167.8,21.3669,0,0.000885,0,0
0:1:41.116,168.094,21.4013,0,0.000885,0,0
0:1:41.214,168.267,21.422,0,0.000885,0,0
0:1:41.313,168.681,21.4772,0,0.000885,0,0
0:1:41.414,168.681,21.4772,0,0.000885,0,0
0:1:41.515,168.97,21.5116,0,0.000885,0,0
0:1:41.614,169.09,21.5323,0,0.000885,0,0
0:1:41.712,169.384,21.5668,0,0.000885,0,0
0:1:41.810,169.384,21.5668,0,0.000885,0,0
0:1:41.911,169.557,21.5875,0,0.000885,0,0
0:1:42.013,169.851,21.6289,0,0.000885,0,0
0:1:42.112,169.851,21.6289,0,0.000885,0,0
0:1:42.210,170.38,21.6909,0,0.000885,0,0
0:1:42.307,170.496,21.7116,0,0.000885,0,0
0:1:42.409,170.847,21.753,0,0.000885,0,0
0:1:42.509,170.847,21.753,0,0.000885,0,0
0:1:42.610,170.967,21.7667,0,0.000885,0,0
0:1:42.709,171.377,21.8219,0,0.000885,0,0
0:1:42.808,171.492,21.8357,0,0.000885,0,0
0:1:42.907,171.492,21.8357,0,0.000885,0,0
0:1:43.009,171.728,21.8633,0,0.000885,0,0
0:1:43.109,171.906,21.8909,0,0.000885,0,0
0:1:43.207,172.022,21.9046,0,0.000885,0,0
0:1:43.314,172.022,21.9046,0,0.000885,0,0
0:1:43.414,172.845,22.0081,0,0.000885,0,0
0:1:43.515,173.254,22.0563,0,0.000885,0,0
0:1:43.616,173.547,22.0977,0,0.000885,0,0
0:1:43.718,173.547,22.0977,0,0.000885,0,0
0:1:43.818,173.841,22.1322,0,0.000885,0,0
0:1:43.921,173.721,22.1184,0,0.000885,0,0
0:1:44.021,174.135,22.1735,0,0.000885,0,0
0:1:44.123,174.135,22.1735,0,0.000885,0,0
0:1:44.224,174.308,22.1942,0,0.000885,0,0
0:1:44.324,174.428,22.208,0,0.000885,0,0
0:1:44.426,174.602,22.2287,0,0.000885,0,0
0:1:44.526,174.602,22.2287,0,0.000885,0,0
0:1:44.627,175.131,22.2976,0,0.000885,0,0
0:1:44.727,175.482,22.3459,0,0.000885,0,0
0:1:44.828,175.66,22.3666,0,0.000885,0,0
0:1:44.929,175.66,22.3666,0,0.000885,0,0
0:1:45.030,175.718,22.3735,0,0.000885,0,0
0:1:45.132,176.185,22.4355,0,0.000885,0,0
0:1:45.232,176.599,22.4838,0,0.000885,0,0
0:1:45.328,176.599,22.4838,0,0.000885,0,0
0:1:45.427,176.95,22.5321,0,0.000885,0,0
0:1:45.529,176.83,22.5183,0,0.000885,0,0
0:1:45.628,176.83,22.5183,0,0.000885,0,0
0:1:45.728,177.302,22.5734,0,0.000885,0,0
0:1:45.825,177.653,22.6217,0,0.000885,0,0
0:1:45.925,177.653,22.6217,0,0.000885,0,0
0:1:46.025,177.653,22.6217,0,0.000885,0,0
0:1:46.127,177.889,22.6493,0,0.000885,0,0
0:1:46.227,177.889,22.6493,0,0.000885,0,0
0:1:46.323,178.472,22.7251,0,0.000885,0,0
0:1:46.421,178.472,22.7251,0,0.000885,0,0
0:1:46.522,178.649,22.7458,0,0.000885,0,0
0:1:46.623,178.827,22.7665,0,0.000885,0,0
0:1:46.724,179.059,22.801,0,0.000885,0,0
0:1:46.821,179.059,22.801,0,0.000885,0,0
0:1:46.918,179.704,22.8837,0,0.000885,0,0
0:1:47.020,180.117,22.932,0,0.000885,0,0
0:1:47.121,180.117,22.932,0,0.000885,0,0
0:1:47.222,179.646,22.8699,0,0.000885,0,0
0:1:47.320,179.939,22.9113,0,0.000885,0,0
0:1:47.417,180.469,22.9802,0,0.000885,0,0
0:1:47.516,180.469,22.9802,0,0.000885,0,0
0:1:47.618,181.056,23.0492,0,0.000885,0,0
0:1:47.718,181.114,23.063,0,0.000885,0,0
0:1:47.817,181.35,23.0905,0,0.000885,0,0
0:1:47.914,181.35,23.0905,0,0.000885,0,0
0:1:48.014,181.35,23.0905,0,0.000885,0,0
0:1:48.113,182.11,23.1871,0,0.000885,0,0
0:1:48.215,182.404,23.2215,0,0.000885,0,0
0:1:48.315,182.404,23.2215,0,0.000885,0,0
0:1:48.417,182.519,23.2422,0,0.000885,0,0
0:1:48.519,182.755,23.2698,0,0.000885,0,0
0:1:48.621,183.164,23.3181,0,0.000885,0,0
0:1:48.722,183.164,23.3181,0,0.000885,0,0
0:1:48.823,183.458,23.3594,0,0.000885,0,0
0:1:48.925,183.694,23.387,0,0.000885,0,0
0:1:49.027,184.223,23.456,0,0.000885,0,0
0:1:49.127,184.223,23.456,0,0.000885,0,0
0:1:49.228,184.161,23.4491,0,0.000885,0,0
0:1:49.328,184.103,23.4422,0,0.000885,0,0
0:1:49.429,184.397,23.4766,0,0.000885,0,0
0:1:49.529,184.397,23.4766,0,0.000885,0,0
0:1:49.631,184.926,23.5456,0,0.000885,0,0
0:1:49.731,185.335,23.6008,0,0.000885,0,0
0:1:49.832,185.393,23.6076,0,0.000885,0,0
0:1:49.929,185.393,23.6076,0,0.000885,0,0
0:1:50.027,185.629,23.6352,0,0.000885,0,0
0:1:50.129,185.922,23.6697,0,0.000885,0,0
0:1:50.228,185.922,23.6697,0,0.000885,0,0
0:1:50.330,186.216,23.7111,0,0.000885,0,0
0:1:50.429,186.452,23.7386,0,0.000885,0,0
0:1:50.526,186.861,23.7938,0,0.000885,0,0
0:1:50.626,186.861,23.7938,0,0.000885,0,0
0:1:50.727,187.154,23.8283,0,0.000885,0,0
0:1:50.828,187.328,23.849,0,0.000885,0,0
0:1:50.925,187.622,23.8903,0,0.000885,0,0
0:1:51.022,187.622,23.8903,0,0.000885,0,0
0:1:51.122,188.093,23.9455,0,0.000885,0,0
0:1:51.223,187.799,23.911,0,0.000885,0,0
0:1:51.324,188.267,23.9731,0,0.000885,0,0
0:1:51.422,188.267,23.9731,0,0.000885,0,0
0:1:51.520,188.387,23.9869,0,0.000885,0,0
0:1:51.620,188.912,24.0558,0,0.000885,0,0
0:1:51.722,188.912,24.0558,0,0.000885,0,0
0:1:51.822,189.205,24.0903,0,0.000885,0,0
0:1:51.921,189.267,24.0972,0,0.000885,0,0
0:1:52.017,189.677,24.1523,0,0.000885,0,0
0:1:52.117,189.677,24.1523,0,0.000885,0,0
0:1:52.218,190.144,24.2075,0,0.000885,0,0
0:1:52.320,190.322,24.2351,0,0.000885,0,0
0:1:52.419,190.264,24.2282,0,0.000885,0,0
0:1:52.517,190.264,24.2282,0,0.000885,0,0
0:1:52.616,190.495,24.2558,0,0.000885,0,0
0:1:52.716,190.673,24.2764,0,0.000885,0,0
0:1:52.817,190.846,24.2971,0,0.000885,0,0
0:1:52.916,190.846,24.2971,0,0.000885,0,0
0:1:53.013,191.14,24.3385,0,0.000885,0,0
0:1:53.112,191.905,24.435,0,0.000885,0,0
0:1:53.211,191.905,24.435,0,0.000885,0,0
0:1:53.312,191.905,24.435,0,0.000885,0,0
0:1:53.413,192.141,24.4626,0,0.000885,0,0
0:1:53.515,192.257,24.4764,0,0.000885,0,0
0:1:53.616,192.257,24.4764,0,0.000885,0,0
0:1:53.717,192.257,24.4764,0,0.000885,0,0
0:1:53.818,192.141,24.4626,0,0.000885,0,0
0:1:53.920,192.786,24.5453,0,0.000885,0,0
0:1:54.020,192.786,24.5453,0,0.000885,0,0
0:1:54.121,193.137,24.5936,0,0.000885,0,0
0:1:54.221,193.547,24.6419,0,0.000885,0,0
0:1:54.322,193.898,24.6901,0,0.000885,0,0
0:1:54.423,193.898,24.6901,0,0.000885,0,0
0:1:54.521,194.543,24.7729,0,0.000885,0,0
0:1:54.621,194.663,24.7867,0,0.000885,0,0
0:1:54.722,195.014,24.828,0,0.000885,0,0
0:1:54.822,195.014,24.828,0,0.000885,0,0
0:1:54.923,195.308,24.8694,0,0.000885,0,0
0:1:55.021,195.597,24.9039,0,0.000885,0,0
0:1:55.117,195.659,24.9108,0,0.000885,0,0
0:1:55.215,195.659,24.9108,0,0.000885,0,0
0:1:55.316,196.011,24.959,0,0.000885,0,0
0:1:55.417,195.953,24.9521,0,0.000885,0,0
0:1:55.516,196.127,24.9728,0,0.000885,0,0
0:1:55.612,196.127,24.9728,0,0.000885,0,0
0:1:55.709,196.42,25.0073,0,0.000885,0,0
0:1:55.811,196.714,25.0487,0,0.000885,0,0
0:1:55.911,196.714,25.0487,0,0.000885,0,0
0:1:56.010,197.243,25.1107,0,0.000885,0,0
0:1:56.107,197.359,25.1314,0,0.000885,0,0
0:1:56.214,197.888,25.1934,0,0.000885,0,0
0:1:56.313,197.888,25.1934,0,0.000885,0,0
0:1:56.414,198.297,25.2486,0,0.000885,0,0
0:1:56.512,198.533,25.2762,0,0.000885,0,0
0:1:56.611,198.591,25.2831,0,0.000885,0,0
0:1:56.708,198.591,25.2831,0,0.000885,0,0
0:1:56.809,198.707,25.2969,0,0.000885,0,0
0:1:56.909,198.942,25.3313,0,0.000885,0,0
0:1:57.009,199.351,25.3796,0,0.000885,0,0
0:1:57.114,199.351,25.3796,0,0.000885,0,0
0:1:57.212,199.703,25.4279,0,0.000885,0,0
0:1:57.312,199.996,25.4623,0,0.000885,0,0
0:1:57.413,200.059,25.4692,0,0.000885,0,0
0:1:57.512,200.059,25.4692,0,0.000885,0,0
0:1:57.611,200.468,25.5244,0,0.000885,0,0
0:1:57.707,200.641,25.5451,0,0.000885,0,0
0:1:57.807,200.641,25.5451,0,0.000885,0,0
0:1:57.908,200.997,25.5933,0,0.000885,0,0
0:1:58.008,201.522,25.6554,0,0.000885,0,0
0:1:58.103,201.931,25.7105,0,0.000885,0,0
0:1:58.200,201.931,25.7105,0,0.000885,0,0
0:1:58.298,202.167,25.7381,0,0.000885,0,0
0:1:58.398,201.874,25.7037,0,0.000885,0,0
0:1:58.499,202.461,25.7795,0,0.000885,0,0
0:1:58.599,202.461,25.7795,0,0.000885,0,0
0:1:58.700,202.519,25.7864,0,0.000885,0,0
0:1:58.801,202.639,25.8002,0,0.000885,0,0
0:1:58.901,203.106,25.8622,0,0.000885,0,0
0:1:59.001,203.106,25.8622,0,0.000885,0,0
0:1:59.103,203.457,25.9036,0,0.000885,0,0
0:1:59.203,203.751,25.945,0,0.000885,0,0
0:1:59.303,203.929,25.9657,0,0.000885,0,0
0:1:59.403,203.929,25.9657,0,0.000885,0,0
0:1:59.504,204.164,25.9932,0,0.000885,0,0
0:1:59.602,204.044,25.9794,0,0.000885,0,0
0:1:59.703,204.338,26.0139,0,0.000885,0,0
0:1:59.803,204.338,26.0139,0,0.000885,0,0
0:1:59.903,204.164,25.9932,0,0.000885,0,0
0:2:0.004,204.28,26.007,0,0.000885,0,0
0:2:0.103,204.28,26.007,0,0.000885,0,0
0:2:0.211,204.925,26.0898,0,0.000885,0,0
0:2:0.309,205.041,26.1036,0,0.000885,0,0
0:2:0.410,205.454,26.1587,0,0.000885,0,0
0:2:0.510,205.454,26.1587,0,0.000885,0,0
0:2:0.609,205.454,26.1587,0,0.000885,0,0
0:2:0.716,206.157,26.2483,0,0.000885,0,0
0:2:0.813,206.273,26.2621,0,0.000885,0,0
0:2:0.913,206.273,26.2621,0,0.000885,0,0
0:2:1.013,206.744,26.3242,0,0.000885,0,0
0:2:1.114,206.802,26.3311,0,0.000885,0,0
0:2:1.211,206.976,26.3518,0,0.000885,0,0
0:2:1.307,206.976,26.3518,0,0.000885,0,0
0:2:1.405,207.447,26.4138,0,0.000885,0,0
0:2:1.508,207.799,26.4552,0,0.000885,0,0
0:2:1.608,207.799,26.4552,0,0.000885,0,0
0:2:1.702,207.799,26.4552,0,0.000885,0,0
0:2:1.800,208.034,26.4897,0,0.000885,0,0
0:2:1.899,208.208,26.5103,0,0.000885,0,0
0:2:1.999,208.208,26.5103,0,0.000885,0,0
0:2:2.100,208.795,26.5862,0,0.000885,0,0
0:2:2.198,208.915,26.6,0,0.000885,0,0
0:2:2.305,208.795,26.5862,0,0.000885,0,0
0:2:2.401,208.795,26.5862,0,0.000885,0,0
0:2:2.503,209.382,26.662,0,0.000885,0,0
0:2:2.603,209.849,26.7172,0,0.000885,0,0
0:2:2.701,209.791,26.7103,0,0.000885,0,0
0:2:2.810,209.791,26.7103,0,0.000885,0,0
0:2:2.908,210.143,26.7586,0,0.000885,0,0
0:2:3.009,210.557,26.8068,0,0.000885,0,0
0:2:3.109,210.73,26.8344,0,0.000885,0,0
0:2:3.210,210.73,26.8344,0,0.000885,0,0
0:2:3.310,210.788,26.8413,0,0.000885,0,0
0:2:3.413,210.788,26.8413,0,0.000885,0,0
0:2:3.513,211.081,26.8758,0,0.000885,0,0
0:2:3.614,211.081,26.8758,0,0.000885,0,0
0:2:3.715,211.553,26.9378,0,0.000885,0,0
0:2:3.815,211.847,26.9723,0,0.000885,0,0
0:2:3.916,212.492,27.055,0,0.000885,0,0
0:2:4.016,212.492,27.055,0,0.000885,0,0
0:2:4.115,211.847,26.9723,0,0.000885,0,0
0:2:4.215,212.549,27.0619,0,0.000885,0,0
0:2:4.315,212.371,27.0412,0,0.000885,0,0
0:2:4.415,212.371,27.0412,0,0.000885,0,0
0:2:4.515,212.607,27.0688,0,0.000885,0,0
0:2:4.616,212.727,27.0826,0,0.000885,0,0
0:2:4.716,212.901,27.1102,0,0.000885,0,0
0:2:4.812,212.901,27.1102,0,0.000885,0,0
0:2:4.909,213.252,27.1516,0,0.000885,0,0
0:2:5.009,213.546,27.1929,0,0.000885,0,0
0:2:5.109,213.546,27.1929,0,0.000885,0,0
0:2:5.210,213.666,27.2067,0,0.000885,0,0
0:2:5.305,214.017,27.2481,0,0.000885,0,0
0:2:5.413,214.017,27.2481,0,0.000885,0,0
0:2:5.512,214.017,27.2481,0,0.000885,0,0
0:2:5.611,213.897,27.2343,0,0.000885,0,0
0:2:5.712,214.133,27.2619,0,0.000885,0,0
0:2:5.810,214.017,27.2481,0,0.000885,0,0
0:2:5.915,214.017,27.2481,0,0.000885,0,0
0:2:6.014,214.191,27.2688,0,0.000885,0,0
0:2:6.114,214.249,27.2826,0,0.000885,0,0
0:2:6.215,214.369,27.2963,0,0.000885,0,0
0:2:6.315,214.369,27.2963,0,0.000885,0,0
0:2:6.412,214.542,27.317,0,0.000885,0,0
0:2:6.510,214.484,27.3101,0,0.000885,0,0
0:2:6.608,214.427,27.3032,0,0.000885,0,0
0:2:6.709,214.427,27.3032,0,0.000885,0,0
0:2:6.808,214.311,27.2894,0,0.000885,0,0
0:2:6.902,214.075,27.255,0,0.000885,0,0
0:2:6.998,214.075,27.255,0,0.000885,0,0
0:2:7.098,214.133,27.2619,0,0.000885,0,0
0:2:7.200,214.249,27.2826,0,0.000885,0,0
0:2:7.299,214.133,27.2619,0,0.000885,0,0
0:2:7.397,214.133,27.2619,0,0.000885,0,0
0:2:7.493,214.191,27.2688,0,0.000885,0,0
0:2:7.591,214.133,27.2619,0,0.000885,0,0
0:2:7.692,214.075,27.255,0,0.000885,0,0
0:2:7.792,214.075,27.255,0,0.000885,0,0
0:2:7.899,213.604,27.1998,0,0.000885,0,0
0:2:7.995,213.137,27.1378,0,0.000885,0,0
0:2:8.094,212.843,27.1033,0,0.000885,0,0
0:2:8.193,212.843,27.1033,0,0.000885,0,0
0:2:8.294,212.198,27.0206,0,0.000885,0,0
0:2:8.394,211.669,26.9516,0,0.000885,0,0
0:2:8.495,211.669,26.9516,0,0.000885,0,0
0:2:8.596,210.908,26.8551,0,0.000885,0,0
0:2:8.696,209.791,26.7103,0,0.000885,0,0
0:2:8.796,209.089,26.6207,0,0.000885,0,0
0:2:8.896,209.089,26.6207,0,0.000885,0,0
0:2:8.996,207.914,26.4759,0,0.000885,0,0
0:2:9.096,206.744,26.3242,0,0.000885,0,0
0:2:9.196,205.392,26.1518,0,0.000885,0,0
0:2:9.295,205.392,26.1518,0,0.000885,0,0
0:2:9.395,203.871,25.9588,0,0.000885,0,0
0:2:9.495,202.167,25.7381,0,0.000885,0,0
0:2:9.595,200.232,25.4968,0,0.000885,0,0
0:2:9.695,200.232,25.4968,0,0.000885,0,0
0:2:9.795,198.062,25.221,0,0.000885,0,0
0:2:9.894,195.891,24.9452,0,0.000885,0,0
0:2:9.999,193.956,24.697,0,0.000885,0,0
0:2:10.108,193.956,24.697,0,0.000885,0,0
0:2:10.209,192.199,24.4695,0,0.000885,0,0
0:2:10.310,189.619,24.1454,0,0.000885,0,0
0:2:10.410,187.328,23.849,0,0.000885,0,0
0:2:10.506,187.328,23.849,0,0.000885,0,0
0:2:10.615,185.277,23.587,0,0.000885,0,0
0:2:10.716,183.107,23.3112,0,0.000885,0,0
0:2:10.818,180.7,23.0078,0,0.000885,0,0
0:2:10.917,180.7,23.0078,0,0.000885,0,0
0:2:11.013,178.414,22.7182,0,0.000885,0,0
0:2:11.111,175.834,22.3873,0,0.000885,0,0
0:2:11.212,173.547,22.0977,0,0.000885,0,0
0:2:11.313,173.547,22.0977,0,0.000885,0,0
0:2:11.414,171.141,21.7874,0,0.000885,0,0
0:2:11.511,168.619,21.4703,0,0.000885,0,0
0:2:11.609,168.619,21.4703,0,0.000885,0,0
0:2:11.709,165.981,21.1324,0,0.000885,0,0
0:2:11.810,163.281,20.7877,0,0.000885,0,0
0:2:11.910,160.821,20.4774,0,0.000885,0,0
0:2:12.006,160.821,20.4774,0,0.000885,0,0
0:2:12.103,157.77,20.0913,0,0.000885,0,0
0:2:12.203,154.602,19.6845,0,0.000885,0,0
0:2:12.302,151.844,19.3329,0,0.000885,0,0
0:2:12.403,151.844,19.3329,0,0.000885,0,0
0:2:12.416,151.844,19.3329,0,0.000885,0,0