File: DataFile2021-07-25_065159.csv
Test ID:,Date Tested:,Time:,Test Type:,Diameter Avg. (mm):,Cyl. Corr. Factor:,Height (mm):,Age (days):,Weight (kN):,Break Type:,Ramp Rate (MPa/s):,Load at Break (kN):,Stress at Break (MPa):
12,7/25/2021,06:51,Cylinder,100,1,200,0,3.5,3,0.33,275.6,35.09
Sample Time,Load (kN),Stress (MPa),Long. Strain,Trans. Strain,Chan1 Deflection (mm),Chan2 Deflection (mm)
0:0:11.533,5.57362,0.71016,0,0.000885,0,0
0:0:11.632,7.15719,0.910108,0,0.000885,0,0
0:0:11.731,7.15719,0.910108,0,0.000885,0,0
0:0:11.830,8.91424,1.13763,0,0.000885,0,0
0:0:11.931,9.73716,1.24106,0,0.000885,0,0
0:0:12.029,9.96846,1.26864,0,0.000885,0,0
0:0:12.127,9.96846,1.26864,0,0.000885,0,0
0:0:12.227,10.3243,1.3169,0,0.000885,0,0
0:0:12.328,10.2042,1.29621,0,0.000885,0,0
0:0:12.428,9.96846,1.26864,0,0.000885,0,0
0:0:12.526,9.96846,1.26864,0,0.000885,0,0
0:0:12.624,9.85281,1.25485,0,0.000885,0,0
0:0:12.724,9.73716,1.24106,0,0.000885,0,0
0:0:12.825,9.79498,1.24795,0,0.000885,0,0
0:0:12.924,9.79498,1.24795,0,0.000885,0,0
0:0:13.021,9.73716,1.24106,0,0.000885,0,0
0:0:13.119,9.91064,1.26174,0,0.000885,0,0
0:0:13.219,9.91064,1.26174,0,0.000885,0,0
0:0:13.320,10.3821,1.32379,0,0.000885,0,0
0:0:13.420,9.73716,1.24106,0,0.000885,0,0
0:0:13.519,10.0886,1.28242,0,0.000885,0,0
0:0:13.616,10.0886,1.28242,0,0.000885,0,0
0:0:13.715,10.1464,1.28932,0,0.000885,0,0
0:0:13.816,10.1464,1.28932,0,0.000885,0,0
0:0:13.917,10.3243,1.3169,0,0.000885,0,0
0:0:14.013,10.3243,1.3169,0,0.000885,0,0
0:0:14.110,10.6179,1.35137,0,0.000885,0,0
0:0:14.210,10.8492,1.37895,0,0.000885,0,0
0:0:14.311,11.3786,1.4479,0,0.000885,0,0
0:0:14.412,11.3786,1.4479,0,0.000885,0,0
0:0:14.512,11.9657,1.52374,0,0.000885,0,0
0:0:14.608,12.375,1.5789,0,0.000885,0,0
0:0:14.708,13.6649,1.73748,0,0.000885,0,0
0:0:14.809,13.6649,1.73748,0,0.000885,0,0
0:0:14.910,14.0742,1.79264,0,0.000885,0,0
0:0:15.009,14.4879,1.84779,0,0.000885,0,0
0:0:15.105,14.4879,1.84779,0,0.000885,0,0
0:0:15.203,14.0163,1.78574,0,0.000885,0,0
0:0:15.305,14.4879,1.84779,0,0.000885,0,0
0:0:15.405,15.3063,1.95122,0,0.000885,0,0
0:0:15.505,15.3063,1.95122,0,0.000885,0,0
0:0:15.603,15.5999,1.98569,0,0.000885,0,0
0:0:15.701,15.72,1.99948,0,0.000885,0,0
0:0:15.803,16.4807,2.09601,0,0.000885,0,0
0:0:15.903,16.4807,2.09601,0,0.000885,0,0
0:0:16.002,17.01,2.16495,0,0.000885,0,0
0:0:16.100,17.2413,2.19253,0,0.000885,0,0
0:0:16.198,17.655,2.24769,0,0.000885,0,0
0:0:16.299,17.655,2.24769,0,0.000885,0,0
0:0:16.400,17.9486,2.28216,0,0.000885,0,0
0:0:16.500,18.1799,2.31664,0,0.000885,0,0
0:0:16.598,18.6514,2.3718,0,0.000885,0,0
0:0:16.696,18.6514,2.3718,0,0.000885,0,0
0:0:16.797,18.8871,2.40627,0,0.000885,0,0
0:0:16.898,19.3542,2.46143,0,0.000885,0,0
0:0:16.999,19.3542,2.46143,0,0.000885,0,0
0:0:17.100,19.9414,2.53727,0,0.000885,0,0
0:0:17.202,20.8221,2.64759,0,0.000885,0,0
0:0:17.304,21.1157,2.68896,0,0.000885,0,0
0:0:17.405,21.1157,2.68896,0,0.000885,0,0
0:0:17.506,21.5828,2.75101,0,0.000885,0,0
0:0:17.608,21.5828,2.75101,0,0.000885,0,0
0:0:17.708,22.1121,2.81306,0,0.000885,0,0
0:0:17.809,22.1121,2.81306,0,0.000885,0,0
0:0:17.910,22.2856,2.84064,0,0.000885,0,0
0:0:18.011,22.9306,2.91648,0,0.000885,0,0
0:0:18.111,23.2242,2.95785,0,0.000885,0,0
0:0:18.213,23.2242,2.95785,0,0.000885,0,0
0:0:18.314,23.7535,3.0268,0,0.000885,0,0
0:0:18.416,23.8692,3.04059,0,0.000885,0,0
0:0:18.516,24.2206,3.08196,0,0.000885,0,0
0:0:18.616,24.2206,3.08196,0,0.000885,0,0
0:0:18.712,24.6921,3.14401,0,0.000885,0,0
0:0:18.813,25.1591,3.20606,0,0.000885,0,0
0:0:18.915,25.2214,3.21296,0,0.000885,0,0
0:0:19.016,25.2214,3.21296,0,0.000885,0,0
0:0:19.114,25.8664,3.29569,0,0.000885,0,0
0:0:19.212,26.3335,3.35085,0,0.000885,0,0
0:0:19.311,26.6271,3.39222,0,0.000885,0,0
0:0:19.411,26.6271,3.39222,0,0.000885,0,0
0:0:19.512,27.0986,3.44738,0,0.000885,0,0
0:0:19.611,27.5656,3.50943,0,0.000885,0,0
0:0:19.709,27.5656,3.50943,0,0.000885,0,0
0:0:19.809,28.3886,3.61285,0,0.000885,0,0
0:0:19.910,28.8556,3.67491,0,0.000885,0,0
0:0:20.011,29.0335,3.69559,0,0.000885,0,0
0:0:20.110,29.0335,3.69559,0,0.000885,0,0
0:0:20.208,29.7364,3.78522,0,0.000885,0,0
0:0:20.306,30.2034,3.84727,0,0.000885,0,0
0:0:20.407,30.2034,3.84727,0,0.000885,0,0
0:0:20.508,30.2034,3.84727,0,0.000885,0,0
0:0:20.607,30.9685,3.9438,0,0.000885,0,0
0:0:20.705,31.2621,3.97827,0,0.000885,0,0
0:0:20.804,31.4356,4.00585,0,0.000885,0,0
0:0:20.904,31.4356,4.00585,0,0.000885,0,0
0:0:21.006,32.0227,4.0748,0,0.000885,0,0
0:0:21.107,32.3163,4.11617,0,0.000885,0,0
0:0:21.204,32.4943,4.13685,0,0.000885,0,0
0:0:21.301,32.4943,4.13685,0,0.000885,0,0
0:0:21.401,32.7256,4.16443,0,0.000885,0,0
0:0:21.502,33.077,4.2127,0,0.000885,0,0
0:0:21.603,33.077,4.2127,0,0.000885,0,0
0:0:21.701,33.1971,4.22649,0,0.000885,0,0
0:0:21.799,33.722,4.29543,0,0.000885,0,0
0:0:21.899,34.1357,4.3437,0,0.000885,0,0
0:0:22.001,34.1357,4.3437,0,0.000885,0,0
0:0:22.101,34.3091,4.37128,0,0.000885,0,0
0:0:22.203,34.7806,4.42643,0,0.000885,0,0
0:0:22.304,35.0164,4.46091,0,0.000885,0,0
0:0:22.407,35.0164,4.46091,0,0.000885,0,0
0:0:22.508,35.1321,4.4747,0,0.000885,0,0
0:0:22.611,35.777,4.55743,0,0.000885,0,0
0:0:22.712,36.1285,4.5988,0,0.000885,0,0
0:0:22.812,36.1285,4.5988,0,0.000885,0,0
0:0:22.912,35.8349,4.56433,0,0.000885,0,0
0:0:23.013,36.5377,4.65396,0,0.000885,0,0
0:0:23.114,37.245,4.74359,0,0.000885,0,0
0:0:23.215,37.245,4.74359,0,0.000885,0,0
0:0:23.315,37.4184,4.76428,0,0.000885,0,0
0:0:23.416,38.0634,4.84701,0,0.000885,0,0
0:0:23.517,38.0634,4.84701,0,0.000885,0,0
0:0:23.618,38.0634,4.84701,0,0.000885,0,0
0:0:23.718,38.5349,4.90907,0,0.000885,0,0
0:0:23.816,39.1177,4.97801,0,0.000885,0,0
0:0:23.913,39.4112,5.01938,0,0.000885,0,0
0:0:24.014,39.4112,5.01938,0,0.000885,0,0
0:0:24.114,39.8828,5.07454,0,0.000885,0,0
0:0:24.216,40.292,5.1297,0,0.000885,0,0
0:0:24.314,40.3498,5.13659,0,0.000885,0,0
0:0:24.411,40.3498,5.13659,0,0.000885,0,0
0:0:24.512,40.8792,5.20554,0,0.000885,0,0
0:0:24.613,41.3507,5.26759,0,0.000885,0,0
0:0:24.713,41.3507,5.26759,0,0.000885,0,0
0:0:24.812,41.4663,5.28138,0,0.000885,0,0
0:0:24.909,41.9957,5.34344,0,0.000885,0,0
0:0:25.009,42.5784,5.41928,0,0.000885,0,0
0:0:25.111,42.5784,5.41928,0,0.000885,0,0
0:0:25.211,42.872,5.46065,0,0.000885,0,0
0:0:25.311,43.4591,5.53649,0,0.000885,0,0
0:0:25.409,43.7527,5.57096,0,0.000885,0,0
0:0:25.509,43.7527,5.57096,0,0.000885,0,0
0:0:25.610,44.1041,5.61233,0,0.000885,0,0
0:0:25.711,44.2242,5.63302,0,0.000885,0,0
0:0:25.809,44.6913,5.68817,0,0.000885,0,0
0:0:25.906,44.6913,5.68817,0,0.000885,0,0
0:0:26.005,44.9849,5.72954,0,0.000885,0,0
0:0:26.107,45.572,5.80539,0,0.000885,0,0
0:0:26.208,45.8656,5.83986,0,0.000885,0,0
0:0:26.308,45.8656,5.83986,0,0.000885,0,0
0:0:26.406,46.5106,5.9226,0,0.000885,0,0
0:0:26.503,46.5106,5.9226,0,0.000885,0,0
0:0:26.603,46.5106,5.9226,0,0.000885,0,0
0:0:26.705,46.8042,5.95707,0,0.000885,0,0
0:0:26.805,46.9777,5.98465,0,0.000885,0,0
0:0:26.907,47.507,6.0467,0,0.000885,0,0
0:0:27.009,47.507,6.0467,0,0.000885,0,0
0:0:27.111,47.7428,6.08118,0,0.000885,0,0
0:0:27.212,48.3878,6.16391,0,0.000885,0,0
0:0:27.314,48.8548,6.21907,0,0.000885,0,0
0:0:27.414,48.8548,6.21907,0,0.000885,0,0
0:0:27.515,48.9749,6.23286,0,0.000885,0,0
0:0:27.617,49.4998,6.30181,0,0.000885,0,0
0:0:27.718,49.9713,6.36386,0,0.000885,0,0
0:0:27.818,49.9713,6.36386,0,0.000885,0,0
0:0:27.920,50.0291,6.37076,0,0.000885,0,0
0:0:28.021,50.2026,6.39144,0,0.000885,0,0
0:0:28.122,50.4384,6.41902,0,0.000885,0,0
0:0:28.222,50.4384,6.41902,0,0.000885,0,0
0:0:28.322,50.6741,6.45349,0,0.000885,0,0
0:0:28.421,51.4348,6.55002,0,0.000885,0,0
0:0:28.519,52.3155,6.66034,0,0.000885,0,0
0:0:28.619,52.3155,6.66034,0,0.000885,0,0
0:0:28.721,52.6091,6.7017,0,0.000885,0,0
0:0:28.821,53.1963,6.77065,0,0.000885,0,0
0:0:28.920,53.3698,6.79823,0,0.000885,0,0
0:0:29.016,53.3698,6.79823,0,0.000885,0,0
0:0:29.116,53.7834,6.84649,0,0.000885,0,0
0:0:29.217,54.2505,6.90855,0,0.000885,0,0
0:0:29.319,54.4284,6.92923,0,0.000885,0,0
0:0:29.417,54.4284,6.92923,0,0.000885,0,0
0:0:29.516,54.7798,6.97749,0,0.000885,0,0
0:0:29.614,55.1891,7.02576,0,0.000885,0,0
0:0:29.716,55.1891,7.02576,0,0.000885,0,0
0:0:29.816,55.7184,7.09471,0,0.000885,0,0
0:0:29.916,55.7184,7.09471,0,0.000885,0,0
0:0:30.013,56.1277,7.14986,0,0.000885,0,0
0:0:30.112,56.1277,7.14986,0,0.000885,0,0
0:0:30.212,56.5369,7.19813,0,0.000885,0,0
0:0:30.314,56.7727,7.22571,0,0.000885,0,0
0:0:30.414,57.7112,7.34981,0,0.000885,0,0
0:0:30.511,57.7112,7.34981,0,0.000885,0,0
0:0:30.609,58.1205,7.39807,0,0.000885,0,0
0:0:30.711,58.3562,7.43255,0,0.000885,0,0
0:0:30.812,58.3562,7.43255,0,0.000885,0,0
0:0:30.911,58.3562,7.43255,0,0.000885,0,0
0:0:31.009,58.592,7.46013,0,0.000885,0,0
0:0:31.106,59.059,7.52218,0,0.000885,0,0
0:0:31.207,59.4149,7.56355,0,0.000885,0,0
0:0:31.308,59.4149,7.56355,0,0.000885,0,0
0:0:31.409,60.1177,7.65318,0,0.000885,0,0
0:0:31.507,60.527,7.70834,0,0.000885,0,0
0:0:31.605,60.527,7.70834,0,0.000885,0,0
0:0:31.705,60.8205,7.74281,0,0.000885,0,0
0:0:31.807,61.2298,7.79797,0,0.000885,0,0
0:0:31.908,61.7013,7.85313,0,0.000885,0,0
0:0:32.009,61.7013,7.85313,0,0.000885,0,0
0:0:32.110,62.1105,7.90829,0,0.000885,0,0
0:0:32.213,62.9913,8.0186,0,0.000885,0,0
0:0:32.314,62.9334,8.01171,0,0.000885,0,0
0:0:32.416,62.9334,8.01171,0,0.000885,0,0
0:0:32.517,63.227,8.05308,0,0.000885,0,0
0:0:32.619,63.3427,8.06687,0,0.000885,0,0
0:0:32.719,63.6363,8.10134,0,0.000885,0,0
0:0:32.820,63.6363,8.10134,0,0.000885,0,0
0:0:32.921,63.8097,8.12202,0,0.000885,0,0
0:0:33.022,63.9298,8.14271,0,0.000885,0,0
0:0:33.122,64.4547,8.20476,0,0.000885,0,0
0:0:33.222,64.4547,8.20476,0,0.000885,0,0
0:0:33.323,64.8684,8.25992,0,0.000885,0,0
0:0:33.425,65.2198,8.30129,0,0.000885,0,0
0:0:33.523,65.3933,8.32887,0,0.000885,0,0
0:0:33.620,65.3933,8.32887,0,0.000885,0,0
0:0:33.719,65.6291,8.35645,0,0.000885,0,0
0:0:33.821,66.3319,8.44608,0,0.000885,0,0
0:0:33.921,66.5676,8.47366,0,0.000885,0,0
0:0:34.021,66.5676,8.47366,0,0.000885,0,0
0:0:34.119,66.7456,8.50124,0,0.000885,0,0
0:0:34.217,67.1548,8.5495,0,0.000885,0,0
0:0:34.317,67.8576,8.63913,0,0.000885,0,0
0:0:34.419,67.8576,8.63913,0,0.000885,0,0
0:0:34.519,68.2713,8.69429,0,0.000885,0,0
0:0:34.617,68.7384,8.74945,0,0.000885,0,0
0:0:34.715,68.7384,8.74945,0,0.000885,0,0
0:0:34.815,69.2054,8.8115,0,0.000885,0,0
0:0:34.917,69.499,8.84597,0,0.000885,0,0
0:0:35.017,69.9705,8.90803,0,0.000885,0,0
0:0:35.115,69.9705,8.90803,0,0.000885,0,0
0:0:35.213,70.144,8.92871,0,0.000885,0,0
0:0:35.313,70.9669,9.03903,0,0.000885,0,0
0:0:35.413,71.0826,9.05282,0,0.000885,0,0
0:0:35.514,71.0826,9.05282,0,0.000885,0,0
0:0:35.612,71.6119,9.11487,0,0.000885,0,0
0:0:35.710,72.1991,9.19071,0,0.000885,0,0
0:0:35.809,72.4927,9.23208,0,0.000885,0,0
0:0:35.910,72.4927,9.23208,0,0.000885,0,0
0:0:36.011,72.3726,9.21829,0,0.000885,0,0
0:0:36.111,72.6661,9.25276,0,0.000885,0,0
0:0:36.208,73.3734,9.3424,0,0.000885,0,0
0:0:36.306,73.3734,9.3424,0,0.000885,0,0
0:0:36.408,74.0184,9.42513,0,0.000885,0,0
0:0:36.509,74.4276,9.4734,0,0.000885,0,0
0:0:36.608,74.4276,9.4734,0,0.000885,0,0
0:0:36.705,74.3698,9.4665,0,0.000885,0,0
0:0:36.803,74.4855,9.48719,0,0.000885,0,0
0:0:36.903,74.7791,9.52166,0,0.000885,0,0
0:0:37.005,74.7791,9.52166,0,0.000885,0,0
0:0:37.106,75.424,9.6044,0,0.000885,0,0
0:0:37.207,75.7176,9.63887,0,0.000885,0,0
0:0:37.309,76.247,9.70782,0,0.000885,0,0
0:0:37.411,76.247,9.70782,0,0.000885,0,0
0:0:37.512,76.4204,9.7285,0,0.000885,0,0
0:0:37.614,77.1855,9.82503,0,0.000885,0,0
0:0:37.715,77.5948,9.88019,0,0.000885,0,0
0:0:37.815,77.5948,9.88019,0,0.000885,0,0
0:0:37.917,77.7727,9.90087,0,0.000885,0,0
0:0:38.018,78.0618,9.94224,0,0.000885,0,0
0:0:38.119,78.4177,9.98361,0,0.000885,0,0
0:0:38.220,78.4177,9.98361,0,0.000885,0,0
0:0:38.320,78.8848,10.0457,0,0.000885,0,0
0:0:38.422,79.1205,10.0732,0,0.000885,0,0
0:0:38.523,79.2362,10.087,0,0.000885,0,0
0:0:38.623,79.2362,10.087,0,0.000885,0,0
0:0:38.721,79.8812,10.1698,0,0.000885,0,0
0:0:38.820,80.4683,10.2456,0,0.000885,0,0
0:0:38.920,80.7041,10.2732,0,0.000885,0,0
0:0:39.022,80.7041,10.2732,0,0.000885,0,0
0:0:39.121,81.1133,10.3283,0,0.000885,0,0
0:0:39.221,81.4069,10.3628,0,0.000885,0,0
0:0:39.318,81.9941,10.4387,0,0.000885,0,0
0:0:39.417,81.9941,10.4387,0,0.000885,0,0
0:0:39.518,81.874,10.4249,0,0.000885,0,0
0:0:39.620,82.1097,10.4525,0,0.000885,0,0
0:0:39.717,82.1097,10.4525,0,0.000885,0,0
0:0:39.815,82.5812,10.5145,0,0.000885,0,0
0:0:39.913,83.1061,10.5835,0,0.000885,0,0
0:0:40.015,83.5776,10.6386,0,0.000885,0,0
0:0:40.116,83.5776,10.6386,0,0.000885,0,0
0:0:40.216,84.0447,10.7007,0,0.000885,0,0
0:0:40.314,84.1648,10.7145,0,0.000885,0,0
0:0:40.412,84.6319,10.7765,0,0.000885,0,0
0:0:40.513,84.6319,10.7765,0,0.000885,0,0
0:0:40.613,84.8676,10.8041,0,0.000885,0,0
0:0:40.713,85.219,10.8523,0,0.000885,0,0
0:0:40.811,85.8062,10.9282,0,0.000885,0,0
0:0:40.909,85.8062,10.9282,0,0.000885,0,0
0:0:41.010,86.0998,10.9627,0,0.000885,0,0
0:0:41.112,86.4512,11.004,0,0.000885,0,0
0:0:41.212,86.4512,11.004,0,0.000885,0,0
0:0:41.310,86.509,11.0178,0,0.000885,0,0
0:0:41.408,87.0962,11.0868,0,0.000885,0,0
0:0:41.509,87.9769,11.204,0,0.000885,0,0
0:0:41.610,87.9769,11.204,0,0.000885,0,0
0:0:41.711,88.6797,11.2936,0,0.000885,0,0
0:0:41.812,88.6219,11.2867,0,0.000885,0,0
0:0:41.914,89.2669,11.3626,0,0.000885,0,0
0:0:42.016,89.2669,11.3626,0,0.000885,0,0
0:0:42.118,89.3826,11.3832,0,0.000885,0,0
0:0:42.220,89.9697,11.4522,0,0.000885,0,0
0:0:42.321,90.0854,11.4729,0,0.000885,0,0
0:0:42.421,90.0854,11.4729,0,0.000885,0,0
0:0:42.523,90.6147,11.5349,0,0.000885,0,0
0:0:42.624,91.024,11.5901,0,0.000885,0,0
0:0:42.725,91.3175,11.6246,0,0.000885,0,0
0:0:42.825,91.3175,11.6246,0,0.000885,0,0
0:0:42.927,92.1983,11.7418,0,0.000885,0,0
0:0:43.027,92.1983,11.7418,0,0.000885,0,0
0:0:43.129,92.6698,11.7969,0,0.000885,0,0
0:0:43.230,92.6698,11.7969,0,0.000885,0,0
0:0:43.329,92.7855,11.8107,0,0.000885,0,0
0:0:43.426,92.7276,11.8038,0,0.000885,0,0
0:0:43.525,93.0212,11.8452,0,0.000885,0,0
0:0:43.626,93.0212,11.8452,0,0.000885,0,0
0:0:43.728,93.1369,11.859,0,0.000885,0,0
0:0:43.826,93.9598,11.9624,0,0.000885,0,0
0:0:43.924,94.3112,12.0107,0,0.000885,0,0
0:0:44.022,94.3112,12.0107,0,0.000885,0,0
0:0:44.123,94.6626,12.052,0,0.000885,0,0
0:0:44.223,95.1297,12.1141,0,0.000885,0,0
0:0:44.323,95.1297,12.1141,0,0.000885,0,0
0:0:44.422,95.2498,12.1279,0,0.000885,0,0
0:0:44.521,95.7168,12.1899,0,0.000885,0,0
0:0:44.622,96.1261,12.2382,0,0.000885,0,0
0:0:44.723,96.1261,12.2382,0,0.000885,0,0
0:0:44.823,96.5976,12.3002,0,0.000885,0,0
0:0:44.920,97.0646,12.3623,0,0.000885,0,0
0:0:45.018,97.1269,12.3692,0,0.000885,0,0
0:0:45.119,97.1269,12.3692,0,0.000885,0,0
0:0:45.220,97.9454,12.4726,0,0.000885,0,0
0:0:45.321,98.0032,12.4795,0,0.000885,0,0
0:0:45.419,98.4747,12.5416,0,0.000885,0,0
0:0:45.518,98.4747,12.5416,0,0.000885,0,0
0:0:45.617,98.6482,12.5622,0,0.000885,0,0
0:0:45.719,99.0619,12.6105,0,0.000885,0,0
0:0:45.819,99.529,12.6726,0,0.000885,0,0
0:0:45.917,99.529,12.6726,0,0.000885,0,0
0:0:46.015,99.8804,12.7139,0,0.000885,0,0
0:0:46.113,100.352,12.776,0,0.000885,0,0
0:0:46.214,100.352,12.776,0,0.000885,0,0
0:0:46.315,100.877,12.8449,0,0.000885,0,0
0:0:46.414,101.17,12.8794,0,0.000885,0,0
0:0:46.513,101.642,12.9415,0,0.000885,0,0
0:0:46.613,101.642,12.9415,0,0.000885,0,0
0:0:46.714,101.815,12.9621,0,0.000885,0,0
0:0:46.814,102.171,13.0104,0,0.000885,0,0
0:0:46.915,102.696,13.0725,0,0.000885,0,0
0:0:47.017,102.696,13.0725,0,0.000885,0,0
0:0:47.119,102.874,13.1,0,0.000885,0,0
0:0:47.221,103.519,13.1828,0,0.000885,0,0
0:0:47.322,103.577,13.1897,0,0.000885,0,0
0:0:47.423,103.577,13.1897,0,0.000885,0,0
0:0:47.525,103.87,13.2241,0,0.000885,0,0
0:0:47.626,104.751,13.3345,0,0.000885,0,0
0:0:47.727,104.809,13.3414,0,0.000885,0,0
0:0:47.828,104.809,13.3414,0,0.000885,0,0
0:0:47.927,105.338,13.4103,0,0.000885,0,0
0:0:48.029,105.57,13.4448,0,0.000885,0,0
0:0:48.129,106.099,13.5068,0,0.000885,0,0
0:0:48.230,106.099,13.5068,0,0.000885,0,0
0:0:48.332,106.335,13.5413,0,0.000885,0,0
0:0:48.432,106.86,13.6034,0,0.000885,0,0
0:0:48.530,107.389,13.6723,0,0.000885,0,0
0:0:48.627,107.389,13.6723,0,0.000885,0,0
0:0:48.728,107.798,13.7275,0,0.000885,0,0
0:0:48.829,107.74,13.7206,0,0.000885,0,0
0:0:48.930,108.034,13.755,0,0.000885,0,0
0:0:49.028,108.034,13.755,0,0.000885,0,0
0:0:49.126,108.505,13.8171,0,0.000885,0,0
0:0:49.228,109.208,13.9067,0,0.000885,0,0
0:0:49.327,109.208,13.9067,0,0.000885,0,0
0:0:49.428,109.15,13.8998,0,0.000885,0,0
0:0:49.525,109.266,13.9136,0,0.000885,0,0
0:0:49.623,109.56,13.9481,0,0.000885,0,0
0:0:49.722,109.56,13.9481,0,0.000885,0,0
0:0:49.824,110.147,14.0239,0,0.000885,0,0
0:0:49.924,110.32,14.0446,0,0.000885,0,0
0:0:50.023,110.965,14.1274,0,0.000885,0,0
0:0:50.120,110.965,14.1274,0,0.000885,0,0
0:0:50.220,111.495,14.1963,0,0.000885,0,0
0:0:50.321,111.73,14.2239,0,0.000885,0,0
0:0:50.423,112.255,14.2928,0,0.000885,0,0
0:0:50.521,112.255,14.2928,0,0.000885,0,0
0:0:50.619,112.318,14.2997,0,0.000885,0,0
0:0:50.717,112.607,14.3411,0,0.000885,0,0
0:0:50.818,112.607,14.3411,0,0.000885,0,0
0:0:50.919,113.02,14.3894,0,0.000885,0,0
0:0:51.020,113.545,14.4583,0,0.000885,0,0
0:0:51.118,114.132,14.5341,0,0.000885,0,0
0:0:51.215,114.132,14.5341,0,0.000885,0,0
0:0:51.316,114.604,14.5893,0,0.000885,0,0
0:0:51.418,114.898,14.6307,0,0.000885,0,0
0:0:51.518,115.485,14.7065,0,0.000885,0,0
0:0:51.615,115.485,14.7065,0,0.000885,0,0
0:0:51.713,115.6,14.7203,0,0.000885,0,0
0:0:51.815,116.067,14.7755,0,0.000885,0,0
0:0:51.914,116.303,14.8099,0,0.000885,0,0
0:0:52.015,116.303,14.8099,0,0.000885,0,0
0:0:52.116,116.712,14.8582,0,0.000885,0,0
0:0:52.218,117.126,14.9134,0,0.000885,0,0
0:0:52.320,117.829,15.003,0,0.000885,0,0
0:0:52.422,117.829,15.003,0,0.000885,0,0
0:0:52.523,118.18,15.0444,0,0.000885,0,0
0:0:52.624,118.652,15.1064,0,0.000885,0,0
0:0:52.725,118.59,15.0995,0,0.000885,0,0
0:0:52.826,118.59,15.0995,0,0.000885,0,0
0:0:52.927,119.003,15.1547,0,0.000885,0,0
0:0:53.028,119.355,15.196,0,0.000885,0,0
0:0:53.129,119.528,15.2167,0,0.000885,0,0
0:0:53.230,119.528,15.2167,0,0.000885,0,0
0:0:53.331,120.173,15.2995,0,0.000885,0,0
0:0:53.433,120.702,15.3684,0,0.000885,0,0
0:0:53.533,121.463,15.4649,0,0.000885,0,0
0:0:53.632,121.463,15.4649,0,0.000885,0,0
0:0:53.729,121.405,15.458,0,0.000885,0,0
0:0:53.828,121.641,15.4856,0,0.000885,0,0
0:0:53.929,121.641,15.4856,0,0.000885,0,0
0:0:54.030,122.05,15.5408,0,0.000885,0,0
0:0:54.130,122.873,15.6442,0,0.000885,0,0
0:0:54.228,122.815,15.6373,0,0.000885,0,0
0:0:54.326,122.815,15.6373,0,0.000885,0,0
0:0:54.427,122.873,15.6442,0,0.000885,0,0
0:0:54.527,123.225,15.6925,0,0.000885,0,0
0:0:54.627,123.812,15.7614,0,0.000885,0,0
0:0:54.725,123.812,15.7614,0,0.000885,0,0
0:0:54.823,124.341,15.8304,0,0.000885,0,0
0:0:54.923,124.457,15.8442,0,0.000885,0,0
0:0:55.025,124.986,15.9131,0,0.000885,0,0
0:0:55.125,124.986,15.9131,0,0.000885,0,0
0:0:55.223,125.275,15.9476,0,0.000885,0,0
0:0:55.321,125.338,15.9614,0,0.000885,0,0
0:0:55.423,125.925,16.0303,0,0.000885,0,0
0:0:55.524,125.925,16.0303,0,0.000885,0,0
0:0:55.624,126.45,16.0993,0,0.000885,0,0
0:0:55.720,126.57,16.113,0,0.000885,0,0
0:0:55.818,126.57,16.113,0,0.000885,0,0
0:0:55.919,127.037,16.1751,0,0.000885,0,0
0:0:56.020,127.152,16.1889,0,0.000885,0,0
0:0:56.122,127.446,16.2303,0,0.000885,0,0
0:0:56.219,127.446,16.2303,0,0.000885,0,0
0:0:56.317,128.033,16.2992,0,0.000885,0,0
0:0:56.416,128.033,16.2992,0,0.000885,0,0
0:0:56.517,128.736,16.3888,0,0.000885,0,0
0:0:56.618,128.736,16.3888,0,0.000885,0,0
0:0:56.717,129.15,16.444,0,0.000885,0,0
0:0:56.815,129.381,16.4716,0,0.000885,0,0
0:0:56.913,130.262,16.5888,0,0.000885,0,0
0:0:57.014,130.262,16.5888,0,0.000885,0,0
0:0:57.115,130.262,16.5888,0,0.000885,0,0
0:0:57.216,131.027,16.6853,0,0.000885,0,0
0:0:57.318,131.142,16.6991,0,0.000885,0,0
0:0:57.420,131.142,16.6991,0,0.000885,0,0
0:0:57.522,131.672,16.768,0,0.000885,0,0
0:0:57.623,131.73,16.7749,0,0.000885,0,0
0:0:57.725,132.197,16.8301,0,0.000885,0,0
0:0:57.825,132.197,16.8301,0,0.000885,0,0
0:0:57.927,132.904,16.9197,0,0.000885,0,0
0:0:58.027,133.135,16.9542,0,0.000885,0,0
0:0:58.128,133.487,16.9956,0,0.000885,0,0
0:0:58.229,133.487,16.9956,0,0.000885,0,0
0:0:58.330,133.607,17.0094,0,0.000885,0,0
0:0:58.430,134.074,17.0714,0,0.000885,0,0
0:0:58.532,134.719,17.1542,0,0.000885,0,0
0:0:58.633,134.719,17.1542,0,0.000885,0,0
0:0:58.734,135.484,17.2507,0,0.000885,0,0
0:0:58.832,135.893,17.3058,0,0.000885,0,0
0:0:58.930,135.893,17.3058,0,0.000885,0,0
0:0:59.030,136.129,17.3334,0,0.000885,0,0
0:0:59.131,136.187,17.3403,0,0.000885,0,0
0:0:59.231,136.774,17.4162,0,0.000885,0,0
0:0:59.330,136.774,17.4162,0,0.000885,0,0
0:0:59.428,136.832,17.4231,0,0.000885,0,0
0:0:59.529,137.655,17.5265,0,0.000885,0,0
0:0:59.630,137.712,17.5334,0,0.000885,0,0
0:0:59.730,137.712,17.5334,0,0.000885,0,0
0:0:59.828,138.122,17.5885,0,0.000885,0,0
0:0:59.925,138.473,17.6299,0,0.000885,0,0
0:1:0.025,138.651,17.6506,0,0.000885,0,0
0:1:0.126,138.651,17.6506,0,0.000885,0,0
0:1:0.226,139.238,17.7264,0,0.000885,0,0
0:1:0.325,139.705,17.7885,0,0.000885,0,0
0:1:0.424,139.999,17.8229,0,0.000885,0,0
0:1:0.523,139.999,17.8229,0,0.000885,0,0
0:1:0.625,140.235,17.8574,0,0.000885,0,0
0:1:0.725,140.292,17.8643,0,0.000885,0,0
0:1:0.823,140.292,17.8643,0,0.000885,0,0
0:1:0.921,140.586,17.8988,0,0.000885,0,0
0:1:1.020,141.053,17.9608,0,0.000885,0,0
0:1:1.122,141.582,18.0298,0,0.000885,0,0
0:1:1.221,141.582,18.0298,0,0.000885,0,0
0:1:1.321,142.17,18.0987,0,0.000885,0,0
0:1:1.419,142.112,18.0918,0,0.000885,0,0
0:1:1.518,142.405,18.1332,0,0.000885,0,0
0:1:1.619,142.405,18.1332,0,0.000885,0,0
0:1:1.721,143.166,18.2297,0,0.000885,0,0
0:1:1.821,143.633,18.2849,0,0.000885,0,0
0:1:1.922,143.989,18.3332,0,0.000885,0,0
0:1:2.023,143.989,18.3332,0,0.000885,0,0
0:1:2.126,144.105,18.3469,0,0.000885,0,0
0:1:2.227,144.22,18.3607,0,0.000885,0,0
0:1:2.329,144.634,18.4159,0,0.000885,0,0
0:1:2.429,144.634,18.4159,0,0.000885,0,0
0:1:2.531,145.159,18.4848,0,0.000885,0,0
0:1:2.632,145.395,18.5124,0,0.000885,0,0
0:1:2.733,145.688,18.5469,0,0.000885,0,0
0:1:2.833,145.688,18.5469,0,0.000885,0,0
0:1:2.934,146.097,18.6021,0,0.000885,0,0
0:1:3.036,146.742,18.6848,0,0.000885,0,0
0:1:3.138,147.094,18.7262,0,0.000885,0,0
0:1:3.237,147.094,18.7262,0,0.000885,0,0
0:1:3.338,147.565,18.7882,0,0.000885,0,0
0:1:3.436,147.387,18.7675,0,0.000885,0,0
0:1:3.533,147.975,18.8434,0,0.000885,0,0
0:1:3.633,147.975,18.8434,0,0.000885,0,0
0:1:3.735,148.677,18.933,0,0.000885,0,0
0:1:3.836,148.797,18.9468,0,0.000885,0,0
0:1:3.933,148.797,18.9468,0,0.000885,0,0
0:1:4.030,149.5,19.0364,0,0.000885,0,0
0:1:4.131,149.967,19.0916,0,0.000885,0,0
0:1:4.231,150.203,19.1261,0,0.000885,0,0
0:1:4.331,150.203,19.1261,0,0.000885,0,0
0:1:4.430,150.555,19.1674,0,0.000885,0,0
0:1:4.528,150.906,19.2157,0,0.000885,0,0
0:1:4.627,151.671,19.3122,0,0.000885,0,0
0:1:4.728,151.671,19.3122,0,0.000885,0,0
0:1:4.829,151.907,19.3398,0,0.000885,0,0
0:1:4.929,152.138,19.3743,0,0.000885,0,0
0:1:5.027,152.432,19.4087,0,0.000885,0,0
0:1:5.126,152.432,19.4087,0,0.000885,0,0
0:1:5.226,153.255,19.5122,0,0.000885,0,0
0:1:5.326,153.197,19.5053,0,0.000885,0,0
0:1:5.426,153.37,19.526,0,0.000885,0,0
0:1:5.523,153.37,19.526,0,0.000885,0,0
0:1:5.623,153.606,19.5604,0,0.000885,0,0
0:1:5.722,154.193,19.6294,0,0.000885,0,0
0:1:5.823,154.193,19.6294,0,0.000885,0,0
0:1:5.924,154.66,19.6914,0,0.000885,0,0
0:1:6.022,155.132,19.7535,0,0.000885,0,0
0:1:6.120,155.305,19.7742,0,0.000885,0,0
0:1:6.220,155.305,19.7742,0,0.000885,0,0
0:1:6.322,155.483,19.7948,0,0.000885,0,0
0:1:6.422,156.364,19.9121,0,0.000885,0,0
0:1:6.519,156.773,19.9603,0,0.000885,0,0
0:1:6.617,156.773,19.9603,0,0.000885,0,0
0:1:6.718,156.831,19.9672,0,0.000885,0,0
0:1:6.819,157.125,20.0086,0,0.000885,0,0
0:1:6.920,157.712,20.0775,0,0.000885,0,0
0:1:7.021,157.712,20.0775,0,0.000885,0,0
0:1:7.123,157.947,20.112,0,0.000885,0,0
0:1:7.225,158.65,20.2016,0,0.000885,0,0
0:1:7.327,159.117,20.2568,0,0.000885,0,0
0:1:7.428,159.117,20.2568,0,0.000885,0,0
0:1:7.530,159.411,20.2982,0,0.000885,0,0
0:1:7.630,159.531,20.312,0,0.000885,0,0
0:1:7.732,159.882,20.3533,0,0.000885,0,0
0:1:7.832,159.882,20.3533,0,0.000885,0,0
0:1:7.933,160.114,20.3878,0,0.000885,0,0
0:1:8.034,160.701,20.4636,0,0.000885,0,0
0:1:8.136,160.879,20.4843,0,0.000885,0,0
0:1:8.237,160.879,20.4843,0,0.000885,0,0
0:1:8.339,161.288,20.5326,0,0.000885,0,0
0:1:8.438,161.991,20.6222,0,0.000885,0,0
0:1:8.538,161.991,20.6222,0,0.000885,0,0
0:1:8.636,162.169,20.6498,0,0.000885,0,0
0:1:8.736,162.52,20.6912,0,0.000885,0,0
0:1:8.837,162.698,20.7119,0,0.000885,0,0
0:1:8.938,162.698,20.7119,0,0.000885,0,0
0:1:9.037,163.107,20.767,0,0.000885,0,0
0:1:9.133,163.459,20.8153,0,0.000885,0,0
0:1:9.232,163.988,20.8773,0,0.000885,0,0
0:1:9.333,163.988,20.8773,0,0.000885,0,0
0:1:9.434,164.282,20.9187,0,0.000885,0,0
0:1:9.533,164.575,20.9532,0,0.000885,0,0
0:1:9.630,164.455,20.9394,0,0.000885,0,0
0:1:9.728,164.455,20.9394,0,0.000885,0,0
0:1:9.829,164.927,21.0014,0,0.000885,0,0
0:1:9.931,165.63,21.0911,0,0.000885,0,0
0:1:10.031,165.981,21.1324,0,0.000885,0,0
0:1:10.129,165.981,21.1324,0,0.000885,0,0
0:1:10.227,166.275,21.1738,0,0.000885,0,0
0:1:10.327,167.035,21.2703,0,0.000885,0,0
0:1:10.427,167.035,21.2703,0,0.000885,0,0
0:1:10.529,167.271,21.2979,0,0.000885,0,0
0:1:10.627,167.387,21.3117,0,0.000885,0,0
0:1:10.725,168.209,21.4151,0,0.000885,0,0
0:1:10.823,168.209,21.4151,0,0.000885,0,0
0:1:10.925,168.209,21.4151,0,0.000885,0,0
0:1:11.025,168.854,21.4979,0,0.000885,0,0
0:1:11.125,169.326,21.5599,0,0.000885,0,0
0:1:11.222,169.326,21.5599,0,0.000885,0,0
0:1:11.322,169.677,21.6013,0,0.000885,0,0
0:1:11.422,169.971,21.6426,0,0.000885,0,0
0:1:11.523,170.38,21.6909,0,0.000885,0,0
0:1:11.622,170.38,21.6909,0,0.000885,0,0
0:1:11.720,171.025,21.7736,0,0.000885,0,0
0:1:11.820,171.083,21.7805,0,0.000885,0,0
0:1:11.920,171.083,21.7805,0,0.000885,0,0
0:1:12.022,171.555,21.8426,0,0.000885,0,0
0:1:12.121,171.964,21.8977,0,0.000885,0,0
0:1:12.223,171.848,21.8771,0,0.000885,0,0
0:1:12.325,171.848,21.8771,0,0.000885,0,0
0:1:12.427,172.315,21.9391,0,0.000885,0,0
0:1:12.529,172.96,22.0219,0,0.000885,0,0
0:1:12.630,173.196,22.0494,0,0.000885,0,0
0:1:12.731,173.196,22.0494,0,0.000885,0,0
0:1:12.832,173.312,22.0701,0,0.000885,0,0
0:1:12.933,173.721,22.1184,0,0.000885,0,0
0:1:13.034,174.25,22.1873,0,0.000885,0,0
0:1:13.136,174.25,22.1873,0,0.000885,0,0
0:1:13.237,174.428,22.208,0,0.000885,0,0
0:1:13.337,175.304,22.3183,0,0.000885,0,0
0:1:13.439,175.073,22.2908,0,0.000885,0,0
0:1:13.540,175.073,22.2908,0,0.000885,0,0
0:1:13.640,175.367,22.3252,0,0.000885,0,0
0:1:13.738,175.776,22.3804,0,0.000885,0,0
0:1:13.836,176.363,22.4562,0,0.000885,0,0
0:1:13.937,176.363,22.4562,0,0.000885,0,0
0:1:14.037,176.772,22.5045,0,0.000885,0,0
0:1:14.138,177.302,22.5734,0,0.000885,0,0
0:1:14.237,177.827,22.6424,0,0.000885,0,0
0:1:14.334,177.827,22.6424,0,0.000885,0,0
0:1:14.436,178.534,22.732,0,0.000885,0,0
0:1:14.536,178.298,22.7044,0,0.000885,0,0
0:1:14.637,178.649,22.7458,0,0.000885,0,0
0:1:14.733,178.649,22.7458,0,0.000885,0,0
0:1:14.831,179.41,22.8423,0,0.000885,0,0
0:1:14.931,179.704,22.8837,0,0.000885,0,0
0:1:15.031,179.704,22.8837,0,0.000885,0,0
0:1:15.132,180.175,22.9389,0,0.000885,0,0
0:1:15.231,180.642,23.0009,0,0.000885,0,0
0:1:15.330,180.7,23.0078,0,0.000885,0,0
0:1:15.429,180.7,23.0078,0,0.000885,0,0
0:1:15.531,180.994,23.0423,0,0.000885,0,0
0:1:15.632,181.465,23.1043,0,0.000885,0,0
0:1:15.731,181.874,23.1595,0,0.000885,0,0
0:1:15.828,181.874,23.1595,0,0.000885,0,0
0:1:15.926,182.226,23.2009,0,0.000885,0,0
0:1:16.028,182.519,23.2422,0,0.000885,0,0
0:1:16.129,182.755,23.2698,0,0.000885,0,0
0:1:16.228,182.755,23.2698,0,0.000885,0,0
0:1:16.327,183.458,23.3594,0,0.000885,0,0
0:1:16.426,183.809,23.4008,0,0.000885,0,0
0:1:16.527,184.339,23.4698,0,0.000885,0,0
0:1:16.628,184.339,23.4698,0,0.000885,0,0
0:1:16.728,184.103,23.4422,0,0.000885,0,0
0:1:16.830,184.632,23.5111,0,0.000885,0,0
0:1:16.933,185.335,23.6008,0,0.000885,0,0
0:1:17.034,185.335,23.6008,0,0.000885,0,0
0:1:17.136,185.807,23.6559,0,0.000885,0,0
0:1:17.238,186.332,23.7249,0,0.000885,0,0
0:1:17.339,186.861,23.7938,0,0.000885,0,0
0:1:17.439,186.861,23.7938,0,0.000885,0,0
0:1:17.540,187.212,23.8352,0,0.000885,0,0
0:1:17.641,187.328,23.849,0,0.000885,0,0
0:1:17.741,187.328,23.849,0,0.000885,0,0
0:1:17.842,187.679,23.8972,0,0.000885,0,0
0:1:17.943,188.209,23.9662,0,0.000885,0,0
0:1:18.045,188.444,23.9938,0,0.000885,0,0
0:1:18.145,188.444,23.9938,0,0.000885,0,0
0:1:18.246,188.738,24.0282,0,0.000885,0,0
0:1:18.344,188.796,24.0351,0,0.000885,0,0
0:1:18.443,189.557,24.1385,0,0.000885,0,0
0:1:18.544,189.557,24.1385,0,0.000885,0,0
0:1:18.644,189.85,24.173,0,0.000885,0,0
0:1:18.744,189.85,24.173,0,0.000885,0,0
0:1:18.842,190.086,24.2006,0,0.000885,0,0
0:1:18.940,190.086,24.2006,0,0.000885,0,0
0:1:19.040,190.437,24.2489,0,0.000885,0,0
0:1:19.140,190.846,24.2971,0,0.000885,0,0
0:1:19.241,190.967,24.3178,0,0.000885,0,0
0:1:19.339,190.967,24.3178,0,0.000885,0,0
0:1:19.437,191.554,24.3868,0,0.000885,0,0
0:1:19.539,191.612,24.3937,0,0.000885,0,0
0:1:19.639,192.079,24.4557,0,0.000885,0,0
0:1:19.740,192.079,24.4557,0,0.000885,0,0
0:1:19.838,192.314,24.4833,0,0.000885,0,0
0:1:19.936,192.844,24.5522,0,0.000885,0,0
0:1:20.034,192.844,24.5522,0,0.000885,0,0
0:1:20.134,193.195,24.6005,0,0.000885,0,0
0:1:20.234,193.724,24.6625,0,0.000885,0,0
0:1:20.331,193.604,24.6488,0,0.000885,0,0
0:1:20.428,193.604,24.6488,0,0.000885,0,0
0:1:20.528,194.601,24.7798,0,0.000885,0,0
0:1:20.627,194.952,24.8211,0,0.000885,0,0
0:1:20.728,195.246,24.8625,0,0.000885,0,0
0:1:20.827,195.246,24.8625,0,0.000885,0,0
0:1:20.924,195.659,24.9108,0,0.000885,0,0
0:1:21.022,196.362,25.0004,0,0.000885,0,0
0:1:21.122,196.714,25.0487,0,0.000885,0,0
0:1:21.222,196.714,25.0487,0,0.000885,0,0
0:1:21.320,196.829,25.0624,0,0.000885,0,0
0:1:21.418,196.892,25.0693,0,0.000885,0,0
0:1:21.515,196.892,25.0693,0,0.000885,0,0
0:1:21.616,197.359,25.1314,0,0.000885,0,0
0:1:21.715,197.768,25.1797,0,0.000885,0,0
0:1:21.814,198.004,25.2072,0,0.000885,0,0
0:1:21.915,198.004,25.2072,0,0.000885,0,0
0:1:22.017,198.707,25.2969,0,0.000885,0,0
0:1:22.118,199.12,25.352,0,0.000885,0,0
0:1:22.219,199.414,25.3865,0,0.000885,0,0
0:1:22.320,199.414,25.3865,0,0.000885,0,0
0:1:22.420,199.939,25.4554,0,0.000885,0,0
0:1:22.521,200.348,25.5106,0,0.000885,0,0
0:1:22.621,200.468,25.5244,0,0.000885,0,0
0:1:22.722,200.468,25.5244,0,0.000885,0,0
0:1:22.821,201.464,25.6485,0,0.000885,0,0
0:1:22.922,201.758,25.6899,0,0.000885,0,0
0:1:23.022,201.931,25.7105,0,0.000885,0,0
0:1:23.122,201.931,25.7105,0,0.000885,0,0
0:1:23.222,202.287,25.7588,0,0.000885,0,0
0:1:23.322,203.048,25.8553,0,0.000885,0,0
0:1:23.420,202.87,25.8278,0,0.000885,0,0
0:1:23.518,202.87,25.8278,0,0.000885,0,0
0:1:23.617,203.693,25.9381,0,0.000885,0,0
0:1:23.717,204.222,26.0001,0,0.000885,0,0
0:1:23.818,204.222,26.0001,0,0.000885,0,0
0:1:23.916,204.454,26.0346,0,0.000885,0,0
0:1:24.012,204.747,26.0691,0,0.000885,0,0
0:1:24.112,204.925,26.0898,0,0.000885,0,0
0:1:24.213,204.925,26.0898,0,0.000885,0,0
0:1:24.312,205.628,26.1794,0,0.000885,0,0
0:1:24.409,206.037,26.2346,0,0.000885,0,0
0:1:24.507,206.215,26.2552,0,0.000885,0,0
0:1:24.606,206.215,26.2552,0,0.000885,0,0
0:1:24.707,206.567,26.3035,0,0.000885,0,0
0:1:24.805,206.744,26.3242,0,0.000885,0,0
0:1:24.904,206.744,26.3242,0,0.000885,0,0
0:1:25.001,207.389,26.4069,0,0.000885,0,0
0:1:25.100,207.505,26.4207,0,0.000885,0,0
0:1:25.201,208.092,26.4966,0,0.000885,0,0
0:1:25.301,208.092,26.4966,0,0.000885,0,0
0:1:25.398,208.15,26.5034,0,0.000885,0,0
0:1:25.496,208.444,26.5379,0,0.000885,0,0
0:1:25.594,208.737,26.5793,0,0.000885,0,0
0:1:25.694,208.737,26.5793,0,0.000885,0,0
0:1:25.794,209.089,26.6207,0,0.000885,0,0
0:1:25.894,209.618,26.6896,0,0.000885,0,0
0:1:25.991,210.027,26.7448,0,0.000885,0,0
0:1:26.089,210.027,26.7448,0,0.000885,0,0
0:1:26.190,210.614,26.8137,0,0.000885,0,0
0:1:26.290,210.908,26.8551,0,0.000885,0,0
0:1:26.389,210.908,26.8551,0,0.000885,0,0
0:1:26.486,211.202,26.8896,0,0.000885,0,0
0:1:26.582,211.495,26.9309,0,0.000885,0,0
0:1:26.682,211.904,26.9792,0,0.000885,0,0
0:1:26.783,211.904,26.9792,0,0.000885,0,0
0:1:26.883,211.962,26.9861,0,0.000885,0,0
0:1:26.984,212.785,27.0895,0,0.000885,0,0
0:1:27.085,212.843,27.1033,0,0.000885,0,0
0:1:27.187,212.843,27.1033,0,0.000885,0,0
0:1:27.287,213.546,27.1929,0,0.000885,0,0
0:1:27.388,213.782,27.2205,0,0.000885,0,0
0:1:27.488,213.782,27.2205,0,0.000885,0,0
0:1:27.588,213.782,27.2205,0,0.000885,0,0
0:1:27.688,214.249,27.2826,0,0.000885,0,0
0:1:27.789,214.484,27.3101,0,0.000885,0,0
0:1:27.890,215.187,27.3998,0,0.000885,0,0
0:1:27.990,215.187,27.3998,0,0.000885,0,0
0:1:28.089,215.539,27.4411,0,0.000885,0,0
0:1:28.190,215.952,27.4963,0,0.000885,0,0
0:1:28.291,216.361,27.5515,0,0.000885,0,0
0:1:28.392,216.361,27.5515,0,0.000885,0,0
0:1:28.489,216.539,27.5721,0,0.000885,0,0
0:1:28.586,216.833,27.6066,0,0.000885,0,0
0:1:28.686,216.833,27.6066,0,0.000885,0,0
0:1:28.786,217.478,27.6893,0,0.000885,0,0
0:1:28.887,218.061,27.7652,0,0.000885,0,0
0:1:28.983,218.296,27.7928,0,0.000885,0,0
0:1:29.080,218.296,27.7928,0,0.000885,0,0
0:1:29.180,218.474,27.8135,0,0.000885,0,0
0:1:29.281,218.768,27.8548,0,0.000885,0,0
0:1:29.381,219.351,27.9307,0,0.000885,0,0
0:1:29.478,219.351,27.9307,0,0.000885,0,0
0:1:29.574,219.586,27.9582,0,0.000885,0,0
0:1:29.674,220,28.0134,0,0.000885,0,0
0:1:29.775,220,28.0134,0,0.000885,0,0
0:1:29.875,220.409,28.0617,0,0.000885,0,0
0:1:29.971,220.409,28.0617,0,0.000885,0,0
0:1:30.069,221.17,28.1582,0,0.000885,0,0
0:1:30.169,221.17,28.1582,0,0.000885,0,0
0:1:30.269,221.584,28.2133,0,0.000885,0,0
0:1:30.370,221.935,28.2547,0,0.000885,0,0
0:1:30.466,222.287,28.303,0,0.000885,0,0
0:1:30.574,222.287,28.303,0,0.000885,0,0
0:1:30.672,222.518,28.3306,0,0.000885,0,0
0:1:30.773,223.167,28.4133,0,0.000885,0,0
0:1:30.873,223.634,28.4753,0,0.000885,0,0
0:1:30.971,223.634,28.4753,0,0.000885,0,0
0:1:31.066,223.986,28.5167,0,0.000885,0,0
0:1:31.163,223.986,28.5167,0,0.000885,0,0
0:1:31.264,223.986,28.5167,0,0.000885,0,0
0:1:31.363,223.986,28.5167,0,0.000885,0,0
0:1:31.463,224.101,28.5305,0,0.000885,0,0
0:1:31.560,224.689,28.6063,0,0.000885,0,0
0:1:31.657,224.689,28.6063,0,0.000885,0,0
0:1:31.757,225.218,28.6753,0,0.000885,0,0
0:1:31.858,225.102,28.6615,0,0.000885,0,0
0:1:31.958,226.214,28.7994,0,0.000885,0,0
0:1:32.057,226.214,28.7994,0,0.000885,0,0
0:1:32.160,226.801,28.8752,0,0.000885,0,0
0:1:32.260,226.686,28.8615,0,0.000885,0,0
0:1:32.361,227.211,28.9304,0,0.000885,0,0
0:1:32.462,227.211,28.9304,0,0.000885,0,0
0:1:32.563,227.504,28.9649,0,0.000885,0,0
0:1:32.663,228.034,29.0338,0,0.000885,0,0
0:1:32.763,228.563,29.1028,0,0.000885,0,0
0:1:32.862,228.563,29.1028,0,0.000885,0,0
0:1:32.962,229.146,29.1786,0,0.000885,0,0
0:1:33.062,229.381,29.2062,0,0.000885,0,0
0:1:33.163,229.853,29.2682,0,0.000885,0,0
0:1:33.263,229.853,29.2682,0,0.000885,0,0
0:1:33.364,230.436,29.3372,0,0.000885,0,0
0:1:33.463,230.262,29.3165,0,0.000885,0,0
0:1:33.559,230.262,29.3165,0,0.000885,0,0
0:1:33.666,230.849,29.3924,0,0.000885,0,0
0:1:33.767,230.965,29.4061,0,0.000885,0,0
0:1:33.869,231.494,29.4751,0,0.000885,0,0
0:1:33.966,231.494,29.4751,0,0.000885,0,0
0:1:34.074,232.019,29.544,0,0.000885,0,0
0:1:34.171,232.549,29.6061,0,0.000885,0,0
0:1:34.271,232.491,29.5992,0,0.000885,0,0
0:1:34.372,232.491,29.5992,0,0.000885,0,0
0:1:34.472,232.958,29.6612,0,0.000885,0,0
0:1:34.570,233.078,29.675,0,0.000885,0,0
0:1:34.665,233.429,29.7233,0,0.000885,0,0
0:1:34.763,233.429,29.7233,0,0.000885,0,0
0:1:34.864,233.839,29.7716,0,0.000885,0,0
0:1:34.964,234.426,29.8474,0,0.000885,0,0
0:1:35.061,234.604,29.8681,0,0.000885,0,0
0:1:35.166,234.604,29.8681,0,0.000885,0,0
0:1:35.266,235.306,29.9577,0,0.000885,0,0
0:1:35.366,235.48,29.9853,0,0.000885,0,0
0:1:35.466,236.067,30.0542,0,0.000885,0,0
0:1:35.565,236.067,30.0542,0,0.000885,0,0
0:1:35.661,236.89,30.1646,0,0.000885,0,0
0:1:35.761,237.064,30.1852,0,0.000885,0,0
0:1:35.862,237.064,30.1852,0,0.000885,0,0
0:1:35.962,237.419,30.2266,0,0.000885,0,0
0:1:36.060,240.231,30.5851,0,0.000885,0,0
0:1:36.166,240.115,30.5714,0,0.000885,0,0
0:1:36.263,240.115,30.5714,0,0.000885,0,0
0:1:36.364,240.702,30.6472,0,0.000885,0,0
0:1:36.464,240.76,30.6541,0,0.000885,0,0
0:1:36.563,241.111,30.7024,0,0.000885,0,0
0:1:36.660,241.111,30.7024,0,0.000885,0,0
0:1:36.758,241.232,30.7161,0,0.000885,0,0
0:1:36.859,241.289,30.723,0,0.000885,0,0
0:1:36.959,241.583,30.7575,0,0.000885,0,0
0:1:37.060,241.583,30.7575,0,0.000885,0,0
0:1:37.161,241.814,30.792,0,0.000885,0,0
0:1:37.263,241.992,30.8127,0,0.000885,0,0
0:1:37.363,242.17,30.8334,0,0.000885,0,0
0:1:37.463,242.17,30.8334,0,0.000885,0,0
0:1:37.562,242.05,30.8196,0,0.000885,0,0
0:1:37.663,242.521,30.8816,0,0.000885,0,0
0:1:37.763,242.401,30.8609,0,0.000885,0,0
0:1:37.863,242.401,30.8609,0,0.000885,0,0
0:1:37.961,242.521,30.8816,0,0.000885,0,0
0:1:38.063,242.931,30.9299,0,0.000885,0,0
0:1:38.162,242.931,30.9299,0,0.000885,0,0
0:1:38.261,243.282,30.9781,0,0.000885,0,0
0:1:38.362,243.166,30.9575,0,0.000885,0,0
0:1:38.462,243.869,31.0471,0,0.000885,0,0
0:1:38.562,243.869,31.0471,0,0.000885,0,0
0:1:38.657,243.869,31.0471,0,0.000885,0,0
0:1:38.755,243.985,31.0678,0,0.000885,0,0
0:1:38.855,244.572,31.1367,0,0.000885,0,0
0:1:38.956,244.572,31.1367,0,0.000885,0,0
0:1:39.055,244.63,31.1505,0,0.000885,0,0
0:1:39.161,245.159,31.2126,0,0.000885,0,0
0:1:39.258,245.626,31.2746,0,0.000885,0,0
0:1:39.358,245.626,31.2746,0,0.000885,0,0
0:1:39.458,245.804,31.2953,0,0.000885,0,0
0:1:39.559,245.689,31.2815,0,0.000885,0,0
0:1:39.657,246.156,31.3436,0,0.000885,0,0
0:1:39.754,246.156,31.3436,0,0.000885,0,0
0:1:39.852,246.743,31.4194,0,0.000885,0,0
0:1:39.953,246.979,31.447,0,0.000885,0,0
0:1:40.052,246.979,31.447,0,0.000885,0,0
0:1:40.150,247.272,31.4815,0,0.000885,0,0
0:1:40.247,247.855,31.5573,0,0.000885,0,0
0:1:40.345,248.384,31.6263,0,0.000885,0,0
0:1:40.445,248.384,31.6263,0,0.000885,0,0
0:1:40.546,248.971,31.7021,0,0.000885,0,0
0:1:40.644,248.914,31.6952,0,0.000885,0,0
0:1:40.741,248.971,31.7021,0,0.000885,0,0
0:1:40.839,248.971,31.7021,0,0.000885,0,0
0:1:40.941,249.381,31.7504,0,0.000885,0,0
0:1:41.041,250.088,31.84,0,0.000885,0,0
0:1:41.139,250.613,31.9089,0,0.000885,0,0
0:1:41.236,250.613,31.9089,0,0.000885,0,0
0:1:41.333,250.906,31.9434,0,0.000885,0,0
0:1:41.433,251.142,31.9779,0,0.000885,0,0
0:1:41.532,251.142,31.9779,0,0.000885,0,0
0:1:41.632,251.845,32.0675,0,0.000885,0,0
0:1:41.733,252.49,32.1503,0,0.000885,0,0
0:1:41.833,252.726,32.1778,0,0.000885,0,0
0:1:41.936,252.726,32.1778,0,0.000885,0,0
0:1:42.037,253.313,32.2537,0,0.000885,0,0
0:1:42.138,253.664,32.295,0,0.000885,0,0
0:1:42.237,254.367,32.3847,0,0.000885,0,0
0:1:42.338,254.367,32.3847,0,0.000885,0,0
0:1:42.438,254.367,32.3847,0,0.000885,0,0
0:1:42.539,255.012,32.4674,0,0.000885,0,0
0:1:42.639,255.599,32.5433,0,0.000885,0,0
0:1:42.739,255.599,32.5433,0,0.000885,0,0
0:1:42.839,255.893,32.5846,0,0.000885,0,0
0:1:42.940,255.893,32.5846,0,0.000885,0,0
0:1:43.040,256.418,32.6467,0,0.000885,0,0
0:1:43.141,256.418,32.6467,0,0.000885,0,0
0:1:43.239,256.774,32.6949,0,0.000885,0,0
0:1:43.335,257.298,32.757,0,0.000885,0,0
0:1:43.432,257.298,32.757,0,0.000885,0,0
0:1:43.533,257.77,32.819,0,0.000885,0,0
0:1:43.633,258.121,32.8673,0,0.000885,0,0
0:1:43.731,258.237,32.8811,0,0.000885,0,0
0:1:43.829,258.237,32.8811,0,0.000885,0,0
0:1:43.929,258.531,32.9156,0,0.000885,0,0
0:1:44.029,259.176,32.9983,0,0.000885,0,0
0:1:44.129,259.647,33.0604,0,0.000885,0,0
0:1:44.227,259.647,33.0604,0,0.000885,0,0
0:1:44.324,260.35,33.15,0,0.000885,0,0
0:1:44.421,260.644,33.1845,0,0.000885,0,0
0:1:44.522,260.701,33.1914,0,0.000885,0,0
0:1:44.622,260.701,33.1914,0,0.000885,0,0
0:1:44.721,261.168,33.2534,0,0.000885,0,0
0:1:44.817,261.582,33.3086,0,0.000885,0,0
0:1:44.916,261.582,33.3086,0,0.000885,0,0
0:1:45.016,261.818,33.3362,0,0.000885,0,0
0:1:45.118,262.169,33.3775,0,0.000885,0,0
0:1:45.217,262.463,33.4189,0,0.000885,0,0
0:1:45.313,262.463,33.4189,0,0.000885,0,0
0:1:45.411,262.752,33.4534,0,0.000885,0,0
0:1:45.512,263.046,33.4947,0,0.000885,0,0
0:1:45.612,263.633,33.5637,0,0.000885,0,0
0:1:45.711,263.633,33.5637,0,0.000885,0,0
0:1:45.807,263.869,33.5982,0,0.000885,0,0
0:1:45.905,263.984,33.6119,0,0.000885,0,0
0:1:46.005,263.984,33.6119,0,0.000885,0,0
0:1:46.106,264.22,33.6395,0,0.000885,0,0
0:1:46.206,264.923,33.7292,0,0.000885,0,0
0:1:46.303,264.865,33.7223,0,0.000885,0,0
0:1:46.400,264.865,33.7223,0,0.000885,0,0
0:1:46.500,265.043,33.7429,0,0.000885,0,0
0:1:46.601,265.51,33.805,0,0.000885,0,0
0:1:46.701,265.919,33.8602,0,0.000885,0,0
0:1:46.801,265.919,33.8602,0,0.000885,0,0
0:1:46.902,265.803,33.8464,0,0.000885,0,0
0:1:47.003,265.919,33.8602,0,0.000885,0,0
0:1:47.102,266.155,33.8877,0,0.000885,0,0
0:1:47.203,266.155,33.8877,0,0.000885,0,0
0:1:47.303,266.039,33.8739,0,0.000885,0,0
0:1:47.404,266.858,33.9774,0,0.000885,0,0
0:1:47.505,266.92,33.9843,0,0.000885,0,0
0:1:47.605,266.92,33.9843,0,0.000885,0,0
0:1:47.705,267.036,33.998,0,0.000885,0,0
0:1:47.805,266.978,33.9912,0,0.000885,0,0
0:1:47.903,267.214,34.0256,0,0.000885,0,0
0:1:48.004,267.214,34.0256,0,0.000885,0,0
0:1:48.104,267.503,34.0601,0,0.000885,0,0
0:1:48.204,268.032,34.129,0,0.000885,0,0
0:1:48.303,268.032,34.129,0,0.000885,0,0
0:1:48.399,268.383,34.1704,0,0.000885,0,0
0:1:48.498,268.383,34.1704,0,0.000885,0,0
0:1:48.598,268.561,34.1911,0,0.000885,0,0
0:1:48.698,268.561,34.1911,0,0.000885,0,0
0:1:48.796,268.971,34.2463,0,0.000885,0,0
0:1:48.892,269.086,34.26,0,0.000885,0,0
0:1:48.991,269.851,34.3566,0,0.000885,0,0
0:1:49.092,269.851,34.3566,0,0.000885,0,0
0:1:49.192,269.673,34.3359,0,0.000885,0,0
0:1:49.291,269.967,34.3704,0,0.000885,0,0
0:1:49.387,269.967,34.3704,0,0.000885,0,0
0:1:49.485,270.318,34.4186,0,0.000885,0,0
0:1:49.586,270.381,34.4255,0,0.000885,0,0
0:1:49.686,270.67,34.46,0,0.000885,0,0
0:1:49.786,270.67,34.46,0,0.000885,0,0
0:1:49.883,271.199,34.5289,0,0.000885,0,0
0:1:49.980,271.551,34.5772,0,0.000885,0,0
0:1:50.079,272.08,34.6393,0,0.000885,0,0
0:1:50.179,272.08,34.6393,0,0.000885,0,0
0:1:50.279,272.609,34.7082,0,0.000885,0,0
0:1:50.378,273.192,34.7841,0,0.000885,0,0
0:1:50.475,273.192,34.7841,0,0.000885,0,0
0:1:50.573,273.37,34.8047,0,0.000885,0,0
0:1:50.673,273.663,34.8461,0,0.000885,0,0
0:1:50.774,273.957,34.8806,0,0.000885,0,0
0:1:50.872,273.957,34.8806,0,0.000885,0,0
0:1:50.966,274.486,34.9495,0,0.000885,0,0
0:1:51.064,274.66,34.9702,0,0.000885,0,0
0:1:51.165,274.602,34.9633,0,0.000885,0,0
0:1:51.265,274.602,34.9633,0,0.000885,0,0
0:1:51.365,275.011,35.0185,0,0.000885,0,0
0:1:51.463,275.598,35.0874,0,0.000885,0,0
0:1:51.560,275.95,35.1357,0,0.000885,0,0
0:1:51.660,275.95,35.1357,0,0.000885,0,0
0:1:51.760,275.892,35.1288,0,0.000885,0,0
0:1:51.860,275.892,35.1288,0,0.000885,0,0
0:1:51.961,275.892,35.1288,0,0.000885,0,0
0:1:52.062,275.95,35.1357,0,0.000885,0,0
0:1:52.163,275.834,35.1219,0,0.000885,0,0
0:1:52.263,275.656,35.1012,0,0.000885,0,0
0:1:52.365,275.656,35.1012,0,0.000885,0,0
0:1:52.462,274.896,34.9978,0,0.000885,0,0
0:1:52.563,274.718,34.9771,0,0.000885,0,0
0:1:52.663,273.606,34.8392,0,0.000885,0,0
0:1:52.763,273.606,34.8392,0,0.000885,0,0
0:1:52.862,271.964,34.6255,0,0.000885,0,0
0:1:52.961,269.322,34.2945,0,0.000885,0,0
0:1:53.060,266.8,33.9705,0,0.000885,0,0
0:1:53.160,266.8,33.9705,0,0.000885,0,0
0:1:53.261,262.694,33.4465,0,0.000885,0,0
0:1:53.360,259.763,33.0742,0,0.000885,0,0
0:1:53.457,256.066,32.6053,0,0.000885,0,0
0:1:53.555,256.066,32.6053,0,0.000885,0,0
0:1:53.654,252.784,32.1847,0,0.000885,0,0
0:1:53.754,249.559,31.7779,0,0.000885,0,0
0:1:53.854,249.559,31.7779,0,0.000885,0,0
0:1:53.952,245.982,31.316,0,0.000885,0,0
0:1:54.048,242.873,30.923,0,0.000885,0,0
0:1:54.145,239.528,30.4955,0,0.000885,0,0
0:1:54.246,239.528,30.4955,0,0.000885,0,0
0:1:54.346,235.48,29.9853,0,0.000885,0,0
0:1:54.443,231.846,29.5165,0,0.000885,0,0
0:1:54.542,228.852,29.1372,0,0.000885,0,0
0:1:54.639,228.852,29.1372,0,0.000885,0,0
0:1:54.739,225.511,28.7098,0,0.000885,0,0
0:1:54.840,222.287,28.303,0,0.000885,0,0
0:1:54.939,222.287,28.303,0,0.000885,0,0
0:1:55.036,218.706,27.8479,0,0.000885,0,0
0:1:55.131,214.6,27.3239,0,0.000885,0,0
0:1:55.232,209.791,26.7103,0,0.000885,0,0
0:1:55.331,209.791,26.7103,0,0.000885,0,0
0:1:55.431,204.044,25.9794,0,0.000885,0,0
0:1:55.528,197.768,25.1797,0,0.000885,0,0
0:1:55.607,197.768,25.1797,0,0.000885,0,0