File: DataFile2021-07-28_101506.csv
Test ID:,Date Tested:,Time:,Test Type:,Diameter Avg. (mm):,Cyl. Corr. Factor:,Height (mm):,Age (days):,Weight (kN):,Break Type:,Ramp Rate (MPa/s):,Load at Break (kN):,Stress at Break (MPa):
12,7/28/2021,10:15,Cylinder,100,1,200,0,13.69,3,0.35,1289.54,164.19
Sample Time,Load (kN),Stress (MPa),Long. Strain,Trans. Strain,Chan1 Deflection (mm),Chan2 Deflection (mm)
0:0:13.915,6.57002,0.834266,0,0.000885,0,0
0:0:14.314,10.3243,1.3169,0,0.000885,0,0
0:0:14.712,8.91424,1.13763,0,0.000885,0,0
0:0:15.111,9.09216,1.15832,0,0.000885,0,0
0:0:15.507,9.26565,1.179,0,0.000885,0,0
0:0:15.901,10.6179,1.35137,0,0.000885,0,0
0:0:16.297,10.4978,1.33758,0,0.000885,0,0
0:0:16.698,12.8465,1.63406,0,0.000885,0,0
0:0:17.095,13.6649,1.73748,0,0.000885,0,0
0:0:17.491,15.075,1.91674,0,0.000885,0,0
0:0:17.888,15.075,1.91674,0,0.000885,0,0
0:0:18.286,16.7742,2.13737,0,0.000885,0,0
0:0:18.685,17.3036,2.20632,0,0.000885,0,0
0:0:19.081,18.945,2.41317,0,0.000885,0,0
0:0:19.486,19.6478,2.5028,0,0.000885,0,0
0:0:19.889,21.0534,2.68206,0,0.000885,0,0
0:0:20.293,21.7029,2.7648,0,0.000885,0,0
0:0:20.697,23.2242,2.95785,0,0.000885,0,0
0:0:21.095,24.9278,3.17159,0,0.000885,0,0
0:0:21.492,25.8664,3.29569,0,0.000885,0,0
0:0:21.895,27.0986,3.44738,0,0.000885,0,0
0:0:22.292,28.2684,3.59906,0,0.000885,0,0
0:0:22.687,29.3271,3.73696,0,0.000885,0,0
0:0:23.084,30.7906,3.92312,0,0.000885,0,0
0:0:23.485,31.6135,4.02654,0,0.000885,0,0
0:0:23.885,32.9035,4.19201,0,0.000885,0,0
0:0:24.283,34.367,4.37817,0,0.000885,0,0
0:0:24.688,35.2477,4.48849,0,0.000885,0,0
0:0:25.094,37.0092,4.70912,0,0.000885,0,0
0:0:25.497,37.3606,4.75738,0,0.000885,0,0
0:0:25.900,38.357,4.88149,0,0.000885,0,0
0:0:26.296,39.7048,5.05386,0,0.000885,0,0
0:0:26.693,40.3498,5.13659,0,0.000885,0,0
0:0:27.093,41.0571,5.22623,0,0.000885,0,0
0:0:27.494,42.227,5.37791,0,0.000885,0,0
0:0:27.889,43.2234,5.50202,0,0.000885,0,0
0:0:28.285,44.6913,5.68817,0,0.000885,0,0
0:0:28.685,45.6299,5.81228,0,0.000885,0,0
0:0:29.086,46.2748,5.89502,0,0.000885,0,0
0:0:29.492,47.8584,6.09497,0,0.000885,0,0
0:0:29.897,49.0327,6.23976,0,0.000885,0,0
0:0:30.298,50.1448,6.38455,0,0.000885,0,0
0:0:30.700,51.6127,6.5707,0,0.000885,0,0
0:0:31.097,52.4935,6.68102,0,0.000885,0,0
0:0:31.496,53.4899,6.81202,0,0.000885,0,0
0:0:31.891,54.7798,6.97749,0,0.000885,0,0
0:0:32.291,56.1855,7.15676,0,0.000885,0,0
0:0:32.692,57.4755,7.31534,0,0.000885,0,0
0:0:33.089,58.1827,7.40497,0,0.000885,0,0
0:0:33.485,59.0012,7.51529,0,0.000885,0,0
0:0:33.883,60.3535,7.68076,0,0.000885,0,0
0:0:34.287,61.7013,7.85313,0,0.000885,0,0
0:0:34.693,62.2262,7.92208,0,0.000885,0,0
0:0:35.098,63.2848,8.05997,0,0.000885,0,0
0:0:35.498,64.3391,8.19097,0,0.000885,0,0
0:0:35.897,65.8648,8.38402,0,0.000885,0,0
0:0:36.297,66.919,8.52192,0,0.000885,0,0
0:0:36.693,67.6841,8.61845,0,0.000885,0,0
0:0:37.090,68.4448,8.71497,0,0.000885,0,0
0:0:37.487,69.9705,8.90803,0,0.000885,0,0
0:0:37.887,70.8513,9.01834,0,0.000885,0,0
0:0:38.286,72.2569,9.19761,0,0.000885,0,0
0:0:38.683,73.6047,9.36998,0,0.000885,0,0
0:0:39.078,75.0148,9.54924,0,0.000885,0,0
0:0:39.483,75.7176,9.63887,0,0.000885,0,0
0:0:39.890,76.5984,9.75608,0,0.000885,0,0
0:0:40.292,77.6526,9.88708,0,0.000885,0,0
0:0:40.696,79.1205,10.0732,0,0.000885,0,0
0:0:41.093,79.8812,10.1698,0,0.000885,0,0
0:0:41.493,81.3491,10.3559,0,0.000885,0,0
0:0:41.893,81.9941,10.4387,0,0.000885,0,0
0:0:42.289,83.2262,10.5972,0,0.000885,0,0
0:0:42.684,84.6897,10.7834,0,0.000885,0,0
0:0:43.085,85.0411,10.8248,0,0.000885,0,0
0:0:43.485,86.042,10.9558,0,0.000885,0,0
0:0:43.883,87.2118,11.1075,0,0.000885,0,0
0:0:44.279,88.6219,11.2867,0,0.000885,0,0
0:0:44.683,90.2633,11.4936,0,0.000885,0,0
0:0:45.090,91.1441,11.6039,0,0.000885,0,0
0:0:45.493,92.0826,11.7211,0,0.000885,0,0
0:0:45.897,93.4304,11.8935,0,0.000885,0,0
0:0:46.293,94.4268,12.0245,0,0.000885,0,0
0:0:46.692,95.1297,12.1141,0,0.000885,0,0
0:0:47.092,96.7132,12.314,0,0.000885,0,0
0:0:47.490,97.594,12.4244,0,0.000885,0,0
0:0:47.885,98.6482,12.5622,0,0.000885,0,0
0:0:48.283,99.2932,12.645,0,0.000885,0,0
0:0:48.684,100.174,12.7553,0,0.000885,0,0
0:0:49.082,101.348,12.907,0,0.000885,0,0
0:0:49.488,102.638,13.0656,0,0.000885,0,0
0:0:49.892,104.106,13.2517,0,0.000885,0,0
0:0:50.296,105.16,13.3896,0,0.000885,0,0
0:0:50.698,106.45,13.5551,0,0.000885,0,0
0:0:51.096,107.095,13.6378,0,0.000885,0,0
0:0:51.492,108.621,13.8309,0,0.000885,0,0
0:0:51.891,109.618,13.955,0,0.000885,0,0
0:0:52.290,110.614,14.086,0,0.000885,0,0
0:0:52.687,111.259,14.1687,0,0.000885,0,0
0:0:53.085,112.375,14.3066,0,0.000885,0,0
0:0:53.482,114.132,14.5341,0,0.000885,0,0
0:0:53.882,115.485,14.7065,0,0.000885,0,0
0:0:54.280,116.13,14.7893,0,0.000885,0,0
0:0:54.687,117.126,14.9134,0,0.000885,0,0
0:0:55.091,118.59,15.0995,0,0.000885,0,0
0:0:55.495,119.177,15.1754,0,0.000885,0,0
0:0:55.896,120.996,15.4029,0,0.000885,0,0
0:0:56.294,121.583,15.4787,0,0.000885,0,0
0:0:56.690,122.522,15.6028,0,0.000885,0,0
0:0:57.086,123.692,15.7476,0,0.000885,0,0
0:0:57.485,124.63,15.8717,0,0.000885,0,0
0:0:57.886,125.925,16.0303,0,0.000885,0,0
0:0:58.283,127.388,16.2165,0,0.000885,0,0
0:0:58.687,128.211,16.3268,0,0.000885,0,0
0:0:59.086,129.265,16.4578,0,0.000885,0,0
0:0:59.488,130.204,16.575,0,0.000885,0,0
0:0:59.895,131.903,16.7956,0,0.000885,0,0
0:1:0.300,132.548,16.8784,0,0.000885,0,0
0:1:0.705,133.958,17.0576,0,0.000885,0,0
0:1:1.104,134.839,17.1679,0,0.000885,0,0
0:1:1.505,136.423,17.3679,0,0.000885,0,0
0:1:1.902,137.299,17.4851,0,0.000885,0,0
0:1:2.297,138.237,17.6023,0,0.000885,0,0
0:1:2.696,139.59,17.7747,0,0.000885,0,0
0:1:3.096,141.347,17.9953,0,0.000885,0,0
0:1:3.497,141.467,18.0091,0,0.000885,0,0
0:1:3.892,141.876,18.0643,0,0.000885,0,0
0:1:4.298,143.282,18.2435,0,0.000885,0,0
0:1:4.704,145.101,18.4779,0,0.000885,0,0
0:1:5.107,146.097,18.6021,0,0.000885,0,0
0:1:5.510,147.094,18.7262,0,0.000885,0,0
0:1:5.907,148.562,18.9123,0,0.000885,0,0
0:1:6.302,148.797,18.9468,0,0.000885,0,0
0:1:6.705,150.439,19.1536,0,0.000885,0,0
0:1:7.103,151.32,19.264,0,0.000885,0,0
0:1:7.498,152.374,19.4018,0,0.000885,0,0
0:1:7.894,152.903,19.4708,0,0.000885,0,0
0:1:8.294,154.602,19.6845,0,0.000885,0,0
0:1:8.694,155.599,19.8086,0,0.000885,0,0
0:1:9.090,156.657,19.9465,0,0.000885,0,0
0:1:9.498,157.712,20.0775,0,0.000885,0,0
0:1:9.903,159.18,20.2637,0,0.000885,0,0
0:1:10.307,160.701,20.4636,0,0.000885,0,0
0:1:10.710,161.408,20.5533,0,0.000885,0,0
0:1:11.109,162.227,20.6567,0,0.000885,0,0
0:1:11.504,163.988,20.8773,0,0.000885,0,0
0:1:11.905,164.575,20.9532,0,0.000885,0,0
0:1:12.305,166.448,21.1945,0,0.000885,0,0
0:1:12.701,166.684,21.2221,0,0.000885,0,0
0:1:13.098,168.209,21.4151,0,0.000885,0,0
0:1:13.495,168.445,21.4496,0,0.000885,0,0
0:1:13.897,169.909,21.6357,0,0.000885,0,0
0:1:14.295,170.438,21.6978,0,0.000885,0,0
0:1:14.700,171.728,21.8633,0,0.000885,0,0
0:1:15.105,173.721,22.1184,0,0.000885,0,0
0:1:15.509,174.486,22.2149,0,0.000885,0,0
0:1:15.912,176.07,22.4149,0,0.000885,0,0
0:1:16.311,176.888,22.5252,0,0.000885,0,0
0:1:16.705,178.356,22.7113,0,0.000885,0,0
0:1:17.103,178.649,22.7458,0,0.000885,0,0
0:1:17.504,179.997,22.9182,0,0.000885,0,0
0:1:17.902,180.994,23.0423,0,0.000885,0,0
0:1:18.299,182.168,23.194,0,0.000885,0,0
0:1:18.694,183.107,23.3112,0,0.000885,0,0
0:1:19.094,184.397,23.4766,0,0.000885,0,0
0:1:19.496,185.513,23.6214,0,0.000885,0,0
0:1:19.903,186.509,23.7455,0,0.000885,0,0
0:1:20.307,187.857,23.9179,0,0.000885,0,0
0:1:20.711,188.68,24.0213,0,0.000885,0,0
0:1:21.112,190.028,24.1937,0,0.000885,0,0
0:1:21.511,191.318,24.3592,0,0.000885,0,0
0:1:21.909,192.608,24.5247,0,0.000885,0,0
0:1:22.301,193.547,24.6419,0,0.000885,0,0
0:1:22.698,194.249,24.7315,0,0.000885,0,0
0:1:23.096,194.894,24.8142,0,0.000885,0,0
0:1:23.491,196.598,25.0349,0,0.000885,0,0
0:1:23.884,197.417,25.1383,0,0.000885,0,0
0:1:24.287,198.884,25.3244,0,0.000885,0,0
0:1:24.689,199.996,25.4623,0,0.000885,0,0
0:1:25.091,200.641,25.5451,0,0.000885,0,0
0:1:25.492,201.58,25.6692,0,0.000885,0,0
0:1:25.887,203.164,25.8691,0,0.000885,0,0
0:1:26.283,203.751,25.945,0,0.000885,0,0
0:1:26.676,205.392,26.1518,0,0.000885,0,0
0:1:27.073,206.451,26.2828,0,0.000885,0,0
0:1:27.475,207.038,26.3587,0,0.000885,0,0
0:1:27.870,208.559,26.5517,0,0.000885,0,0
0:1:28.267,209.618,26.6896,0,0.000885,0,0
0:1:28.674,211.081,26.8758,0,0.000885,0,0
0:1:29.069,212.198,27.0206,0,0.000885,0,0
0:1:29.472,213.372,27.1653,0,0.000885,0,0
0:1:29.874,214.249,27.2826,0,0.000885,0,0
0:1:30.275,214.72,27.3377,0,0.000885,0,0
0:1:30.675,216.01,27.5032,0,0.000885,0,0
0:1:31.068,217.064,27.6342,0,0.000885,0,0
0:1:31.473,217.358,27.6756,0,0.000885,0,0
0:1:31.876,219.177,27.9031,0,0.000885,0,0
0:1:32.275,220.116,28.0272,0,0.000885,0,0
0:1:32.671,221.699,28.2271,0,0.000885,0,0
0:1:33.065,222.874,28.3788,0,0.000885,0,0
0:1:33.467,223.692,28.4822,0,0.000885,0,0
0:1:33.872,224.924,28.6408,0,0.000885,0,0
0:1:34.270,226.214,28.7994,0,0.000885,0,0
0:1:34.675,227.389,28.9511,0,0.000885,0,0
0:1:35.076,228.679,29.1166,0,0.000885,0,0
0:1:35.476,230.026,29.2889,0,0.000885,0,0
0:1:35.873,230.907,29.3992,0,0.000885,0,0
0:1:36.270,231.904,29.5302,0,0.000885,0,0
0:1:36.675,232.433,29.5923,0,0.000885,0,0
0:1:37.090,233.487,29.7302,0,0.000885,0,0
0:1:37.484,234.484,29.8543,0,0.000885,0,0
0:1:37.879,235.951,30.0405,0,0.000885,0,0
0:1:38.287,237.357,30.2197,0,0.000885,0,0
0:1:38.679,238.296,30.3438,0,0.000885,0,0
0:1:39.084,239.119,30.4472,0,0.000885,0,0
0:1:39.484,239.764,30.53,0,0.000885,0,0
0:1:39.888,241.934,30.8058,0,0.000885,0,0
0:1:40.290,243.104,30.9506,0,0.000885,0,0
0:1:40.688,243.282,30.9781,0,0.000885,0,0
0:1:41.084,244.514,31.1298,0,0.000885,0,0
0:1:41.489,245.982,31.316,0,0.000885,0,0
0:1:41.887,246.334,31.3643,0,0.000885,0,0
0:1:42.290,247.975,31.5711,0,0.000885,0,0
0:1:42.684,249.381,31.7504,0,0.000885,0,0
0:1:43.088,250.497,31.8951,0,0.000885,0,0
0:1:43.484,250.964,31.9572,0,0.000885,0,0
0:1:43.880,252.548,32.1571,0,0.000885,0,0
0:1:44.285,253.9,32.3295,0,0.000885,0,0
0:1:44.688,255.248,32.5019,0,0.000885,0,0
0:1:45.091,256.129,32.6122,0,0.000885,0,0
0:1:45.491,256.889,32.7087,0,0.000885,0,0
0:1:45.893,258.064,32.8604,0,0.000885,0,0
0:1:46.288,258.94,32.9707,0,0.000885,0,0
0:1:46.690,259.821,33.081,0,0.000885,0,0
0:1:47.085,260.817,33.2052,0,0.000885,0,0
0:1:47.483,262.636,33.4396,0,0.000885,0,0
0:1:47.887,263.281,33.5223,0,0.000885,0,0
0:1:48.280,264.456,33.674,0,0.000885,0,0
0:1:48.684,265.63,33.8188,0,0.000885,0,0
0:1:49.080,267.387,34.0463,0,0.000885,0,0
0:1:49.488,268.268,34.1566,0,0.000885,0,0
0:1:49.890,269.206,34.2738,0,0.000885,0,0
0:1:50.292,270.087,34.391,0,0.000885,0,0
0:1:50.693,271.551,34.5772,0,0.000885,0,0
0:1:51.092,272.489,34.6944,0,0.000885,0,0
0:1:51.487,273.076,34.7703,0,0.000885,0,0
0:1:51.888,273.721,34.853,0,0.000885,0,0
0:1:52.280,275.069,35.0254,0,0.000885,0,0
0:1:52.678,276.359,35.1839,0,0.000885,0,0
0:1:53.075,277.885,35.3839,0,0.000885,0,0
0:1:53.469,278.414,35.4459,0,0.000885,0,0
0:1:53.884,280.349,35.6942,0,0.000885,0,0
0:1:54.286,281.466,35.8389,0,0.000885,0,0
0:1:54.689,282.756,36.0044,0,0.000885,0,0
0:1:55.088,284.103,36.1699,0,0.000885,0,0
0:1:55.489,284.691,36.2457,0,0.000885,0,0
0:1:55.882,285.861,36.3974,0,0.000885,0,0
0:1:56.289,287.035,36.5491,0,0.000885,0,0
0:1:56.687,287.973,36.6663,0,0.000885,0,0
0:1:57.079,289.263,36.8318,0,0.000885,0,0
0:1:57.472,289.851,36.9076,0,0.000885,0,0
0:1:57.877,291.025,37.0524,0,0.000885,0,0
0:1:58.281,292.137,37.1972,0,0.000885,0,0
0:1:58.678,292.488,37.2386,0,0.000885,0,0
0:1:59.073,293.841,37.411,0,0.000885,0,0
0:1:59.477,295.54,37.6316,0,0.000885,0,0
0:1:59.877,296.007,37.6867,0,0.000885,0,0
0:2:0.276,297.417,37.866,0,0.000885,0,0
0:2:0.678,298.591,38.0177,0,0.000885,0,0
0:2:1.081,299.646,38.1487,0,0.000885,0,0
0:2:1.474,301.171,38.3486,0,0.000885,0,0
0:2:1.880,301.523,38.39,0,0.000885,0,0
0:2:2.289,302.755,38.5486,0,0.000885,0,0
0:2:2.685,304.218,38.7347,0,0.000885,0,0
0:2:3.087,305.393,38.8864,0,0.000885,0,0
0:2:3.478,306.861,39.0726,0,0.000885,0,0
0:2:3.874,307.741,39.1829,0,0.000885,0,0
0:2:4.275,308.675,39.3001,0,0.000885,0,0
0:2:4.678,309.441,39.3966,0,0.000885,0,0
0:2:5.079,310.028,39.4725,0,0.000885,0,0
0:2:5.479,311.082,39.6104,0,0.000885,0,0
0:2:5.889,312.901,39.8379,0,0.000885,0,0
0:2:6.295,314.307,40.0172,0,0.000885,0,0
0:2:6.690,315.13,40.1206,0,0.000885,0,0
0:2:7.082,316.771,40.3343,0,0.000885,0,0
0:2:7.477,317.946,40.4791,0,0.000885,0,0
0:2:7.874,318.297,40.5274,0,0.000885,0,0
0:2:8.278,319.236,40.6446,0,0.000885,0,0
0:2:8.672,320.232,40.7756,0,0.000885,0,0
0:2:9.086,321.344,40.9135,0,0.000885,0,0
0:2:9.486,322.403,41.0514,0,0.000885,0,0
0:2:9.888,323.105,41.141,0,0.000885,0,0
0:2:10.291,324.16,41.272,0,0.000885,0,0
0:2:10.692,325.45,41.4375,0,0.000885,0,0
0:2:11.086,327.096,41.6443,0,0.000885,0,0
0:2:11.482,328.034,41.7684,0,0.000885,0,0
0:2:11.878,328.91,41.8788,0,0.000885,0,0
0:2:12.272,331.023,42.1477,0,0.000885,0,0
0:2:12.677,331.726,42.2373,0,0.000885,0,0
0:2:13.071,333.074,42.4097,0,0.000885,0,0
0:2:13.477,333.897,42.5131,0,0.000885,0,0
0:2:13.875,334.542,42.5958,0,0.000885,0,0
0:2:14.277,335.952,42.7751,0,0.000885,0,0
0:2:14.680,337.709,42.9957,0,0.000885,0,0
0:2:15.082,338.412,43.0853,0,0.000885,0,0
0:2:15.483,339.586,43.237,0,0.000885,0,0
0:2:15.883,340.115,43.306,0,0.000885,0,0
0:2:16.276,341.112,43.4301,0,0.000885,0,0
0:2:16.678,342.931,43.6645,0,0.000885,0,0
0:2:17.076,343.75,43.7679,0,0.000885,0,0
0:2:17.472,344.395,43.8507,0,0.000885,0,0
0:2:17.876,345.218,43.9541,0,0.000885,0,0
0:2:18.281,346.508,44.1196,0,0.000885,0,0
0:2:18.694,347.562,44.2506,0,0.000885,0,0
0:2:19.092,348.852,44.416,0,0.000885,0,0
0:2:19.489,350.493,44.6298,0,0.000885,0,0
0:2:19.891,350.907,44.678,0,0.000885,0,0
0:2:20.294,353.015,44.9469,0,0.000885,0,0
0:2:20.695,353.896,45.0572,0,0.000885,0,0
0:2:21.095,354.425,45.1262,0,0.000885,0,0
0:2:21.492,355.537,45.271,0,0.000885,0,0
0:2:21.882,357.535,45.5192,0,0.000885,0,0
0:2:22.277,358.589,45.6571,0,0.000885,0,0
0:2:22.673,359.234,45.7398,0,0.000885,0,0
0:2:23.070,359.763,45.8088,0,0.000885,0,0
0:2:23.474,361.347,46.0087,0,0.000885,0,0
0:2:23.866,362.579,46.1673,0,0.000885,0,0
0:2:24.266,363.518,46.2845,0,0.000885,0,0
0:2:24.671,364.22,46.3741,0,0.000885,0,0
0:2:25.071,365.684,46.5603,0,0.000885,0,0
0:2:25.472,367.036,46.7327,0,0.000885,0,0
0:2:25.875,367.503,46.7947,0,0.000885,0,0
0:2:26.273,368.851,46.9671,0,0.000885,0,0
0:2:26.670,369.496,47.0429,0,0.000885,0,0
0:2:27.074,371.373,47.2842,0,0.000885,0,0
0:2:27.468,372.547,47.4359,0,0.000885,0,0
0:2:27.875,372.957,47.4842,0,0.000885,0,0
0:2:28.272,374.425,47.6704,0,0.000885,0,0
0:2:28.676,375.95,47.8703,0,0.000885,0,0
0:2:29.088,376.008,47.8772,0,0.000885,0,0
0:2:29.491,377.707,48.0909,0,0.000885,0,0
0:2:29.895,378.997,48.2564,0,0.000885,0,0
0:2:30.295,379.647,48.3391,0,0.000885,0,0
0:2:30.696,380.523,48.4495,0,0.000885,0,0
0:2:31.090,382.342,48.6839,0,0.000885,0,0
0:2:31.484,383.165,48.7873,0,0.000885,0,0
0:2:31.883,384.687,48.9804,0,0.000885,0,0
0:2:32.285,385.274,49.0562,0,0.000885,0,0
0:2:32.691,386.8,49.2493,0,0.000885,0,0
0:2:33.085,387.796,49.3734,0,0.000885,0,0
0:2:33.482,388.792,49.5044,0,0.000885,0,0
0:2:33.890,389.967,49.6491,0,0.000885,0,0
0:2:34.293,391.141,49.8008,0,0.000885,0,0
0:2:34.696,392.022,49.9111,0,0.000885,0,0
0:2:35.097,392.84,50.0215,0,0.000885,0,0
0:2:35.498,394.188,50.1869,0,0.000885,0,0
0:2:35.898,394.775,50.2628,0,0.000885,0,0
0:2:36.292,396.946,50.5386,0,0.000885,0,0
0:2:36.685,397.769,50.642,0,0.000885,0,0
0:2:37.083,398.707,50.7661,0,0.000885,0,0
0:2:37.477,400.171,50.9523,0,0.000885,0,0
0:2:37.870,400.878,51.0419,0,0.000885,0,0
0:2:38.275,402.168,51.2074,0,0.000885,0,0
0:2:38.672,403.107,51.3246,0,0.000885,0,0
0:2:39.070,404.57,51.5107,0,0.000885,0,0
0:2:39.472,405.042,51.5728,0,0.000885,0,0
0:2:39.874,406.741,51.7865,0,0.000885,0,0
0:2:40.274,407.622,51.8968,0,0.000885,0,0
0:2:40.674,407.973,51.9451,0,0.000885,0,0
0:2:41.068,409.263,52.1106,0,0.000885,0,0
0:2:41.462,410.144,52.2209,0,0.000885,0,0
0:2:41.857,411.785,52.4277,0,0.000885,0,0
0:2:42.253,412.96,52.5794,0,0.000885,0,0
0:2:42.651,414.129,52.7311,0,0.000885,0,0
0:2:43.044,415.246,52.869,0,0.000885,0,0
0:2:43.438,416.242,53,0,0.000885,0,0
0:2:43.834,417.003,53.0965,0,0.000885,0,0
0:2:44.233,418.471,53.2827,0,0.000885,0,0
0:2:44.635,418.88,53.3309,0,0.000885,0,0
0:2:45.037,420.642,53.5585,0,0.000885,0,0
0:2:45.437,422.167,53.7515,0,0.000885,0,0
0:2:45.836,422.461,53.786,0,0.000885,0,0
0:2:46.231,424.396,54.0342,0,0.000885,0,0
0:2:46.626,425.157,54.1307,0,0.000885,0,0
0:2:47.018,425.566,54.1859,0,0.000885,0,0
0:2:47.416,427.385,54.4134,0,0.000885,0,0
0:2:47.813,427.972,54.4893,0,0.000885,0,0
0:2:48.207,429.382,54.6685,0,0.000885,0,0
0:2:48.599,430.61,54.8271,0,0.000885,0,0
0:2:48.997,431.082,54.8892,0,0.000885,0,0
0:2:49.395,432.194,55.0271,0,0.000885,0,0
0:2:49.797,433.604,55.2063,0,0.000885,0,0
0:2:50.199,434.658,55.3442,0,0.000885,0,0
0:2:50.599,435.654,55.4683,0,0.000885,0,0
0:2:50.998,436.362,55.558,0,0.000885,0,0
0:2:51.394,437.825,55.7441,0,0.000885,0,0
0:2:51.797,438.999,55.8958,0,0.000885,0,0
0:2:52.192,439.996,56.0199,0,0.000885,0,0
0:2:52.586,441.17,56.1716,0,0.000885,0,0
0:2:52.983,442.224,56.3026,0,0.000885,0,0
0:2:53.386,443.866,56.5163,0,0.000885,0,0
0:2:53.791,444.689,56.6197,0,0.000885,0,0
0:2:54.191,445.685,56.7439,0,0.000885,0,0
0:2:54.595,446.739,56.8817,0,0.000885,0,0
0:2:54.996,447.62,56.9921,0,0.000885,0,0
0:2:55.398,449.204,57.192,0,0.000885,0,0
0:2:55.791,450.258,57.3299,0,0.000885,0,0
0:2:56.187,451.49,57.4885,0,0.000885,0,0
0:2:56.596,452.664,57.6333,0,0.000885,0,0
0:2:56.988,453.487,57.7367,0,0.000885,0,0
0:2:57.382,454.248,57.8332,0,0.000885,0,0
0:2:57.797,455.832,58.0401,0,0.000885,0,0
0:2:58.194,456.067,58.0676,0,0.000885,0,0
0:2:58.593,457.473,58.2469,0,0.000885,0,0
0:2:58.995,458.705,58.4055,0,0.000885,0,0
0:2:59.399,459.937,58.5641,0,0.000885,0,0
0:2:59.802,460.934,58.6882,0,0.000885,0,0
0:3:0.203,462.05,58.833,0,0.000885,0,0
0:3:0.605,462.811,58.9295,0,0.000885,0,0
0:3:0.998,464.159,59.1019,0,0.000885,0,0
0:3:1.393,465.391,59.2535,0,0.000885,0,0
0:3:1.789,466.449,59.3914,0,0.000885,0,0
0:3:2.185,467.504,59.5224,0,0.000885,0,0
0:3:2.592,468.972,59.7086,0,0.000885,0,0
0:3:2.983,469.968,59.8396,0,0.000885,0,0
0:3:3.380,471.258,60.0051,0,0.000885,0,0
0:3:3.779,472.312,60.1361,0,0.000885,0,0
0:3:4.182,473.429,60.2809,0,0.000885,0,0
0:3:4.586,474.483,60.4119,0,0.000885,0,0
0:3:4.987,475.301,60.5153,0,0.000885,0,0
0:3:5.388,477.005,60.7359,0,0.000885,0,0
0:3:5.787,477.944,60.8531,0,0.000885,0,0
0:3:6.181,479.056,60.9979,0,0.000885,0,0
0:3:6.596,479.879,61.1013,0,0.000885,0,0
0:3:6.995,480.23,61.1427,0,0.000885,0,0
0:3:7.403,481.871,61.3564,0,0.000885,0,0
0:3:7.796,482.574,61.4461,0,0.000885,0,0
0:3:8.188,484.394,61.6736,0,0.000885,0,0
0:3:8.583,484.865,61.7357,0,0.000885,0,0
0:3:8.981,486.386,61.9287,0,0.000885,0,0
0:3:9.376,487.561,62.0804,0,0.000885,0,0
0:3:9.779,488.384,62.1838,0,0.000885,0,0
0:3:10.181,489.322,62.301,0,0.000885,0,0
0:3:10.582,490.848,62.4941,0,0.000885,0,0
0:3:10.984,491.96,62.6389,0,0.000885,0,0
0:3:11.388,492.956,62.763,0,0.000885,0,0
0:3:11.792,493.779,62.8664,0,0.000885,0,0
0:3:12.187,495.479,63.087,0,0.000885,0,0
0:3:12.584,496.475,63.2111,0,0.000885,0,0
0:3:12.979,497.765,63.3766,0,0.000885,0,0
0:3:13.373,498.939,63.5283,0,0.000885,0,0
0:3:13.786,499.117,63.549,0,0.000885,0,0
0:3:14.186,500.523,63.7282,0,0.000885,0,0
0:3:14.589,501.991,63.9144,0,0.000885,0,0
0:3:14.990,503.339,64.0868,0,0.000885,0,0
0:3:15.393,504.219,64.1971,0,0.000885,0,0
0:3:15.788,505.158,64.3212,0,0.000885,0,0
0:3:16.184,505.976,64.4246,0,0.000885,0,0
0:3:16.581,506.621,64.5073,0,0.000885,0,0
0:3:16.983,508.147,64.7004,0,0.000885,0,0
0:3:17.387,509.264,64.8383,0,0.000885,0,0
0:3:17.784,510.496,64.9969,0,0.000885,0,0
0:3:18.188,511.901,65.1761,0,0.000885,0,0
0:3:18.583,512.662,65.2727,0,0.000885,0,0
0:3:18.976,513.427,65.3692,0,0.000885,0,0
0:3:19.377,514.659,65.5278,0,0.000885,0,0
0:3:19.782,515.713,65.6657,0,0.000885,0,0
0:3:20.183,516.946,65.8174,0,0.000885,0,0
0:3:20.582,517.826,65.9346,0,0.000885,0,0
0:3:20.998,519.232,66.1138,0,0.000885,0,0
0:3:21.395,520.406,66.2586,0,0.000885,0,0
0:3:21.789,521.225,66.362,0,0.000885,0,0
0:3:22.184,522.635,66.5413,0,0.000885,0,0
0:3:22.577,523.573,66.6654,0,0.000885,0,0
0:3:22.973,525.037,66.8516,0,0.000885,0,0
0:3:23.370,526.038,66.9757,0,0.000885,0,0
0:3:23.765,527.034,67.1067,0,0.000885,0,0
0:3:24.158,527.737,67.1963,0,0.000885,0,0
0:3:24.559,528.969,67.348,0,0.000885,0,0
0:3:24.963,530.201,67.5066,0,0.000885,0,0
0:3:25.365,531.549,67.6789,0,0.000885,0,0
0:3:25.766,532.603,67.8168,0,0.000885,0,0
0:3:26.160,533.604,67.9409,0,0.000885,0,0
0:3:26.556,534.894,68.1064,0,0.000885,0,0
0:3:26.954,536.242,68.2788,0,0.000885,0,0
0:3:27.347,537.06,68.3822,0,0.000885,0,0
0:3:27.740,537.999,68.4994,0,0.000885,0,0
0:3:28.136,539.351,68.6718,0,0.000885,0,0
0:3:28.534,540.228,68.7821,0,0.000885,0,0
0:3:28.927,541.286,68.92,0,0.000885,0,0
0:3:29.330,542.398,69.0579,0,0.000885,0,0
0:3:29.734,543.688,69.2234,0,0.000885,0,0
0:3:30.135,544.396,69.313,0,0.000885,0,0
0:3:30.535,544.978,69.3888,0,0.000885,0,0
0:3:30.929,546.331,69.5612,0,0.000885,0,0
0:3:31.324,547.091,69.6577,0,0.000885,0,0
0:3:31.720,548.968,69.899,0,0.000885,0,0
0:3:32.117,550.085,70.0369,0,0.000885,0,0
0:3:32.513,550.846,70.1335,0,0.000885,0,0
0:3:32.905,552.545,70.3541,0,0.000885,0,0
0:3:33.301,553.252,70.4437,0,0.000885,0,0
0:3:33.698,554.658,70.623,0,0.000885,0,0
0:3:34.103,555.596,70.7402,0,0.000885,0,0
0:3:34.507,556.65,70.8781,0,0.000885,0,0
0:3:34.909,557.647,71.0022,0,0.000885,0,0
0:3:35.310,558.879,71.1608,0,0.000885,0,0
0:3:35.712,559.818,71.278,0,0.000885,0,0
0:3:36.106,560.992,71.4297,0,0.000885,0,0
0:3:36.499,561.93,71.5469,0,0.000885,0,0
0:3:36.904,562.985,71.6848,0,0.000885,0,0
0:3:37.301,564.101,71.8227,0,0.000885,0,0
0:3:37.695,565.04,71.9399,0,0.000885,0,0
0:3:38.088,566.388,72.1123,0,0.000885,0,0
0:3:38.482,567.504,72.2571,0,0.000885,0,0
0:3:38.880,568.852,72.4294,0,0.000885,0,0
0:3:39.276,569.613,72.526,0,0.000885,0,0
0:3:39.680,570.729,72.6707,0,0.000885,0,0
0:3:40.083,571.783,72.8017,0,0.000885,0,0
0:3:40.483,573.073,72.9672,0,0.000885,0,0
0:3:40.883,574.363,73.1327,0,0.000885,0,0
0:3:41.299,575.186,73.2361,0,0.000885,0,0
0:3:41.702,576.067,73.3464,0,0.000885,0,0
0:3:42.097,577.651,73.5464,0,0.000885,0,0
0:3:42.492,578.878,73.705,0,0.000885,0,0
0:3:42.889,579.817,73.8222,0,0.000885,0,0
0:3:43.292,580.818,73.9532,0,0.000885,0,0
0:3:43.685,581.988,74.098,0,0.000885,0,0
0:3:44.085,582.984,74.229,0,0.000885,0,0
0:3:44.489,584.043,74.36,0,0.000885,0,0
0:3:44.889,585.333,74.5254,0,0.000885,0,0
0:3:45.289,586.387,74.6633,0,0.000885,0,0
0:3:45.703,587.325,74.7805,0,0.000885,0,0
0:3:46.102,588.442,74.9253,0,0.000885,0,0
0:3:46.499,589.318,75.0356,0,0.000885,0,0
0:3:46.892,590.083,75.1322,0,0.000885,0,0
0:3:47.287,591.609,75.3252,0,0.000885,0,0
0:3:47.686,592.668,75.4631,0,0.000885,0,0
0:3:48.085,593.842,75.6079,0,0.000885,0,0
0:3:48.483,595.132,75.7734,0,0.000885,0,0
0:3:48.877,596.013,75.8837,0,0.000885,0,0
0:3:49.280,596.951,76.0078,0,0.000885,0,0
0:3:49.686,598.299,76.1802,0,0.000885,0,0
0:3:50.087,599.18,76.2905,0,0.000885,0,0
0:3:50.490,601.177,76.5456,0,0.000885,0,0
0:3:50.897,602,76.649,0,0.000885,0,0
0:3:51.293,602.703,76.7386,0,0.000885,0,0
0:3:51.692,603.762,76.8765,0,0.000885,0,0
0:3:52.090,604.936,77.0213,0,0.000885,0,0
0:3:52.498,606.342,77.2006,0,0.000885,0,0
0:3:52.892,607.458,77.3454,0,0.000885,0,0
0:3:53.290,608.339,77.4557,0,0.000885,0,0
0:3:53.688,609.277,77.5729,0,0.000885,0,0
0:3:54.106,610.336,77.7108,0,0.000885,0,0
0:3:54.511,611.448,77.8556,0,0.000885,0,0
0:3:54.914,611.804,77.897,0,0.000885,0,0
0:3:55.316,613.561,78.1245,0,0.000885,0,0
0:3:55.719,614.62,78.2555,0,0.000885,0,0
0:3:56.116,615.736,78.4003,0,0.000885,0,0
0:3:56.511,616.848,78.5382,0,0.000885,0,0
0:3:56.907,617.849,78.6692,0,0.000885,0,0
0:3:57.306,619.197,78.8415,0,0.000885,0,0
0:3:57.704,620.549,79.0139,0,0.000885,0,0
0:3:58.101,621.136,79.0829,0,0.000885,0,0
0:3:58.494,622.311,79.2346,0,0.000885,0,0
0:3:58.891,623.658,79.4069,0,0.000885,0,0
0:3:59.294,625.126,79.5931,0,0.000885,0,0
0:3:59.702,625.771,79.6758,0,0.000885,0,0
0:4:0.106,627.417,79.8827,0,0.000885,0,0
0:4:0.508,627.947,79.9516,0,0.000885,0,0
0:4:0.905,629.237,80.1171,0,0.000885,0,0
0:4:1.304,630.233,80.2412,0,0.000885,0,0
0:4:1.702,631.523,80.4067,0,0.000885,0,0
0:4:2.095,632.582,80.5446,0,0.000885,0,0
0:4:2.491,633.284,80.6342,0,0.000885,0,0
0:4:2.890,634.694,80.8135,0,0.000885,0,0
0:4:3.287,635.633,80.9307,0,0.000885,0,0
0:4:3.683,636.572,81.0479,0,0.000885,0,0
0:4:4.078,638.04,81.2409,0,0.000885,0,0
0:4:4.479,638.511,81.2961,0,0.000885,0,0
0:4:4.886,639.45,81.4202,0,0.000885,0,0
0:4:5.287,641.153,81.6339,0,0.000885,0,0
0:4:5.690,642.034,81.7442,0,0.000885,0,0
0:4:6.086,642.915,81.8615,0,0.000885,0,0
0:4:6.484,644.441,82.0545,0,0.000885,0,0
0:4:6.884,645.731,82.22,0,0.000885,0,0
0:4:7.280,646.611,82.3303,0,0.000885,0,0
0:4:7.676,647.256,82.413,0,0.000885,0,0
0:4:8.072,648.546,82.5785,0,0.000885,0,0
0:4:8.470,649.956,82.7578,0,0.000885,0,0
0:4:8.869,651.189,82.9095,0,0.000885,0,0
0:4:9.274,652.305,83.0542,0,0.000885,0,0
0:4:9.676,652.892,83.1301,0,0.000885,0,0
0:4:10.080,654.009,83.268,0,0.000885,0,0
0:4:10.483,655.299,83.4335,0,0.000885,0,0
0:4:10.880,656.824,83.6265,0,0.000885,0,0
0:4:11.287,657.941,83.7713,0,0.000885,0,0
0:4:11.682,658.822,83.8816,0,0.000885,0,0
0:4:12.080,660.112,84.0471,0,0.000885,0,0
0:4:12.479,661.05,84.1643,0,0.000885,0,0
0:4:12.885,662.047,84.2953,0,0.000885,0,0
0:4:13.283,663.105,84.4263,0,0.000885,0,0
0:4:13.677,664.044,84.5504,0,0.000885,0,0
0:4:14.078,665.57,84.7435,0,0.000885,0,0
0:4:14.485,666.508,84.8607,0,0.000885,0,0
0:4:14.889,667.803,85.0261,0,0.000885,0,0
0:4:15.290,668.328,85.0951,0,0.000885,0,0
0:4:15.699,669.795,85.2813,0,0.000885,0,0
0:4:16.096,670.796,85.4054,0,0.000885,0,0
0:4:16.495,671.85,85.5433,0,0.000885,0,0
0:4:16.892,673.261,85.7225,0,0.000885,0,0
0:4:17.288,674.315,85.8535,0,0.000885,0,0
0:4:17.691,675.551,86.0121,0,0.000885,0,0
0:4:18.092,676.606,86.15,0,0.000885,0,0
0:4:18.489,677.429,86.2534,0,0.000885,0,0
0:4:18.884,678.367,86.3706,0,0.000885,0,0
0:4:19.289,679.893,86.5637,0,0.000885,0,0
0:4:19.694,680.831,86.6878,0,0.000885,0,0
0:4:20.096,682.126,86.8533,0,0.000885,0,0
0:4:20.501,682.944,86.9567,0,0.000885,0,0
0:4:20.895,684.297,87.129,0,0.000885,0,0
0:4:21.301,685.235,87.2463,0,0.000885,0,0
0:4:21.702,686.289,87.3842,0,0.000885,0,0
0:4:22.097,686.997,87.4738,0,0.000885,0,0
0:4:22.493,688.758,87.6944,0,0.000885,0,0
0:4:22.888,689.403,87.7772,0,0.000885,0,0
0:4:23.284,690.342,87.8944,0,0.000885,0,0
0:4:23.684,691.338,88.0254,0,0.000885,0,0
0:4:24.082,692.277,88.1426,0,0.000885,0,0
0:4:24.488,693.513,88.3012,0,0.000885,0,0
0:4:24.892,694.803,88.4666,0,0.000885,0,0
0:4:25.295,695.92,88.6045,0,0.000885,0,0
0:4:25.696,697.094,88.7562,0,0.000885,0,0
0:4:26.096,698.62,88.9493,0,0.000885,0,0
0:4:26.491,699.674,89.0872,0,0.000885,0,0
0:4:26.896,700.613,89.2044,0,0.000885,0,0
0:4:27.293,701.965,89.3767,0,0.000885,0,0
0:4:27.692,703.255,89.5422,0,0.000885,0,0
0:4:28.090,703.9,89.6249,0,0.000885,0,0
0:4:28.486,704.959,89.756,0,0.000885,0,0
0:4:28.883,706.075,89.9007,0,0.000885,0,0
0:4:29.284,706.951,90.0111,0,0.000885,0,0
0:4:29.691,708.068,90.1558,0,0.000885,0,0
0:4:30.093,709.242,90.3006,0,0.000885,0,0
0:4:30.496,710.301,90.4385,0,0.000885,0,0
0:4:30.892,711.942,90.6454,0,0.000885,0,0
0:4:31.303,712.765,90.7488,0,0.000885,0,0
0:4:31.703,713.762,90.8798,0,0.000885,0,0
0:4:32.107,715.172,91.0591,0,0.000885,0,0
0:4:32.502,715.701,91.128,0,0.000885,0,0
0:4:32.896,716.813,91.2659,0,0.000885,0,0
0:4:33.297,717.814,91.3969,0,0.000885,0,0
0:4:33.695,719.34,91.59,0,0.000885,0,0
0:4:34.098,720.394,91.721,0,0.000885,0,0
0:4:34.506,721.275,91.8382,0,0.000885,0,0
0:4:34.910,722.04,91.9347,0,0.000885,0,0
0:4:35.313,723.566,92.1277,0,0.000885,0,0
0:4:35.716,724.331,92.2243,0,0.000885,0,0
0:4:36.113,725.856,92.4173,0,0.000885,0,0
0:4:36.509,726.911,92.5552,0,0.000885,0,0
0:4:36.906,728.672,92.7759,0,0.000885,0,0
0:4:37.306,729.259,92.8517,0,0.000885,0,0
0:4:37.703,729.904,92.9344,0,0.000885,0,0
0:4:38.097,730.901,93.0585,0,0.000885,0,0
0:4:38.493,732.017,93.2033,0,0.000885,0,0
0:4:38.893,733.134,93.3481,0,0.000885,0,0
0:4:39.302,734.544,93.5274,0,0.000885,0,0
0:4:39.708,735.54,93.6515,0,0.000885,0,0
0:4:40.112,736.657,93.7963,0,0.000885,0,0
0:4:40.515,737.947,93.9549,0,0.000885,0,0
0:4:40.916,739.415,94.1479,0,0.000885,0,0
0:4:41.315,740.411,94.272,0,0.000885,0,0
0:4:41.711,741.35,94.3892,0,0.000885,0,0
0:4:42.105,742.524,94.5409,0,0.000885,0,0
0:4:42.503,743.583,94.6788,0,0.000885,0,0
0:4:42.904,744.285,94.7684,0,0.000885,0,0
0:4:43.297,745.402,94.9063,0,0.000885,0,0
0:4:43.693,746.398,95.0373,0,0.000885,0,0
0:4:44.097,747.63,95.189,0,0.000885,0,0
0:4:44.503,748.805,95.3407,0,0.000885,0,0
0:4:44.905,749.628,95.4441,0,0.000885,0,0
0:4:45.308,751.038,95.6234,0,0.000885,0,0
0:4:45.705,751.918,95.7337,0,0.000885,0,0
0:4:46.103,753.444,95.9337,0,0.000885,0,0
0:4:46.499,754.441,96.0578,0,0.000885,0,0
0:4:46.897,755.909,96.2439,0,0.000885,0,0
0:4:47.292,756.38,96.306,0,0.000885,0,0
0:4:47.689,757.612,96.4645,0,0.000885,0,0
0:4:48.086,759.254,96.6714,0,0.000885,0,0
0:4:48.486,760.544,96.8369,0,0.000885,0,0
0:4:48.891,761.424,96.9472,0,0.000885,0,0
0:4:49.296,762.367,97.0644,0,0.000885,0,0
0:4:49.698,762.834,97.1264,0,0.000885,0,0
0:4:50.103,764.067,97.285,0,0.000885,0,0
0:4:50.506,765.419,97.4574,0,0.000885,0,0
0:4:50.903,766.887,97.6436,0,0.000885,0,0
0:4:51.296,767.412,97.7125,0,0.000885,0,0
0:4:51.693,768.528,97.8504,0,0.000885,0,0
0:4:52.091,770.054,98.0434,0,0.000885,0,0
0:4:52.489,770.468,98.0986,0,0.000885,0,0
0:4:52.895,771.815,98.271,0,0.000885,0,0
0:4:53.291,772.932,98.4158,0,0.000885,0,0
0:4:53.696,773.986,98.5468,0,0.000885,0,0
0:4:54.098,775.223,98.7053,0,0.000885,0,0
0:4:54.506,776.041,98.8088,0,0.000885,0,0
0:4:54.909,777.158,98.9536,0,0.000885,0,0
0:4:55.312,778.568,99.1328,0,0.000885,0,0
0:4:55.710,779.506,99.25,0,0.000885,0,0
0:4:56.109,780.916,99.4293,0,0.000885,0,0
0:4:56.506,782.028,99.5741,0,0.000885,0,0
0:4:56.900,782.967,99.6913,0,0.000885,0,0
0:4:57.295,784.377,99.8706,0,0.000885,0,0
0:4:57.695,785.258,99.9809,0,0.000885,0,0
0:4:58.091,786.49,100.139,0,0.000885,0,0
0:4:58.486,786.962,100.202,0,0.000885,0,0
0:4:58.882,788.723,100.422,0,0.000885,0,0
0:4:59.285,789.897,100.574,0,0.000885,0,0
0:4:59.691,790.6,100.663,0,0.000885,0,0
0:5:0.093,791.423,100.767,0,0.000885,0,0
0:5:0.495,792.42,100.891,0,0.000885,0,0
0:5:0.893,794.297,101.132,0,0.000885,0,0
0:5:1.292,794.942,101.215,0,0.000885,0,0
0:5:1.689,796.236,101.381,0,0.000885,0,0
0:5:2.085,797.348,101.518,0,0.000885,0,0
0:5:2.479,798.113,101.622,0,0.000885,0,0
0:5:2.880,799.345,101.774,0,0.000885,0,0
0:5:3.279,800.462,101.918,0,0.000885,0,0
0:5:3.673,801.694,102.077,0,0.000885,0,0
0:5:4.070,803.104,102.256,0,0.000885,0,0
0:5:4.471,804.51,102.435,0,0.000885,0,0
0:5:4.878,804.923,102.484,0,0.000885,0,0
0:5:5.280,805.92,102.615,0,0.000885,0,0
0:5:5.682,806.916,102.739,0,0.000885,0,0
0:5:6.079,807.975,102.877,0,0.000885,0,0
0:5:6.478,809.149,103.021,0,0.000885,0,0
0:5:6.876,810.088,103.146,0,0.000885,0,0
0:5:7.274,811.671,103.346,0,0.000885,0,0
0:5:7.668,812.201,103.414,0,0.000885,0,0
0:5:8.064,813.375,103.559,0,0.000885,0,0
0:5:8.464,814.434,103.697,0,0.000885,0,0
0:5:8.861,815.839,103.876,0,0.000885,0,0
0:5:9.266,817.134,104.042,0,0.000885,0,0
0:5:9.669,817.837,104.132,0,0.000885,0,0
0:5:10.070,818.539,104.221,0,0.000885,0,0
0:5:10.474,820.007,104.407,0,0.000885,0,0
0:5:10.868,821.124,104.552,0,0.000885,0,0
0:5:11.265,822.414,104.711,0,0.000885,0,0
0:5:11.664,823.53,104.855,0,0.000885,0,0
0:5:12.062,824.647,105,0,0.000885,0,0
0:5:12.458,825.879,105.152,0,0.000885,0,0
0:5:12.853,827.169,105.317,0,0.000885,0,0
0:5:13.249,827.992,105.421,0,0.000885,0,0
0:5:13.649,829.46,105.607,0,0.000885,0,0
0:5:14.047,829.985,105.676,0,0.000885,0,0
0:5:14.454,831.337,105.848,0,0.000885,0,0
0:5:14.858,832.454,105.993,0,0.000885,0,0
0:5:15.259,833.566,106.131,0,0.000885,0,0
0:5:15.662,834.566,106.262,0,0.000885,0,0
0:5:16.058,835.505,106.379,0,0.000885,0,0
0:5:16.451,836.444,106.496,0,0.000885,0,0
0:5:16.850,837.44,106.627,0,0.000885,0,0
0:5:17.248,838.966,106.82,0,0.000885,0,0
0:5:17.646,840.26,106.986,0,0.000885,0,0
0:5:18.044,841.199,107.103,0,0.000885,0,0
0:5:18.438,842.315,107.248,0,0.000885,0,0
0:5:18.837,843.721,107.427,0,0.000885,0,0
0:5:19.237,844.25,107.496,0,0.000885,0,0
0:5:19.641,845.66,107.675,0,0.000885,0,0
0:5:20.046,846.363,107.765,0,0.000885,0,0
0:5:20.449,847.889,107.958,0,0.000885,0,0
0:5:20.848,848.654,108.055,0,0.000885,0,0
0:5:21.247,850.295,108.261,0,0.000885,0,0
0:5:21.641,850.94,108.344,0,0.000885,0,0
0:5:22.037,852.35,108.523,0,0.000885,0,0
0:5:22.436,852.995,108.606,0,0.000885,0,0
0:5:22.834,854.406,108.785,0,0.000885,0,0
0:5:23.230,855.108,108.875,0,0.000885,0,0
0:5:23.625,856.403,109.041,0,0.000885,0,0
0:5:24.028,857.457,109.172,0,0.000885,0,0
0:5:24.434,858.458,109.303,0,0.000885,0,0
0:5:24.838,859.748,109.468,0,0.000885,0,0
0:5:25.239,860.98,109.627,0,0.000885,0,0
0:5:25.634,862.154,109.771,0,0.000885,0,0
0:5:26.033,862.977,109.875,0,0.000885,0,0
0:5:26.431,863.738,109.971,0,0.000885,0,0
0:5:26.826,865.206,110.164,0,0.000885,0,0
0:5:27.220,865.851,110.24,0,0.000885,0,0
0:5:27.619,867.732,110.482,0,0.000885,0,0
0:5:28.017,868.844,110.626,0,0.000885,0,0
0:5:28.413,869.316,110.682,0,0.000885,0,0
0:5:28.809,870.784,110.875,0,0.000885,0,0
0:5:29.213,871.607,110.978,0,0.000885,0,0
0:5:29.618,873.19,111.178,0,0.000885,0,0
0:5:30.020,874.013,111.281,0,0.000885,0,0
0:5:30.423,875.655,111.495,0,0.000885,0,0
0:5:30.817,876.651,111.619,0,0.000885,0,0
0:5:31.215,876.771,111.633,0,0.000885,0,0
0:5:31.615,878.003,111.792,0,0.000885,0,0
0:5:32.013,879.351,111.964,0,0.000885,0,0
0:5:32.407,880.174,112.067,0,0.000885,0,0
0:5:32.813,881.526,112.24,0,0.000885,0,0
0:5:33.213,882.758,112.398,0,0.000885,0,0
0:5:33.609,883.581,112.502,0,0.000885,0,0
0:5:34.003,885.281,112.715,0,0.000885,0,0
0:5:34.410,886.281,112.846,0,0.000885,0,0
0:5:34.815,887.336,112.977,0,0.000885,0,0
0:5:35.217,888.919,113.184,0,0.000885,0,0
0:5:35.619,889.569,113.26,0,0.000885,0,0
0:5:36.015,890.272,113.35,0,0.000885,0,0
0:5:36.412,891.739,113.543,0,0.000885,0,0
0:5:36.810,892.442,113.632,0,0.000885,0,0
0:5:37.208,893.852,113.812,0,0.000885,0,0
0:5:37.601,895.027,113.957,0,0.000885,0,0
0:5:37.998,896.259,114.115,0,0.000885,0,0
0:5:38.407,896.904,114.198,0,0.000885,0,0
0:5:38.817,899.075,114.474,0,0.000885,0,0
0:5:39.222,899.604,114.543,0,0.000885,0,0
0:5:39.626,900.663,114.674,0,0.000885,0,0
0:5:40.029,901.895,114.832,0,0.000885,0,0
0:5:40.429,902.655,114.929,0,0.000885,0,0
0:5:40.826,903.95,115.094,0,0.000885,0,0
0:5:41.220,904.417,115.156,0,0.000885,0,0
0:5:41.616,905.355,115.273,0,0.000885,0,0
0:5:42.013,906.65,115.439,0,0.000885,0,0
0:5:42.412,907.588,115.556,0,0.000885,0,0
0:5:42.808,908.763,115.708,0,0.000885,0,0
0:5:43.200,910.64,115.949,0,0.000885,0,0
0:5:43.600,911.814,116.094,0,0.000885,0,0
0:5:44.000,912.931,116.239,0,0.000885,0,0
0:5:44.405,913.749,116.342,0,0.000885,0,0
0:5:44.810,914.75,116.466,0,0.000885,0,0
0:5:45.211,915.862,116.611,0,0.000885,0,0
0:5:45.611,916.979,116.756,0,0.000885,0,0
0:5:46.009,918.153,116.901,0,0.000885,0,0
0:5:46.415,918.976,117.011,0,0.000885,0,0
0:5:46.811,919.914,117.128,0,0.000885,0,0
0:5:47.205,921.204,117.294,0,0.000885,0,0
0:5:47.606,923.024,117.521,0,0.000885,0,0
0:5:48.013,923.789,117.618,0,0.000885,0,0
0:5:48.406,924.785,117.749,0,0.000885,0,0
0:5:48.803,925.021,117.776,0,0.000885,0,0
0:5:49.205,926.84,118.011,0,0.000885,0,0
0:5:49.614,927.428,118.087,0,0.000885,0,0
0:5:50.015,928.486,118.218,0,0.000885,0,0
0:5:50.417,929.483,118.349,0,0.000885,0,0
0:5:50.814,931.008,118.542,0,0.000885,0,0
0:5:51.213,932.24,118.693,0,0.000885,0,0
0:5:51.609,933.357,118.838,0,0.000885,0,0
0:5:52.004,934.647,119.004,0,0.000885,0,0
0:5:52.400,935.528,119.114,0,0.000885,0,0
0:5:52.810,936.702,119.266,0,0.000885,0,0
0:5:53.207,937.876,119.417,0,0.000885,0,0
0:5:53.602,938.993,119.555,0,0.000885,0,0
0:5:53.999,939.754,119.652,0,0.000885,0,0
0:5:54.401,941.106,119.824,0,0.000885,0,0
0:5:54.806,941.809,119.914,0,0.000885,0,0
0:5:55.210,943.334,120.107,0,0.000885,0,0
0:5:55.614,944.273,120.231,0,0.000885,0,0
0:5:56.018,945.625,120.403,0,0.000885,0,0
0:5:56.418,946.622,120.527,0,0.000885,0,0
0:5:56.817,948.147,120.72,0,0.000885,0,0
0:5:57.212,949.086,120.844,0,0.000885,0,0
0:5:57.606,949.967,120.955,0,0.000885,0,0
0:5:58.015,951.612,121.162,0,0.000885,0,0
0:5:58.415,951.964,121.21,0,0.000885,0,0
0:5:58.820,953.374,121.389,0,0.000885,0,0
0:5:59.225,953.961,121.465,0,0.000885,0,0
0:5:59.629,955.251,121.624,0,0.000885,0,0
0:6:0.031,956.074,121.734,0,0.000885,0,0
0:6:0.434,957.658,121.934,0,0.000885,0,0
0:6:0.830,958.89,122.092,0,0.000885,0,0
0:6:1.223,959.535,122.175,0,0.000885,0,0
0:6:1.621,960.709,122.32,0,0.000885,0,0
0:6:2.020,962.119,122.499,0,0.000885,0,0
0:6:2.417,963.116,122.63,0,0.000885,0,0
0:6:2.813,964.468,122.803,0,0.000885,0,0
0:6:3.207,965.7,122.954,0,0.000885,0,0
0:6:3.607,966.523,123.065,0,0.000885,0,0
0:6:4.005,967.462,123.182,0,0.000885,0,0
0:6:4.411,968.4,123.299,0,0.000885,0,0
0:6:4.814,969.396,123.43,0,0.000885,0,0
0:6:5.217,970.513,123.568,0,0.000885,0,0
0:6:5.618,971.861,123.74,0,0.000885,0,0
0:6:6.017,973.097,123.899,0,0.000885,0,0
0:6:6.411,974.267,124.05,0,0.000885,0,0
0:6:6.805,975.797,124.244,0,0.000885,0,0
0:6:7.203,976.207,124.292,0,0.000885,0,0
0:6:7.602,977.675,124.478,0,0.000885,0,0
0:6:8.008,978.498,124.588,0,0.000885,0,0
0:6:8.401,979.2,124.678,0,0.000885,0,0
0:6:8.800,980.259,124.809,0,0.000885,0,0
0:6:9.201,981.665,124.988,0,0.000885,0,0
0:6:9.608,982.194,125.057,0,0.000885,0,0
0:6:10.013,983.835,125.264,0,0.000885,0,0
0:6:10.416,984.894,125.402,0,0.000885,0,0
0:6:10.814,986.304,125.581,0,0.000885,0,0
0:6:11.211,987.185,125.691,0,0.000885,0,0
0:6:11.617,988.591,125.871,0,0.000885,0,0
0:6:12.012,990.058,126.057,0,0.000885,0,0
0:6:12.407,990.881,126.16,0,0.000885,0,0
0:6:12.806,991.82,126.284,0,0.000885,0,0
0:6:13.202,992.643,126.388,0,0.000885,0,0
0:6:13.619,993.581,126.505,0,0.000885,0,0
0:6:14.021,994.871,126.67,0,0.000885,0,0
0:6:14.426,996.046,126.822,0,0.000885,0,0
0:6:14.829,997.047,126.946,0,0.000885,0,0
0:6:15.232,998.572,127.139,0,0.000885,0,0
0:6:15.627,999.275,127.229,0,0.000885,0,0
0:6:16.023,1000.69,127.408,0,0.000885,0,0
0:6:16.425,1001.68,127.539,0,0.000885,0,0
0:6:16.821,1003.15,127.725,0,0.000885,0,0
0:6:17.214,1004.21,127.856,0,0.000885,0,0
0:6:17.612,1004.27,127.87,0,0.000885,0,0
0:6:18.008,1005.03,127.967,0,0.000885,0,0
0:6:18.406,1006.79,128.187,0,0.000885,0,0
0:6:18.803,1008.73,128.436,0,0.000885,0,0
0:6:19.207,1009.19,128.498,0,0.000885,0,0
0:6:19.612,1010.25,128.629,0,0.000885,0,0
0:6:20.014,1011.31,128.766,0,0.000885,0,0
0:6:20.416,1012.48,128.911,0,0.000885,0,0
0:6:20.810,1013.36,129.028,0,0.000885,0,0
0:6:21.206,1014.01,129.104,0,0.000885,0,0
0:6:21.604,1015.6,129.311,0,0.000885,0,0
0:6:22.004,1017.12,129.504,0,0.000885,0,0
0:6:22.398,1018.41,129.67,0,0.000885,0,0
0:6:22.795,1019,129.746,0,0.000885,0,0
0:6:23.192,1020.23,129.897,0,0.000885,0,0
0:6:23.590,1021.29,130.035,0,0.000885,0,0
0:6:23.988,1022.11,130.139,0,0.000885,0,0
0:6:24.392,1023.7,130.338,0,0.000885,0,0
0:6:24.796,1024.87,130.49,0,0.000885,0,0
0:6:25.198,1026.1,130.649,0,0.000885,0,0
0:6:25.601,1027.45,130.821,0,0.000885,0,0
0:6:25.995,1027.92,130.876,0,0.000885,0,0
0:6:26.400,1028.51,130.952,0,0.000885,0,0
0:6:26.798,1029.51,131.083,0,0.000885,0,0
0:6:27.198,1030.8,131.242,0,0.000885,0,0
0:6:27.594,1031.68,131.359,0,0.000885,0,0
0:6:27.997,1032.61,131.476,0,0.000885,0,0
0:6:28.396,1034.79,131.752,0,0.000885,0,0
0:6:28.803,1035.84,131.89,0,0.000885,0,0
0:6:29.213,1036.78,132.007,0,0.000885,0,0
0:6:29.617,1038.01,132.166,0,0.000885,0,0
0:6:30.020,1039.25,132.324,0,0.000885,0,0
0:6:30.422,1040.07,132.428,0,0.000885,0,0
0:6:30.825,1040.95,132.538,0,0.000885,0,0
0:6:31.222,1042.07,132.683,0,0.000885,0,0
0:6:31.618,1043.48,132.862,0,0.000885,0,0
0:6:32.015,1044.53,132.993,0,0.000885,0,0
0:6:32.414,1045.35,133.096,0,0.000885,0,0
0:6:32.822,1047.06,133.317,0,0.000885,0,0
0:6:33.217,1047.94,133.427,0,0.000885,0,0
0:6:33.610,1048.46,133.496,0,0.000885,0,0
0:6:34.014,1049.41,133.614,0,0.000885,0,0
0:6:34.421,1051.23,133.848,0,0.000885,0,0
0:6:34.822,1052.34,133.986,0,0.000885,0,0
0:6:35.225,1053.22,134.103,0,0.000885,0,0
0:6:35.621,1054.81,134.303,0,0.000885,0,0
0:6:36.020,1055.57,134.4,0,0.000885,0,0
0:6:36.419,1056.15,134.475,0,0.000885,0,0
0:6:36.815,1057.04,134.586,0,0.000885,0,0
0:6:37.208,1058.68,134.793,0,0.000885,0,0
0:6:37.606,1060.21,134.992,0,0.000885,0,0
0:6:38.005,1061.44,135.144,0,0.000885,0,0
0:6:38.402,1062.14,135.234,0,0.000885,0,0
0:6:38.808,1063.02,135.351,0,0.000885,0,0
0:6:39.211,1064.02,135.475,0,0.000885,0,0
0:6:39.618,1065.02,135.599,0,0.000885,0,0
0:6:40.019,1066.43,135.778,0,0.000885,0,0
0:6:40.423,1067.6,135.93,0,0.000885,0,0
0:6:40.819,1068.42,136.034,0,0.000885,0,0
0:6:41.215,1069.13,136.123,0,0.000885,0,0
0:6:41.611,1071.24,136.392,0,0.000885,0,0
0:6:42.010,1072.53,136.558,0,0.000885,0,0
0:6:42.420,1073.18,136.64,0,0.000885,0,0
0:6:42.823,1073.82,136.723,0,0.000885,0,0
0:6:43.219,1074.94,136.868,0,0.000885,0,0
0:6:43.618,1076.82,137.102,0,0.000885,0,0
0:6:44.018,1077.88,137.24,0,0.000885,0,0
0:6:44.424,1078.34,137.302,0,0.000885,0,0
0:6:44.827,1079.87,137.495,0,0.000885,0,0
0:6:45.228,1081.63,137.716,0,0.000885,0,0
0:6:45.629,1082.04,137.771,0,0.000885,0,0
0:6:46.026,1082.57,137.84,0,0.000885,0,0
0:6:46.422,1084.39,138.068,0,0.000885,0,0
0:6:46.818,1085.04,138.15,0,0.000885,0,0
0:6:47.224,1085.68,138.233,0,0.000885,0,0
0:6:47.625,1087.21,138.426,0,0.000885,0,0
0:6:48.022,1088.85,138.64,0,0.000885,0,0
0:6:48.415,1089.56,138.729,0,0.000885,0,0
0:6:48.822,1090.37,138.833,0,0.000885,0,0
0:6:49.225,1091.61,138.991,0,0.000885,0,0
0:6:49.631,1092.9,139.15,0,0.000885,0,0
0:6:50.035,1094.25,139.322,0,0.000885,0,0
0:6:50.438,1094.96,139.412,0,0.000885,0,0
0:6:50.834,1095.84,139.529,0,0.000885,0,0
0:6:51.232,1097.24,139.708,0,0.000885,0,0
0:6:51.632,1098.54,139.867,0,0.000885,0,0
0:6:52.028,1099.83,140.033,0,0.000885,0,0
0:6:52.422,1100.53,140.122,0,0.000885,0,0
0:6:52.819,1101.47,140.246,0,0.000885,0,0
0:6:53.217,1102.71,140.398,0,0.000885,0,0
0:6:53.616,1103.82,140.543,0,0.000885,0,0
0:6:54.011,1105.23,140.722,0,0.000885,0,0
0:6:54.416,1106.05,140.825,0,0.000885,0,0
0:6:54.820,1107.05,140.956,0,0.000885,0,0
0:6:55.223,1108.11,141.087,0,0.000885,0,0
0:6:55.626,1109.69,141.287,0,0.000885,0,0
0:6:56.022,1110.92,141.446,0,0.000885,0,0
0:6:56.416,1111.62,141.536,0,0.000885,0,0
0:6:56.812,1112.57,141.653,0,0.000885,0,0
0:6:57.216,1113.27,141.742,0,0.000885,0,0
0:6:57.609,1114.56,141.908,0,0.000885,0,0
0:6:58.005,1115.91,142.08,0,0.000885,0,0
0:6:58.401,1116.38,142.142,0,0.000885,0,0
0:6:58.809,1117.85,142.328,0,0.000885,0,0
0:6:59.219,1119.43,142.528,0,0.000885,0,0
0:6:59.624,1120.49,142.666,0,0.000885,0,0
0:7:0.028,1121.19,142.756,0,0.000885,0,0
0:7:0.430,1119.26,142.508,0,0.000885,0,0
0:7:0.831,1119.61,142.556,0,0.000885,0,0
0:7:1.227,1121.37,142.777,0,0.000885,0,0
0:7:1.623,1123.83,143.094,0,0.000885,0,0
0:7:2.017,1126.13,143.383,0,0.000885,0,0
0:7:2.418,1127.77,143.59,0,0.000885,0,0
0:7:2.816,1129.35,143.797,0,0.000885,0,0
0:7:3.209,1131.47,144.066,0,0.000885,0,0
0:7:3.605,1132.35,144.176,0,0.000885,0,0
0:7:4.008,1133.58,144.335,0,0.000885,0,0
0:7:4.412,1135.28,144.549,0,0.000885,0,0
0:7:4.817,1135.64,144.59,0,0.000885,0,0
0:7:5.219,1136.22,144.666,0,0.000885,0,0
0:7:5.614,1137.63,144.845,0,0.000885,0,0
0:7:6.012,1138.27,144.928,0,0.000885,0,0
0:7:6.411,1139.68,145.107,0,0.000885,0,0
0:7:6.809,1140.74,145.245,0,0.000885,0,0
0:7:7.212,1142.03,145.41,0,0.000885,0,0
0:7:7.622,1143.09,145.541,0,0.000885,0,0
0:7:8.020,1143.44,145.59,0,0.000885,0,0
0:7:8.419,1144.79,145.762,0,0.000885,0,0
0:7:8.814,1146.26,145.948,0,0.000885,0,0
0:7:9.220,1146.49,145.976,0,0.000885,0,0
0:7:9.625,1147.84,146.148,0,0.000885,0,0
0:7:10.028,1149.55,146.362,0,0.000885,0,0
0:7:10.430,1150.31,146.458,0,0.000885,0,0
0:7:10.826,1151.77,146.651,0,0.000885,0,0
0:7:11.221,1152.48,146.741,0,0.000885,0,0
0:7:11.620,1154.12,146.948,0,0.000885,0,0
0:7:12.018,1155.3,147.1,0,0.000885,0,0
0:7:12.413,1155.71,147.148,0,0.000885,0,0
0:7:12.808,1156.76,147.286,0,0.000885,0,0
0:7:13.204,1157.76,147.41,0,0.000885,0,0
0:7:13.612,1158.47,147.5,0,0.000885,0,0
0:7:14.023,1160.17,147.72,0,0.000885,0,0
0:7:14.428,1161.11,147.837,0,0.000885,0,0
0:7:14.831,1162.11,147.961,0,0.000885,0,0
0:7:15.231,1162.52,148.017,0,0.000885,0,0
0:7:15.633,1163.75,148.175,0,0.000885,0,0
0:7:16.030,1165.39,148.382,0,0.000885,0,0
0:7:16.426,1166.27,148.492,0,0.000885,0,0
0:7:16.820,1167.56,148.658,0,0.000885,0,0
0:7:17.219,1168.97,148.837,0,0.000885,0,0
0:7:17.618,1169.68,148.927,0,0.000885,0,0
0:7:18.022,1170.68,149.058,0,0.000885,0,0
0:7:18.420,1172.38,149.271,0,0.000885,0,0
0:7:18.813,1172.85,149.334,0,0.000885,0,0
0:7:19.215,1173.9,149.465,0,0.000885,0,0
0:7:19.623,1175.73,149.699,0,0.000885,0,0
0:7:20.025,1176.19,149.761,0,0.000885,0,0
0:7:20.427,1177.78,149.961,0,0.000885,0,0
0:7:20.826,1179.07,150.126,0,0.000885,0,0
0:7:21.223,1179.54,150.182,0,0.000885,0,0
0:7:21.622,1181.48,150.43,0,0.000885,0,0
0:7:22.014,1182.18,150.519,0,0.000885,0,0
0:7:22.411,1182.83,150.602,0,0.000885,0,0
0:7:22.809,1184.12,150.768,0,0.000885,0,0
0:7:23.207,1184.41,150.802,0,0.000885,0,0
0:7:23.604,1185.88,150.988,0,0.000885,0,0
0:7:24.010,1186.76,151.106,0,0.000885,0,0
0:7:24.413,1188.35,151.305,0,0.000885,0,0
0:7:24.821,1189.4,151.436,0,0.000885,0,0
0:7:25.223,1191.1,151.657,0,0.000885,0,0
0:7:25.627,1191.75,151.74,0,0.000885,0,0
0:7:26.023,1193.4,151.947,0,0.000885,0,0
0:7:26.419,1196.56,152.353,0,0.000885,0,0
0:7:26.819,1196.45,152.333,0,0.000885,0,0
0:7:27.214,1197.15,152.429,0,0.000885,0,0
0:7:27.610,1197.68,152.491,0,0.000885,0,0
0:7:28.004,1198.62,152.615,0,0.000885,0,0
0:7:28.403,1199.03,152.664,0,0.000885,0,0
0:7:28.801,1199.73,152.753,0,0.000885,0,0
0:7:29.208,1201.14,152.933,0,0.000885,0,0
0:7:29.613,1202.02,153.043,0,0.000885,0,0
0:7:30.016,1203.61,153.25,0,0.000885,0,0
0:7:30.422,1204.49,153.36,0,0.000885,0,0
0:7:30.823,1205.78,153.526,0,0.000885,0,0
0:7:31.221,1207.01,153.684,0,0.000885,0,0
0:7:31.613,1208.48,153.87,0,0.000885,0,0
0:7:32.010,1209.53,154.001,0,0.000885,0,0
0:7:32.408,1210.36,154.105,0,0.000885,0,0
0:7:32.805,1211.12,154.201,0,0.000885,0,0
0:7:33.200,1212.23,154.346,0,0.000885,0,0
0:7:33.606,1213.64,154.525,0,0.000885,0,0
0:7:34.007,1214.52,154.636,0,0.000885,0,0
0:7:34.413,1215.64,154.78,0,0.000885,0,0
0:7:34.815,1216.64,154.905,0,0.000885,0,0
0:7:35.216,1217.81,155.056,0,0.000885,0,0
0:7:35.615,1219.63,155.291,0,0.000885,0,0
0:7:36.013,1220.34,155.38,0,0.000885,0,0
0:7:36.409,1221.21,155.491,0,0.000885,0,0
0:7:36.804,1222.98,155.711,0,0.000885,0,0
0:7:37.200,1224.03,155.849,0,0.000885,0,0
0:7:37.598,1224.09,155.856,0,0.000885,0,0
0:7:37.996,1226.15,156.118,0,0.000885,0,0
0:7:38.392,1227.03,156.228,0,0.000885,0,0
0:7:38.787,1227.79,156.325,0,0.000885,0,0
0:7:39.190,1228.91,156.47,0,0.000885,0,0
0:7:39.596,1229.67,156.566,0,0.000885,0,0
0:7:40.000,1231.02,156.739,0,0.000885,0,0
0:7:40.402,1231.73,156.828,0,0.000885,0,0
0:7:40.798,1233.66,157.076,0,0.000885,0,0
0:7:41.197,1233.95,157.111,0,0.000885,0,0
0:7:41.597,1235.66,157.331,0,0.000885,0,0
0:7:41.992,1237.24,157.531,0,0.000885,0,0
0:7:42.387,1237.65,157.58,0,0.000885,0,0
0:7:42.786,1239.59,157.828,0,0.000885,0,0
0:7:43.184,1239.41,157.807,0,0.000885,0,0
0:7:43.581,1241.59,158.083,0,0.000885,0,0
0:7:43.977,1242.58,158.214,0,0.000885,0,0
0:7:44.381,1242.94,158.255,0,0.000885,0,0
0:7:44.785,1244.52,158.455,0,0.000885,0,0
0:7:45.188,1245.81,158.621,0,0.000885,0,0
0:7:45.591,1246.69,158.731,0,0.000885,0,0
0:7:45.987,1248.04,158.903,0,0.000885,0,0
0:7:46.384,1249.45,159.083,0,0.000885,0,0
0:7:46.782,1250.1,159.165,0,0.000885,0,0
0:7:47.179,1251.09,159.296,0,0.000885,0,0
0:7:47.573,1251.56,159.352,0,0.000885,0,0
0:7:47.970,1252.74,159.503,0,0.000885,0,0
0:7:48.370,1254.62,159.745,0,0.000885,0,0
0:7:48.767,1255.61,159.869,0,0.000885,0,0
0:7:49.171,1256.56,159.993,0,0.000885,0,0
0:7:49.576,1258.14,160.193,0,0.000885,0,0
0:7:49.976,1258.61,160.248,0,0.000885,0,0
0:7:50.379,1259.78,160.4,0,0.000885,0,0
0:7:50.775,1260.31,160.469,0,0.000885,0,0
0:7:51.171,1261.89,160.669,0,0.000885,0,0
0:7:51.567,1263.6,160.889,0,0.000885,0,0
0:7:51.967,1263.89,160.924,0,0.000885,0,0
0:7:52.364,1265.24,161.096,0,0.000885,0,0
0:7:52.760,1266.71,161.282,0,0.000885,0,0
0:7:53.156,1267.47,161.379,0,0.000885,0,0
0:7:53.556,1268.17,161.468,0,0.000885,0,0
0:7:53.954,1269.64,161.654,0,0.000885,0,0
0:7:54.361,1271.05,161.834,0,0.000885,0,0
0:7:54.762,1270.58,161.779,0,0.000885,0,0
0:7:55.163,1270.76,161.799,0,0.000885,0,0
0:7:55.565,1271.23,161.854,0,0.000885,0,0
0:7:55.960,1272.93,162.075,0,0.000885,0,0
0:7:56.355,1275.34,162.378,0,0.000885,0,0
0:7:56.752,1276.27,162.503,0,0.000885,0,0
0:7:57.151,1278.74,162.813,0,0.000885,0,0
0:7:57.549,1279.8,162.951,0,0.000885,0,0
0:7:57.942,1280.91,163.089,0,0.000885,0,0
0:7:58.337,1282.32,163.268,0,0.000885,0,0
0:7:58.736,1283.79,163.454,0,0.000885,0,0
0:7:59.136,1284.79,163.585,0,0.000885,0,0
0:7:59.542,1286.26,163.771,0,0.000885,0,0
0:7:59.945,1286.67,163.826,0,0.000885,0,0
0:8:0.348,1288.13,164.012,0,0.000885,0,0
0:8:0.747,1288.43,164.047,0,0.000885,0,0
0:8:1.147,1290.42,164.302,0,0.000885,0,0
0:8:1.538,1285.67,163.695,0,0.000885,0,0
0:8:1.924,1235.42,157.297,0,0.000885,0,0