File: DataFile2021-06-24_062053.csv
Test ID:,Date Tested:,Time:,Test Type:,Diameter Avg. (mm):,Cyl. Corr. Factor:,Height (mm):,Age (days):,Weight (kN):,Break Type:,Ramp Rate (MPa/s):,Load at Break (kN):,Stress at Break (MPa):
12,6/24/2021,06:20,Cylinder,150,1,300,0,3.6,3,0.24,606.99,34.35
Sample Time,Load (kN),Stress (MPa),Long. Strain,Trans. Strain,Chan1 Deflection (mm),Chan2 Deflection (mm)
0:0:17.827,6.68568,0.379212,0,0.000885,0,0
0:0:18.028,14.6613,0.827371,0,0.000885,0,0
0:0:18.233,16.0136,0.903213,0,0.000885,0,0
0:0:18.434,15.5421,0.882529,0,0.000885,0,0
0:0:18.642,15.2485,0.861845,0,0.000885,0,0
0:0:18.842,14.7814,0.834266,0,0.000885,0,0
0:0:19.042,14.6035,0.827371,0,0.000885,0,0
0:0:19.245,14.43,0.813581,0,0.000885,0,0
0:0:19.447,14.3678,0.813581,0,0.000885,0,0
0:0:19.645,14.1364,0.799792,0,0.000885,0,0
0:0:19.843,14.8393,0.84116,0,0.000885,0,0
0:0:20.043,13.9007,0.786002,0,0.000885,0,0
0:0:20.247,14.8393,0.84116,0,0.000885,0,0
0:0:20.448,15.075,0.85495,0,0.000885,0,0
0:0:20.646,15.3686,0.868739,0,0.000885,0,0
0:0:20.844,16.9522,0.958371,0,0.000885,0,0
0:0:21.045,18.2422,1.03421,0,0.000885,0,0
0:0:21.241,19.2386,1.08937,0,0.000885,0,0
0:0:21.443,20.3506,1.15142,0,0.000885,0,0
0:0:21.641,21.0534,1.19279,0,0.000885,0,0
0:0:21.840,22.2856,1.26174,0,0.000885,0,0
0:0:22.042,23.2242,1.3169,0,0.000885,0,0
0:0:22.246,24.5141,1.38585,0,0.000885,0,0
0:0:22.447,25.2214,1.42721,0,0.000885,0,0
0:0:22.646,26.9785,1.52374,0,0.000885,0,0
0:0:22.856,27.8014,1.572,0,0.000885,0,0
0:0:23.059,29.4428,1.66853,0,0.000885,0,0
0:0:23.261,30.2657,1.7099,0,0.000885,0,0
0:0:23.464,31.4934,1.77885,0,0.000885,0,0
0:0:23.667,32.2007,1.82022,0,0.000885,0,0
0:0:23.868,33.4907,1.89606,0,0.000885,0,0
0:0:24.071,33.8999,1.91674,0,0.000885,0,0
0:0:24.271,35.3678,1.99948,0,0.000885,0,0
0:0:24.472,35.7192,2.02016,0,0.000885,0,0
0:0:24.674,36.6,2.06843,0,0.000885,0,0
0:0:24.873,37.245,2.1098,0,0.000885,0,0
0:0:25.075,38.4148,2.17185,0,0.000885,0,0
0:0:25.271,39.0598,2.21322,0,0.000885,0,0
0:0:25.472,39.7671,2.24769,0,0.000885,0,0
0:0:25.671,40.3498,2.28216,0,0.000885,0,0
0:0:25.869,41.8177,2.3649,0,0.000885,0,0
0:0:26.070,42.3471,2.39938,0,0.000885,0,0
0:0:26.267,42.9342,2.42695,0,0.000885,0,0
0:0:26.467,43.9885,2.48901,0,0.000885,0,0
0:0:26.667,44.6913,2.53038,0,0.000885,0,0
0:0:26.862,45.5142,2.57864,0,0.000885,0,0
0:0:27.064,45.9813,2.59932,0,0.000885,0,0
0:0:27.262,46.9198,2.65448,0,0.000885,0,0
0:0:27.461,47.9162,2.70964,0,0.000885,0,0
0:0:27.663,48.5612,2.75101,0,0.000885,0,0
0:0:27.857,49.1484,2.77859,0,0.000885,0,0
0:0:28.060,50.8521,2.87511,0,0.000885,0,0
0:0:28.262,51.377,2.90959,0,0.000885,0,0
0:0:28.466,52.8449,2.99232,0,0.000885,0,0
0:0:28.667,53.3119,3.0199,0,0.000885,0,0
0:0:28.868,54.1927,3.06817,0,0.000885,0,0
0:0:29.071,55.1313,3.11643,0,0.000885,0,0
0:0:29.273,56.5369,3.19917,0,0.000885,0,0
0:0:29.474,57.0084,3.22675,0,0.000885,0,0
0:0:29.677,58.0626,3.2888,0,0.000885,0,0
0:0:29.873,58.8277,3.33017,0,0.000885,0,0
0:0:30.076,60.4691,3.4198,0,0.000885,0,0
0:0:30.274,60.527,3.42669,0,0.000885,0,0
0:0:30.473,62.0527,3.50943,0,0.000885,0,0
0:0:30.674,62.8133,3.55769,0,0.000885,0,0
0:0:30.870,63.6363,3.59906,0,0.000885,0,0
0:0:31.071,64.3391,3.64043,0,0.000885,0,0
0:0:31.271,65.0419,3.6818,0,0.000885,0,0
0:0:31.467,65.8648,3.73006,0,0.000885,0,0
0:0:31.669,66.5098,3.76454,0,0.000885,0,0
0:0:31.865,67.5062,3.8197,0,0.000885,0,0
0:0:32.067,67.9777,3.84727,0,0.000885,0,0
0:0:32.265,69.2054,3.91622,0,0.000885,0,0
0:0:32.463,70.0862,3.96449,0,0.000885,0,0
0:0:32.666,71.0248,4.01964,0,0.000885,0,0
0:0:32.861,71.4963,4.04722,0,0.000885,0,0
0:0:33.062,72.4927,4.10238,0,0.000885,0,0
0:0:33.262,73.5469,4.16443,0,0.000885,0,0
0:0:33.466,75.424,4.26785,0,0.000885,0,0
0:0:33.669,76.069,4.30233,0,0.000885,0,0
0:0:33.871,76.892,4.35059,0,0.000885,0,0
0:0:34.073,77.5948,4.39196,0,0.000885,0,0
0:0:34.275,78.2398,4.42643,0,0.000885,0,0
0:0:34.475,79.1783,4.48159,0,0.000885,0,0
0:0:34.678,80.1747,4.53675,0,0.000885,0,0
0:0:34.877,80.3527,4.54365,0,0.000885,0,0
0:0:35.076,81.8161,4.63328,0,0.000885,0,0
0:0:35.276,82.2877,4.65396,0,0.000885,0,0
0:0:35.472,82.9326,4.69533,0,0.000885,0,0
0:0:35.674,83.8712,4.74359,0,0.000885,0,0
0:0:35.873,85.397,4.83322,0,0.000885,0,0
0:0:36.072,86.042,4.8677,0,0.000885,0,0
0:0:36.273,87.3319,4.94354,0,0.000885,0,0
0:0:36.468,88.1504,4.9918,0,0.000885,0,0
0:0:36.669,89.0312,5.04007,0,0.000885,0,0
0:0:36.869,90.3211,5.10902,0,0.000885,0,0
0:0:37.067,90.8505,5.14349,0,0.000885,0,0
0:0:37.268,91.4376,5.17107,0,0.000885,0,0
0:0:37.462,92.4919,5.23312,0,0.000885,0,0
0:0:37.664,93.3726,5.28138,0,0.000885,0,0
0:0:37.864,94.0754,5.32275,0,0.000885,0,0
0:0:38.061,95.1297,5.38481,0,0.000885,0,0
0:0:38.263,95.659,5.41238,0,0.000885,0,0
0:0:38.466,97.1847,5.50202,0,0.000885,0,0
0:0:38.671,97.6518,5.5227,0,0.000885,0,0
0:0:38.871,98.4747,5.57096,0,0.000885,0,0
0:0:39.074,99.0041,5.60544,0,0.000885,0,0
0:0:39.275,100.294,5.67439,0,0.000885,0,0
0:0:39.476,100.761,5.70196,0,0.000885,0,0
0:0:39.677,102.345,5.7916,0,0.000885,0,0
0:0:39.879,102.638,5.80539,0,0.000885,0,0
0:0:40.075,104.106,5.88812,0,0.000885,0,0
0:0:40.277,104.573,5.9157,0,0.000885,0,0
0:0:40.473,106.393,6.01912,0,0.000885,0,0
0:0:40.672,107.211,6.06739,0,0.000885,0,0
0:0:40.874,107.505,6.08118,0,0.000885,0,0
0:0:41.069,107.918,6.10875,0,0.000885,0,0
0:0:41.271,109.088,6.17081,0,0.000885,0,0
0:0:41.470,109.911,6.21907,0,0.000885,0,0
0:0:41.666,110.44,6.24665,0,0.000885,0,0
0:0:41.868,111.553,6.3156,0,0.000885,0,0
0:0:42.065,111.553,6.3156,0,0.000885,0,0
0:0:42.265,113.078,6.39833,0,0.000885,0,0
0:0:42.465,114.19,6.46039,0,0.000885,0,0
0:0:42.661,115.6,6.54312,0,0.000885,0,0
0:0:42.863,116.245,6.5776,0,0.000885,0,0
0:0:43.062,117.887,6.67413,0,0.000885,0,0
0:0:43.260,118.59,6.7086,0,0.000885,0,0
0:0:43.462,119.297,6.74997,0,0.000885,0,0
0:0:43.666,119.942,6.78444,0,0.000885,0,0
0:0:43.869,120.702,6.8327,0,0.000885,0,0
0:0:44.072,121.232,6.86028,0,0.000885,0,0
0:0:44.273,122.17,6.91544,0,0.000885,0,0
0:0:44.474,122.931,6.95681,0,0.000885,0,0
0:0:44.677,124.572,7.04644,0,0.000885,0,0
0:0:44.877,124.572,7.04644,0,0.000885,0,0
0:0:45.076,125.862,7.12228,0,0.000885,0,0
0:0:45.276,126.45,7.15676,0,0.000885,0,0
0:0:45.478,127.566,7.21881,0,0.000885,0,0
0:0:45.672,128.385,7.26707,0,0.000885,0,0
0:0:45.874,129.03,7.30155,0,0.000885,0,0
0:0:46.073,130.382,7.37739,0,0.000885,0,0
0:0:46.270,131.085,7.41876,0,0.000885,0,0
0:0:46.473,132.081,7.47392,0,0.000885,0,0
0:0:46.669,133.02,7.52907,0,0.000885,0,0
0:0:46.868,134.016,7.58423,0,0.000885,0,0
0:0:47.069,134.777,7.6256,0,0.000885,0,0
0:0:47.265,135.657,7.67386,0,0.000885,0,0
0:0:47.468,136.187,7.70834,0,0.000885,0,0
0:0:47.665,137.592,7.78418,0,0.000885,0,0
0:0:47.863,138.18,7.81865,0,0.000885,0,0
0:0:48.065,139.647,7.90139,0,0.000885,0,0
0:0:48.269,140.057,7.92897,0,0.000885,0,0
0:0:48.472,141.525,8.01171,0,0.000885,0,0
0:0:48.673,141.76,8.0186,0,0.000885,0,0
0:0:48.875,142.579,8.06687,0,0.000885,0,0
0:0:49.078,143.282,8.10823,0,0.000885,0,0
0:0:49.280,144.398,8.17029,0,0.000885,0,0
0:0:49.481,145.159,8.21166,0,0.000885,0,0
0:0:49.681,146.627,8.29439,0,0.000885,0,0
0:0:49.879,147.565,8.34955,0,0.000885,0,0
0:0:50.081,148.562,8.40471,0,0.000885,0,0
0:0:50.275,149.091,8.43918,0,0.000885,0,0
0:0:50.477,149.5,8.45987,0,0.000885,0,0
0:0:50.676,151.026,8.5495,0,0.000885,0,0
0:0:50.874,151.377,8.56329,0,0.000885,0,0
0:0:51.076,152.903,8.65292,0,0.000885,0,0
0:0:51.270,153.49,8.68739,0,0.000885,0,0
0:0:51.472,154.602,8.74945,0,0.000885,0,0
0:0:51.672,155.074,8.77703,0,0.000885,0,0
0:0:51.868,155.892,8.81839,0,0.000885,0,0
0:0:52.070,156.422,8.85287,0,0.000885,0,0
0:0:52.265,157.596,8.91492,0,0.000885,0,0
0:0:52.467,158.005,8.9425,0,0.000885,0,0
0:0:52.667,159.411,9.01834,0,0.000885,0,0
0:0:52.864,160.114,9.05971,0,0.000885,0,0
0:0:53.066,161.817,9.15624,0,0.000885,0,0
0:0:53.269,161.875,9.16313,0,0.000885,0,0
0:0:53.471,163.05,9.22519,0,0.000885,0,0
0:0:53.674,163.752,9.26655,0,0.000885,0,0
0:0:53.877,165.042,9.3424,0,0.000885,0,0
0:0:54.077,165.63,9.36998,0,0.000885,0,0
0:0:54.278,166.626,9.43203,0,0.000885,0,0
0:0:54.480,167.329,9.4665,0,0.000885,0,0
0:0:54.682,168.445,9.52855,0,0.000885,0,0
0:0:54.877,168.97,9.56303,0,0.000885,0,0
0:0:55.079,169.615,9.5975,0,0.000885,0,0
0:0:55.276,170.967,9.67334,0,0.000885,0,0
0:0:55.476,171.492,9.70782,0,0.000885,0,0
0:0:55.676,173.018,9.79056,0,0.000885,0,0
0:0:55.873,173.432,9.81124,0,0.000885,0,0
0:0:56.076,174.953,9.90087,0,0.000885,0,0
0:0:56.273,175.425,9.92845,0,0.000885,0,0
0:0:56.472,176.657,9.9974,0,0.000885,0,0
0:0:56.672,177.244,10.0319,0,0.000885,0,0
0:0:56.868,178.534,10.1008,0,0.000885,0,0
0:0:57.070,179.179,10.1422,0,0.000885,0,0
0:0:57.269,179.997,10.1836,0,0.000885,0,0
0:0:57.467,180.762,10.2318,0,0.000885,0,0
0:0:57.669,181.701,10.2801,0,0.000885,0,0
0:0:57.865,182.404,10.3215,0,0.000885,0,0
0:0:58.068,184.045,10.418,0,0.000885,0,0
0:0:58.269,184.512,10.4387,0,0.000885,0,0
0:0:58.474,185.335,10.4869,0,0.000885,0,0
0:0:58.676,186.038,10.5283,0,0.000885,0,0
0:0:58.878,187.39,10.6041,0,0.000885,0,0
0:0:59.080,187.799,10.6248,0,0.000885,0,0
0:0:59.281,188.974,10.6938,0,0.000885,0,0
0:0:59.483,189.734,10.7351,0,0.000885,0,0
0:0:59.685,191.024,10.811,0,0.000885,0,0
0:0:59.880,191.554,10.8386,0,0.000885,0,0
0:1:0.081,192.199,10.873,0,0.000885,0,0
0:1:0.281,193.195,10.9351,0,0.000885,0,0
0:1:0.476,193.898,10.9696,0,0.000885,0,0
0:1:0.676,194.663,11.0178,0,0.000885,0,0
0:1:0.870,195.072,11.0385,0,0.000885,0,0
0:1:1.068,196.772,11.135,0,0.000885,0,0
0:1:1.270,197.71,11.1902,0,0.000885,0,0
0:1:1.464,198.764,11.2453,0,0.000885,0,0
0:1:1.665,199.294,11.2798,0,0.000885,0,0
0:1:1.861,200.29,11.335,0,0.000885,0,0
0:1:2.058,200.641,11.3557,0,0.000885,0,0
0:1:2.258,202.052,11.4315,0,0.000885,0,0
0:1:2.450,202.403,11.4522,0,0.000885,0,0
0:1:2.651,203.106,11.4936,0,0.000885,0,0
0:1:2.859,204.338,11.5625,0,0.000885,0,0
0:1:3.056,204.574,11.5763,0,0.000885,0,0
0:1:3.257,205.922,11.6521,0,0.000885,0,0
0:1:3.459,206.682,11.6935,0,0.000885,0,0
0:1:3.660,207.856,11.7625,0,0.000885,0,0
0:1:3.860,208.795,11.8176,0,0.000885,0,0
0:1:4.061,210.205,11.8935,0,0.000885,0,0
0:1:4.262,210.557,11.9141,0,0.000885,0,0
0:1:4.461,211.904,11.99,0,0.000885,0,0
0:1:4.661,212.256,12.0107,0,0.000885,0,0
0:1:4.860,213.897,12.1072,0,0.000885,0,0
0:1:5.056,214.311,12.1279,0,0.000885,0,0
0:1:5.256,215.249,12.183,0,0.000885,0,0
0:1:5.450,216.068,12.2244,0,0.000885,0,0
0:1:5.649,217.122,12.2865,0,0.000885,0,0
0:1:5.858,217.767,12.3209,0,0.000885,0,0
0:1:6.053,218.59,12.3692,0,0.000885,0,0
0:1:6.256,218.999,12.3899,0,0.000885,0,0
0:1:6.449,220.289,12.4657,0,0.000885,0,0
0:1:6.648,220.934,12.5002,0,0.000885,0,0
0:1:6.858,222.051,12.5622,0,0.000885,0,0
0:1:7.063,223.047,12.6243,0,0.000885,0,0
0:1:7.264,223.986,12.6726,0,0.000885,0,0
0:1:7.460,224.631,12.7139,0,0.000885,0,0
0:1:7.658,225.454,12.7553,0,0.000885,0,0
0:1:7.857,226.801,12.8311,0,0.000885,0,0
0:1:8.049,227.211,12.8587,0,0.000885,0,0
0:1:8.251,228.443,12.9277,0,0.000885,0,0
0:1:8.452,229.03,12.9621,0,0.000885,0,0
0:1:8.656,229.911,13.0104,0,0.000885,0,0
0:1:8.857,230.614,13.0518,0,0.000885,0,0
0:1:9.058,231.961,13.1276,0,0.000885,0,0
0:1:9.258,232.139,13.1345,0,0.000885,0,0
0:1:9.457,233.371,13.2035,0,0.000885,0,0
0:1:9.657,234.132,13.2517,0,0.000885,0,0
0:1:9.858,235.48,13.3276,0,0.000885,0,0
0:1:10.050,236.245,13.3689,0,0.000885,0,0
0:1:10.251,237.419,13.4379,0,0.000885,0,0
0:1:10.458,238.296,13.4861,0,0.000885,0,0
0:1:10.655,239.528,13.5551,0,0.000885,0,0
0:1:10.857,240.057,13.5827,0,0.000885,0,0
0:1:11.061,241.232,13.6516,0,0.000885,0,0
0:1:11.258,241.756,13.6792,0,0.000885,0,0
0:1:11.457,242.931,13.7481,0,0.000885,0,0
0:1:11.650,243.691,13.7895,0,0.000885,0,0
0:1:11.851,243.811,13.7964,0,0.000885,0,0
0:1:12.059,244.808,13.8516,0,0.000885,0,0
0:1:12.253,245.626,13.8998,0,0.000885,0,0
0:1:12.456,247.036,13.9826,0,0.000885,0,0
0:1:12.660,247.503,14.0033,0,0.000885,0,0
0:1:12.860,248.442,14.0584,0,0.000885,0,0
0:1:13.057,248.914,14.086,0,0.000885,0,0
0:1:13.251,250.555,14.1756,0,0.000885,0,0
0:1:13.452,251.378,14.2239,0,0.000885,0,0
0:1:13.653,252.49,14.2859,0,0.000885,0,0
0:1:13.856,253.135,14.3273,0,0.000885,0,0
0:1:14.058,254.131,14.3825,0,0.000885,0,0
0:1:14.259,254.896,14.4238,0,0.000885,0,0
0:1:14.458,255.893,14.479,0,0.000885,0,0
0:1:14.658,256.596,14.5204,0,0.000885,0,0
0:1:14.859,257.77,14.5893,0,0.000885,0,0
0:1:15.058,258.237,14.61,0,0.000885,0,0
0:1:15.251,259.585,14.6927,0,0.000885,0,0
0:1:15.450,260.056,14.7134,0,0.000885,0,0
0:1:15.658,261.698,14.8099,0,0.000885,0,0
0:1:15.865,261.818,14.8168,0,0.000885,0,0
0:1:16.066,263.339,14.8996,0,0.000885,0,0
0:1:16.260,263.984,14.9409,0,0.000885,0,0
0:1:16.461,264.807,14.9823,0,0.000885,0,0
0:1:16.657,265.568,15.0306,0,0.000885,0,0
0:1:16.852,266.097,15.0581,0,0.000885,0,0
0:1:17.052,267.271,15.1271,0,0.000885,0,0
0:1:17.258,267.916,15.1616,0,0.000885,0,0
0:1:17.458,269.086,15.2305,0,0.000885,0,0
0:1:17.656,269.38,15.2443,0,0.000885,0,0
0:1:17.848,270.318,15.2995,0,0.000885,0,0
0:1:18.049,271.319,15.3546,0,0.000885,0,0
0:1:18.250,272.547,15.4236,0,0.000885,0,0
0:1:18.452,273.192,15.458,0,0.000885,0,0
0:1:18.653,274.073,15.5063,0,0.000885,0,0
0:1:18.853,274.838,15.5546,0,0.000885,0,0
0:1:19.057,276.301,15.6373,0,0.000885,0,0
0:1:19.253,276.773,15.6649,0,0.000885,0,0
0:1:19.457,277.885,15.7269,0,0.000885,0,0
0:1:19.657,278.178,15.7407,0,0.000885,0,0
0:1:19.849,279.762,15.8304,0,0.000885,0,0
0:1:20.050,280.407,15.8648,0,0.000885,0,0
0:1:20.247,281.523,15.9338,0,0.000885,0,0
0:1:20.454,282.111,15.9614,0,0.000885,0,0
0:1:20.657,283.752,16.0579,0,0.000885,0,0
0:1:20.859,284.161,16.0786,0,0.000885,0,0
0:1:21.059,285.278,16.1406,0,0.000885,0,0
0:1:21.257,286.274,16.2027,0,0.000885,0,0
0:1:21.451,286.506,16.2096,0,0.000885,0,0
0:1:21.652,287.155,16.2509,0,0.000885,0,0
0:1:21.847,287.564,16.2716,0,0.000885,0,0
0:1:22.045,289.028,16.3544,0,0.000885,0,0
0:1:22.245,289.615,16.3888,0,0.000885,0,0
0:1:22.448,290.731,16.4509,0,0.000885,0,0
0:1:22.649,291.434,16.4923,0,0.000885,0,0
0:1:22.865,292.724,16.5681,0,0.000885,0,0
0:1:23.063,293.253,16.5957,0,0.000885,0,0
0:1:23.264,294.837,16.6853,0,0.000885,0,0
0:1:23.464,295.482,16.7198,0,0.000885,0,0
0:1:23.667,296.421,16.7749,0,0.000885,0,0
0:1:23.868,297.123,16.8163,0,0.000885,0,0
0:1:24.069,298.413,16.8853,0,0.000885,0,0
0:1:24.268,298.707,16.9059,0,0.000885,0,0
0:1:24.468,300.175,16.9887,0,0.000885,0,0
0:1:24.669,301.051,17.0369,0,0.000885,0,0
0:1:24.868,302.11,17.099,0,0.000885,0,0
0:1:25.063,302.403,17.1128,0,0.000885,0,0
0:1:25.264,303.867,17.1955,0,0.000885,0,0
0:1:25.460,304.454,17.23,0,0.000885,0,0
0:1:25.658,305.628,17.2921,0,0.000885,0,0
0:1:25.855,306.158,17.3265,0,0.000885,0,0
0:1:26.048,306.625,17.3541,0,0.000885,0,0
0:1:26.250,308.093,17.4368,0,0.000885,0,0
0:1:26.447,308.738,17.4713,0,0.000885,0,0
0:1:26.644,309.205,17.4989,0,0.000885,0,0
0:1:26.845,309.908,17.5403,0,0.000885,0,0
0:1:27.039,311.26,17.6161,0,0.000885,0,0
0:1:27.237,312.198,17.6644,0,0.000885,0,0
0:1:27.444,313.488,17.7402,0,0.000885,0,0
0:1:27.642,313.955,17.7678,0,0.000885,0,0
0:1:27.842,314.543,17.8023,0,0.000885,0,0
0:1:28.055,315.245,17.8367,0,0.000885,0,0
0:1:28.254,316.593,17.9126,0,0.000885,0,0
0:1:28.455,317.416,17.9608,0,0.000885,0,0
0:1:28.658,318.533,18.0229,0,0.000885,0,0
0:1:28.860,319.293,18.0712,0,0.000885,0,0
0:1:29.062,319.996,18.1056,0,0.000885,0,0
0:1:29.261,320.761,18.1539,0,0.000885,0,0
0:1:29.462,321.989,18.2228,0,0.000885,0,0
0:1:29.661,322.696,18.2642,0,0.000885,0,0
0:1:29.863,324.222,18.3469,0,0.000885,0,0
0:1:30.060,325.04,18.3952,0,0.000885,0,0
0:1:30.266,325.806,18.4366,0,0.000885,0,0
0:1:30.466,326.273,18.4642,0,0.000885,0,0
0:1:30.660,326.74,18.4917,0,0.000885,0,0
0:1:30.862,327.856,18.5538,0,0.000885,0,0
0:1:31.058,328.795,18.6089,0,0.000885,0,0
0:1:31.264,329.791,18.6641,0,0.000885,0,0
0:1:31.465,330.378,18.6986,0,0.000885,0,0
0:1:31.658,331.433,18.7537,0,0.000885,0,0
0:1:31.859,332.255,18.802,0,0.000885,0,0
0:1:32.058,333.839,18.8916,0,0.000885,0,0
0:1:32.250,334.368,18.9192,0,0.000885,0,0
0:1:32.451,335.307,18.9744,0,0.000885,0,0
0:1:32.655,336.068,19.0157,0,0.000885,0,0
0:1:32.853,337.242,19.0847,0,0.000885,0,0
0:1:33.054,338.18,19.1398,0,0.000885,0,0
0:1:33.259,339.177,19.195,0,0.000885,0,0
0:1:33.459,339.586,19.2157,0,0.000885,0,0
0:1:33.661,341.054,19.2984,0,0.000885,0,0
0:1:33.861,341.405,19.3191,0,0.000885,0,0
0:1:34.061,342.638,19.3881,0,0.000885,0,0
0:1:34.260,343.456,19.4363,0,0.000885,0,0
0:1:34.460,343.87,19.457,0,0.000885,0,0
0:1:34.656,344.746,19.5122,0,0.000885,0,0
0:1:34.851,345.627,19.5604,0,0.000885,0,0
0:1:35.052,346.681,19.6156,0,0.000885,0,0
0:1:35.260,347.268,19.6501,0,0.000885,0,0
0:1:35.455,348.5,19.719,0,0.000885,0,0
0:1:35.664,348.852,19.7397,0,0.000885,0,0
0:1:35.860,349.91,19.8017,0,0.000885,0,0
0:1:36.062,350.787,19.85,0,0.000885,0,0
0:1:36.255,352.255,19.9327,0,0.000885,0,0
0:1:36.454,352.784,19.9603,0,0.000885,0,0
0:1:36.652,353.602,20.0086,0,0.000885,0,0
0:1:36.856,354.132,20.0431,0,0.000885,0,0
0:1:37.059,355.951,20.1396,0,0.000885,0,0
0:1:37.254,356.538,20.1741,0,0.000885,0,0
0:1:37.451,357.593,20.2361,0,0.000885,0,0
0:1:37.651,358.295,20.2775,0,0.000885,0,0
0:1:37.854,359.234,20.3257,0,0.000885,0,0
0:1:38.054,359.705,20.3533,0,0.000885,0,0
0:1:38.254,360.644,20.4085,0,0.000885,0,0
0:1:38.460,361.405,20.4499,0,0.000885,0,0
0:1:38.660,362.873,20.5326,0,0.000885,0,0
0:1:38.861,363.691,20.5809,0,0.000885,0,0
0:1:39.062,364.456,20.6222,0,0.000885,0,0
0:1:39.261,365.217,20.6636,0,0.000885,0,0
0:1:39.462,366.507,20.7394,0,0.000885,0,0
0:1:39.663,367.094,20.7739,0,0.000885,0,0
0:1:39.867,368.5,20.8497,0,0.000885,0,0
0:1:40.066,368.851,20.8704,0,0.000885,0,0
0:1:40.266,369.438,20.9049,0,0.000885,0,0
0:1:40.461,370.319,20.9532,0,0.000885,0,0
0:1:40.662,371.022,20.9945,0,0.000885,0,0
0:1:40.855,372.312,21.0704,0,0.000885,0,0
0:1:41.064,373.25,21.1186,0,0.000885,0,0
0:1:41.264,374.54,21.1945,0,0.000885,0,0
0:1:41.459,375.248,21.2359,0,0.000885,0,0
0:1:41.660,375.83,21.2703,0,0.000885,0,0
0:1:41.865,376.244,21.291,0,0.000885,0,0
0:1:42.062,377.356,21.3531,0,0.000885,0,0
0:1:42.263,378.179,21.4013,0,0.000885,0,0
0:1:42.456,379.291,21.4634,0,0.000885,0,0
0:1:42.655,380.292,21.5185,0,0.000885,0,0
0:1:42.853,381.288,21.5737,0,0.000885,0,0
0:1:43.068,381.991,21.6151,0,0.000885,0,0
0:1:43.269,383.397,21.6978,0,0.000885,0,0
0:1:43.468,383.984,21.7323,0,0.000885,0,0
0:1:43.670,384.571,21.7599,0,0.000885,0,0
0:1:43.872,384.98,21.7874,0,0.000885,0,0
0:1:44.073,386.332,21.8633,0,0.000885,0,0
0:1:44.274,387.271,21.9115,0,0.000885,0,0
0:1:44.473,388.561,21.9874,0,0.000885,0,0
0:1:44.674,389.322,22.0287,0,0.000885,0,0
0:1:44.875,390.612,22.1046,0,0.000885,0,0
0:1:45.069,391.377,22.146,0,0.000885,0,0
0:1:45.269,391.666,22.1666,0,0.000885,0,0
0:1:45.466,392.604,22.2149,0,0.000885,0,0
0:1:45.663,393.485,22.2701,0,0.000885,0,0
0:1:45.864,394.66,22.3321,0,0.000885,0,0
0:1:46.069,395.362,22.3735,0,0.000885,0,0
0:1:46.267,396.83,22.4562,0,0.000885,0,0
0:1:46.465,397.355,22.4838,0,0.000885,0,0
0:1:46.660,398.178,22.5321,0,0.000885,0,0
0:1:46.861,398.53,22.5528,0,0.000885,0,0
0:1:47.054,399.997,22.6355,0,0.000885,0,0
0:1:47.252,400.407,22.6562,0,0.000885,0,0
0:1:47.452,401.581,22.7251,0,0.000885,0,0
0:1:47.655,402.106,22.7527,0,0.000885,0,0
0:1:47.856,403.574,22.8354,0,0.000885,0,0
0:1:48.053,403.81,22.8492,0,0.000885,0,0
0:1:48.261,405.215,22.932,0,0.000885,0,0
0:1:48.461,405.567,22.9526,0,0.000885,0,0
0:1:48.663,406.683,23.0147,0,0.000885,0,0
0:1:48.865,407.27,23.0492,0,0.000885,0,0
0:1:49.066,408.267,23.1043,0,0.000885,0,0
0:1:49.266,408.912,23.1388,0,0.000885,0,0
0:1:49.467,410.437,23.2284,0,0.000885,0,0
0:1:49.666,410.962,23.256,0,0.000885,0,0
0:1:49.867,411.67,23.2974,0,0.000885,0,0
0:1:50.066,412.782,23.3594,0,0.000885,0,0
0:1:50.260,413.427,23.3939,0,0.000885,0,0
0:1:50.462,414.423,23.4491,0,0.000885,0,0
0:1:50.665,415.01,23.4835,0,0.000885,0,0
0:1:50.865,416.594,23.5732,0,0.000885,0,0
0:1:51.065,417.003,23.6008,0,0.000885,0,0
0:1:51.256,418.471,23.6835,0,0.000885,0,0
0:1:51.456,419.116,23.718,0,0.000885,0,0
0:1:51.653,420.232,23.78,0,0.000885,0,0
0:1:51.861,420.993,23.8214,0,0.000885,0,0
0:1:52.062,421.989,23.8765,0,0.000885,0,0
0:1:52.255,422.519,23.911,0,0.000885,0,0
0:1:52.454,423.924,23.9869,0,0.000885,0,0
0:1:52.652,424.338,24.0144,0,0.000885,0,0
0:1:52.856,426.037,24.111,0,0.000885,0,0
0:1:53.057,426.624,24.1385,0,0.000885,0,0
0:1:53.257,427.385,24.1868,0,0.000885,0,0
0:1:53.462,428.15,24.2282,0,0.000885,0,0
0:1:53.662,429.027,24.2764,0,0.000885,0,0
0:1:53.863,429.849,24.3247,0,0.000885,0,0
0:1:54.063,430.259,24.3454,0,0.000885,0,0
0:1:54.262,431.433,24.4143,0,0.000885,0,0
0:1:54.463,431.842,24.435,0,0.000885,0,0
0:1:54.662,433.368,24.5247,0,0.000885,0,0
0:1:54.865,434.364,24.5798,0,0.000885,0,0
0:1:55.067,435.481,24.6419,0,0.000885,0,0
0:1:55.262,436.126,24.6763,0,0.000885,0,0
0:1:55.468,437.3,24.7453,0,0.000885,0,0
0:1:55.668,437.652,24.766,0,0.000885,0,0
0:1:55.862,438.822,24.8349,0,0.000885,0,0
0:1:56.062,439.293,24.8556,0,0.000885,0,0
0:1:56.258,440.699,24.9383,0,0.000885,0,0
0:1:56.465,441.05,24.959,0,0.000885,0,0
0:1:56.666,441.989,25.0142,0,0.000885,0,0
0:1:56.858,442.927,25.0624,0,0.000885,0,0
0:1:57.057,444.102,25.1314,0,0.000885,0,0
0:1:57.256,444.804,25.1728,0,0.000885,0,0
0:1:57.450,446.33,25.2555,0,0.000885,0,0
0:1:57.649,446.33,25.2555,0,0.000885,0,0
0:1:57.846,446.624,25.2762,0,0.000885,0,0
0:1:58.053,448.323,25.3727,0,0.000885,0,0
0:1:58.252,448.91,25.4003,0,0.000885,0,0
0:1:58.454,449.969,25.4623,0,0.000885,0,0
0:1:58.656,450.494,25.4899,0,0.000885,0,0
0:1:58.856,451.726,25.5658,0,0.000885,0,0
0:1:59.057,452.607,25.614,0,0.000885,0,0
0:1:59.258,453.781,25.6761,0,0.000885,0,0
0:1:59.456,454.542,25.7243,0,0.000885,0,0
0:1:59.656,455.654,25.7864,0,0.000885,0,0
0:1:59.856,456.125,25.814,0,0.000885,0,0
0:2:0.062,457.179,25.8691,0,0.000885,0,0
0:2:0.262,457.824,25.9105,0,0.000885,0,0
0:2:0.456,459.292,25.9932,0,0.000885,0,0
0:2:0.654,459.528,26.007,0,0.000885,0,0
0:2:0.853,460.991,26.0898,0,0.000885,0,0
0:2:1.047,461.343,26.1036,0,0.000885,0,0
0:2:1.248,462.695,26.1863,0,0.000885,0,0
0:2:1.445,463.104,26.207,0,0.000885,0,0
0:2:1.643,464.159,26.269,0,0.000885,0,0
0:2:1.842,464.688,26.2966,0,0.000885,0,0
0:2:2.055,466.094,26.3724,0,0.000885,0,0
0:2:2.256,466.507,26.4,0,0.000885,0,0
0:2:2.451,467.21,26.4414,0,0.000885,0,0
0:2:2.658,468.384,26.5034,0,0.000885,0,0
0:2:2.858,469.145,26.5448,0,0.000885,0,0
0:2:3.062,470.141,26.6069,0,0.000885,0,0
0:2:3.262,470.729,26.6344,0,0.000885,0,0
0:2:3.464,472.428,26.731,0,0.000885,0,0
0:2:3.665,473.015,26.7654,0,0.000885,0,0
0:2:3.866,474.131,26.8275,0,0.000885,0,0
0:2:4.067,474.656,26.862,0,0.000885,0,0
0:2:4.268,475.831,26.924,0,0.000885,0,0
0:2:4.467,476.534,26.9654,0,0.000885,0,0
0:2:4.667,477.65,27.0274,0,0.000885,0,0
0:2:4.868,478.411,27.0757,0,0.000885,0,0
0:2:5.063,479.527,27.1378,0,0.000885,0,0
0:2:5.258,479.701,27.1447,0,0.000885,0,0
0:2:5.458,480.817,27.2067,0,0.000885,0,0
0:2:5.664,481.636,27.255,0,0.000885,0,0
0:2:5.865,482.81,27.3239,0,0.000885,0,0
0:2:6.072,483.633,27.3653,0,0.000885,0,0
0:2:6.267,484.394,27.4136,0,0.000885,0,0
0:2:6.467,485.159,27.4549,0,0.000885,0,0
0:2:6.671,486.213,27.517,0,0.000885,0,0
0:2:6.870,486.622,27.5377,0,0.000885,0,0
0:2:7.068,488.09,27.6204,0,0.000885,0,0
0:2:7.263,488.619,27.648,0,0.000885,0,0
0:2:7.464,489.909,27.7238,0,0.000885,0,0
0:2:7.668,490.67,27.7652,0,0.000885,0,0
0:2:7.867,491.902,27.8341,0,0.000885,0,0
0:2:8.066,492.605,27.8755,0,0.000885,0,0
0:2:8.269,493.308,27.9169,0,0.000885,0,0
0:2:8.470,494.015,27.9582,0,0.000885,0,0
0:2:8.670,494.718,27.9927,0,0.000885,0,0
0:2:8.872,496.244,28.0823,0,0.000885,0,0
0:2:9.074,496.711,28.1099,0,0.000885,0,0
0:2:9.275,497.707,28.1651,0,0.000885,0,0
0:2:9.474,498.294,28.1996,0,0.000885,0,0
0:2:9.675,499.584,28.2685,0,0.000885,0,0
0:2:9.875,500.465,28.3237,0,0.000885,0,0
0:2:10.076,501.755,28.3926,0,0.000885,0,0
0:2:10.270,502.106,28.4133,0,0.000885,0,0
0:2:10.470,503.396,28.4891,0,0.000885,0,0
0:2:10.666,504.513,28.5512,0,0.000885,0,0
0:2:10.862,505.861,28.627,0,0.000885,0,0
0:2:11.062,505.976,28.6339,0,0.000885,0,0
0:2:11.267,506.857,28.6822,0,0.000885,0,0
0:2:11.465,507.266,28.7029,0,0.000885,0,0
0:2:11.664,508.498,28.7718,0,0.000885,0,0
0:2:11.867,509.086,28.8063,0,0.000885,0,0
0:2:12.068,510.433,28.8821,0,0.000885,0,0
0:2:12.264,511.021,28.9166,0,0.000885,0,0
0:2:12.472,512.195,28.9856,0,0.000885,0,0
0:2:12.671,512.604,29.0062,0,0.000885,0,0
0:2:12.864,513.191,29.0407,0,0.000885,0,0
0:2:13.066,514.366,29.1097,0,0.000885,0,0
0:2:13.267,515.126,29.151,0,0.000885,0,0
0:2:13.470,516.594,29.2338,0,0.000885,0,0
0:2:13.670,516.946,29.2545,0,0.000885,0,0
0:2:13.870,518.351,29.3303,0,0.000885,0,0
0:2:14.071,519.059,29.3717,0,0.000885,0,0
0:2:14.270,519.819,29.413,0,0.000885,0,0
0:2:14.471,520.873,29.4751,0,0.000885,0,0
0:2:14.673,521.754,29.5234,0,0.000885,0,0
0:2:14.866,522.283,29.5578,0,0.000885,0,0
0:2:15.066,523.516,29.6268,0,0.000885,0,0
0:2:15.265,524.454,29.675,0,0.000885,0,0
0:2:15.468,525.273,29.7233,0,0.000885,0,0
0:2:15.669,525.744,29.7509,0,0.000885,0,0
0:2:15.864,527.092,29.8267,0,0.000885,0,0
0:2:16.071,527.795,29.8681,0,0.000885,0,0
0:2:16.272,528.56,29.9095,0,0.000885,0,0
0:2:16.466,529.614,29.9715,0,0.000885,0,0
0:2:16.666,530.437,30.0198,0,0.000885,0,0
0:2:16.863,531.198,30.0611,0,0.000885,0,0
0:2:17.067,532.372,30.1232,0,0.000885,0,0
0:2:17.268,533.133,30.1715,0,0.000885,0,0
0:2:17.473,534.543,30.2473,0,0.000885,0,0
0:2:17.672,534.894,30.268,0,0.000885,0,0
0:2:17.869,535.188,30.2887,0,0.000885,0,0
0:2:18.065,536.593,30.3645,0,0.000885,0,0
0:2:18.266,537.238,30.399,0,0.000885,0,0
0:2:18.467,538.413,30.4679,0,0.000885,0,0
0:2:18.670,539.293,30.5162,0,0.000885,0,0
0:2:18.871,540.699,30.5989,0,0.000885,0,0
0:2:19.071,541.108,30.6196,0,0.000885,0,0
0:2:19.273,541.753,30.6541,0,0.000885,0,0
0:2:19.473,542.75,30.7161,0,0.000885,0,0
0:2:19.671,543.395,30.7506,0,0.000885,0,0
0:2:19.872,544.396,30.8058,0,0.000885,0,0
0:2:20.066,545.508,30.8678,0,0.000885,0,0
0:2:20.267,546.095,30.9023,0,0.000885,0,0
0:2:20.463,547.149,30.9644,0,0.000885,0,0
0:2:20.658,547.621,30.9919,0,0.000885,0,0
0:2:20.860,549.026,31.0678,0,0.000885,0,0
0:2:21.064,549.498,31.0954,0,0.000885,0,0
0:2:21.265,550.903,31.1781,0,0.000885,0,0
0:2:21.459,551.9,31.2333,0,0.000885,0,0
0:2:21.655,552.665,31.2746,0,0.000885,0,0
0:2:21.857,553.603,31.3298,0,0.000885,0,0
0:2:22.051,554.248,31.3643,0,0.000885,0,0
0:2:22.250,555.36,31.4263,0,0.000885,0,0
0:2:22.448,555.89,31.4539,0,0.000885,0,0
0:2:22.653,557.122,31.5297,0,0.000885,0,0
0:2:22.855,557.473,31.5435,0,0.000885,0,0
0:2:23.050,558.706,31.6194,0,0.000885,0,0
0:2:23.248,559.76,31.6745,0,0.000885,0,0
0:2:23.448,560.463,31.7159,0,0.000885,0,0
0:2:23.649,561.343,31.7641,0,0.000885,0,0
0:2:23.852,562.46,31.8262,0,0.000885,0,0
0:2:24.051,562.811,31.8469,0,0.000885,0,0
0:2:24.253,563.808,31.902,0,0.000885,0,0
0:2:24.454,564.275,31.9296,0,0.000885,0,0
0:2:24.653,565.627,32.0055,0,0.000885,0,0
0:2:24.854,566.21,32.0399,0,0.000885,0,0
0:2:25.052,567.326,32.102,0,0.000885,0,0
0:2:25.257,567.913,32.1365,0,0.000885,0,0
0:2:25.458,568.968,32.1985,0,0.000885,0,0
0:2:25.653,569.377,32.2192,0,0.000885,0,0
0:2:25.852,571.196,32.3226,0,0.000885,0,0
0:2:26.051,571.316,32.3295,0,0.000885,0,0
0:2:26.246,572.019,32.3709,0,0.000885,0,0
0:2:26.446,573.545,32.4536,0,0.000885,0,0
0:2:26.642,573.954,32.4812,0,0.000885,0,0
0:2:26.837,575.36,32.557,0,0.000885,0,0
0:2:27.038,575.889,32.5915,0,0.000885,0,0
0:2:27.233,577.006,32.6536,0,0.000885,0,0
0:2:27.432,577.708,32.6949,0,0.000885,0,0
0:2:27.630,579.056,32.7708,0,0.000885,0,0
0:2:27.826,579.528,32.7915,0,0.000885,0,0
0:2:28.027,580.933,32.8742,0,0.000885,0,0
0:2:28.227,581.227,32.888,0,0.000885,0,0
0:2:28.430,582.165,32.9432,0,0.000885,0,0
0:2:28.632,582.517,32.9638,0,0.000885,0,0
0:2:28.834,583.691,33.0328,0,0.000885,0,0
0:2:29.034,584.688,33.0879,0,0.000885,0,0
0:2:29.234,585.568,33.1362,0,0.000885,0,0
0:2:29.435,586.329,33.1776,0,0.000885,0,0
0:2:29.635,587.445,33.2396,0,0.000885,0,0
0:2:29.830,587.797,33.2603,0,0.000885,0,0
0:2:30.030,588.558,33.3086,0,0.000885,0,0
0:2:30.229,589.905,33.3844,0,0.000885,0,0
0:2:30.425,590.199,33.3982,0,0.000885,0,0
0:2:30.626,591.609,33.4809,0,0.000885,0,0
0:2:30.821,591.903,33.4947,0,0.000885,0,0
0:2:31.021,593.428,33.5844,0,0.000885,0,0
0:2:31.222,594.016,33.6119,0,0.000885,0,0
0:2:31.418,595.012,33.674,0,0.000885,0,0
0:2:31.618,595.483,33.6947,0,0.000885,0,0
0:2:31.815,596.364,33.7498,0,0.000885,0,0
0:2:32.013,596.716,33.7705,0,0.000885,0,0
0:2:32.215,598.126,33.8464,0,0.000885,0,0
0:2:32.410,598.593,33.8739,0,0.000885,0,0
0:2:32.612,599.767,33.9429,0,0.000885,0,0
0:2:32.810,600.061,33.9567,0,0.000885,0,0
0:2:33.007,600.474,33.9774,0,0.000885,0,0
0:2:33.209,601.649,34.0463,0,0.000885,0,0
0:2:33.411,601.88,34.0601,0,0.000885,0,0
0:2:33.614,602.645,34.1015,0,0.000885,0,0
0:2:33.817,603.174,34.1359,0,0.000885,0,0
0:2:34.018,604.055,34.1842,0,0.000885,0,0
0:2:34.221,604.229,34.1911,0,0.000885,0,0
0:2:34.420,605.109,34.2394,0,0.000885,0,0
0:2:34.623,605.403,34.26,0,0.000885,0,0
0:2:34.824,606.106,34.3014,0,0.000885,0,0
0:2:35.018,606.755,34.3359,0,0.000885,0,0
0:2:35.221,607.164,34.3566,0,0.000885,0,0
0:2:35.418,606.929,34.3428,0,0.000885,0,0
0:2:35.616,606.987,34.3497,0,0.000885,0,0
0:2:35.815,606.987,34.3497,0,0.000885,0,0
0:2:36.009,606.813,34.3359,0,0.000885,0,0
0:2:36.211,606.106,34.3014,0,0.000885,0,0
0:2:36.409,603.935,34.1773,0,0.000885,0,0
0:2:36.606,601.942,34.0601,0,0.000885,0,0
0:2:36.807,594.781,33.6602,0,0.000885,0,0
0:2:37.001,591.258,33.4603,0,0.000885,0,0
0:2:37.201,588.735,33.3155,0,0.000885,0,0
0:2:37.398,582.81,32.9776,0,0.000885,0,0
0:2:37.594,579.937,32.819,0,0.000885,0,0
0:2:37.795,571.61,32.3433,0,0.000885,0,0
0:2:37.988,566.272,32.0468,0,0.000885,0,0
0:2:38.186,551.139,31.185,0,0.000885,0,0
0:2:38.386,543.751,30.7713,0,0.000885,0,0
0:2:38.587,530.259,30.006,0,0.000885,0,0
0:2:38.788,524.041,29.6544,0,0.000885,0,0
0:2:38.987,513.191,29.0407,0,0.000885,0,0
0:2:39.187,508.325,28.7649,0,0.000885,0,0
0:2:39.387,500.523,28.3237,0,0.000885,0,0
0:2:39.586,496.475,28.0961,0,0.000885,0,0
0:2:39.787,488.851,27.6618,0,0.000885,0,0
0:2:39.985,485.039,27.448,0,0.000885,0,0
0:2:40.178,481.52,27.2481,0,0.000885,0,0
0:2:40.378,473.896,26.8137,0,0.000885,0,0
0:2:40.574,469.906,26.5931,0,0.000885,0,0
0:2:40.771,460.876,26.0829,0,0.000885,0,0
0:2:40.971,456.067,25.8071,0,0.000885,0,0
0:2:41.162,446.214,25.2486,0,0.000885,0,0
0:2:41.362,441.344,24.9728,0,0.000885,0,0
0:2:41.558,430.61,24.3661,0,0.000885,0,0
0:2:41.755,425.802,24.0972,0,0.000885,0,0
0:2:41.806,425.802,24.0972,0,0.000885,0,0