File: DataFile2021-06-29_060423.csv
Test ID:,Date Tested:,Time:,Test Type:,Diameter Avg. (mm):,Cyl. Corr. Factor:,Height (mm):,Age (days):,Weight (kN):,Break Type:,Ramp Rate (MPa/s):,Load at Break (kN):,Stress at Break (MPa):
12,6/29/2021,06:04,Cylinder,100,1,200,0,3.6,3,0.24,336.95,42.9
Sample Time,Load (kN),Stress (MPa),Long. Strain,Trans. Strain,Chan1 Deflection (mm),Chan2 Deflection (mm)
0:0:21.058,6.15634,0.786002,0,0.000885,0,0
0:0:21.259,11.73,1.49616,0,0.000885,0,0
0:0:21.459,14.3678,1.82711,0,0.000885,0,0
0:0:21.657,14.0742,1.79264,0,0.000885,0,0
0:0:21.857,13.7228,1.74437,0,0.000885,0,0
0:0:22.052,13.5493,1.72369,0,0.000885,0,0
0:0:22.253,13.3714,1.70301,0,0.000885,0,0
0:0:22.451,13.3714,1.70301,0,0.000885,0,0
0:0:22.648,12.6107,1.60648,0,0.000885,0,0
0:0:22.848,12.8465,1.63406,0,0.000885,0,0
0:0:23.043,12.9043,1.64095,0,0.000885,0,0
0:0:23.243,12.6685,1.61337,0,0.000885,0,0
0:0:23.442,12.5529,1.59958,0,0.000885,0,0
0:0:23.637,12.5529,1.59958,0,0.000885,0,0
0:0:23.840,12.7264,1.62027,0,0.000885,0,0
0:0:24.035,12.6685,1.61337,0,0.000885,0,0
0:0:24.233,12.4328,1.58579,0,0.000885,0,0
0:0:24.435,12.4328,1.58579,0,0.000885,0,0
0:0:24.628,12.6685,1.61337,0,0.000885,0,0
0:0:24.830,12.6107,1.60648,0,0.000885,0,0
0:0:25.028,12.9621,1.64785,0,0.000885,0,0
0:0:25.224,12.7842,1.62716,0,0.000885,0,0
0:0:25.425,12.8465,1.63406,0,0.000885,0,0
0:0:25.622,13.6649,1.73748,0,0.000885,0,0
0:0:25.821,13.3135,1.69611,0,0.000885,0,0
0:0:26.020,13.7228,1.74437,0,0.000885,0,0
0:0:26.214,14.0163,1.78574,0,0.000885,0,0
0:0:26.417,14.2521,1.81332,0,0.000885,0,0
0:0:26.618,14.3678,1.82711,0,0.000885,0,0
0:0:26.820,15.4264,1.96501,0,0.000885,0,0
0:0:27.023,15.4264,1.96501,0,0.000885,0,0
0:0:27.224,16.365,2.08222,0,0.000885,0,0
0:0:27.426,16.7742,2.13737,0,0.000885,0,0
0:0:27.628,17.4771,2.22701,0,0.000885,0,0
0:0:27.827,18.3,2.33043,0,0.000885,0,0
0:0:28.029,18.8249,2.39938,0,0.000885,0,0
0:0:28.228,19.3542,2.46143,0,0.000885,0,0
0:0:28.428,20.4707,2.60622,0,0.000885,0,0
0:0:28.628,20.7643,2.64069,0,0.000885,0,0
0:0:28.824,20.702,2.6338,0,0.000885,0,0
0:0:29.025,21.2314,2.70274,0,0.000885,0,0
0:0:29.221,22.0543,2.80617,0,0.000885,0,0
0:0:29.422,22.5213,2.86822,0,0.000885,0,0
0:0:29.623,22.9306,2.91648,0,0.000885,0,0
0:0:29.817,22.9306,2.91648,0,0.000885,0,0
0:0:30.019,23.6957,3.0199,0,0.000885,0,0
0:0:30.217,23.9893,3.05438,0,0.000885,0,0
0:0:30.414,24.0471,3.06127,0,0.000885,0,0
0:0:30.616,24.4563,3.11643,0,0.000885,0,0
0:0:30.811,24.9857,3.17848,0,0.000885,0,0
0:0:31.013,25.2214,3.21296,0,0.000885,0,0
0:0:31.211,25.3949,3.23364,0,0.000885,0,0
0:0:31.404,25.9242,3.30259,0,0.000885,0,0
0:0:31.611,26.3913,3.35775,0,0.000885,0,0
0:0:31.812,26.5692,3.38533,0,0.000885,0,0
0:0:32.016,26.9206,3.42669,0,0.000885,0,0
0:0:32.219,27.1564,3.45427,0,0.000885,0,0
0:0:32.420,27.1564,3.45427,0,0.000885,0,0
0:0:32.622,27.5078,3.50254,0,0.000885,0,0
0:0:32.823,27.8014,3.53701,0,0.000885,0,0
0:0:33.025,28.3886,3.61285,0,0.000885,0,0
0:0:33.225,28.562,3.63354,0,0.000885,0,0
0:0:33.421,29.0914,3.70248,0,0.000885,0,0
0:0:33.624,29.385,3.74385,0,0.000885,0,0
0:0:33.821,29.6785,3.77833,0,0.000885,0,0
0:0:34.020,30.6171,3.89554,0,0.000885,0,0
0:0:34.222,31.142,3.96449,0,0.000885,0,0
0:0:34.416,31.142,3.96449,0,0.000885,0,0
0:0:34.618,31.5557,4.01964,0,0.000885,0,0
0:0:34.816,32.3163,4.11617,0,0.000885,0,0
0:0:35.014,32.6677,4.15754,0,0.000885,0,0
0:0:35.217,33.3127,4.24028,0,0.000885,0,0
0:0:35.412,33.4328,4.25407,0,0.000885,0,0
0:0:35.613,34.2513,4.36438,0,0.000885,0,0
0:0:35.813,34.6027,4.40575,0,0.000885,0,0
0:0:36.010,35.1321,4.4747,0,0.000885,0,0
0:0:36.212,35.5413,4.52296,0,0.000885,0,0
0:0:36.415,36.1863,4.6057,0,0.000885,0,0
0:0:36.617,36.1863,4.6057,0,0.000885,0,0
0:0:36.820,36.6578,4.66775,0,0.000885,0,0
0:0:37.021,36.9514,4.70222,0,0.000885,0,0
0:0:37.223,37.1249,4.7298,0,0.000885,0,0
0:0:37.425,37.245,4.74359,0,0.000885,0,0
0:0:37.625,37.8277,4.81944,0,0.000885,0,0
0:0:37.828,38.1835,4.8608,0,0.000885,0,0
0:0:38.023,38.4148,4.88838,0,0.000885,0,0
0:0:38.226,38.9442,4.95733,0,0.000885,0,0
0:0:38.424,39.0598,4.97112,0,0.000885,0,0
0:0:38.621,39.4735,5.02628,0,0.000885,0,0
0:0:38.823,39.5892,5.04007,0,0.000885,0,0
0:0:39.019,40.292,5.1297,0,0.000885,0,0
0:0:39.221,40.4121,5.14349,0,0.000885,0,0
0:0:39.420,41.0571,5.22623,0,0.000885,0,0
0:0:39.617,41.582,5.29517,0,0.000885,0,0
0:0:39.819,42.0535,5.35723,0,0.000885,0,0
0:0:40.015,42.227,5.37791,0,0.000885,0,0
0:0:40.216,42.9921,5.47444,0,0.000885,0,0
0:0:40.417,43.517,5.54338,0,0.000885,0,0
0:0:40.611,43.7527,5.57096,0,0.000885,0,0
0:0:40.813,43.9885,5.59854,0,0.000885,0,0
0:0:41.010,44.8692,5.71575,0,0.000885,0,0
0:0:41.219,44.927,5.72265,0,0.000885,0,0
0:0:41.422,45.3941,5.77781,0,0.000885,0,0
0:0:41.624,45.6299,5.81228,0,0.000885,0,0
0:0:41.827,46.6263,5.93639,0,0.000885,0,0
0:0:42.030,46.5684,5.92949,0,0.000885,0,0
0:0:42.232,47.2134,6.01223,0,0.000885,0,0
0:0:42.432,47.2134,6.01223,0,0.000885,0,0
0:0:42.634,47.7428,6.08118,0,0.000885,0,0
0:0:42.837,48.3878,6.16391,0,0.000885,0,0
0:0:43.036,48.797,6.21218,0,0.000885,0,0
0:0:43.232,48.6191,6.19149,0,0.000885,0,0
0:0:43.433,49.0327,6.23976,0,0.000885,0,0
0:0:43.631,49.4998,6.30181,0,0.000885,0,0
0:0:43.830,49.9135,6.35697,0,0.000885,0,0
0:0:44.032,50.087,6.37765,0,0.000885,0,0
0:0:44.227,50.3806,6.41212,0,0.000885,0,0
0:0:44.428,50.7898,6.46728,0,0.000885,0,0
0:0:44.627,51.0834,6.50176,0,0.000885,0,0
0:0:44.826,52.1421,6.63965,0,0.000885,0,0
0:0:45.028,51.9641,6.61897,0,0.000885,0,0
0:0:45.223,52.8449,6.72928,0,0.000885,0,0
0:0:45.424,53.1963,6.77065,0,0.000885,0,0
0:0:45.623,53.1963,6.77065,0,0.000885,0,0
0:0:45.819,53.7256,6.8396,0,0.000885,0,0
0:0:46.021,54.4863,6.93613,0,0.000885,0,0
0:0:46.218,54.5441,6.94302,0,0.000885,0,0
0:0:46.418,55.0156,7.00507,0,0.000885,0,0
0:0:46.620,55.5405,7.07402,0,0.000885,0,0
0:0:46.823,55.8919,7.11539,0,0.000885,0,0
0:0:47.024,55.8919,7.11539,0,0.000885,0,0
0:0:47.227,56.0698,7.13607,0,0.000885,0,0
0:0:47.429,57.2442,7.28776,0,0.000885,0,0
0:0:47.631,57.5377,7.32913,0,0.000885,0,0
0:0:47.833,58.0048,7.38429,0,0.000885,0,0
0:0:48.034,58.2406,7.41876,0,0.000885,0,0
0:0:48.233,58.7699,7.48081,0,0.000885,0,0
0:0:48.430,58.8277,7.48771,0,0.000885,0,0
0:0:48.632,59.1791,7.53597,0,0.000885,0,0
0:0:48.829,59.1791,7.53597,0,0.000885,0,0
0:0:49.029,59.704,7.60492,0,0.000885,0,0
0:0:49.229,59.9976,7.63939,0,0.000885,0,0
0:0:49.425,61.1141,7.78418,0,0.000885,0,0
0:0:49.627,61.1141,7.78418,0,0.000885,0,0
0:0:49.824,61.8748,7.88071,0,0.000885,0,0
0:0:50.023,61.8748,7.88071,0,0.000885,0,0
0:0:50.223,62.582,7.97034,0,0.000885,0,0
0:0:50.418,62.8712,8.00481,0,0.000885,0,0
0:0:50.621,63.9298,8.14271,0,0.000885,0,0
0:0:50.819,64.2234,8.17718,0,0.000885,0,0
0:0:51.018,64.6327,8.23234,0,0.000885,0,0
0:0:51.220,64.8106,8.25302,0,0.000885,0,0
0:0:51.423,65.2198,8.30129,0,0.000885,0,0
0:0:51.626,65.3355,8.32197,0,0.000885,0,0
0:0:51.828,65.6291,8.35645,0,0.000885,0,0
0:0:52.030,65.807,8.37713,0,0.000885,0,0
0:0:52.232,66.2741,8.43918,0,0.000885,0,0
0:0:52.433,67.0391,8.53571,0,0.000885,0,0
0:0:52.635,67.7998,8.63224,0,0.000885,0,0
0:0:52.832,67.742,8.62534,0,0.000885,0,0
0:0:53.030,67.564,8.60466,0,0.000885,0,0
0:0:53.233,68.387,8.70808,0,0.000885,0,0
0:0:53.427,68.7962,8.75634,0,0.000885,0,0
0:0:53.628,68.854,8.77013,0,0.000885,0,0
0:0:53.828,69.2054,8.8115,0,0.000885,0,0
0:0:54.024,69.9705,8.90803,0,0.000885,0,0
0:0:54.226,70.2641,8.94939,0,0.000885,0,0
0:0:54.424,70.3798,8.96318,0,0.000885,0,0
0:0:54.622,70.789,9.01145,0,0.000885,0,0
0:0:54.823,71.6119,9.11487,0,0.000885,0,0
0:0:55.018,72.0212,9.17003,0,0.000885,0,0
0:0:55.220,72.6661,9.25276,0,0.000885,0,0
0:0:55.419,73.1377,9.31482,0,0.000885,0,0
0:0:55.616,73.3111,9.3355,0,0.000885,0,0
0:0:55.817,73.2533,9.32861,0,0.000885,0,0
0:0:56.012,73.667,9.37687,0,0.000885,0,0
0:0:56.212,74.2497,9.45271,0,0.000885,0,0
0:0:56.414,74.5433,9.49408,0,0.000885,0,0
0:0:56.617,75.1305,9.56303,0,0.000885,0,0
0:0:56.819,75.1305,9.56303,0,0.000885,0,0
0:0:57.022,75.424,9.6044,0,0.000885,0,0
0:0:57.224,75.8956,9.66645,0,0.000885,0,0
0:0:57.425,76.6562,9.76298,0,0.000885,0,0
0:0:57.626,76.7719,9.77677,0,0.000885,0,0
0:0:57.829,77.6526,9.88708,0,0.000885,0,0
0:0:58.027,77.7104,9.89398,0,0.000885,0,0
0:0:58.226,78.3554,9.97671,0,0.000885,0,0
0:0:58.427,78.7068,10.025,0,0.000885,0,0
0:0:58.622,79.3563,10.1008,0,0.000885,0,0
0:0:58.823,79.294,10.0939,0,0.000885,0,0
0:0:59.021,79.8812,10.1698,0,0.000885,0,0
0:0:59.219,80.1169,10.1973,0,0.000885,0,0
0:0:59.422,80.4105,10.2387,0,0.000885,0,0
0:0:59.618,80.4105,10.2387,0,0.000885,0,0
0:0:59.819,81.229,10.3421,0,0.000885,0,0
0:1:0.019,81.6427,10.3973,0,0.000885,0,0
0:1:0.214,82.0519,10.4456,0,0.000885,0,0
0:1:0.417,82.6391,10.5214,0,0.000885,0,0
0:1:0.614,82.8125,10.5421,0,0.000885,0,0
0:1:0.813,83.6355,10.6455,0,0.000885,0,0
0:1:1.013,83.6933,10.6593,0,0.000885,0,0
0:1:1.217,83.929,10.6869,0,0.000885,0,0
0:1:1.420,84.0447,10.7007,0,0.000885,0,0
0:1:1.621,84.8098,10.7972,0,0.000885,0,0
0:1:1.825,84.9254,10.811,0,0.000885,0,0
0:1:2.027,86.1576,10.9696,0,0.000885,0,0
0:1:2.230,86.2733,10.9833,0,0.000885,0,0
0:1:2.431,86.5668,11.0247,0,0.000885,0,0
0:1:2.632,86.9183,11.0661,0,0.000885,0,0
0:1:2.834,87.5054,11.1419,0,0.000885,0,0
0:1:3.035,87.6255,11.1557,0,0.000885,0,0
0:1:3.232,88.3862,11.2522,0,0.000885,0,0
0:1:3.431,88.9733,11.3281,0,0.000885,0,0
0:1:3.631,88.9733,11.3281,0,0.000885,0,0
0:1:3.828,89.1468,11.3488,0,0.000885,0,0
0:1:4.030,89.9119,11.4453,0,0.000885,0,0
0:1:4.228,90.0854,11.4729,0,0.000885,0,0
0:1:4.427,90.4412,11.5142,0,0.000885,0,0
0:1:4.627,91.0862,11.597,0,0.000885,0,0
0:1:4.824,91.5533,11.659,0,0.000885,0,0
0:1:5.024,91.6111,11.6659,0,0.000885,0,0
0:1:5.223,91.7312,11.6797,0,0.000885,0,0
0:1:5.421,92.3139,11.7556,0,0.000885,0,0
0:1:5.623,92.9011,11.8314,0,0.000885,0,0
0:1:5.819,92.6075,11.79,0,0.000885,0,0
0:1:6.020,93.079,11.8521,0,0.000885,0,0
0:1:6.219,93.9598,11.9624,0,0.000885,0,0
0:1:6.416,94.3112,12.0107,0,0.000885,0,0
0:1:6.618,94.5425,12.0382,0,0.000885,0,0
0:1:6.820,94.4847,12.0314,0,0.000885,0,0
0:1:7.023,95.4811,12.1555,0,0.000885,0,0
0:1:7.225,95.8948,12.2106,0,0.000885,0,0
0:1:7.427,96.5398,12.2934,0,0.000885,0,0
0:1:7.629,96.7132,12.314,0,0.000885,0,0
0:1:7.831,97.3582,12.3968,0,0.000885,0,0
0:1:8.031,97.594,12.4244,0,0.000885,0,0
0:1:8.233,98.239,12.5071,0,0.000885,0,0
0:1:8.427,97.8876,12.4657,0,0.000885,0,0
0:1:8.630,98.4747,12.5416,0,0.000885,0,0
0:1:8.828,98.884,12.5898,0,0.000885,0,0
0:1:9.027,99.0041,12.6036,0,0.000885,0,0
0:1:9.229,99.529,12.6726,0,0.000885,0,0
0:1:9.423,100.232,12.7622,0,0.000885,0,0
0:1:9.625,100.588,12.8036,0,0.000885,0,0
0:1:9.824,101.17,12.8794,0,0.000885,0,0
0:1:10.022,101.233,12.8863,0,0.000885,0,0
0:1:10.224,102.051,12.9966,0,0.000885,0,0
0:1:10.421,102.403,13.038,0,0.000885,0,0
0:1:10.620,102.46,13.0449,0,0.000885,0,0
0:1:10.820,103.225,13.1414,0,0.000885,0,0
0:1:11.016,102.816,13.0931,0,0.000885,0,0
0:1:11.219,103.635,13.1966,0,0.000885,0,0
0:1:11.421,103.87,13.2241,0,0.000885,0,0
0:1:11.625,104.573,13.3138,0,0.000885,0,0
0:1:11.828,105.103,13.3827,0,0.000885,0,0
0:1:12.031,105.276,13.4034,0,0.000885,0,0
0:1:12.231,106.041,13.4999,0,0.000885,0,0
0:1:12.432,105.921,13.4861,0,0.000885,0,0
0:1:12.634,106.335,13.5413,0,0.000885,0,0
0:1:12.836,107.095,13.6378,0,0.000885,0,0
0:1:13.030,107.153,13.6447,0,0.000885,0,0
0:1:13.232,107.86,13.7344,0,0.000885,0,0
0:1:13.432,107.625,13.6999,0,0.000885,0,0
0:1:13.629,108.328,13.7895,0,0.000885,0,0
0:1:13.831,108.737,13.8447,0,0.000885,0,0
0:1:14.027,109.03,13.8791,0,0.000885,0,0
0:1:14.228,109.088,13.8929,0,0.000885,0,0
0:1:14.429,110.498,14.0722,0,0.000885,0,0
0:1:14.624,110.44,14.0584,0,0.000885,0,0
0:1:14.825,110.965,14.1274,0,0.000885,0,0
0:1:15.021,110.965,14.1274,0,0.000885,0,0
0:1:15.222,111.317,14.1756,0,0.000885,0,0
0:1:15.422,111.904,14.2515,0,0.000885,0,0
0:1:15.617,112.197,14.2859,0,0.000885,0,0
0:1:15.820,112.727,14.3549,0,0.000885,0,0
0:1:16.017,113.136,14.4031,0,0.000885,0,0
0:1:16.216,113.901,14.4997,0,0.000885,0,0
0:1:16.418,114.132,14.5341,0,0.000885,0,0
0:1:16.619,114.426,14.5686,0,0.000885,0,0
0:1:16.823,114.84,14.6238,0,0.000885,0,0
0:1:17.026,115.6,14.7203,0,0.000885,0,0
0:1:17.225,115.422,14.6996,0,0.000885,0,0
0:1:17.428,116.067,14.7755,0,0.000885,0,0
0:1:17.628,115.778,14.741,0,0.000885,0,0
0:1:17.831,116.655,14.8513,0,0.000885,0,0
0:1:18.031,116.539,14.8375,0,0.000885,0,0
0:1:18.226,117.42,14.9478,0,0.000885,0,0
0:1:18.428,117.535,14.9685,0,0.000885,0,0
0:1:18.626,118.474,15.0857,0,0.000885,0,0
0:1:18.825,118.474,15.0857,0,0.000885,0,0
0:1:19.026,119.413,15.2029,0,0.000885,0,0
0:1:19.221,119.648,15.2305,0,0.000885,0,0
0:1:19.424,119.706,15.2443,0,0.000885,0,0
0:1:19.622,120.235,15.3064,0,0.000885,0,0
0:1:19.820,120.409,15.3339,0,0.000885,0,0
0:1:20.022,120.818,15.3822,0,0.000885,0,0
0:1:20.217,121.112,15.4236,0,0.000885,0,0
0:1:20.419,121.877,15.5201,0,0.000885,0,0
0:1:20.618,122.108,15.5477,0,0.000885,0,0
0:1:20.815,122.931,15.6511,0,0.000885,0,0
0:1:21.017,122.873,15.6442,0,0.000885,0,0
0:1:21.222,123.225,15.6925,0,0.000885,0,0
0:1:21.421,123.634,15.7407,0,0.000885,0,0
0:1:21.624,124.221,15.8166,0,0.000885,0,0
0:1:21.827,124.63,15.8717,0,0.000885,0,0
0:1:22.029,125.044,15.92,0,0.000885,0,0
0:1:22.232,125.102,15.9269,0,0.000885,0,0
0:1:22.434,126.04,16.051,0,0.000885,0,0
0:1:22.635,126.04,16.051,0,0.000885,0,0
0:1:22.834,126.801,16.1475,0,0.000885,0,0
0:1:23.036,126.979,16.1682,0,0.000885,0,0
0:1:23.236,127.682,16.2578,0,0.000885,0,0
0:1:23.433,127.74,16.2647,0,0.000885,0,0
0:1:23.635,128.62,16.375,0,0.000885,0,0
0:1:23.830,128.442,16.3544,0,0.000885,0,0
0:1:24.033,128.972,16.4233,0,0.000885,0,0
0:1:24.230,128.62,16.375,0,0.000885,0,0
0:1:24.427,129.265,16.4578,0,0.000885,0,0
0:1:24.629,129.207,16.4509,0,0.000885,0,0
0:1:24.825,129.617,16.506,0,0.000885,0,0
0:1:25.026,130.965,16.6784,0,0.000885,0,0
0:1:25.225,131.378,16.7267,0,0.000885,0,0
0:1:25.421,131.787,16.7818,0,0.000885,0,0
0:1:25.623,132.081,16.8163,0,0.000885,0,0
0:1:25.819,132.197,16.8301,0,0.000885,0,0
0:1:26.019,132.962,16.9266,0,0.000885,0,0
0:1:26.222,133.193,16.9611,0,0.000885,0,0
0:1:26.425,133.722,17.0232,0,0.000885,0,0
0:1:26.628,133.78,17.0369,0,0.000885,0,0
0:1:26.830,134.367,17.1059,0,0.000885,0,0
0:1:27.032,134.603,17.1404,0,0.000885,0,0
0:1:27.233,134.897,17.1748,0,0.000885,0,0
0:1:27.435,135.306,17.23,0,0.000885,0,0
0:1:27.637,135.657,17.2714,0,0.000885,0,0
0:1:27.835,136.832,17.4231,0,0.000885,0,0
0:1:28.033,136.947,17.4368,0,0.000885,0,0
0:1:28.235,137.592,17.5196,0,0.000885,0,0
0:1:28.432,137.01,17.4437,0,0.000885,0,0
0:1:28.631,137.944,17.5609,0,0.000885,0,0
0:1:28.831,137.886,17.5541,0,0.000885,0,0
0:1:29.028,138.415,17.623,0,0.000885,0,0
0:1:29.229,139.354,17.7402,0,0.000885,0,0
0:1:29.427,139.296,17.7333,0,0.000885,0,0
0:1:29.624,139.999,17.8229,0,0.000885,0,0
0:1:29.825,140.115,17.8367,0,0.000885,0,0
0:1:30.021,140.822,17.9264,0,0.000885,0,0
0:1:30.222,140.937,17.9471,0,0.000885,0,0
0:1:30.422,141.347,17.9953,0,0.000885,0,0
0:1:30.618,141.876,18.0643,0,0.000885,0,0
0:1:30.821,142.285,18.1194,0,0.000885,0,0
0:1:31.017,142.93,18.1953,0,0.000885,0,0
0:1:31.215,142.93,18.1953,0,0.000885,0,0
0:1:31.418,143.695,18.2987,0,0.000885,0,0
0:1:31.620,143.811,18.3125,0,0.000885,0,0
0:1:31.822,144.22,18.3607,0,0.000885,0,0
0:1:32.024,144.634,18.4159,0,0.000885,0,0
0:1:32.227,144.865,18.4435,0,0.000885,0,0
0:1:32.427,145.452,18.5193,0,0.000885,0,0
0:1:32.629,145.804,18.5676,0,0.000885,0,0
0:1:32.830,146.155,18.6089,0,0.000885,0,0
0:1:33.029,146.275,18.6227,0,0.000885,0,0
0:1:33.229,146.978,18.7124,0,0.000885,0,0
0:1:33.430,147.156,18.7331,0,0.000885,0,0
0:1:33.625,147.272,18.7537,0,0.000885,0,0
0:1:33.828,148.384,18.8916,0,0.000885,0,0
0:1:34.025,148.562,18.9123,0,0.000885,0,0
0:1:34.223,149.029,18.9744,0,0.000885,0,0
0:1:34.426,149.385,19.0226,0,0.000885,0,0
0:1:34.621,149.558,19.0433,0,0.000885,0,0
0:1:34.822,150.087,19.1123,0,0.000885,0,0
0:1:35.021,150.323,19.1398,0,0.000885,0,0
0:1:35.217,151.32,19.264,0,0.000885,0,0
0:1:35.419,151.671,19.3122,0,0.000885,0,0
0:1:35.617,152.08,19.3605,0,0.000885,0,0
0:1:35.815,152.432,19.4087,0,0.000885,0,0
0:1:36.016,152.138,19.3743,0,0.000885,0,0
0:1:36.208,152.961,19.4777,0,0.000885,0,0
0:1:36.409,152.845,19.4639,0,0.000885,0,0
0:1:36.611,153.428,19.5328,0,0.000885,0,0
0:1:36.818,153.548,19.5535,0,0.000885,0,0
0:1:37.020,154.429,19.6638,0,0.000885,0,0
0:1:37.222,154.251,19.6432,0,0.000885,0,0
0:1:37.424,155.074,19.7466,0,0.000885,0,0
0:1:37.625,155.425,19.788,0,0.000885,0,0
0:1:37.827,156.422,19.919,0,0.000885,0,0
0:1:38.029,156.537,19.9327,0,0.000885,0,0
0:1:38.224,156.244,19.8914,0,0.000885,0,0
0:1:38.425,157.36,20.0362,0,0.000885,0,0
0:1:38.625,157.418,20.0431,0,0.000885,0,0
0:1:38.821,158.063,20.1258,0,0.000885,0,0
0:1:39.024,158.357,20.1603,0,0.000885,0,0
0:1:39.220,158.708,20.2085,0,0.000885,0,0
0:1:39.419,159.237,20.2775,0,0.000885,0,0
0:1:39.620,159.531,20.312,0,0.000885,0,0
0:1:39.815,159.825,20.3464,0,0.000885,0,0
0:1:40.016,159.825,20.3464,0,0.000885,0,0
0:1:40.224,160.292,20.4085,0,0.000885,0,0
0:1:40.422,160.937,20.4912,0,0.000885,0,0
0:1:40.624,161.115,20.5119,0,0.000885,0,0
0:1:40.820,161.76,20.5946,0,0.000885,0,0
0:1:41.022,162.284,20.6636,0,0.000885,0,0
0:1:41.221,162.227,20.6567,0,0.000885,0,0
0:1:41.416,162.929,20.7463,0,0.000885,0,0
0:1:41.618,163.459,20.8153,0,0.000885,0,0
0:1:41.821,163.695,20.8429,0,0.000885,0,0
0:1:42.023,164.104,20.8911,0,0.000885,0,0
0:1:42.226,164.633,20.9601,0,0.000885,0,0
0:1:42.428,165.514,21.0704,0,0.000885,0,0
0:1:42.629,165.336,21.0497,0,0.000885,0,0
0:1:42.831,166.51,21.2014,0,0.000885,0,0
0:1:43.032,166.684,21.2221,0,0.000885,0,0
0:1:43.234,167.097,21.2772,0,0.000885,0,0
0:1:43.429,166.804,21.2359,0,0.000885,0,0
0:1:43.632,167.622,21.3393,0,0.000885,0,0
0:1:43.830,167.916,21.3806,0,0.000885,0,0
0:1:44.029,168.267,21.422,0,0.000885,0,0
0:1:44.232,169.032,21.5185,0,0.000885,0,0
0:1:44.427,168.854,21.4979,0,0.000885,0,0
0:1:44.627,169.499,21.5806,0,0.000885,0,0
0:1:44.825,169.442,21.5737,0,0.000885,0,0
0:1:45.023,169.851,21.6289,0,0.000885,0,0
0:1:45.225,169.971,21.6426,0,0.000885,0,0
0:1:45.421,170.616,21.7254,0,0.000885,0,0
0:1:45.621,170.91,21.7599,0,0.000885,0,0
0:1:45.821,171.492,21.8357,0,0.000885,0,0
0:1:46.017,171.906,21.8909,0,0.000885,0,0
0:1:46.220,172.431,21.9529,0,0.000885,0,0
0:1:46.423,172.96,22.0219,0,0.000885,0,0
0:1:46.625,173.312,22.0701,0,0.000885,0,0
0:1:46.827,173.605,22.1046,0,0.000885,0,0
0:1:47.029,174.308,22.1942,0,0.000885,0,0
0:1:47.231,174.486,22.2149,0,0.000885,0,0
0:1:47.433,174.895,22.2701,0,0.000885,0,0
0:1:47.635,175.425,22.339,0,0.000885,0,0
0:1:47.835,175.66,22.3666,0,0.000885,0,0
0:1:48.031,176.305,22.4493,0,0.000885,0,0
0:1:48.231,176.185,22.4355,0,0.000885,0,0
0:1:48.432,177.066,22.5459,0,0.000885,0,0
0:1:48.629,176.83,22.5183,0,0.000885,0,0
0:1:48.830,178.004,22.6631,0,0.000885,0,0
0:1:49.025,178.062,22.67,0,0.000885,0,0
0:1:49.225,178.649,22.7458,0,0.000885,0,0
0:1:49.425,178.534,22.732,0,0.000885,0,0
0:1:49.622,179.059,22.801,0,0.000885,0,0
0:1:49.822,178.765,22.7596,0,0.000885,0,0
0:1:50.020,180.233,22.9458,0,0.000885,0,0
0:1:50.218,180.055,22.9251,0,0.000885,0,0
0:1:50.420,181.114,23.063,0,0.000885,0,0
0:1:50.625,180.936,23.0354,0,0.000885,0,0
0:1:50.827,181.817,23.1526,0,0.000885,0,0
0:1:51.023,181.639,23.125,0,0.000885,0,0
0:1:51.222,182.519,23.2422,0,0.000885,0,0
0:1:51.423,182.346,23.2146,0,0.000885,0,0
0:1:51.625,183.809,23.4008,0,0.000885,0,0
0:1:51.828,183.458,23.3594,0,0.000885,0,0
0:1:52.031,183.93,23.4215,0,0.000885,0,0
0:1:52.233,184.281,23.4629,0,0.000885,0,0
0:1:52.434,184.281,23.4629,0,0.000885,0,0
0:1:52.635,185.042,23.5594,0,0.000885,0,0
0:1:52.837,185.099,23.5663,0,0.000885,0,0
0:1:53.038,185.571,23.6283,0,0.000885,0,0
0:1:53.234,185.687,23.6421,0,0.000885,0,0
0:1:53.437,186.683,23.7662,0,0.000885,0,0
0:1:53.634,186.919,23.8007,0,0.000885,0,0
0:1:53.833,187.448,23.8696,0,0.000885,0,0
0:1:54.033,187.564,23.8834,0,0.000885,0,0
0:1:54.229,188.387,23.9869,0,0.000885,0,0
0:1:54.431,188.912,24.0558,0,0.000885,0,0
0:1:54.629,188.974,24.0627,0,0.000885,0,0
0:1:54.826,189.441,24.1179,0,0.000885,0,0
0:1:55.029,190.202,24.2144,0,0.000885,0,0
0:1:55.223,190.086,24.2006,0,0.000885,0,0
0:1:55.425,191.082,24.3316,0,0.000885,0,0
0:1:55.624,190.557,24.2627,0,0.000885,0,0
0:1:55.821,191.202,24.3454,0,0.000885,0,0
0:1:56.024,191.26,24.3523,0,0.000885,0,0
0:1:56.219,191.847,24.4281,0,0.000885,0,0
0:1:56.419,192.141,24.4626,0,0.000885,0,0
0:1:56.621,192.786,24.5453,0,0.000885,0,0
0:1:56.823,192.902,24.5591,0,0.000885,0,0
0:1:57.023,193.489,24.635,0,0.000885,0,0
0:1:57.224,193.84,24.6832,0,0.000885,0,0
0:1:57.424,194.307,24.7384,0,0.000885,0,0
0:1:57.623,194.779,24.8004,0,0.000885,0,0
0:1:57.823,194.837,24.8073,0,0.000885,0,0
0:1:58.023,195.246,24.8625,0,0.000885,0,0
0:1:58.220,195.539,24.897,0,0.000885,0,0
0:1:58.416,196.714,25.0487,0,0.000885,0,0
0:1:58.617,196.829,25.0624,0,0.000885,0,0
0:1:58.811,197.652,25.1659,0,0.000885,0,0
0:1:59.009,197.652,25.1659,0,0.000885,0,0
0:1:59.207,198.239,25.2417,0,0.000885,0,0
0:1:59.413,198.297,25.2486,0,0.000885,0,0
0:1:59.612,198.827,25.3175,0,0.000885,0,0
0:1:59.808,199,25.3382,0,0.000885,0,0
0:2:0.004,199.472,25.4003,0,0.000885,0,0
0:2:0.204,199.645,25.421,0,0.000885,0,0
0:2:0.399,199.823,25.4417,0,0.000885,0,0
0:2:0.600,200.762,25.5589,0,0.000885,0,0
0:2:0.805,201.055,25.6002,0,0.000885,0,0
0:2:1.004,201.464,25.6485,0,0.000885,0,0
0:2:1.204,202.052,25.7243,0,0.000885,0,0
0:2:1.406,201.874,25.7037,0,0.000885,0,0
0:2:1.608,202.403,25.7726,0,0.000885,0,0
0:2:1.809,203.164,25.8691,0,0.000885,0,0
0:2:2.010,203.515,25.9105,0,0.000885,0,0
0:2:2.209,204.574,26.0484,0,0.000885,0,0
0:2:2.410,204.574,26.0484,0,0.000885,0,0
0:2:2.609,205.041,26.1036,0,0.000885,0,0
0:2:2.818,205.277,26.138,0,0.000885,0,0
0:2:3.023,205.922,26.2208,0,0.000885,0,0
0:2:3.224,205.806,26.207,0,0.000885,0,0
0:2:3.419,206.86,26.338,0,0.000885,0,0
0:2:3.617,206.624,26.3104,0,0.000885,0,0
0:2:3.817,207.621,26.4345,0,0.000885,0,0
0:2:4.008,207.212,26.3862,0,0.000885,0,0
0:2:4.208,207.914,26.4759,0,0.000885,0,0
0:2:4.418,207.914,26.4759,0,0.000885,0,0
0:2:4.612,208.444,26.5379,0,0.000885,0,0
0:2:4.811,208.444,26.5379,0,0.000885,0,0
0:2:5.014,209.382,26.662,0,0.000885,0,0
0:2:5.214,209.618,26.6896,0,0.000885,0,0
0:2:5.412,209.969,26.731,0,0.000885,0,0
0:2:5.619,210.321,26.7792,0,0.000885,0,0
0:2:5.820,210.788,26.8413,0,0.000885,0,0
0:2:6.013,211.144,26.8827,0,0.000885,0,0
0:2:6.211,211.317,26.9033,0,0.000885,0,0
0:2:6.412,211.375,26.9102,0,0.000885,0,0
0:2:6.614,212.14,27.0137,0,0.000885,0,0
0:2:6.818,212.727,27.0826,0,0.000885,0,0
0:2:7.018,212.785,27.0895,0,0.000885,0,0
0:2:7.220,213.372,27.1653,0,0.000885,0,0
0:2:7.420,213.897,27.2343,0,0.000885,0,0
0:2:7.620,214.311,27.2894,0,0.000885,0,0
0:2:7.821,214.427,27.3032,0,0.000885,0,0
0:2:8.018,215.365,27.4204,0,0.000885,0,0
0:2:8.224,215.832,27.4825,0,0.000885,0,0
0:2:8.425,215.894,27.4894,0,0.000885,0,0
0:2:8.619,215.832,27.4825,0,0.000885,0,0
0:2:8.819,216.597,27.579,0,0.000885,0,0
0:2:9.014,216.655,27.5859,0,0.000885,0,0
0:2:9.209,217.887,27.7445,0,0.000885,0,0
0:2:9.410,218.123,27.7721,0,0.000885,0,0
0:2:9.618,218.181,27.779,0,0.000885,0,0
0:2:9.818,218.59,27.8341,0,0.000885,0,0
0:2:10.023,219.177,27.9031,0,0.000885,0,0
0:2:10.220,219.351,27.9307,0,0.000885,0,0
0:2:10.421,220.352,28.0548,0,0.000885,0,0
0:2:10.625,220.703,28.103,0,0.000885,0,0
0:2:10.824,220.645,28.0961,0,0.000885,0,0
0:2:11.023,221.29,28.172,0,0.000885,0,0
0:2:11.215,221.815,28.2409,0,0.000885,0,0
0:2:11.418,221.642,28.2202,0,0.000885,0,0
0:2:11.614,222.287,28.303,0,0.000885,0,0
0:2:11.820,222.696,28.3512,0,0.000885,0,0
0:2:12.021,222.874,28.3788,0,0.000885,0,0
0:2:12.221,223.986,28.5167,0,0.000885,0,0
0:2:12.422,224.222,28.5512,0,0.000885,0,0
0:2:12.622,224.279,28.5581,0,0.000885,0,0
0:2:12.821,225.218,28.6753,0,0.000885,0,0
0:2:13.022,225.334,28.6891,0,0.000885,0,0
0:2:13.227,225.863,28.758,0,0.000885,0,0
0:2:13.427,225.979,28.7718,0,0.000885,0,0
0:2:13.622,225.921,28.7649,0,0.000885,0,0
0:2:13.819,226.392,28.827,0,0.000885,0,0
0:2:14.020,226.624,28.8546,0,0.000885,0,0
0:2:14.212,227.562,28.9718,0,0.000885,0,0
0:2:14.412,227.504,28.9649,0,0.000885,0,0
0:2:14.608,227.446,28.958,0,0.000885,0,0
0:2:14.804,228.385,29.0821,0,0.000885,0,0
0:2:15.005,228.327,29.0683,0,0.000885,0,0
0:2:15.210,229.324,29.1993,0,0.000885,0,0
0:2:15.410,229.733,29.2476,0,0.000885,0,0
0:2:15.618,230.084,29.2958,0,0.000885,0,0
0:2:15.824,230.084,29.2958,0,0.000885,0,0
0:2:16.024,230.907,29.3992,0,0.000885,0,0
0:2:16.219,231.085,29.4199,0,0.000885,0,0
0:2:16.420,231.61,29.4889,0,0.000885,0,0
0:2:16.618,231.961,29.5371,0,0.000885,0,0
0:2:16.821,232.313,29.5785,0,0.000885,0,0
0:2:17.023,232.375,29.5854,0,0.000885,0,0
0:2:17.224,233.371,29.7164,0,0.000885,0,0
0:2:17.424,233.896,29.7785,0,0.000885,0,0
0:2:17.624,233.781,29.7647,0,0.000885,0,0
0:2:17.824,234.368,29.8405,0,0.000885,0,0
0:2:18.024,234.955,29.9164,0,0.000885,0,0
0:2:18.220,235.186,29.9439,0,0.000885,0,0
0:2:18.419,235.658,30.006,0,0.000885,0,0
0:2:18.615,236.125,30.068,0,0.000885,0,0
0:2:18.821,236.303,30.0887,0,0.000885,0,0
0:2:19.022,236.596,30.1232,0,0.000885,0,0
0:2:19.219,237.241,30.2059,0,0.000885,0,0
0:2:19.414,237.535,30.2404,0,0.000885,0,0
0:2:19.614,237.829,30.2818,0,0.000885,0,0
0:2:19.819,238.354,30.3507,0,0.000885,0,0
0:2:20.021,238.474,30.3645,0,0.000885,0,0
0:2:20.215,239.292,30.4679,0,0.000885,0,0
0:2:20.412,239.879,30.5438,0,0.000885,0,0
0:2:20.611,239.999,30.5576,0,0.000885,0,0
0:2:20.825,239.999,30.5576,0,0.000885,0,0
0:2:21.026,240.524,30.6265,0,0.000885,0,0
0:2:21.223,240.876,30.6679,0,0.000885,0,0
0:2:21.420,242.05,30.8196,0,0.000885,0,0
0:2:21.621,242.108,30.8265,0,0.000885,0,0
0:2:21.823,242.05,30.8196,0,0.000885,0,0
0:2:22.024,242.286,30.8471,0,0.000885,0,0
0:2:22.225,242.579,30.8885,0,0.000885,0,0
0:2:22.426,243.34,30.985,0,0.000885,0,0
0:2:22.625,243.749,31.0333,0,0.000885,0,0
0:2:22.826,243.985,31.0678,0,0.000885,0,0
0:2:23.027,244.75,31.1643,0,0.000885,0,0
0:2:23.224,244.866,31.1781,0,0.000885,0,0
0:2:23.421,245.337,31.2401,0,0.000885,0,0
0:2:23.620,245.275,31.2264,0,0.000885,0,0
0:2:23.824,245.626,31.2746,0,0.000885,0,0
0:2:24.025,246.04,31.3298,0,0.000885,0,0
0:2:24.223,246.627,31.3987,0,0.000885,0,0
0:2:24.419,247.094,31.4608,0,0.000885,0,0
0:2:24.620,247.503,31.5159,0,0.000885,0,0
0:2:24.824,248.211,31.6056,0,0.000885,0,0
0:2:25.022,248.62,31.6538,0,0.000885,0,0
0:2:25.221,249.149,31.7228,0,0.000885,0,0
0:2:25.415,249.501,31.7641,0,0.000885,0,0
0:2:25.616,249.794,31.8055,0,0.000885,0,0
0:2:25.811,250.204,31.8538,0,0.000885,0,0
0:2:26.009,250.671,31.9158,0,0.000885,0,0
0:2:26.210,250.906,31.9434,0,0.000885,0,0
0:2:26.412,251.436,32.0124,0,0.000885,0,0
0:2:26.612,251.903,32.0744,0,0.000885,0,0
0:2:26.814,252.49,32.1503,0,0.000885,0,0
0:2:27.015,252.606,32.164,0,0.000885,0,0
0:2:27.214,252.668,32.1709,0,0.000885,0,0
0:2:27.415,252.841,32.1916,0,0.000885,0,0
0:2:27.614,253.429,32.2675,0,0.000885,0,0
0:2:27.822,253.371,32.2606,0,0.000885,0,0
0:2:28.020,253.9,32.3295,0,0.000885,0,0
0:2:28.219,254.251,32.3709,0,0.000885,0,0
0:2:28.412,255.19,32.495,0,0.000885,0,0
0:2:28.612,255.128,32.4812,0,0.000885,0,0
0:2:28.810,256.066,32.6053,0,0.000885,0,0
0:2:29.017,256.302,32.6329,0,0.000885,0,0
0:2:29.220,257.005,32.7225,0,0.000885,0,0
0:2:29.422,257.183,32.7432,0,0.000885,0,0
0:2:29.622,257.592,32.7984,0,0.000885,0,0
0:2:29.820,257.65,32.8053,0,0.000885,0,0
0:2:30.025,258.121,32.8673,0,0.000885,0,0
0:2:30.226,258.473,32.9087,0,0.000885,0,0
0:2:30.420,258.588,32.9225,0,0.000885,0,0
0:2:30.620,259.296,33.0121,0,0.000885,0,0
0:2:30.816,259.585,33.0535,0,0.000885,0,0
0:2:31.011,260.408,33.1569,0,0.000885,0,0
0:2:31.212,260.408,33.1569,0,0.000885,0,0
0:2:31.414,261.289,33.2672,0,0.000885,0,0
0:2:31.616,261.346,33.2741,0,0.000885,0,0
0:2:31.817,261.934,33.3499,0,0.000885,0,0
0:2:32.019,261.876,33.343,0,0.000885,0,0
0:2:32.216,262.049,33.3637,0,0.000885,0,0
0:2:32.416,262.463,33.4189,0,0.000885,0,0
0:2:32.617,263.281,33.5223,0,0.000885,0,0
0:2:32.816,263.691,33.5775,0,0.000885,0,0
0:2:33.022,264.456,33.674,0,0.000885,0,0
0:2:33.223,264.398,33.6671,0,0.000885,0,0
0:2:33.416,265.158,33.7636,0,0.000885,0,0
0:2:33.614,265.336,33.7843,0,0.000885,0,0
0:2:33.814,265.336,33.7843,0,0.000885,0,0
0:2:34.009,266.039,33.8739,0,0.000885,0,0
0:2:34.209,265.981,33.867,0,0.000885,0,0
0:2:34.415,267.093,34.0049,0,0.000885,0,0
0:2:34.610,267.036,33.998,0,0.000885,0,0
0:2:34.810,267.681,34.0808,0,0.000885,0,0
0:2:35.005,268.152,34.1428,0,0.000885,0,0
0:2:35.205,268.855,34.2325,0,0.000885,0,0
0:2:35.412,268.504,34.1842,0,0.000885,0,0
0:2:35.609,269.028,34.2532,0,0.000885,0,0
0:2:35.808,269.736,34.3428,0,0.000885,0,0
0:2:36.024,270.554,34.4462,0,0.000885,0,0
0:2:36.225,270.79,34.4807,0,0.000885,0,0
0:2:36.426,271.199,34.5289,0,0.000885,0,0
0:2:36.629,271.551,34.5772,0,0.000885,0,0
0:2:36.829,271.964,34.6255,0,0.000885,0,0
0:2:37.030,272.253,34.6668,0,0.000885,0,0
0:2:37.231,272.374,34.6806,0,0.000885,0,0
0:2:37.430,272.961,34.7565,0,0.000885,0,0
0:2:37.630,273.486,34.8185,0,0.000885,0,0
0:2:37.829,273.606,34.8392,0,0.000885,0,0
0:2:38.024,274.015,34.8875,0,0.000885,0,0
0:2:38.226,274.602,34.9633,0,0.000885,0,0
0:2:38.423,275.069,35.0254,0,0.000885,0,0
0:2:38.627,274.838,34.9909,0,0.000885,0,0
0:2:38.827,276.008,35.1426,0,0.000885,0,0
0:2:39.020,275.776,35.115,0,0.000885,0,0
0:2:39.218,276.128,35.1564,0,0.000885,0,0
0:2:39.418,276.715,35.2322,0,0.000885,0,0
0:2:39.613,276.831,35.246,0,0.000885,0,0
0:2:39.814,277.418,35.3218,0,0.000885,0,0
0:2:40.017,277.591,35.3425,0,0.000885,0,0
0:2:40.214,278.236,35.4253,0,0.000885,0,0
0:2:40.416,278.588,35.4735,0,0.000885,0,0
0:2:40.621,279.353,35.5701,0,0.000885,0,0
0:2:40.821,279.468,35.5838,0,0.000885,0,0
0:2:41.015,279.94,35.6459,0,0.000885,0,0
0:2:41.223,280.349,35.6942,0,0.000885,0,0
0:2:41.424,280.879,35.7631,0,0.000885,0,0
0:2:41.625,281.288,35.8114,0,0.000885,0,0
0:2:41.827,281.23,35.8045,0,0.000885,0,0
0:2:42.026,281.466,35.8389,0,0.000885,0,0
0:2:42.228,281.933,35.8941,0,0.000885,0,0
0:2:42.427,282.111,35.9217,0,0.000885,0,0
0:2:42.628,282.813,36.0113,0,0.000885,0,0
0:2:42.829,282.929,36.0251,0,0.000885,0,0
0:2:43.026,283.458,36.0941,0,0.000885,0,0
0:2:43.222,283.752,36.1285,0,0.000885,0,0
0:2:43.422,284.046,36.163,0,0.000885,0,0
0:2:43.617,284.513,36.2251,0,0.000885,0,0
0:2:43.814,284.103,36.1699,0,0.000885,0,0
0:2:44.011,284.748,36.2526,0,0.000885,0,0
0:2:44.227,285.509,36.3492,0,0.000885,0,0
0:2:44.429,285.687,36.3767,0,0.000885,0,0
0:2:44.626,286.332,36.4595,0,0.000885,0,0
0:2:44.822,286.568,36.4871,0,0.000885,0,0
0:2:45.022,286.332,36.4595,0,0.000885,0,0
0:2:45.225,287.155,36.5629,0,0.000885,0,0
0:2:45.425,287.506,36.6043,0,0.000885,0,0
0:2:45.623,287.386,36.5905,0,0.000885,0,0
0:2:45.828,287.916,36.6594,0,0.000885,0,0
0:2:46.029,288.445,36.7284,0,0.000885,0,0
0:2:46.222,288.912,36.7835,0,0.000885,0,0
0:2:46.421,289.09,36.8111,0,0.000885,0,0
0:2:46.621,289.384,36.8456,0,0.000885,0,0
0:2:46.824,290.144,36.9421,0,0.000885,0,0
0:2:47.026,290.26,36.9559,0,0.000885,0,0
0:2:47.226,290.38,36.9697,0,0.000885,0,0
0:2:47.426,291.025,37.0524,0,0.000885,0,0
0:2:47.627,291.492,37.1145,0,0.000885,0,0
0:2:47.825,291.906,37.1696,0,0.000885,0,0
0:2:48.026,292.021,37.1834,0,0.000885,0,0
0:2:48.224,292.666,37.2662,0,0.000885,0,0
0:2:48.418,292.666,37.2662,0,0.000885,0,0
0:2:48.619,293.605,37.3834,0,0.000885,0,0
0:2:48.824,293.778,37.4041,0,0.000885,0,0
0:2:49.025,294.072,37.4454,0,0.000885,0,0
0:2:49.221,294.601,37.5075,0,0.000885,0,0
0:2:49.425,295.011,37.5626,0,0.000885,0,0
0:2:49.626,295.304,37.5971,0,0.000885,0,0
0:2:49.822,295.54,37.6316,0,0.000885,0,0
0:2:50.018,295.718,37.6523,0,0.000885,0,0
0:2:50.217,296.243,37.7212,0,0.000885,0,0
0:2:50.411,296.421,37.7419,0,0.000885,0,0
0:2:50.612,297.008,37.8177,0,0.000885,0,0
0:2:50.808,297.301,37.8522,0,0.000885,0,0
0:2:51.014,297.768,37.9143,0,0.000885,0,0
0:2:51.214,297.768,37.9143,0,0.000885,0,0
0:2:51.416,298.943,38.0591,0,0.000885,0,0
0:2:51.618,299.41,38.1211,0,0.000885,0,0
0:2:51.821,300.291,38.2314,0,0.000885,0,0
0:2:52.022,300.758,38.2935,0,0.000885,0,0
0:2:52.222,301.816,38.4314,0,0.000885,0,0
0:2:52.422,302.052,38.459,0,0.000885,0,0
0:2:52.623,302.341,38.4934,0,0.000885,0,0
0:2:52.818,303.342,38.6244,0,0.000885,0,0
0:2:53.025,303.867,38.6865,0,0.000885,0,0
0:2:53.227,304.338,38.7485,0,0.000885,0,0
0:2:53.430,304.926,38.8244,0,0.000885,0,0
0:2:53.629,305.393,38.8864,0,0.000885,0,0
0:2:53.828,305.744,38.9278,0,0.000885,0,0
0:2:54.023,306.625,39.0381,0,0.000885,0,0
0:2:54.224,306.976,39.0864,0,0.000885,0,0
0:2:54.418,307.915,39.2036,0,0.000885,0,0
0:2:54.614,307.915,39.2036,0,0.000885,0,0
0:2:54.814,308.093,39.2243,0,0.000885,0,0
0:2:55.017,308.675,39.3001,0,0.000885,0,0
0:2:55.218,309.325,39.3829,0,0.000885,0,0
0:2:55.415,309.614,39.4242,0,0.000885,0,0
0:2:55.612,310.028,39.4725,0,0.000885,0,0
0:2:55.811,310.379,39.5207,0,0.000885,0,0
0:2:56.005,311.024,39.6035,0,0.000885,0,0
0:2:56.203,311.433,39.6517,0,0.000885,0,0
0:2:56.404,311.26,39.6311,0,0.000885,0,0
0:2:56.605,311.611,39.6724,0,0.000885,0,0
0:2:56.806,312.372,39.7759,0,0.000885,0,0
0:2:57.006,312.665,39.8103,0,0.000885,0,0
0:2:57.208,312.665,39.8103,0,0.000885,0,0
0:2:57.408,312.959,39.8448,0,0.000885,0,0
0:2:57.609,313.368,39.9,0,0.000885,0,0
0:2:57.810,314.076,39.9896,0,0.000885,0,0
0:2:58.015,314.543,40.0516,0,0.000885,0,0
0:2:58.223,314.013,39.9827,0,0.000885,0,0
0:2:58.424,314.836,40.0861,0,0.000885,0,0
0:2:58.628,314.836,40.0861,0,0.000885,0,0
0:2:58.828,315.245,40.1413,0,0.000885,0,0
0:2:59.024,315.597,40.1826,0,0.000885,0,0
0:2:59.219,315.833,40.2102,0,0.000885,0,0
0:2:59.418,316.242,40.2654,0,0.000885,0,0
0:2:59.624,316.656,40.3205,0,0.000885,0,0
0:2:59.825,317.007,40.3619,0,0.000885,0,0
0:3:0.031,316.593,40.3068,0,0.000885,0,0
0:3:0.226,317.358,40.4102,0,0.000885,0,0
0:3:0.427,317.652,40.4446,0,0.000885,0,0
0:3:0.632,317.71,40.4515,0,0.000885,0,0
0:3:0.830,318.061,40.4998,0,0.000885,0,0
0:3:1.029,318.591,40.5619,0,0.000885,0,0
0:3:1.220,318.764,40.5894,0,0.000885,0,0
0:3:1.423,319,40.617,0,0.000885,0,0
0:3:1.622,318.648,40.5688,0,0.000885,0,0
0:3:1.825,319.529,40.686,0,0.000885,0,0
0:3:2.025,319.529,40.686,0,0.000885,0,0
0:3:2.227,320.174,40.7687,0,0.000885,0,0
0:3:2.426,320.174,40.7687,0,0.000885,0,0
0:3:2.625,320.526,40.8101,0,0.000885,0,0
0:3:2.826,321.344,40.9135,0,0.000885,0,0
0:3:3.027,321.993,40.9962,0,0.000885,0,0
0:3:3.231,322.225,41.0238,0,0.000885,0,0
0:3:3.430,322.283,41.0376,0,0.000885,0,0
0:3:3.629,322.87,41.1065,0,0.000885,0,0
0:3:3.824,323.221,41.1548,0,0.000885,0,0
0:3:4.025,323.866,41.2375,0,0.000885,0,0
0:3:4.219,324.453,41.3134,0,0.000885,0,0
0:3:4.417,325.45,41.4375,0,0.000885,0,0
0:3:4.615,325.57,41.4513,0,0.000885,0,0
0:3:4.811,326.451,41.5616,0,0.000885,0,0
0:3:5.012,326.624,41.5892,0,0.000885,0,0
0:3:5.208,327.505,41.6995,0,0.000885,0,0
0:3:5.415,327.856,41.7409,0,0.000885,0,0
0:3:5.613,328.679,41.8512,0,0.000885,0,0
0:3:5.809,329.204,41.9132,0,0.000885,0,0
0:3:6.009,329.44,41.9477,0,0.000885,0,0
0:3:6.215,329.907,42.0029,0,0.000885,0,0
0:3:6.421,330.378,42.0649,0,0.000885,0,0
0:3:6.624,330.908,42.1339,0,0.000885,0,0
0:3:6.824,330.845,42.127,0,0.000885,0,0
0:3:7.026,331.495,42.2097,0,0.000885,0,0
0:3:7.228,331.726,42.2373,0,0.000885,0,0
0:3:7.429,332.723,42.3614,0,0.000885,0,0
0:3:7.629,332.958,42.3959,0,0.000885,0,0
0:3:7.830,333.545,42.4717,0,0.000885,0,0
0:3:8.029,333.488,42.4579,0,0.000885,0,0
0:3:8.229,334.013,42.5269,0,0.000885,0,0
0:3:8.423,334.133,42.5407,0,0.000885,0,0
0:3:8.624,334.893,42.6372,0,0.000885,0,0
0:3:8.818,335.245,42.6854,0,0.000885,0,0
0:3:9.017,335.48,42.713,0,0.000885,0,0
0:3:9.216,335.538,42.7199,0,0.000885,0,0
0:3:9.420,336.303,42.8164,0,0.000885,0,0
0:3:9.621,336.535,42.8509,0,0.000885,0,0
0:3:9.817,336.828,42.8854,0,0.000885,0,0
0:3:10.025,336.948,42.8992,0,0.000885,0,0
0:3:10.226,336.948,42.8992,0,0.000885,0,0
0:3:10.429,336.948,42.8992,0,0.000885,0,0
0:3:10.628,336.891,42.8923,0,0.000885,0,0
0:3:10.824,326.037,41.5133,0,0.000885,0,0
0:3:10.881,326.037,41.5133,0,0.000885,0,0