File: DataFile2021-06-08_032217.csv
Test ID:,Date Tested:,Time:,Test Type:,Diameter Avg. (mm):,Cyl. Corr. Factor:,Height (mm):,Age (days):,Weight (kN):,Break Type:,Ramp Rate (MPa/s):,Load at Break (kN):,Stress at Break (MPa):
12,6/8/2021,03:22,Cylinder,100,1,200,0,3.6,3,0.25,687.87,87.58
Sample Time,Load (kN),Stress (MPa),Long. Strain,Trans. Strain,Chan1 Deflection (mm),Chan2 Deflection (mm)
0:0:6.228,5.04428,0.641212,0,0.000885,0,0
0:0:6.533,5.21776,0.661897,0,0.000885,0,0
0:0:6.837,6.86361,0.875634,0,0.000885,0,0
0:0:7.143,7.33067,0.930792,0,0.000885,0,0
0:0:7.442,7.09491,0.903213,0,0.000885,0,0
0:0:7.740,7.27284,0.923897,0,0.000885,0,0
0:0:8.045,8.26924,1.0549,0,0.000885,0,0
0:0:8.346,9.44357,1.19969,0,0.000885,0,0
0:0:8.642,10.3243,1.3169,0,0.000885,0,0
0:0:8.940,10.0307,1.27553,0,0.000885,0,0
0:0:9.247,10.4978,1.33758,0,0.000885,0,0
0:0:9.545,11.4942,1.46169,0,0.000885,0,0
0:0:9.845,11.2629,1.43411,0,0.000885,0,0
0:0:10.139,12.375,1.5789,0,0.000885,0,0
0:0:10.440,12.5529,1.59958,0,0.000885,0,0
0:0:10.746,13.3714,1.70301,0,0.000885,0,0
0:0:11.046,15.5421,1.9788,0,0.000885,0,0
0:0:11.344,16.7742,2.13737,0,0.000885,0,0
0:0:11.646,17.01,2.16495,0,0.000885,0,0
0:0:11.950,16.9522,2.15806,0,0.000885,0,0
0:0:12.254,17.655,2.24769,0,0.000885,0,0
0:0:12.555,17.5972,2.2408,0,0.000885,0,0
0:0:12.857,18.4156,2.34422,0,0.000885,0,0
0:0:13.156,18.767,2.39248,0,0.000885,0,0
0:0:13.456,19.2964,2.45453,0,0.000885,0,0
0:0:13.752,20.2928,2.58553,0,0.000885,0,0
0:0:14.053,20.5864,2.62001,0,0.000885,0,0
0:0:14.350,21.4093,2.72343,0,0.000885,0,0
0:0:14.649,21.992,2.79927,0,0.000885,0,0
0:0:14.950,22.4635,2.86132,0,0.000885,0,0
0:0:15.246,23.4021,2.97854,0,0.000885,0,0
0:0:15.546,23.4599,2.98543,0,0.000885,0,0
0:0:15.842,23.7535,3.0268,0,0.000885,0,0
0:0:16.142,24.1627,3.07506,0,0.000885,0,0
0:0:16.441,25.2792,3.21985,0,0.000885,0,0
0:0:16.744,25.5728,3.25433,0,0.000885,0,0
0:0:17.048,25.8664,3.29569,0,0.000885,0,0
0:0:17.353,26.805,3.4129,0,0.000885,0,0
0:0:17.654,27.3299,3.48185,0,0.000885,0,0
0:0:17.956,27.9749,3.56459,0,0.000885,0,0
0:0:18.258,29.0914,3.70248,0,0.000885,0,0
0:0:18.556,29.385,3.74385,0,0.000885,0,0
0:0:18.852,30.3814,3.86796,0,0.000885,0,0
0:0:19.154,31.142,3.96449,0,0.000885,0,0
0:0:19.450,31.7292,4.04033,0,0.000885,0,0
0:0:19.751,31.9649,4.06791,0,0.000885,0,0
0:0:20.048,32.6677,4.15754,0,0.000885,0,0
0:0:20.347,32.9035,4.19201,0,0.000885,0,0
0:0:20.647,33.6063,4.28164,0,0.000885,0,0
0:0:20.942,34.1935,4.35059,0,0.000885,0,0
0:0:21.244,34.6027,4.40575,0,0.000885,0,0
0:0:21.540,35.0742,4.4678,0,0.000885,0,0
0:0:21.843,35.777,4.55743,0,0.000885,0,0
0:0:22.149,36.6,4.66086,0,0.000885,0,0
0:0:22.451,37.245,4.74359,0,0.000885,0,0
0:0:22.753,37.5964,4.78496,0,0.000885,0,0
0:0:23.056,38.1213,4.85391,0,0.000885,0,0
0:0:23.357,39.1799,4.9918,0,0.000885,0,0
0:0:23.655,39.2378,4.9987,0,0.000885,0,0
0:0:23.951,39.9406,5.08833,0,0.000885,0,0
0:0:24.253,40.292,5.1297,0,0.000885,0,0
0:0:24.549,40.7057,5.18486,0,0.000885,0,0
0:0:24.849,41.582,5.29517,0,0.000885,0,0
0:0:25.147,42.1113,5.36412,0,0.000885,0,0
0:0:25.445,42.9342,5.46754,0,0.000885,0,0
0:0:25.747,43.2234,5.50202,0,0.000885,0,0
0:0:26.041,44.282,5.63991,0,0.000885,0,0
0:0:26.342,44.7491,5.69507,0,0.000885,0,0
0:0:26.640,45.6877,5.81918,0,0.000885,0,0
0:0:26.942,46.0391,5.86054,0,0.000885,0,0
0:0:27.248,46.2748,5.89502,0,0.000885,0,0
0:0:27.551,47.3914,6.03291,0,0.000885,0,0
0:0:27.854,48.4456,6.17081,0,0.000885,0,0
0:0:28.155,48.2677,6.14323,0,0.000885,0,0
0:0:28.453,48.6191,6.19149,0,0.000885,0,0
0:0:28.755,49.9713,6.36386,0,0.000885,0,0
0:0:29.050,50.2649,6.39833,0,0.000885,0,0
0:0:29.351,50.3806,6.41212,0,0.000885,0,0
0:0:29.647,51.3191,6.53623,0,0.000885,0,0
0:0:29.947,51.7284,6.58449,0,0.000885,0,0
0:0:30.246,52.4356,6.67413,0,0.000885,0,0
0:0:30.541,53.4899,6.81202,0,0.000885,0,0
0:0:30.843,53.6055,6.82581,0,0.000885,0,0
0:0:31.140,54.0192,6.88097,0,0.000885,0,0
0:0:31.440,54.6642,6.95681,0,0.000885,0,0
0:0:31.747,55.4248,7.06023,0,0.000885,0,0
0:0:32.050,56.3056,7.17055,0,0.000885,0,0
0:0:32.355,56.4212,7.18434,0,0.000885,0,0
0:0:32.658,57.3598,7.30155,0,0.000885,0,0
0:0:32.961,57.7112,7.34981,0,0.000885,0,0
0:0:33.263,58.2984,7.42565,0,0.000885,0,0
0:0:33.561,58.8856,7.4946,0,0.000885,0,0
0:0:33.862,59.1213,7.52907,0,0.000885,0,0
0:0:34.157,60.0599,7.64629,0,0.000885,0,0
0:0:34.459,60.6426,7.72213,0,0.000885,0,0
0:0:34.755,60.8784,7.74971,0,0.000885,0,0
0:0:35.053,61.4655,7.82555,0,0.000885,0,0
0:0:35.353,62.4041,7.94276,0,0.000885,0,0
0:0:35.648,63.1647,8.03929,0,0.000885,0,0
0:0:35.950,63.4583,8.08066,0,0.000885,0,0
0:0:36.246,64.0455,8.1565,0,0.000885,0,0
0:0:36.550,64.6905,8.23923,0,0.000885,0,0
0:0:36.855,65.162,8.29439,0,0.000885,0,0
0:0:37.158,65.807,8.37713,0,0.000885,0,0
0:0:37.461,66.6877,8.48745,0,0.000885,0,0
0:0:37.762,66.9769,8.52881,0,0.000885,0,0
0:0:38.061,67.6219,8.61155,0,0.000885,0,0
0:0:38.362,68.209,8.68739,0,0.000885,0,0
0:0:38.657,69.1476,8.80461,0,0.000885,0,0
0:0:38.959,69.7348,8.88045,0,0.000885,0,0
0:0:39.253,69.7926,8.88734,0,0.000885,0,0
0:0:39.555,70.3219,8.95629,0,0.000885,0,0
0:0:39.853,71.0826,9.05282,0,0.000885,0,0
0:0:40.149,71.4963,9.10108,0,0.000885,0,0
0:0:40.451,71.9633,9.16313,0,0.000885,0,0
0:0:40.747,73.022,9.29413,0,0.000885,0,0
0:0:41.048,73.3111,9.3355,0,0.000885,0,0
0:0:41.346,73.9561,9.41824,0,0.000885,0,0
0:0:41.648,74.7791,9.52166,0,0.000885,0,0
0:0:41.952,75.2506,9.58371,0,0.000885,0,0
0:0:42.255,75.602,9.62508,0,0.000885,0,0
0:0:42.558,77.0076,9.80434,0,0.000885,0,0
0:0:42.860,76.892,9.79056,0,0.000885,0,0
0:0:43.159,77.2434,9.83192,0,0.000885,0,0
0:0:43.459,78.2976,9.96982,0,0.000885,0,0
0:0:43.753,78.7691,10.0319,0,0.000885,0,0
0:0:44.056,79.1783,10.0801,0,0.000885,0,0
0:0:44.350,79.939,10.1767,0,0.000885,0,0
0:0:44.651,80.9977,10.3146,0,0.000885,0,0
0:0:44.950,81.5226,10.3766,0,0.000885,0,0
0:0:45.245,82.1097,10.4525,0,0.000885,0,0
0:0:45.548,82.7547,10.5352,0,0.000885,0,0
0:0:45.843,83.6933,10.6593,0,0.000885,0,0
0:0:46.144,83.8712,10.68,0,0.000885,0,0
0:0:46.442,84.3961,10.7489,0,0.000885,0,0
0:0:46.745,84.6319,10.7765,0,0.000885,0,0
0:0:47.050,85.8062,10.9282,0,0.000885,0,0
0:0:47.353,86.5668,11.0247,0,0.000885,0,0
0:0:47.655,86.8604,11.0592,0,0.000885,0,0
0:0:47.957,86.9183,11.0661,0,0.000885,0,0
0:0:48.255,88.0926,11.2178,0,0.000885,0,0
0:0:48.556,88.2082,11.2316,0,0.000885,0,0
0:0:48.851,88.9155,11.3212,0,0.000885,0,0
0:0:49.152,89.6183,11.4108,0,0.000885,0,0
0:0:49.449,90.379,11.5073,0,0.000885,0,0
0:0:49.746,90.8505,11.5694,0,0.000885,0,0
0:0:50.047,91.3754,11.6315,0,0.000885,0,0
0:0:50.341,91.8469,11.6935,0,0.000885,0,0
0:0:50.643,92.7855,11.8107,0,0.000885,0,0
0:0:50.948,93.2525,11.8728,0,0.000885,0,0
0:0:51.249,93.6662,11.9279,0,0.000885,0,0
0:0:51.546,94.4847,12.0314,0,0.000885,0,0
0:0:51.849,94.6048,12.0451,0,0.000885,0,0
0:0:52.154,95.2498,12.1279,0,0.000885,0,0
0:0:52.458,96.0682,12.2313,0,0.000885,0,0
0:0:52.761,96.5398,12.2934,0,0.000885,0,0
0:0:53.062,96.8912,12.3347,0,0.000885,0,0
0:0:53.361,97.7719,12.4519,0,0.000885,0,0
0:0:53.660,97.9454,12.4726,0,0.000885,0,0
0:0:53.955,98.884,12.5898,0,0.000885,0,0
0:0:54.257,99.3555,12.6519,0,0.000885,0,0
0:0:54.553,100.232,12.7622,0,0.000885,0,0
0:0:54.852,100.525,12.7967,0,0.000885,0,0
0:0:55.150,101.348,12.907,0,0.000885,0,0
0:0:55.447,101.993,12.9828,0,0.000885,0,0
0:0:55.748,102.109,13.0035,0,0.000885,0,0
0:0:56.043,102.932,13.1069,0,0.000885,0,0
0:0:56.345,103.519,13.1828,0,0.000885,0,0
0:0:56.639,103.986,13.2379,0,0.000885,0,0
0:0:56.944,104.631,13.3207,0,0.000885,0,0
0:0:57.249,105.512,13.431,0,0.000885,0,0
0:0:57.551,106.272,13.5344,0,0.000885,0,0
0:0:57.854,107.273,13.6585,0,0.000885,0,0
0:0:58.155,107.86,13.7344,0,0.000885,0,0
0:0:58.456,108.212,13.7757,0,0.000885,0,0
0:0:58.754,108.443,13.8102,0,0.000885,0,0
0:0:59.049,109.15,13.8998,0,0.000885,0,0
0:0:59.351,110.089,14.017,0,0.000885,0,0
0:0:59.646,110.378,14.0515,0,0.000885,0,0
0:0:59.949,110.672,14.0929,0,0.000885,0,0
0:1:0.243,110.614,14.086,0,0.000885,0,0
0:1:0.543,111.553,14.2032,0,0.000885,0,0
0:1:0.843,112.255,14.2928,0,0.000885,0,0
0:1:1.147,113.02,14.3894,0,0.000885,0,0
0:1:1.449,113.781,14.4859,0,0.000885,0,0
0:1:1.753,114.484,14.5755,0,0.000885,0,0
0:1:2.057,115.129,14.6583,0,0.000885,0,0
0:1:2.360,115.365,14.6858,0,0.000885,0,0
0:1:2.663,116.245,14.803,0,0.000885,0,0
0:1:2.965,116.481,14.8306,0,0.000885,0,0
0:1:3.261,116.712,14.8582,0,0.000885,0,0
0:1:3.561,117.945,15.0168,0,0.000885,0,0
0:1:3.859,117.829,15.003,0,0.000885,0,0
0:1:4.157,118.883,15.134,0,0.000885,0,0
0:1:4.457,119.413,15.2029,0,0.000885,0,0
0:1:4.752,119.942,15.2719,0,0.000885,0,0
0:1:5.054,120.645,15.3615,0,0.000885,0,0
0:1:5.348,121.174,15.4305,0,0.000885,0,0
0:1:5.648,121.935,15.527,0,0.000885,0,0
0:1:5.947,121.819,15.5132,0,0.000885,0,0
0:1:6.244,123.812,15.7614,0,0.000885,0,0
0:1:6.545,123.87,15.7683,0,0.000885,0,0
0:1:6.849,124.048,15.7959,0,0.000885,0,0
0:1:7.151,124.866,15.8993,0,0.000885,0,0
0:1:7.454,125.689,16.0027,0,0.000885,0,0
0:1:7.756,126.392,16.0924,0,0.000885,0,0
0:1:8.060,126.921,16.1613,0,0.000885,0,0
0:1:8.354,127.273,16.2027,0,0.000885,0,0
0:1:8.656,128.091,16.3061,0,0.000885,0,0
0:1:8.952,128.327,16.3406,0,0.000885,0,0
0:1:9.253,129.15,16.444,0,0.000885,0,0
0:1:9.551,129.559,16.4992,0,0.000885,0,0
0:1:9.847,130.026,16.5543,0,0.000885,0,0
0:1:10.148,130.675,16.637,0,0.000885,0,0
0:1:10.443,131.436,16.7336,0,0.000885,0,0
0:1:10.745,131.787,16.7818,0,0.000885,0,0
0:1:11.050,131.965,16.8025,0,0.000885,0,0
0:1:11.350,132.61,16.8853,0,0.000885,0,0
0:1:11.649,133.843,17.0438,0,0.000885,0,0
0:1:11.953,134.074,17.0714,0,0.000885,0,0
0:1:12.257,134.545,17.1335,0,0.000885,0,0
0:1:12.560,135.835,17.2921,0,0.000885,0,0
0:1:12.861,135.835,17.2921,0,0.000885,0,0
0:1:13.163,136.89,17.4299,0,0.000885,0,0
0:1:13.461,137.183,17.4644,0,0.000885,0,0
0:1:13.761,137.77,17.5403,0,0.000885,0,0
0:1:14.057,138.593,17.6437,0,0.000885,0,0
0:1:14.360,139.941,17.8161,0,0.000885,0,0
0:1:14.655,140.177,17.8505,0,0.000885,0,0
0:1:14.951,140.057,17.8298,0,0.000885,0,0
0:1:15.251,140.88,17.9402,0,0.000885,0,0
0:1:15.547,140.702,17.9126,0,0.000885,0,0
0:1:15.850,142.343,18.1263,0,0.000885,0,0
0:1:16.144,142.579,18.1539,0,0.000885,0,0
0:1:16.445,142.695,18.1677,0,0.000885,0,0
0:1:16.740,143.46,18.2642,0,0.000885,0,0
0:1:17.046,144.398,18.3883,0,0.000885,0,0
0:1:17.351,144.572,18.409,0,0.000885,0,0
0:1:17.653,145.217,18.4917,0,0.000885,0,0
0:1:17.955,146.097,18.6021,0,0.000885,0,0
0:1:18.257,146.862,18.6986,0,0.000885,0,0
0:1:18.555,146.978,18.7124,0,0.000885,0,0
0:1:18.857,147.859,18.8227,0,0.000885,0,0
0:1:19.151,148.446,18.8985,0,0.000885,0,0
0:1:19.453,148.562,18.9123,0,0.000885,0,0
0:1:19.749,150.323,19.1398,0,0.000885,0,0
0:1:20.050,150.145,19.1192,0,0.000885,0,0
0:1:20.347,150.732,19.195,0,0.000885,0,0
0:1:20.653,151.493,19.2915,0,0.000885,0,0
0:1:20.955,151.493,19.2915,0,0.000885,0,0
0:1:21.249,152.316,19.395,0,0.000885,0,0
0:1:21.552,153.197,19.5053,0,0.000885,0,0
0:1:21.857,154.193,19.6294,0,0.000885,0,0
0:1:22.160,153.842,19.588,0,0.000885,0,0
0:1:22.463,155.012,19.7397,0,0.000885,0,0
0:1:22.765,154.896,19.719,0,0.000885,0,0
0:1:23.069,156.186,19.8845,0,0.000885,0,0
0:1:23.364,156.715,19.9534,0,0.000885,0,0
0:1:23.664,157.182,20.0155,0,0.000885,0,0
0:1:23.961,158.53,20.1878,0,0.000885,0,0
0:1:24.260,158.121,20.1327,0,0.000885,0,0
0:1:24.560,159.353,20.2913,0,0.000885,0,0
0:1:24.854,159.411,20.2982,0,0.000885,0,0
0:1:25.156,160.407,20.4223,0,0.000885,0,0
0:1:25.451,160.821,20.4774,0,0.000885,0,0
0:1:25.749,161.23,20.5257,0,0.000885,0,0
0:1:26.048,161.875,20.6084,0,0.000885,0,0
0:1:26.354,162.814,20.7325,0,0.000885,0,0
0:1:26.656,163.401,20.8015,0,0.000885,0,0
0:1:26.960,163.05,20.7601,0,0.000885,0,0
0:1:27.263,164.34,20.9256,0,0.000885,0,0
0:1:27.566,164.749,20.9739,0,0.000885,0,0
0:1:27.868,165.158,21.029,0,0.000885,0,0
0:1:28.170,166.39,21.1876,0,0.000885,0,0
0:1:28.466,166.217,21.16,0,0.000885,0,0
0:1:28.767,167.742,21.36,0,0.000885,0,0
0:1:29.063,167.858,21.3737,0,0.000885,0,0
0:1:29.362,168.387,21.4427,0,0.000885,0,0
0:1:29.662,169.148,21.5392,0,0.000885,0,0
0:1:29.957,169.793,21.622,0,0.000885,0,0
0:1:30.259,169.615,21.5944,0,0.000885,0,0
0:1:30.554,170.789,21.7461,0,0.000885,0,0
0:1:30.853,172.137,21.9184,0,0.000885,0,0
0:1:31.151,171.786,21.8702,0,0.000885,0,0
0:1:31.449,172.493,21.9598,0,0.000885,0,0
0:1:31.749,173.547,22.0977,0,0.000885,0,0
0:1:32.052,173.721,22.1184,0,0.000885,0,0
0:1:32.357,174.486,22.2149,0,0.000885,0,0
0:1:32.658,174.077,22.1666,0,0.000885,0,0
0:1:32.961,175.54,22.3528,0,0.000885,0,0
0:1:33.263,175.892,22.3942,0,0.000885,0,0
0:1:33.560,176.305,22.4493,0,0.000885,0,0
0:1:33.861,177.066,22.5459,0,0.000885,0,0
0:1:34.155,178.004,22.6631,0,0.000885,0,0
0:1:34.455,177.711,22.6286,0,0.000885,0,0
0:1:34.753,179.179,22.8148,0,0.000885,0,0
0:1:35.050,180.291,22.9526,0,0.000885,0,0
0:1:35.349,179.646,22.8699,0,0.000885,0,0
0:1:35.654,181.114,23.063,0,0.000885,0,0
0:1:35.956,181.932,23.1664,0,0.000885,0,0
0:1:36.251,181.465,23.1043,0,0.000885,0,0
0:1:36.552,182.404,23.2215,0,0.000885,0,0
0:1:36.856,183.222,23.3319,0,0.000885,0,0
0:1:37.160,184.223,23.456,0,0.000885,0,0
0:1:37.461,184.806,23.5318,0,0.000885,0,0
0:1:37.763,185.513,23.6214,0,0.000885,0,0
0:1:38.065,185.629,23.6352,0,0.000885,0,0
0:1:38.363,185.807,23.6559,0,0.000885,0,0
0:1:38.660,186.567,23.7524,0,0.000885,0,0
0:1:38.960,186.861,23.7938,0,0.000885,0,0
0:1:39.254,187.742,23.9041,0,0.000885,0,0
0:1:39.556,188.618,24.0144,0,0.000885,0,0
0:1:39.850,188.56,24.0075,0,0.000885,0,0
0:1:40.151,189.032,24.0696,0,0.000885,0,0
0:1:40.449,190.322,24.2351,0,0.000885,0,0
0:1:40.755,191.434,24.373,0,0.000885,0,0
0:1:41.056,191.785,24.4212,0,0.000885,0,0
0:1:41.350,191.318,24.3592,0,0.000885,0,0
0:1:41.653,192.55,24.5178,0,0.000885,0,0
0:1:41.956,193.898,24.6901,0,0.000885,0,0
0:1:42.258,194.543,24.7729,0,0.000885,0,0
0:1:42.558,195.072,24.8349,0,0.000885,0,0
0:1:42.857,195.13,24.8418,0,0.000885,0,0
0:1:43.158,196.247,24.9866,0,0.000885,0,0
0:1:43.451,196.598,25.0349,0,0.000885,0,0
0:1:43.748,196.714,25.0487,0,0.000885,0,0
0:1:44.053,196.42,25.0073,0,0.000885,0,0
0:1:44.349,196.949,25.0762,0,0.000885,0,0
0:1:44.647,198.355,25.2555,0,0.000885,0,0
0:1:44.937,198.942,25.3313,0,0.000885,0,0
0:1:45.238,200.059,25.4692,0,0.000885,0,0
0:1:45.541,200.41,25.5175,0,0.000885,0,0
0:1:45.837,200.117,25.4761,0,0.000885,0,0
0:1:46.133,201.58,25.6692,0,0.000885,0,0
0:1:46.449,201.407,25.6416,0,0.000885,0,0
0:1:46.749,202.754,25.814,0,0.000885,0,0
0:1:47.051,203.635,25.9243,0,0.000885,0,0
0:1:47.353,203.457,25.9036,0,0.000885,0,0
0:1:47.652,204.516,26.0415,0,0.000885,0,0
0:1:47.952,204.396,26.0277,0,0.000885,0,0
0:1:48.250,204.925,26.0898,0,0.000885,0,0
0:1:48.542,206.331,26.269,0,0.000885,0,0
0:1:48.842,207.096,26.3656,0,0.000885,0,0
0:1:49.147,207.505,26.4207,0,0.000885,0,0
0:1:49.442,207.212,26.3862,0,0.000885,0,0
0:1:49.739,208.679,26.5724,0,0.000885,0,0
0:1:50.042,209.498,26.6758,0,0.000885,0,0
0:1:50.341,210.205,26.7654,0,0.000885,0,0
0:1:50.647,210.966,26.862,0,0.000885,0,0
0:1:50.953,210.614,26.8137,0,0.000885,0,0
0:1:51.249,210.966,26.862,0,0.000885,0,0
0:1:51.542,212.082,26.9999,0,0.000885,0,0
0:1:51.841,212.082,26.9999,0,0.000885,0,0
0:1:52.147,213.31,27.1584,0,0.000885,0,0
0:1:52.447,214.075,27.255,0,0.000885,0,0
0:1:52.743,215.187,27.3998,0,0.000885,0,0
0:1:53.043,214.542,27.317,0,0.000885,0,0
0:1:53.343,215.717,27.4687,0,0.000885,0,0
0:1:53.637,216.477,27.5652,0,0.000885,0,0
0:1:53.936,216.539,27.5721,0,0.000885,0,0
0:1:54.240,217.829,27.7376,0,0.000885,0,0
0:1:54.536,217.536,27.6962,0,0.000885,0,0
0:1:54.840,217.887,27.7445,0,0.000885,0,0
0:1:55.148,218.826,27.8617,0,0.000885,0,0
0:1:55.445,219.707,27.972,0,0.000885,0,0
0:1:55.737,219.822,27.9858,0,0.000885,0,0
0:1:56.036,220.819,28.1168,0,0.000885,0,0
0:1:56.350,221.993,28.2616,0,0.000885,0,0
0:1:56.651,221.584,28.2133,0,0.000885,0,0
0:1:56.955,223.105,28.4064,0,0.000885,0,0
0:1:57.254,222.989,28.3926,0,0.000885,0,0
0:1:57.554,223.399,28.4409,0,0.000885,0,0
0:1:57.852,224.101,28.5305,0,0.000885,0,0
0:1:58.152,224.457,28.5788,0,0.000885,0,0
0:1:58.445,224.924,28.6408,0,0.000885,0,0
0:1:58.751,226.624,28.8546,0,0.000885,0,0
0:1:59.050,227.74,28.9993,0,0.000885,0,0
0:1:59.340,227.562,28.9718,0,0.000885,0,0
0:1:59.639,228.034,29.0338,0,0.000885,0,0
0:1:59.945,229.208,29.1855,0,0.000885,0,0
0:2:0.241,229.733,29.2476,0,0.000885,0,0
0:2:0.537,229.853,29.2682,0,0.000885,0,0
0:2:0.851,229.559,29.2269,0,0.000885,0,0
0:2:1.151,231.143,29.4268,0,0.000885,0,0
0:2:1.456,231.259,29.4475,0,0.000885,0,0
0:2:1.757,231.437,29.4682,0,0.000885,0,0
0:2:2.060,231.961,29.5371,0,0.000885,0,0
0:2:2.360,232.433,29.5923,0,0.000885,0,0
0:2:2.661,233.603,29.744,0,0.000885,0,0
0:2:2.962,234.661,29.875,0,0.000885,0,0
0:2:3.259,235.542,29.9922,0,0.000885,0,0
0:2:3.555,235.129,29.937,0,0.000885,0,0
0:2:3.858,236.596,30.1232,0,0.000885,0,0
0:2:4.157,236.419,30.1025,0,0.000885,0,0
0:2:4.450,236.654,30.1301,0,0.000885,0,0
0:2:4.749,237.241,30.2059,0,0.000885,0,0
0:2:5.043,238.18,30.3231,0,0.000885,0,0
0:2:5.338,238.296,30.3438,0,0.000885,0,0
0:2:5.634,239.47,30.4886,0,0.000885,0,0
0:2:5.939,241.054,30.6886,0,0.000885,0,0
0:2:6.249,241.583,30.7575,0,0.000885,0,0
0:2:6.553,241.289,30.723,0,0.000885,0,0
0:2:6.854,242.344,30.854,0,0.000885,0,0
0:2:7.157,243.166,30.9575,0,0.000885,0,0
0:2:7.457,243.985,31.0678,0,0.000885,0,0
0:2:7.758,244.336,31.1091,0,0.000885,0,0
0:2:8.057,244.043,31.0747,0,0.000885,0,0
0:2:8.354,244.981,31.1919,0,0.000885,0,0
0:2:8.652,245.92,31.3091,0,0.000885,0,0
0:2:8.955,246.743,31.4194,0,0.000885,0,0
0:2:9.254,246.098,31.3367,0,0.000885,0,0
0:2:9.544,247.21,31.4746,0,0.000885,0,0
0:2:9.843,248.326,31.6194,0,0.000885,0,0
0:2:10.151,248.5,31.64,0,0.000885,0,0
0:2:10.452,248.562,31.6469,0,0.000885,0,0
0:2:10.753,249.501,31.7641,0,0.000885,0,0
0:2:11.056,249.674,31.7917,0,0.000885,0,0
0:2:11.353,251.142,31.9779,0,0.000885,0,0
0:2:11.647,251.903,32.0744,0,0.000885,0,0
0:2:11.950,252.668,32.1709,0,0.000885,0,0
0:2:12.252,253.135,32.233,0,0.000885,0,0
0:2:12.553,253.958,32.3364,0,0.000885,0,0
0:2:12.853,254.131,32.3571,0,0.000885,0,0
0:2:13.154,253.606,32.2881,0,0.000885,0,0
0:2:13.450,254.896,32.4536,0,0.000885,0,0
0:2:13.746,255.128,32.4812,0,0.000885,0,0
0:2:14.040,256.244,32.626,0,0.000885,0,0
0:2:14.339,257.298,32.757,0,0.000885,0,0
0:2:14.643,257.356,32.7708,0,0.000885,0,0
0:2:14.939,258.651,32.9294,0,0.000885,0,0
0:2:15.236,258.94,32.9707,0,0.000885,0,0
0:2:15.539,258.651,32.9294,0,0.000885,0,0
0:2:15.838,259.296,33.0121,0,0.000885,0,0
0:2:16.142,260.234,33.1362,0,0.000885,0,0
0:2:16.447,260.817,33.2052,0,0.000885,0,0
0:2:16.756,261.346,33.2741,0,0.000885,0,0
0:2:17.059,262.579,33.4327,0,0.000885,0,0
0:2:17.361,263.401,33.5361,0,0.000885,0,0
0:2:17.661,262.636,33.4396,0,0.000885,0,0
0:2:17.962,264.22,33.6395,0,0.000885,0,0
0:2:18.262,265.101,33.7567,0,0.000885,0,0
0:2:18.556,265.158,33.7636,0,0.000885,0,0
0:2:18.855,266.448,33.9222,0,0.000885,0,0
0:2:19.157,266.626,33.9498,0,0.000885,0,0
0:2:19.456,266.626,33.9498,0,0.000885,0,0
0:2:19.750,266.569,33.9429,0,0.000885,0,0
0:2:20.054,268.09,34.1359,0,0.000885,0,0
0:2:20.354,268.09,34.1359,0,0.000885,0,0
0:2:20.645,269.149,34.2669,0,0.000885,0,0
0:2:20.943,270.087,34.391,0,0.000885,0,0
0:2:21.238,271.026,34.5083,0,0.000885,0,0
0:2:21.538,271.493,34.5703,0,0.000885,0,0
0:2:21.841,271.551,34.5772,0,0.000885,0,0
0:2:22.142,272.431,34.6875,0,0.000885,0,0
0:2:22.443,273.312,34.7978,0,0.000885,0,0
0:2:22.741,273.192,34.7841,0,0.000885,0,0
0:2:23.039,274.251,34.9219,0,0.000885,0,0
0:2:23.346,275.247,35.0461,0,0.000885,0,0
0:2:23.639,275.305,35.0529,0,0.000885,0,0
0:2:23.939,275.011,35.0185,0,0.000885,0,0
0:2:24.252,275.598,35.0874,0,0.000885,0,0
0:2:24.547,276.831,35.246,0,0.000885,0,0
0:2:24.843,276.773,35.2391,0,0.000885,0,0
0:2:25.139,277.298,35.3081,0,0.000885,0,0
0:2:25.437,278.414,35.4459,0,0.000885,0,0
0:2:25.731,279.411,35.5769,0,0.000885,0,0
0:2:26.030,280.056,35.6597,0,0.000885,0,0
0:2:26.344,280.758,35.7493,0,0.000885,0,0
0:2:26.644,279.762,35.6183,0,0.000885,0,0
0:2:26.945,281.991,35.901,0,0.000885,0,0
0:2:27.246,282.048,35.9148,0,0.000885,0,0
0:2:27.545,283.281,36.0665,0,0.000885,0,0
0:2:27.844,283.81,36.1354,0,0.000885,0,0
0:2:28.143,283.401,36.0803,0,0.000885,0,0
0:2:28.438,284.339,36.2044,0,0.000885,0,0
0:2:28.741,284.571,36.2319,0,0.000885,0,0
0:2:29.041,286.274,36.4526,0,0.000885,0,0
0:2:29.343,287.093,36.556,0,0.000885,0,0
0:2:29.642,286.683,36.5008,0,0.000885,0,0
0:2:29.946,288.151,36.687,0,0.000885,0,0
0:2:30.242,288.209,36.6939,0,0.000885,0,0
0:2:30.540,287.916,36.6594,0,0.000885,0,0
0:2:30.853,288.618,36.7491,0,0.000885,0,0
0:2:31.152,289.441,36.8525,0,0.000885,0,0
0:2:31.443,290.202,36.949,0,0.000885,0,0
0:2:31.745,291.376,37.1007,0,0.000885,0,0
0:2:32.048,292.079,37.1903,0,0.000885,0,0
0:2:32.349,292.195,37.2041,0,0.000885,0,0
0:2:32.651,293.311,37.3489,0,0.000885,0,0
0:2:32.948,293.489,37.3696,0,0.000885,0,0
0:2:33.249,293.369,37.3558,0,0.000885,0,0
0:2:33.553,294.192,37.4592,0,0.000885,0,0
0:2:33.848,295.188,37.5833,0,0.000885,0,0
0:2:34.156,295.424,37.6178,0,0.000885,0,0
0:2:34.447,296.243,37.7212,0,0.000885,0,0
0:2:34.746,297.181,37.8384,0,0.000885,0,0
0:2:35.048,297.711,37.9074,0,0.000885,0,0
0:2:35.345,298.765,38.0384,0,0.000885,0,0
0:2:35.654,299.236,38.1004,0,0.000885,0,0
0:2:35.956,299.236,38.1004,0,0.000885,0,0
0:2:36.253,299.41,38.1211,0,0.000885,0,0
0:2:36.557,301.287,38.3624,0,0.000885,0,0
0:2:36.858,301.171,38.3486,0,0.000885,0,0
0:2:37.159,301.523,38.39,0,0.000885,0,0
0:2:37.461,301.171,38.3486,0,0.000885,0,0
0:2:37.760,301.99,38.4521,0,0.000885,0,0
0:2:38.060,302.461,38.5072,0,0.000885,0,0
0:2:38.360,303.636,38.6589,0,0.000885,0,0
0:2:38.653,304.574,38.7761,0,0.000885,0,0
0:2:38.949,304.396,38.7554,0,0.000885,0,0
0:2:39.244,305.864,38.9416,0,0.000885,0,0
0:2:39.539,305.98,38.9554,0,0.000885,0,0
0:2:39.846,307.741,39.1829,0,0.000885,0,0
0:2:40.139,307.915,39.2036,0,0.000885,0,0
0:2:40.439,307.799,39.1898,0,0.000885,0,0
0:2:40.742,308.796,39.3139,0,0.000885,0,0
0:2:41.039,308.618,39.2932,0,0.000885,0,0
0:2:41.334,309.676,39.4311,0,0.000885,0,0
0:2:41.645,310.615,39.5483,0,0.000885,0,0
0:2:41.947,311.669,39.6862,0,0.000885,0,0
0:2:42.248,311.26,39.6311,0,0.000885,0,0
0:2:42.547,312.372,39.7759,0,0.000885,0,0
0:2:42.848,313.426,39.9069,0,0.000885,0,0
0:2:43.143,313.31,39.8931,0,0.000885,0,0
0:2:43.441,313.075,39.8655,0,0.000885,0,0
0:2:43.734,314.6,40.0585,0,0.000885,0,0
0:2:44.043,314.365,40.0241,0,0.000885,0,0
0:2:44.358,314.952,40.0999,0,0.000885,0,0
0:2:44.654,316.011,40.2378,0,0.000885,0,0
0:2:44.950,316.887,40.3481,0,0.000885,0,0
0:2:45.255,317.416,40.4171,0,0.000885,0,0
0:2:45.553,317.71,40.4515,0,0.000885,0,0
0:2:45.856,318.297,40.5274,0,0.000885,0,0
0:2:46.154,319.471,40.6791,0,0.000885,0,0
0:2:46.447,320.232,40.7756,0,0.000885,0,0
0:2:46.748,320.583,40.817,0,0.000885,0,0
0:2:47.049,320.29,40.7825,0,0.000885,0,0
0:2:47.353,321.522,40.9342,0,0.000885,0,0
0:2:47.653,322.225,41.0238,0,0.000885,0,0
0:2:47.949,322.928,41.1134,0,0.000885,0,0
0:2:48.247,323.577,41.1962,0,0.000885,0,0
0:2:48.554,322.99,41.1272,0,0.000885,0,0
0:2:48.847,324.867,41.3616,0,0.000885,0,0
0:2:49.145,325.218,41.4099,0,0.000885,0,0
0:2:49.449,326.157,41.5271,0,0.000885,0,0
0:2:49.758,325.921,41.4995,0,0.000885,0,0
0:2:50.053,326.802,41.6099,0,0.000885,0,0
0:2:50.358,326.86,41.6168,0,0.000885,0,0
0:2:50.655,328.501,41.8236,0,0.000885,0,0
0:2:50.946,328.91,41.8788,0,0.000885,0,0
0:2:51.245,328.973,41.8857,0,0.000885,0,0
0:2:51.548,329.911,42.0029,0,0.000885,0,0
0:2:51.849,330.143,42.0373,0,0.000885,0,0
0:2:52.155,331.201,42.1683,0,0.000885,0,0
0:2:52.454,331.846,42.2511,0,0.000885,0,0
0:2:52.754,331.081,42.1545,0,0.000885,0,0
0:2:53.054,332.958,42.3959,0,0.000885,0,0
0:2:53.350,333.955,42.52,0,0.000885,0,0
0:2:53.658,333.839,42.5062,0,0.000885,0,0
0:2:53.962,334.484,42.5889,0,0.000885,0,0
0:2:54.261,335.658,42.7337,0,0.000885,0,0
0:2:54.550,336.068,42.7889,0,0.000885,0,0
0:2:54.851,336.597,42.8578,0,0.000885,0,0
0:2:55.155,335.952,42.7751,0,0.000885,0,0
0:2:55.454,337.536,42.975,0,0.000885,0,0
0:2:55.761,338.238,43.0647,0,0.000885,0,0
0:2:56.054,338.705,43.1267,0,0.000885,0,0
0:2:56.354,338.296,43.0715,0,0.000885,0,0
0:2:56.657,339.88,43.2715,0,0.000885,0,0
0:2:56.958,339.995,43.2922,0,0.000885,0,0
0:2:57.260,340.525,43.3542,0,0.000885,0,0
0:2:57.562,341.815,43.5197,0,0.000885,0,0
0:2:57.863,341.873,43.5266,0,0.000885,0,0
0:2:58.163,343.047,43.6783,0,0.000885,0,0
0:2:58.462,343.225,43.699,0,0.000885,0,0
0:2:58.758,343.928,43.7886,0,0.000885,0,0
0:2:59.063,344.746,43.892,0,0.000885,0,0
0:2:59.361,345.627,44.0092,0,0.000885,0,0
0:2:59.651,345.16,43.9472,0,0.000885,0,0
0:2:59.951,346.859,44.1609,0,0.000885,0,0
0:3:0.244,347.504,44.2437,0,0.000885,0,0
0:3:0.549,346.681,44.1402,0,0.000885,0,0
0:3:0.847,348.091,44.3195,0,0.000885,0,0
0:3:1.162,348.5,44.3747,0,0.000885,0,0
0:3:1.462,348.736,44.4022,0,0.000885,0,0
0:3:1.765,350.32,44.6022,0,0.000885,0,0
0:3:2.064,350.262,44.5953,0,0.000885,0,0
0:3:2.366,351.2,44.7194,0,0.000885,0,0
0:3:2.664,351.725,44.7814,0,0.000885,0,0
0:3:2.964,351.788,44.7883,0,0.000885,0,0
0:3:3.259,353.429,45.0021,0,0.000885,0,0
0:3:3.555,353.078,44.9538,0,0.000885,0,0
0:3:3.849,353.954,45.0641,0,0.000885,0,0
0:3:4.155,355.128,45.2158,0,0.000885,0,0
0:3:4.452,355.422,45.2503,0,0.000885,0,0
0:3:4.744,354.892,45.1882,0,0.000885,0,0
0:3:5.043,356.245,45.3606,0,0.000885,0,0
0:3:5.339,355.893,45.3123,0,0.000885,0,0
0:3:5.644,357.708,45.5468,0,0.000885,0,0
0:3:5.952,357.593,45.533,0,0.000885,0,0
0:3:6.257,358.94,45.6985,0,0.000885,0,0
0:3:6.557,358.473,45.6433,0,0.000885,0,0
0:3:6.860,360.288,45.8708,0,0.000885,0,0
0:3:7.162,359.821,45.8157,0,0.000885,0,0
0:3:7.462,361.053,45.9673,0,0.000885,0,0
0:3:7.761,360.875,45.9467,0,0.000885,0,0
0:3:8.061,362.343,46.1328,0,0.000885,0,0
0:3:8.357,362.93,46.2087,0,0.000885,0,0
0:3:8.661,363.691,46.3052,0,0.000885,0,0
0:3:8.959,364.042,46.3535,0,0.000885,0,0
0:3:9.261,364.336,46.3879,0,0.000885,0,0
0:3:9.562,365.453,46.5327,0,0.000885,0,0
0:3:9.856,365.332,46.5189,0,0.000885,0,0
0:3:10.151,366.685,46.6844,0,0.000885,0,0
0:3:10.446,366.622,46.6775,0,0.000885,0,0
0:3:10.742,367.503,46.7947,0,0.000885,0,0
0:3:11.041,368.148,46.8775,0,0.000885,0,0
0:3:11.343,368.735,46.9464,0,0.000885,0,0
0:3:11.643,369.616,47.0636,0,0.000885,0,0
0:3:11.946,369.674,47.0705,0,0.000885,0,0
0:3:12.247,370.377,47.1601,0,0.000885,0,0
0:3:12.549,371.493,47.298,0,0.000885,0,0
0:3:12.847,371.96,47.3601,0,0.000885,0,0
0:3:13.148,372.49,47.429,0,0.000885,0,0
0:3:13.451,372.312,47.4015,0,0.000885,0,0
0:3:13.748,373.544,47.56,0,0.000885,0,0
0:3:14.046,374.015,47.6221,0,0.000885,0,0
0:3:14.339,374.834,47.7255,0,0.000885,0,0
0:3:14.639,374.425,47.6704,0,0.000885,0,0
0:3:14.953,375.715,47.8358,0,0.000885,0,0
0:3:15.260,376.008,47.8772,0,0.000885,0,0
0:3:15.559,376.947,47.9944,0,0.000885,0,0
0:3:15.850,377.125,48.0151,0,0.000885,0,0
0:3:16.151,377.476,48.0634,0,0.000885,0,0
0:3:16.444,378.415,48.1806,0,0.000885,0,0
0:3:16.744,379.469,48.3185,0,0.000885,0,0
0:3:17.047,379.233,48.284,0,0.000885,0,0
0:3:17.348,380.701,48.4701,0,0.000885,0,0
0:3:17.649,380.817,48.4839,0,0.000885,0,0
0:3:17.948,381.052,48.5184,0,0.000885,0,0
0:3:18.247,382.458,48.6977,0,0.000885,0,0
0:3:18.543,383.223,48.7942,0,0.000885,0,0
0:3:18.846,383.103,48.7804,0,0.000885,0,0
0:3:19.144,384.162,48.9114,0,0.000885,0,0
0:3:19.439,385.043,49.0217,0,0.000885,0,0
0:3:19.747,384.687,48.9804,0,0.000885,0,0
0:3:20.051,386.27,49.1803,0,0.000885,0,0
0:3:20.359,386.39,49.1941,0,0.000885,0,0
0:3:20.657,386.39,49.1941,0,0.000885,0,0
0:3:20.947,387.622,49.3527,0,0.000885,0,0
0:3:21.247,387.445,49.332,0,0.000885,0,0
0:3:21.541,388.735,49.4975,0,0.000885,0,0
0:3:21.842,389.322,49.5733,0,0.000885,0,0
0:3:22.146,389.437,49.5871,0,0.000885,0,0
0:3:22.447,390.082,49.6698,0,0.000885,0,0
0:3:22.746,391.141,49.8008,0,0.000885,0,0
0:3:23.046,392.08,49.918,0,0.000885,0,0
0:3:23.343,391.959,49.9043,0,0.000885,0,0
0:3:23.640,392.604,49.987,0,0.000885,0,0
0:3:23.933,393.37,50.0835,0,0.000885,0,0
0:3:24.233,394.366,50.2145,0,0.000885,0,0
0:3:24.548,394.482,50.2283,0,0.000885,0,0
0:3:24.857,395.656,50.3731,0,0.000885,0,0
0:3:25.162,395.598,50.3662,0,0.000885,0,0
0:3:25.457,396.359,50.4627,0,0.000885,0,0
0:3:25.754,397.124,50.5661,0,0.000885,0,0
0:3:26.049,397.417,50.6006,0,0.000885,0,0
0:3:26.346,397.533,50.6144,0,0.000885,0,0
0:3:26.643,398.65,50.7592,0,0.000885,0,0
0:3:26.942,399.117,50.8144,0,0.000885,0,0
0:3:27.246,400.171,50.9523,0,0.000885,0,0
0:3:27.546,400.407,50.9798,0,0.000885,0,0
0:3:27.847,401.287,51.0902,0,0.000885,0,0
0:3:28.147,401.581,51.1315,0,0.000885,0,0
0:3:28.452,401.639,51.1384,0,0.000885,0,0
0:3:28.751,402.462,51.2418,0,0.000885,0,0
0:3:29.054,403.752,51.4073,0,0.000885,0,0
0:3:29.354,404.397,51.49,0,0.000885,0,0
0:3:29.659,404.397,51.49,0,0.000885,0,0
0:3:29.958,404.922,51.559,0,0.000885,0,0
0:3:30.262,405.393,51.6142,0,0.000885,0,0
0:3:30.558,406.447,51.752,0,0.000885,0,0
0:3:30.855,407.15,51.8417,0,0.000885,0,0
0:3:31.158,407.444,51.8762,0,0.000885,0,0
0:3:31.459,407.795,51.9244,0,0.000885,0,0
0:3:31.762,408.56,52.0209,0,0.000885,0,0
0:3:32.064,409.263,52.1106,0,0.000885,0,0
0:3:32.364,409.85,52.1864,0,0.000885,0,0
0:3:32.665,410.259,52.2347,0,0.000885,0,0
0:3:32.966,410.553,52.276,0,0.000885,0,0
0:3:33.259,411.901,52.4484,0,0.000885,0,0
0:3:33.558,412.372,52.5036,0,0.000885,0,0
0:3:33.863,413.133,52.6001,0,0.000885,0,0
0:3:34.160,413.778,52.6828,0,0.000885,0,0
0:3:34.459,414.601,52.7863,0,0.000885,0,0
0:3:34.749,414.717,52.8001,0,0.000885,0,0
0:3:35.050,415.13,52.8552,0,0.000885,0,0
0:3:35.354,415.597,52.9173,0,0.000885,0,0
0:3:35.650,416.127,52.9793,0,0.000885,0,0
0:3:35.958,417.359,53.1379,0,0.000885,0,0
0:3:36.252,417.768,53.1931,0,0.000885,0,0
0:3:36.550,418.177,53.2413,0,0.000885,0,0
0:3:36.853,418.413,53.2758,0,0.000885,0,0
0:3:37.155,418.471,53.2827,0,0.000885,0,0
0:3:37.458,419.525,53.4137,0,0.000885,0,0
0:3:37.759,420.642,53.5585,0,0.000885,0,0
0:3:38.059,420.584,53.5516,0,0.000885,0,0
0:3:38.363,421.287,53.6412,0,0.000885,0,0
0:3:38.663,422.519,53.7998,0,0.000885,0,0
0:3:38.966,423.222,53.8894,0,0.000885,0,0
0:3:39.264,423.222,53.8894,0,0.000885,0,0
0:3:39.561,423.867,53.9653,0,0.000885,0,0
0:3:39.853,424.512,54.048,0,0.000885,0,0
0:3:40.153,425.157,54.1307,0,0.000885,0,0
0:3:40.446,425.686,54.1997,0,0.000885,0,0
0:3:40.753,426.504,54.3031,0,0.000885,0,0
0:3:41.061,427.269,54.3996,0,0.000885,0,0
0:3:41.366,427.505,54.4341,0,0.000885,0,0
0:3:41.664,428.266,54.5306,0,0.000885,0,0
0:3:41.968,428.559,54.5651,0,0.000885,0,0
0:3:42.270,429.44,54.6754,0,0.000885,0,0
0:3:42.571,430.201,54.772,0,0.000885,0,0
0:3:42.871,430.437,54.8064,0,0.000885,0,0
0:3:43.171,431.197,54.903,0,0.000885,0,0
0:3:43.466,431.433,54.9305,0,0.000885,0,0
0:3:43.765,431.784,54.9788,0,0.000885,0,0
0:3:44.055,432.136,55.0202,0,0.000885,0,0
0:3:44.356,433.426,55.1856,0,0.000885,0,0
0:3:44.652,433.84,55.2408,0,0.000885,0,0
0:3:44.948,434.249,55.2891,0,0.000885,0,0
0:3:45.254,435.129,55.3994,0,0.000885,0,0
0:3:45.559,436.242,55.5442,0,0.000885,0,0
0:3:45.856,436.068,55.5235,0,0.000885,0,0
0:3:46.151,436.944,55.6338,0,0.000885,0,0
0:3:46.449,437.825,55.7441,0,0.000885,0,0
0:3:46.746,437.825,55.7441,0,0.000885,0,0
0:3:47.045,438.648,55.8475,0,0.000885,0,0
0:3:47.349,439.702,55.9854,0,0.000885,0,0
0:3:47.649,439.996,56.0199,0,0.000885,0,0
0:3:47.951,440.405,56.0751,0,0.000885,0,0
0:3:48.251,441.228,56.1785,0,0.000885,0,0
0:3:48.546,441.579,56.2267,0,0.000885,0,0
0:3:48.845,441.815,56.2543,0,0.000885,0,0
0:3:49.147,442.812,56.3784,0,0.000885,0,0
0:3:49.446,443.341,56.4474,0,0.000885,0,0
0:3:49.751,443.866,56.5163,0,0.000885,0,0
0:3:50.049,444.689,56.6197,0,0.000885,0,0
0:3:50.353,444.804,56.6335,0,0.000885,0,0
0:3:50.660,445.685,56.7439,0,0.000885,0,0
0:3:50.961,446.272,56.8197,0,0.000885,0,0
0:3:51.262,447.211,56.9438,0,0.000885,0,0
0:3:51.563,447.736,57.0059,0,0.000885,0,0
0:3:51.864,448.443,57.0955,0,0.000885,0,0
0:3:52.165,448.852,57.1506,0,0.000885,0,0
0:3:52.466,449.733,57.261,0,0.000885,0,0
0:3:52.765,450.084,57.3092,0,0.000885,0,0
0:3:53.066,450.32,57.3368,0,0.000885,0,0
0:3:53.368,451.139,57.4402,0,0.000885,0,0
0:3:53.666,451.784,57.523,0,0.000885,0,0
0:3:53.963,452.313,57.5919,0,0.000885,0,0
0:3:54.256,452.664,57.6333,0,0.000885,0,0
0:3:54.554,453.661,57.7643,0,0.000885,0,0
0:3:54.847,454.132,57.8194,0,0.000885,0,0
0:3:55.147,454.426,57.8608,0,0.000885,0,0
0:3:55.441,455.422,57.9849,0,0.000885,0,0
0:3:55.738,456.361,58.1021,0,0.000885,0,0
0:3:56.033,456.477,58.1228,0,0.000885,0,0
0:3:56.329,456.654,58.1435,0,0.000885,0,0
0:3:56.627,457.357,58.2331,0,0.000885,0,0
0:3:56.932,458.411,58.3641,0,0.000885,0,0
0:3:57.232,458.532,58.3848,0,0.000885,0,0
0:3:57.533,458.821,58.4193,0,0.000885,0,0
0:3:57.832,459.528,58.5089,0,0.000885,0,0
0:3:58.134,460.64,58.6537,0,0.000885,0,0
0:3:58.428,461.227,58.7226,0,0.000885,0,0
0:3:58.728,461.757,58.7916,0,0.000885,0,0
0:3:59.022,462.344,58.8674,0,0.000885,0,0
0:3:59.319,462.926,58.9433,0,0.000885,0,0
0:3:59.615,463.398,58.9984,0,0.000885,0,0
0:3:59.910,463.807,59.0536,0,0.000885,0,0
0:4:0.209,464.63,59.157,0,0.000885,0,0
0:4:0.503,465.097,59.2191,0,0.000885,0,0
0:4:0.802,465.684,59.2949,0,0.000885,0,0
0:4:1.095,465.92,59.3225,0,0.000885,0,0
0:4:1.393,466.916,59.4466,0,0.000885,0,0
0:4:1.690,467.446,59.5155,0,0.000885,0,0
0:4:1.991,468.149,59.6052,0,0.000885,0,0
0:4:2.295,468.794,59.6879,0,0.000885,0,0
0:4:2.595,469.323,59.7569,0,0.000885,0,0
0:4:2.896,470.613,59.9223,0,0.000885,0,0
0:4:3.195,470.613,59.9223,0,0.000885,0,0
0:4:3.491,471.08,59.9775,0,0.000885,0,0
0:4:3.789,471.138,59.9844,0,0.000885,0,0
0:4:4.081,471.725,60.0602,0,0.000885,0,0
0:4:4.382,473.073,60.2326,0,0.000885,0,0
0:4:4.676,473.544,60.2947,0,0.000885,0,0
0:4:4.973,473.954,60.3429,0,0.000885,0,0
0:4:5.269,474.719,60.4394,0,0.000885,0,0
0:4:5.564,475.128,60.4946,0,0.000885,0,0
0:4:5.864,475.715,60.5704,0,0.000885,0,0
0:4:6.166,476.124,60.6187,0,0.000885,0,0
0:4:6.466,476.827,60.7083,0,0.000885,0,0
0:4:6.769,477.65,60.8187,0,0.000885,0,0
0:4:7.071,478.353,60.9083,0,0.000885,0,0
0:4:7.371,478.179,60.8807,0,0.000885,0,0
0:4:7.672,479.291,61.0255,0,0.000885,0,0
0:4:7.971,479.585,61.06,0,0.000885,0,0
0:4:8.266,479.936,61.1082,0,0.000885,0,0
0:4:8.563,480.875,61.2254,0,0.000885,0,0
0:4:8.869,481.698,61.3289,0,0.000885,0,0
0:4:9.166,482.107,61.384,0,0.000885,0,0
0:4:9.464,482.752,61.4668,0,0.000885,0,0
0:4:9.765,483.219,61.5288,0,0.000885,0,0
0:4:10.066,483.926,61.6184,0,0.000885,0,0
0:4:10.357,484.571,61.6943,0,0.000885,0,0
0:4:10.654,485.039,61.7563,0,0.000885,0,0
0:4:10.951,485.919,61.8667,0,0.000885,0,0
0:4:11.247,485.977,61.8736,0,0.000885,0,0
0:4:11.545,486.974,62.0046,0,0.000885,0,0
0:4:11.848,487.151,62.0252,0,0.000885,0,0
0:4:12.150,488.148,62.1562,0,0.000885,0,0
0:4:12.450,488.499,62.1976,0,0.000885,0,0
0:4:12.750,489.322,62.301,0,0.000885,0,0
0:4:13.051,489.553,62.3355,0,0.000885,0,0
0:4:13.365,490.203,62.4113,0,0.000885,0,0
0:4:13.664,491.257,62.5492,0,0.000885,0,0
0:4:13.955,491.373,62.563,0,0.000885,0,0
0:4:14.253,492.138,62.6596,0,0.000885,0,0
0:4:14.559,492.369,62.694,0,0.000885,0,0
0:4:14.864,493.308,62.8112,0,0.000885,0,0
0:4:15.163,493.953,62.894,0,0.000885,0,0
0:4:15.454,494.834,63.0043,0,0.000885,0,0
0:4:15.753,494.891,63.0112,0,0.000885,0,0
0:4:16.048,495.363,63.0732,0,0.000885,0,0
0:4:16.355,496.181,63.1767,0,0.000885,0,0
0:4:16.653,497.062,63.287,0,0.000885,0,0
0:4:16.954,497.298,63.3146,0,0.000885,0,0
0:4:17.256,498.41,63.4593,0,0.000885,0,0
0:4:17.557,498.766,63.5076,0,0.000885,0,0
0:4:17.857,499.348,63.5766,0,0.000885,0,0
0:4:18.157,499.469,63.5972,0,0.000885,0,0
0:4:18.463,500.349,63.7076,0,0.000885,0,0
0:4:18.763,500.701,63.7489,0,0.000885,0,0
0:4:19.065,501.226,63.8179,0,0.000885,0,0
0:4:19.364,502.342,63.9627,0,0.000885,0,0
0:4:19.657,503.103,64.0592,0,0.000885,0,0
0:4:19.954,503.69,64.135,0,0.000885,0,0
0:4:20.251,503.81,64.1488,0,0.000885,0,0
0:4:20.555,504.393,64.2247,0,0.000885,0,0
0:4:20.855,504.922,64.2867,0,0.000885,0,0
0:4:21.148,505.918,64.4177,0,0.000885,0,0
0:4:21.449,506.27,64.4591,0,0.000885,0,0
0:4:21.751,507.093,64.5625,0,0.000885,0,0
0:4:22.054,507.502,64.6177,0,0.000885,0,0
0:4:22.352,508.031,64.6866,0,0.000885,0,0
0:4:22.653,509.143,64.8245,0,0.000885,0,0
0:4:22.952,509.379,64.859,0,0.000885,0,0
0:4:23.245,509.379,64.859,0,0.000885,0,0
0:4:23.542,510.14,64.9555,0,0.000885,0,0
0:4:23.840,510.554,65.0038,0,0.000885,0,0
0:4:24.133,510.963,65.0589,0,0.000885,0,0
0:4:24.432,511.786,65.1624,0,0.000885,0,0
0:4:24.726,512.956,65.314,0,0.000885,0,0
0:4:25.024,513.485,65.3761,0,0.000885,0,0
0:4:25.320,513.894,65.4312,0,0.000885,0,0
0:4:25.615,514.481,65.5071,0,0.000885,0,0
0:4:25.913,515.126,65.5898,0,0.000885,0,0
0:4:26.207,515.598,65.645,0,0.000885,0,0
0:4:26.506,515.829,65.6795,0,0.000885,0,0
0:4:26.810,516.474,65.7622,0,0.000885,0,0
0:4:27.111,517.124,65.8449,0,0.000885,0,0
0:4:27.411,517.591,65.9001,0,0.000885,0,0
0:4:27.712,518.471,66.0104,0,0.000885,0,0
0:4:28.013,518.996,66.0794,0,0.000885,0,0
0:4:28.307,520.171,66.231,0,0.000885,0,0
0:4:28.606,520.7,66.3,0,0.000885,0,0
0:4:28.900,520.873,66.3207,0,0.000885,0,0
0:4:29.197,521.287,66.3689,0,0.000885,0,0
0:4:29.494,522.341,66.5068,0,0.000885,0,0
0:4:29.787,522.519,66.5275,0,0.000885,0,0
0:4:30.086,523.222,66.6171,0,0.000885,0,0
0:4:30.380,523.867,66.6999,0,0.000885,0,0
0:4:30.677,524.161,66.7413,0,0.000885,0,0
0:4:30.973,525.041,66.8516,0,0.000885,0,0
0:4:31.268,525.157,66.8654,0,0.000885,0,0
0:4:31.567,526.211,66.9964,0,0.000885,0,0
0:4:31.867,526.741,67.0653,0,0.000885,0,0
0:4:32.170,527.853,67.2101,0,0.000885,0,0
0:4:32.469,528.266,67.2584,0,0.000885,0,0
0:4:32.770,528.44,67.2859,0,0.000885,0,0
0:4:33.069,529.205,67.3825,0,0.000885,0,0
0:4:33.373,530.023,67.4859,0,0.000885,0,0
0:4:33.672,530.495,67.5479,0,0.000885,0,0
0:4:33.965,531.02,67.61,0,0.000885,0,0
0:4:34.264,531.901,67.7272,0,0.000885,0,0
0:4:34.557,532.31,67.7755,0,0.000885,0,0
0:4:34.854,532.839,67.8444,0,0.000885,0,0
0:4:35.159,533.542,67.934,0,0.000885,0,0
0:4:35.455,533.893,67.9754,0,0.000885,0,0
0:4:35.753,534.658,68.0719,0,0.000885,0,0
0:4:36.046,534.658,68.0719,0,0.000885,0,0
0:4:36.347,535.126,68.134,0,0.000885,0,0
0:4:36.650,535.891,68.2305,0,0.000885,0,0
0:4:36.953,536.3,68.2857,0,0.000885,0,0
0:4:37.252,537.71,68.4649,0,0.000885,0,0
0:4:37.553,538.119,68.5132,0,0.000885,0,0
0:4:37.852,538.706,68.589,0,0.000885,0,0
0:4:38.148,539.173,68.6511,0,0.000885,0,0
0:4:38.450,539.761,68.7269,0,0.000885,0,0
0:4:38.750,539.938,68.7476,0,0.000885,0,0
0:4:39.052,540.583,68.8304,0,0.000885,0,0
0:4:39.351,541.166,68.9062,0,0.000885,0,0
0:4:39.654,541.696,68.9683,0,0.000885,0,0
0:4:39.953,542.634,69.0924,0,0.000885,0,0
0:4:40.250,543.221,69.1682,0,0.000885,0,0
0:4:40.561,543.457,69.1958,0,0.000885,0,0
0:4:40.864,544.396,69.313,0,0.000885,0,0
0:4:41.156,545.156,69.4095,0,0.000885,0,0
0:4:41.457,545.859,69.4992,0,0.000885,0,0
0:4:41.760,546.446,69.575,0,0.000885,0,0
0:4:42.062,546.855,69.6302,0,0.000885,0,0
0:4:42.361,547.563,69.7198,0,0.000885,0,0
0:4:42.662,547.736,69.7405,0,0.000885,0,0
0:4:42.960,548.03,69.7749,0,0.000885,0,0
0:4:43.257,548.381,69.8232,0,0.000885,0,0
0:4:43.559,549.026,69.9059,0,0.000885,0,0
0:4:43.860,549.849,70.0094,0,0.000885,0,0
0:4:44.166,551.081,70.1679,0,0.000885,0,0
0:4:44.461,551.726,70.2507,0,0.000885,0,0
0:4:44.755,552.02,70.2852,0,0.000885,0,0
0:4:45.052,552.487,70.3472,0,0.000885,0,0
0:4:45.351,553.368,70.4575,0,0.000885,0,0
0:4:45.652,553.777,70.5058,0,0.000885,0,0
0:4:45.950,554.422,70.5885,0,0.000885,0,0
0:4:46.248,555.36,70.7126,0,0.000885,0,0
0:4:46.547,556.183,70.8161,0,0.000885,0,0
0:4:46.851,556.126,70.8092,0,0.000885,0,0
0:4:47.152,557.122,70.9333,0,0.000885,0,0
0:4:47.451,557.589,70.9953,0,0.000885,0,0
0:4:47.752,557.883,71.0298,0,0.000885,0,0
0:4:48.048,558.118,71.0643,0,0.000885,0,0
0:4:48.355,558.706,71.1332,0,0.000885,0,0
0:4:48.670,560.053,71.3056,0,0.000885,0,0
0:4:48.969,560.525,71.3676,0,0.000885,0,0
0:4:49.261,560.992,71.4297,0,0.000885,0,0
0:4:49.559,561.401,71.4779,0,0.000885,0,0
0:4:49.867,562.224,71.5814,0,0.000885,0,0
0:4:50.159,562.927,71.671,0,0.000885,0,0
0:4:50.458,562.691,71.6434,0,0.000885,0,0
0:4:50.752,563.336,71.7262,0,0.000885,0,0
0:4:51.059,564.101,71.8227,0,0.000885,0,0
0:4:51.367,565.098,71.9537,0,0.000885,0,0
0:4:51.667,565.565,72.0088,0,0.000885,0,0
0:4:51.970,565.685,72.0226,0,0.000885,0,0
0:4:52.271,566.797,72.1674,0,0.000885,0,0
0:4:52.571,568.029,72.326,0,0.000885,0,0
0:4:52.871,568.149,72.3398,0,0.000885,0,0
0:4:53.167,568.265,72.3536,0,0.000885,0,0
0:4:53.467,569.497,72.5122,0,0.000885,0,0
0:4:53.757,569.848,72.5535,0,0.000885,0,0
0:4:54.057,570.493,72.6363,0,0.000885,0,0
0:4:54.361,570.903,72.6914,0,0.000885,0,0
0:4:54.656,571.023,72.7052,0,0.000885,0,0
0:4:54.955,571.899,72.8155,0,0.000885,0,0
0:4:55.248,572.722,72.919,0,0.000885,0,0
0:4:55.548,573.603,73.0362,0,0.000885,0,0
0:4:55.852,574.012,73.0844,0,0.000885,0,0
0:4:56.158,574.012,73.0844,0,0.000885,0,0
0:4:56.468,574.777,73.181,0,0.000885,0,0
0:4:56.768,575.422,73.2637,0,0.000885,0,0
0:4:57.071,575.947,73.3326,0,0.000885,0,0
0:4:57.371,576.24,73.3671,0,0.000885,0,0
0:4:57.672,577.063,73.4705,0,0.000885,0,0
0:4:57.972,578.295,73.6291,0,0.000885,0,0
0:4:58.267,578.353,73.636,0,0.000885,0,0
0:4:58.567,579.408,73.7739,0,0.000885,0,0
0:4:58.867,579.35,73.767,0,0.000885,0,0
0:4:59.167,580.524,73.9118,0,0.000885,0,0
0:4:59.461,581.694,74.0635,0,0.000885,0,0
0:4:59.756,582.045,74.1117,0,0.000885,0,0
0:5:0.053,582.459,74.16,0,0.000885,0,0
0:5:0.347,582.868,74.2152,0,0.000885,0,0
0:5:0.646,583.398,74.2772,0,0.000885,0,0
0:5:0.950,584.043,74.36,0,0.000885,0,0
0:5:1.248,584.278,74.3944,0,0.000885,0,0
0:5:1.554,584.803,74.4565,0,0.000885,0,0
0:5:1.856,585.92,74.6013,0,0.000885,0,0
0:5:2.158,586.445,74.6702,0,0.000885,0,0
0:5:2.458,586.445,74.6702,0,0.000885,0,0
0:5:2.757,587.445,74.7943,0,0.000885,0,0
0:5:3.058,587.913,74.8564,0,0.000885,0,0
0:5:3.363,588.5,74.9322,0,0.000885,0,0
0:5:3.661,588.793,74.9667,0,0.000885,0,0
0:5:3.976,589.963,75.1184,0,0.000885,0,0
0:5:4.274,589.905,75.1115,0,0.000885,0,0
0:5:4.571,591.08,75.2563,0,0.000885,0,0
0:5:4.869,591.725,75.339,0,0.000885,0,0
0:5:5.165,591.903,75.3666,0,0.000885,0,0
0:5:5.460,592.841,75.4838,0,0.000885,0,0
0:5:5.762,592.957,75.4976,0,0.000885,0,0
0:5:6.065,593.838,75.6079,0,0.000885,0,0
0:5:6.370,594.838,75.7389,0,0.000885,0,0
0:5:6.673,595.132,75.7734,0,0.000885,0,0
0:5:6.976,595.95,75.8768,0,0.000885,0,0
0:5:7.278,596.716,75.9733,0,0.000885,0,0
0:5:7.579,596.658,75.9664,0,0.000885,0,0
0:5:7.881,597.539,76.0836,0,0.000885,0,0
0:5:8.177,597.832,76.1181,0,0.000885,0,0
0:5:8.474,598.299,76.1802,0,0.000885,0,0
0:5:8.774,599.358,76.3112,0,0.000885,0,0
0:5:9.068,599.531,76.3319,0,0.000885,0,0
0:5:9.370,600.763,76.4904,0,0.000885,0,0
0:5:9.663,600.47,76.456,0,0.000885,0,0
0:5:9.974,602.058,76.6559,0,0.000885,0,0
0:5:10.272,602.409,76.7042,0,0.000885,0,0
0:5:10.568,602.939,76.7662,0,0.000885,0,0
0:5:10.869,603.464,76.8352,0,0.000885,0,0
0:5:11.172,603.819,76.8834,0,0.000885,0,0
0:5:11.475,604.464,76.9593,0,0.000885,0,0
0:5:11.777,604.758,77.0006,0,0.000885,0,0
0:5:12.081,605.754,77.1248,0,0.000885,0,0
0:5:12.381,605.812,77.1316,0,0.000885,0,0
0:5:12.684,607.222,77.3109,0,0.000885,0,0
0:5:12.986,607.516,77.3523,0,0.000885,0,0
0:5:13.280,608.103,77.4281,0,0.000885,0,0
0:5:13.578,608.748,77.5109,0,0.000885,0,0
0:5:13.877,609.157,77.5591,0,0.000885,0,0
0:5:14.174,610.452,77.7246,0,0.000885,0,0
0:5:14.473,610.158,77.6901,0,0.000885,0,0
0:5:14.766,611.039,77.8004,0,0.000885,0,0
0:5:15.069,610.861,77.7798,0,0.000885,0,0
0:5:15.362,612.093,77.9314,0,0.000885,0,0
0:5:15.660,612.444,77.9797,0,0.000885,0,0
0:5:15.959,613.267,78.0831,0,0.000885,0,0
0:5:16.254,613.797,78.1521,0,0.000885,0,0
0:5:16.556,614.09,78.1865,0,0.000885,0,0
0:5:16.860,614.913,78.29,0,0.000885,0,0
0:5:17.162,615.732,78.4003,0,0.000885,0,0
0:5:17.463,616.439,78.4899,0,0.000885,0,0
0:5:17.764,617.026,78.5589,0,0.000885,0,0
0:5:18.065,617.026,78.5589,0,0.000885,0,0
0:5:18.360,618.258,78.7174,0,0.000885,0,0
0:5:18.662,618.374,78.7312,0,0.000885,0,0
0:5:18.957,619.375,78.8622,0,0.000885,0,0
0:5:19.255,619.606,78.8898,0,0.000885,0,0
0:5:19.554,620.135,78.9588,0,0.000885,0,0
0:5:19.858,621.603,79.1449,0,0.000885,0,0
0:5:20.159,621.546,79.138,0,0.000885,0,0
0:5:20.463,622.133,79.2139,0,0.000885,0,0
0:5:20.763,622.836,79.3035,0,0.000885,0,0
0:5:21.058,623.013,79.3242,0,0.000885,0,0
0:5:21.361,624.126,79.469,0,0.000885,0,0
0:5:21.665,624.775,79.5517,0,0.000885,0,0
0:5:21.969,625.006,79.5793,0,0.000885,0,0
0:5:22.272,625.42,79.6276,0,0.000885,0,0
0:5:22.573,626.71,79.793,0,0.000885,0,0
0:5:22.873,626.71,79.793,0,0.000885,0,0
0:5:23.171,627.591,79.9102,0,0.000885,0,0
0:5:23.464,628.236,79.993,0,0.000885,0,0
0:5:23.764,628.587,80.0343,0,0.000885,0,0
0:5:24.070,629.761,80.186,0,0.000885,0,0
0:5:24.372,629.824,80.1929,0,0.000885,0,0
0:5:24.667,630.233,80.2412,0,0.000885,0,0
0:5:24.963,630.994,80.3377,0,0.000885,0,0
0:5:25.263,631.643,80.4204,0,0.000885,0,0
0:5:25.558,632.23,80.4963,0,0.000885,0,0
0:5:25.860,632.991,80.5928,0,0.000885,0,0
0:5:26.175,632.875,80.579,0,0.000885,0,0
0:5:26.477,634.281,80.7583,0,0.000885,0,0
0:5:26.781,634.574,80.7997,0,0.000885,0,0
0:5:27.083,634.459,80.779,0,0.000885,0,0
0:5:27.386,635.575,80.9238,0,0.000885,0,0
0:5:27.685,636.22,81.0065,0,0.000885,0,0
0:5:27.987,636.75,81.0755,0,0.000885,0,0
0:5:28.284,637.688,81.1927,0,0.000885,0,0
0:5:28.580,638.449,81.2892,0,0.000885,0,0
0:5:28.882,638.862,81.3443,0,0.000885,0,0
0:5:29.174,638.627,81.3099,0,0.000885,0,0
0:5:29.477,639.859,81.4685,0,0.000885,0,0
0:5:29.774,640.918,81.6063,0,0.000885,0,0
0:5:30.072,641.033,81.6201,0,0.000885,0,0
0:5:30.379,641.149,81.6339,0,0.000885,0,0
0:5:30.675,642.03,81.7442,0,0.000885,0,0
0:5:30.976,643.204,81.8959,0,0.000885,0,0
0:5:31.271,643.733,81.9649,0,0.000885,0,0
0:5:31.572,643.911,81.9856,0,0.000885,0,0
0:5:31.877,644.085,82.0062,0,0.000885,0,0
0:5:32.180,645.379,82.1717,0,0.000885,0,0
0:5:32.483,645.904,82.2407,0,0.000885,0,0
0:5:32.784,646.14,82.2682,0,0.000885,0,0
0:5:33.085,646.491,82.3165,0,0.000885,0,0
0:5:33.384,647.786,82.4751,0,0.000885,0,0
0:5:33.679,648.311,82.544,0,0.000885,0,0
0:5:33.979,649.191,82.6544,0,0.000885,0,0
0:5:34.275,649.605,82.7095,0,0.000885,0,0
0:5:34.574,649.369,82.6819,0,0.000885,0,0
0:5:34.871,650.486,82.8198,0,0.000885,0,0
0:5:35.168,650.953,82.8819,0,0.000885,0,0
0:5:35.466,651.598,82.9646,0,0.000885,0,0
0:5:35.772,652.421,83.068,0,0.000885,0,0
0:5:36.074,652.892,83.1301,0,0.000885,0,0
0:5:36.368,653.186,83.1646,0,0.000885,0,0
0:5:36.672,653.889,83.2542,0,0.000885,0,0
0:5:36.976,654.476,83.33,0,0.000885,0,0
0:5:37.279,655.005,83.399,0,0.000885,0,0
0:5:37.581,655.824,83.5024,0,0.000885,0,0
0:5:37.883,656.646,83.6058,0,0.000885,0,0
0:5:38.184,657.176,83.6748,0,0.000885,0,0
0:5:38.482,657.821,83.7575,0,0.000885,0,0
0:5:38.778,657.999,83.7782,0,0.000885,0,0
0:5:39.079,658.644,83.8609,0,0.000885,0,0
0:5:39.372,659.524,83.9712,0,0.000885,0,0
0:5:39.674,660.112,84.0471,0,0.000885,0,0
0:5:39.968,660.699,84.1229,0,0.000885,0,0
0:5:40.267,660.757,84.1298,0,0.000885,0,0
0:5:40.565,661.402,84.2126,0,0.000885,0,0
0:5:40.859,661.873,84.2746,0,0.000885,0,0
0:5:41.161,662.812,84.3918,0,0.000885,0,0
0:5:41.457,662.985,84.4125,0,0.000885,0,0
0:5:41.760,663.572,84.4884,0,0.000885,0,0
0:5:42.066,664.689,84.6331,0,0.000885,0,0
0:5:42.365,664.805,84.6469,0,0.000885,0,0
0:5:42.667,665.748,84.7641,0,0.000885,0,0
0:5:42.969,666.393,84.8469,0,0.000885,0,0
0:5:43.268,666.98,84.9227,0,0.000885,0,0
0:5:43.567,667.625,85.0055,0,0.000885,0,0
0:5:43.863,668.212,85.0813,0,0.000885,0,0
0:5:44.164,668.799,85.1571,0,0.000885,0,0
0:5:44.459,669.208,85.2054,0,0.000885,0,0
0:5:44.760,670.031,85.3088,0,0.000885,0,0
0:5:45.065,670.618,85.3847,0,0.000885,0,0
0:5:45.362,671.206,85.4605,0,0.000885,0,0
0:5:45.662,671.499,85.495,0,0.000885,0,0
0:5:45.957,672.789,85.6605,0,0.000885,0,0
0:5:46.259,673.083,85.7018,0,0.000885,0,0
0:5:46.564,673.14,85.7087,0,0.000885,0,0
0:5:46.866,673.376,85.7363,0,0.000885,0,0
0:5:47.168,674.551,85.888,0,0.000885,0,0
0:5:47.473,675.022,85.9431,0,0.000885,0,0
0:5:47.774,675.605,86.019,0,0.000885,0,0
0:5:48.069,676.076,86.081,0,0.000885,0,0
0:5:48.378,676.779,86.1707,0,0.000885,0,0
0:5:48.676,677.544,86.2672,0,0.000885,0,0
0:5:48.969,677.722,86.2879,0,0.000885,0,0
0:5:49.273,678.074,86.3362,0,0.000885,0,0
0:5:49.565,678.776,86.4258,0,0.000885,0,0
0:5:49.864,680.186,86.605,0,0.000885,0,0
0:5:50.164,680.774,86.6809,0,0.000885,0,0
0:5:50.459,681.183,86.7292,0,0.000885,0,0
0:5:50.760,681.361,86.7567,0,0.000885,0,0
0:5:51.056,682.242,86.867,0,0.000885,0,0
0:5:51.359,683.354,87.0049,0,0.000885,0,0
0:5:51.663,684.061,87.0946,0,0.000885,0,0
0:5:51.967,684.586,87.1635,0,0.000885,0,0
0:5:52.270,684.942,87.2118,0,0.000885,0,0
0:5:52.574,685.293,87.2532,0,0.000885,0,0
0:5:52.874,686.347,87.391,0,0.000885,0,0
0:5:53.168,686.467,87.4048,0,0.000885,0,0
0:5:53.466,686.934,87.46,0,0.000885,0,0
0:5:53.766,687.522,87.5358,0,0.000885,0,0
0:5:54.069,687.993,87.5979,0,0.000885,0,0
0:5:54.372,682.651,86.9153,0,0.000885,0,0
0:5:54.666,665.921,84.7848,0,0.000885,0,0
0:5:54.747,665.921,84.7848,0,0.000885,0,0