File: DataFile2021-07-15_060505.csv
Test ID:,Date Tested:,Time:,Test Type:,Diameter Avg. (mm):,Cyl. Corr. Factor:,Height (mm):,Age (days):,Weight (kN):,Break Type:,Ramp Rate (MPa/s):,Load at Break (kN):,Stress at Break (MPa):
12,7/15/2021,06:05,Cylinder,150,1,300,0,3.6,3,0.25,1658.27,93.84
Sample Time,Load (kN),Stress (MPa),Long. Strain,Trans. Strain,Chan1 Deflection (mm),Chan2 Deflection (mm)
0:0:12.992,5.68928,0.324054,0,0.000885,0,0
0:0:13.386,10.6757,0.606739,0,0.000885,0,0
0:0:13.785,11.2006,0.634318,0,0.000885,0,0
0:0:14.182,10.8492,0.613633,0,0.000885,0,0
0:0:14.582,11.3207,0.641212,0,0.000885,0,0
0:0:14.979,13.0778,0.737739,0,0.000885,0,0
0:0:15.373,14.43,0.813581,0,0.000885,0,0
0:0:15.774,17.01,0.965266,0,0.000885,0,0
0:0:16.172,18.2422,1.03421,0,0.000885,0,0
0:0:16.569,19.412,1.09627,0,0.000885,0,0
0:0:16.964,21.347,1.20658,0,0.000885,0,0
0:0:17.364,23.9314,1.35137,0,0.000885,0,0
0:0:17.762,25.6885,1.45479,0,0.000885,0,0
0:0:18.162,27.6813,1.56511,0,0.000885,0,0
0:0:18.568,29.7942,1.68922,0,0.000885,0,0
0:0:18.972,31.9649,1.80643,0,0.000885,0,0
0:0:19.376,34.0156,1.92364,0,0.000885,0,0
0:0:19.779,35.5991,2.01327,0,0.000885,0,0
0:0:20.179,37.6542,2.13048,0,0.000885,0,0
0:0:20.574,39.002,2.20632,0,0.000885,0,0
0:0:20.971,40.4121,2.28906,0,0.000885,0,0
0:0:21.373,42.9342,2.42695,0,0.000885,0,0
0:0:21.771,44.4555,2.51659,0,0.000885,0,0
0:0:22.165,45.9813,2.59932,0,0.000885,0,0
0:0:22.563,47.6227,2.69585,0,0.000885,0,0
0:0:22.962,49.2685,2.78548,0,0.000885,0,0
0:0:23.361,51.4971,2.91648,0,0.000885,0,0
0:0:23.768,53.3119,3.0199,0,0.000885,0,0
0:0:24.172,54.8955,3.10954,0,0.000885,0,0
0:0:24.577,56.7148,3.20606,0,0.000885,0,0
0:0:24.979,58.592,3.31638,0,0.000885,0,0
0:0:25.377,60.4113,3.4198,0,0.000885,0,0
0:0:25.775,62.3463,3.53012,0,0.000885,0,0
0:0:26.170,63.6941,3.60596,0,0.000885,0,0
0:0:26.571,64.9262,3.67491,0,0.000885,0,0
0:0:26.971,66.6255,3.77143,0,0.000885,0,0
0:0:27.369,68.387,3.86796,0,0.000885,0,0
0:0:27.766,70.5577,3.99206,0,0.000885,0,0
0:0:28.163,72.4927,4.10238,0,0.000885,0,0
0:0:28.566,74.3698,4.2058,0,0.000885,0,0
0:0:28.971,76.247,4.31612,0,0.000885,0,0
0:0:29.376,77.4791,4.38507,0,0.000885,0,0
0:0:29.779,79.3563,4.48849,0,0.000885,0,0
0:0:30.179,80.4683,4.55054,0,0.000885,0,0
0:0:30.580,82.9326,4.69533,0,0.000885,0,0
0:0:30.978,84.3383,4.77117,0,0.000885,0,0
0:0:31.373,86.509,4.89528,0,0.000885,0,0
0:0:31.772,88.2705,4.9918,0,0.000885,0,0
0:0:32.172,90.8505,5.14349,0,0.000885,0,0
0:0:32.570,92.0826,5.21244,0,0.000885,0,0
0:0:32.966,93.8397,5.30896,0,0.000885,0,0
0:0:33.373,95.1875,5.38481,0,0.000885,0,0
0:0:33.778,97.1269,5.49512,0,0.000885,0,0
0:0:34.181,98.8261,5.59165,0,0.000885,0,0
0:0:34.585,100.645,5.69507,0,0.000885,0,0
0:0:34.981,102.696,5.81228,0,0.000885,0,0
0:0:35.378,103.755,5.87433,0,0.000885,0,0
0:0:35.779,105.69,5.97775,0,0.000885,0,0
0:0:36.179,107.389,6.07428,0,0.000885,0,0
0:0:36.577,108.737,6.15012,0,0.000885,0,0
0:0:36.972,110.792,6.26733,0,0.000885,0,0
0:0:37.372,112.842,6.38455,0,0.000885,0,0
0:0:37.771,115.071,6.50865,0,0.000885,0,0
0:0:38.171,116.833,6.61207,0,0.000885,0,0
0:0:38.577,118.123,6.68102,0,0.000885,0,0
0:0:38.981,119.706,6.77065,0,0.000885,0,0
0:0:39.385,121.819,6.89476,0,0.000885,0,0
0:0:39.789,123.634,6.99818,0,0.000885,0,0
0:0:40.187,125.16,7.08092,0,0.000885,0,0
0:0:40.584,127.388,7.21192,0,0.000885,0,0
0:0:40.981,129.092,7.30155,0,0.000885,0,0
0:0:41.381,130.613,7.39118,0,0.000885,0,0
0:0:41.781,132.375,7.48771,0,0.000885,0,0
0:0:42.179,134.132,7.59113,0,0.000885,0,0
0:0:42.577,135.778,7.68076,0,0.000885,0,0
0:0:42.973,137.477,7.77729,0,0.000885,0,0
0:0:43.377,139.354,7.8876,0,0.000885,0,0
0:0:43.784,141.467,8.00481,0,0.000885,0,0
0:0:44.188,143.517,8.12202,0,0.000885,0,0
0:0:44.591,145.395,8.22545,0,0.000885,0,0
0:0:44.991,146.742,8.30129,0,0.000885,0,0
0:0:45.390,148.21,8.38402,0,0.000885,0,0
0:0:45.789,150.03,8.48745,0,0.000885,0,0
0:0:46.187,151.551,8.57708,0,0.000885,0,0
0:0:46.582,153.019,8.65982,0,0.000885,0,0
0:0:46.981,155.305,8.79082,0,0.000885,0,0
0:0:47.382,157.596,8.91492,0,0.000885,0,0
0:0:47.780,158.824,8.99076,0,0.000885,0,0
0:0:48.178,160.349,9.0735,0,0.000885,0,0
0:0:48.584,162.284,9.18382,0,0.000885,0,0
0:0:48.990,163.81,9.26655,0,0.000885,0,0
0:0:49.392,165.63,9.36998,0,0.000885,0,0
0:0:49.797,167.742,9.49408,0,0.000885,0,0
0:0:50.197,169.148,9.56992,0,0.000885,0,0
0:0:50.592,171.377,9.70092,0,0.000885,0,0
0:0:50.995,173.076,9.79745,0,0.000885,0,0
0:0:51.395,175.073,9.90777,0,0.000885,0,0
0:0:51.790,177.008,10.0181,0,0.000885,0,0
0:0:52.187,178.649,10.1077,0,0.000885,0,0
0:0:52.585,180.584,10.218,0,0.000885,0,0
0:0:52.984,182.168,10.3077,0,0.000885,0,0
0:0:53.384,183.752,10.3973,0,0.000885,0,0
0:0:53.791,185.807,10.5145,0,0.000885,0,0
0:0:54.195,187.622,10.6179,0,0.000885,0,0
0:0:54.599,189.263,10.7076,0,0.000885,0,0
0:0:55.000,190.322,10.7696,0,0.000885,0,0
0:0:55.398,191.669,10.8455,0,0.000885,0,0
0:0:55.795,193.84,10.9696,0,0.000885,0,0
0:0:56.187,196.011,11.0937,0,0.000885,0,0
0:0:56.585,197.359,11.1695,0,0.000885,0,0
0:0:56.981,199.178,11.2729,0,0.000885,0,0
0:0:57.375,201.58,11.4039,0,0.000885,0,0
0:0:57.769,203.577,11.5211,0,0.000885,0,0
0:0:58.163,205.099,11.6039,0,0.000885,0,0
0:0:58.563,206.509,11.6866,0,0.000885,0,0
0:0:58.968,208.328,11.79,0,0.000885,0,0
0:0:59.370,210.027,11.8866,0,0.000885,0,0
0:0:59.770,212.549,12.0245,0,0.000885,0,0
0:1:0.167,214.427,12.1348,0,0.000885,0,0
0:1:0.566,215.774,12.2106,0,0.000885,0,0
0:1:0.961,217.122,12.2865,0,0.000885,0,0
0:1:1.353,218.296,12.3554,0,0.000885,0,0
0:1:1.749,220.352,12.4726,0,0.000885,0,0
0:1:2.146,222.051,12.5622,0,0.000885,0,0
0:1:2.543,223.692,12.6588,0,0.000885,0,0
0:1:2.938,225.627,12.7691,0,0.000885,0,0
0:1:3.329,227.331,12.8656,0,0.000885,0,0
0:1:3.733,229.502,12.9897,0,0.000885,0,0
0:1:4.135,230.849,13.0656,0,0.000885,0,0
0:1:4.536,232.9,13.1828,0,0.000885,0,0
0:1:4.936,234.484,13.2724,0,0.000885,0,0
0:1:5.328,236.361,13.3758,0,0.000885,0,0
0:1:5.725,238.064,13.4724,0,0.000885,0,0
0:1:6.133,240.466,13.6103,0,0.000885,0,0
0:1:6.537,241.699,13.6792,0,0.000885,0,0
0:1:6.927,243.576,13.7826,0,0.000885,0,0
0:1:7.324,244.981,13.8654,0,0.000885,0,0
0:1:7.721,247.566,14.0101,0,0.000885,0,0
0:1:8.125,249.265,14.1067,0,0.000885,0,0
0:1:8.529,251.142,14.2101,0,0.000885,0,0
0:1:8.933,252.784,14.3066,0,0.000885,0,0
0:1:9.334,253.544,14.348,0,0.000885,0,0
0:1:9.734,255.599,14.4652,0,0.000885,0,0
0:1:10.139,257.298,14.5617,0,0.000885,0,0
0:1:10.530,259.176,14.6651,0,0.000885,0,0
0:1:10.937,260.523,14.741,0,0.000885,0,0
0:1:11.335,262.93,14.8789,0,0.000885,0,0
0:1:11.728,264.749,14.9823,0,0.000885,0,0
0:1:12.130,266.448,15.0788,0,0.000885,0,0
0:1:12.525,268.268,15.1823,0,0.000885,0,0
0:1:12.935,270.025,15.2788,0,0.000885,0,0
0:1:13.331,272.08,15.396,0,0.000885,0,0
0:1:13.736,274.073,15.5063,0,0.000885,0,0
0:1:14.138,275.421,15.589,0,0.000885,0,0
0:1:14.538,277.418,15.6994,0,0.000885,0,0
0:1:14.937,279.237,15.8028,0,0.000885,0,0
0:1:15.331,280.758,15.8855,0,0.000885,0,0
0:1:15.725,282.404,15.982,0,0.000885,0,0
0:1:16.128,284.219,16.0855,0,0.000885,0,0
0:1:16.526,285.803,16.1751,0,0.000885,0,0
0:1:16.934,287.973,16.2992,0,0.000885,0,0
0:1:17.337,289.499,16.3819,0,0.000885,0,0
0:1:17.730,291.198,16.4785,0,0.000885,0,0
0:1:18.125,292.373,16.5474,0,0.000885,0,0
0:1:18.523,293.956,16.637,0,0.000885,0,0
0:1:18.927,296.069,16.7543,0,0.000885,0,0
0:1:19.329,297.946,16.8577,0,0.000885,0,0
0:1:19.729,299.761,16.9611,0,0.000885,0,0
0:1:20.138,301.229,17.0438,0,0.000885,0,0
0:1:20.536,303.048,17.1473,0,0.000885,0,0
0:1:20.928,304.632,17.2369,0,0.000885,0,0
0:1:21.341,306.976,17.3679,0,0.000885,0,0
0:1:21.736,308.502,17.4575,0,0.000885,0,0
0:1:22.135,310.437,17.5678,0,0.000885,0,0
0:1:22.529,312.492,17.6851,0,0.000885,0,0
0:1:22.931,314.485,17.7954,0,0.000885,0,0
0:1:23.336,316.068,17.885,0,0.000885,0,0
0:1:23.739,317.768,17.9815,0,0.000885,0,0
0:1:24.139,319.471,18.0781,0,0.000885,0,0
0:1:24.542,321.17,18.1746,0,0.000885,0,0
0:1:24.932,322.87,18.2711,0,0.000885,0,0
0:1:25.328,324.805,18.3814,0,0.000885,0,0
0:1:25.725,326.215,18.4573,0,0.000885,0,0
0:1:26.129,328.265,18.5745,0,0.000885,0,0
0:1:26.522,329.733,18.6572,0,0.000885,0,0
0:1:26.926,331.139,18.74,0,0.000885,0,0
0:1:27.324,333.252,18.8572,0,0.000885,0,0
0:1:27.720,335.071,18.9606,0,0.000885,0,0
0:1:28.113,337.006,19.0709,0,0.000885,0,0
0:1:28.515,338.941,19.1812,0,0.000885,0,0
0:1:28.917,340.76,19.2846,0,0.000885,0,0
0:1:29.319,342.989,19.4087,0,0.000885,0,0
0:1:29.720,344.688,19.5053,0,0.000885,0,0
0:1:30.114,345.863,19.5742,0,0.000885,0,0
0:1:30.518,347.21,19.6501,0,0.000885,0,0
0:1:30.917,349.03,19.7535,0,0.000885,0,0
0:1:31.322,350.849,19.8569,0,0.000885,0,0
0:1:31.725,352.49,19.9465,0,0.000885,0,0
0:1:32.127,354.599,20.0637,0,0.000885,0,0
0:1:32.526,356.418,20.1672,0,0.000885,0,0
0:1:32.922,357.886,20.2499,0,0.000885,0,0
0:1:33.317,359.879,20.3671,0,0.000885,0,0
0:1:33.720,362.107,20.4912,0,0.000885,0,0
0:1:34.121,363.575,20.574,0,0.000885,0,0
0:1:34.521,365.684,20.6912,0,0.000885,0,0
0:1:34.922,367.33,20.7877,0,0.000885,0,0
0:1:35.337,368.913,20.8773,0,0.000885,0,0
0:1:35.728,371.142,21.0014,0,0.000885,0,0
0:1:36.137,372.841,21.098,0,0.000885,0,0
0:1:36.531,374.189,21.1738,0,0.000885,0,0
0:1:36.928,375.893,21.2703,0,0.000885,0,0
0:1:37.330,378.063,21.3944,0,0.000885,0,0
0:1:37.733,379.527,21.4772,0,0.000885,0,0
0:1:38.131,380.995,21.5599,0,0.000885,0,0
0:1:38.539,382.987,21.6702,0,0.000885,0,0
0:1:38.942,384.865,21.7805,0,0.000885,0,0
0:1:39.343,386.097,21.8495,0,0.000885,0,0
0:1:39.743,387.854,21.946,0,0.000885,0,0
0:1:40.143,390.145,22.077,0,0.000885,0,0
0:1:40.537,391.959,22.1804,0,0.000885,0,0
0:1:40.940,393.779,22.2839,0,0.000885,0,0
0:1:41.334,395.42,22.3735,0,0.000885,0,0
0:1:41.730,397.475,22.4907,0,0.000885,0,0
0:1:42.126,398.881,22.5734,0,0.000885,0,0
0:1:42.522,400.642,22.67,0,0.000885,0,0
0:1:42.914,401.932,22.7458,0,0.000885,0,0
0:1:43.313,404.219,22.8768,0,0.000885,0,0
0:1:43.719,406.096,22.9802,0,0.000885,0,0
0:1:44.120,407.737,23.0699,0,0.000885,0,0
0:1:44.521,409.966,23.2009,0,0.000885,0,0
0:1:44.915,411.082,23.2629,0,0.000885,0,0
0:1:45.313,412.546,23.3456,0,0.000885,0,0
0:1:45.708,414.129,23.4353,0,0.000885,0,0
0:1:46.099,416.42,23.5663,0,0.000885,0,0
0:1:46.496,418.355,23.6766,0,0.000885,0,0
0:1:46.893,420.054,23.7731,0,0.000885,0,0
0:1:47.289,421.638,23.8628,0,0.000885,0,0
0:1:47.684,423.693,23.9731,0,0.000885,0,0
0:1:48.077,425.566,24.0834,0,0.000885,0,0
0:1:48.479,427.327,24.1799,0,0.000885,0,0
0:1:48.882,428.795,24.2627,0,0.000885,0,0
0:1:49.283,430.966,24.3868,0,0.000885,0,0
0:1:49.682,432.487,24.4764,0,0.000885,0,0
0:1:50.077,434.716,24.6005,0,0.000885,0,0
0:1:50.475,436.184,24.6832,0,0.000885,0,0
0:1:50.872,437.007,24.7315,0,0.000885,0,0
0:1:51.265,438.999,24.8418,0,0.000885,0,0
0:1:51.659,440.525,24.9314,0,0.000885,0,0
0:1:52.056,442.576,25.0418,0,0.000885,0,0
0:1:52.453,444.102,25.1314,0,0.000885,0,0
0:1:52.848,445.392,25.2072,0,0.000885,0,0
0:1:53.241,447.562,25.3244,0,0.000885,0,0
0:1:53.643,449.497,25.4348,0,0.000885,0,0
0:1:54.046,451.61,25.5589,0,0.000885,0,0
0:1:54.446,453.781,25.6761,0,0.000885,0,0
0:1:54.845,455.774,25.7933,0,0.000885,0,0
0:1:55.241,456.886,25.8553,0,0.000885,0,0
0:1:55.635,459.056,25.9794,0,0.000885,0,0
0:1:56.031,460.64,26.0691,0,0.000885,0,0
0:1:56.425,462.108,26.1518,0,0.000885,0,0
0:1:56.827,463.865,26.2483,0,0.000885,0,0
0:1:57.227,465.684,26.3518,0,0.000885,0,0
0:1:57.632,466.974,26.4276,0,0.000885,0,0
0:1:58.025,469.087,26.5448,0,0.000885,0,0
0:1:58.429,471.08,26.6551,0,0.000885,0,0
0:1:58.830,472.784,26.7517,0,0.000885,0,0
0:1:59.230,474.834,26.8689,0,0.000885,0,0
0:1:59.632,476.182,26.9447,0,0.000885,0,0
0:2:0.026,478.295,27.0688,0,0.000885,0,0
0:2:0.440,479.349,27.124,0,0.000885,0,0
0:2:0.835,481.756,27.2619,0,0.000885,0,0
0:2:1.232,483.749,27.3722,0,0.000885,0,0
0:2:1.627,485.159,27.4549,0,0.000885,0,0
0:2:2.028,486.622,27.5377,0,0.000885,0,0
0:2:2.426,488.619,27.648,0,0.000885,0,0
0:2:2.823,490.848,27.779,0,0.000885,0,0
0:2:3.218,492.489,27.8686,0,0.000885,0,0
0:2:3.622,493.953,27.9513,0,0.000885,0,0
0:2:4.022,496.359,28.0892,0,0.000885,0,0
0:2:4.424,497.827,28.172,0,0.000885,0,0
0:2:4.826,499.291,28.2547,0,0.000885,0,0
0:2:5.241,500.994,28.3512,0,0.000885,0,0
0:2:5.633,502.694,28.4478,0,0.000885,0,0
0:2:6.039,504.806,28.565,0,0.000885,0,0
0:2:6.435,506.857,28.6822,0,0.000885,0,0
0:2:6.843,508.556,28.7787,0,0.000885,0,0
0:2:7.235,509.206,28.8132,0,0.000885,0,0
0:2:7.630,511.199,28.9304,0,0.000885,0,0
0:2:8.026,513.427,29.0545,0,0.000885,0,0
0:2:8.433,515.184,29.151,0,0.000885,0,0
0:2:8.836,517.061,29.2613,0,0.000885,0,0
0:2:9.241,519.41,29.3924,0,0.000885,0,0
0:2:9.642,520.642,29.4613,0,0.000885,0,0
0:2:10.048,521.932,29.5371,0,0.000885,0,0
0:2:10.444,523.516,29.6268,0,0.000885,0,0
0:2:10.835,525.624,29.744,0,0.000885,0,0
0:2:11.231,527.328,29.8405,0,0.000885,0,0
0:2:11.627,528.911,29.9301,0,0.000885,0,0
0:2:12.025,530.846,30.0405,0,0.000885,0,0
0:2:12.430,532.666,30.1439,0,0.000885,0,0
0:2:12.843,534.894,30.268,0,0.000885,0,0
0:2:13.245,536.242,30.3438,0,0.000885,0,0
0:2:13.648,538.413,30.4679,0,0.000885,0,0
0:2:14.048,540.463,30.5851,0,0.000885,0,0
0:2:14.450,542.283,30.6886,0,0.000885,0,0
0:2:14.843,543.573,30.7575,0,0.000885,0,0
0:2:15.242,545.272,30.854,0,0.000885,0,0
0:2:15.636,547.269,30.9712,0,0.000885,0,0
0:2:16.043,549.378,31.0885,0,0.000885,0,0
0:2:16.445,550.552,31.1574,0,0.000885,0,0
0:2:16.848,552.487,31.2677,0,0.000885,0,0
0:2:17.247,553.31,31.3091,0,0.000885,0,0
0:2:17.645,555.481,31.4332,0,0.000885,0,0
0:2:18.035,557.416,31.5435,0,0.000885,0,0
0:2:18.440,559.173,31.64,0,0.000885,0,0
0:2:18.842,561.228,31.7573,0,0.000885,0,0
0:2:19.244,562.869,31.8538,0,0.000885,0,0
0:2:19.644,564.275,31.9296,0,0.000885,0,0
0:2:20.036,566.036,32.033,0,0.000885,0,0
0:2:20.443,568.207,32.1571,0,0.000885,0,0
0:2:20.848,569.733,32.2399,0,0.000885,0,0
0:2:21.246,572.019,32.3709,0,0.000885,0,0
0:2:21.638,573.66,32.4605,0,0.000885,0,0
0:2:22.041,575.36,32.557,0,0.000885,0,0
0:2:22.438,577.415,32.6743,0,0.000885,0,0
0:2:22.834,579.292,32.7846,0,0.000885,0,0
0:2:23.237,580.818,32.8673,0,0.000885,0,0
0:2:23.642,582.281,32.95,0,0.000885,0,0
0:2:24.044,584.394,33.0673,0,0.000885,0,0
0:2:24.445,586.151,33.1707,0,0.000885,0,0
0:2:24.847,588.148,33.281,0,0.000885,0,0
0:2:25.243,589.732,33.3706,0,0.000885,0,0
0:2:25.638,590.791,33.4327,0,0.000885,0,0
0:2:26.035,592.668,33.5361,0,0.000885,0,0
0:2:26.434,594.251,33.6257,0,0.000885,0,0
0:2:26.831,596.128,33.736,0,0.000885,0,0
0:2:27.226,597.89,33.8326,0,0.000885,0,0
0:2:27.633,599.478,33.9222,0,0.000885,0,0
0:2:28.031,601.822,34.0532,0,0.000885,0,0
0:2:28.428,603.584,34.1566,0,0.000885,0,0
0:2:28.833,604.994,34.2325,0,0.000885,0,0
0:2:29.237,607.227,34.3635,0,0.000885,0,0
0:2:29.639,608.984,34.46,0,0.000885,0,0
0:2:30.044,610.572,34.5496,0,0.000885,0,0
0:2:30.438,612.333,34.6531,0,0.000885,0,0
0:2:30.834,613.975,34.7427,0,0.000885,0,0
0:2:31.232,615.914,34.853,0,0.000885,0,0
0:2:31.629,617.791,34.9564,0,0.000885,0,0
0:2:32.036,619.726,35.0667,0,0.000885,0,0
0:2:32.432,621.314,35.1564,0,0.000885,0,0
0:2:32.826,622.898,35.246,0,0.000885,0,0
0:2:33.229,624.775,35.3563,0,0.000885,0,0
0:2:33.635,627.066,35.4873,0,0.000885,0,0
0:2:34.040,628.534,35.5701,0,0.000885,0,0
0:2:34.443,630.589,35.6873,0,0.000885,0,0
0:2:34.839,632.23,35.7769,0,0.000885,0,0
0:2:35.238,633.64,35.8596,0,0.000885,0,0
0:2:35.635,635.046,35.9355,0,0.000885,0,0
0:2:36.031,636.928,36.0458,0,0.000885,0,0
0:2:36.427,638.689,36.1423,0,0.000885,0,0
0:2:36.827,640.508,36.2457,0,0.000885,0,0
0:2:37.233,642.679,36.3698,0,0.000885,0,0
0:2:37.638,644.147,36.4526,0,0.000885,0,0
0:2:38.034,645.495,36.5284,0,0.000885,0,0
0:2:38.437,647.021,36.6112,0,0.000885,0,0
0:2:38.845,649.196,36.7353,0,0.000885,0,0
0:2:39.247,651.131,36.8456,0,0.000885,0,0
0:2:39.649,652.425,36.9214,0,0.000885,0,0
0:2:40.046,654.711,37.0524,0,0.000885,0,0
0:2:40.443,656.651,37.1558,0,0.000885,0,0
0:2:40.844,658.764,37.28,0,0.000885,0,0
0:2:41.249,660.169,37.3558,0,0.000885,0,0
0:2:41.644,661.7,37.4454,0,0.000885,0,0
0:2:42.040,663.692,37.5557,0,0.000885,0,0
0:2:42.438,665.454,37.6592,0,0.000885,0,0
0:2:42.838,667.393,37.7695,0,0.000885,0,0
0:2:43.232,669.271,37.8729,0,0.000885,0,0
0:2:43.635,671.263,37.9832,0,0.000885,0,0
0:2:44.040,672.794,38.0728,0,0.000885,0,0
0:2:44.441,674.026,38.1418,0,0.000885,0,0
0:2:44.845,675.725,38.2383,0,0.000885,0,0
0:2:45.240,677.429,38.3349,0,0.000885,0,0
0:2:45.636,679.541,38.4521,0,0.000885,0,0
0:2:46.038,680.831,38.5279,0,0.000885,0,0
0:2:46.434,682.771,38.6382,0,0.000885,0,0
0:2:46.837,684.239,38.721,0,0.000885,0,0
0:2:47.246,686.587,38.852,0,0.000885,0,0
0:2:47.645,688.349,38.9554,0,0.000885,0,0
0:2:48.044,690.462,39.0726,0,0.000885,0,0
0:2:48.448,692.219,39.1691,0,0.000885,0,0
0:2:48.853,693.807,39.2587,0,0.000885,0,0
0:2:49.253,695.568,39.3622,0,0.000885,0,0
0:2:49.656,697.388,39.4656,0,0.000885,0,0
0:2:50.052,699.149,39.5621,0,0.000885,0,0
0:2:50.448,701.436,39.6931,0,0.000885,0,0
0:2:50.844,702.552,39.7552,0,0.000885,0,0
0:2:51.245,704.314,39.8586,0,0.000885,0,0
0:2:51.643,705.897,39.9482,0,0.000885,0,0
0:2:52.036,707.774,40.0516,0,0.000885,0,0
0:2:52.433,709.95,40.1758,0,0.000885,0,0
0:2:52.829,711.355,40.2516,0,0.000885,0,0
0:2:53.230,712.881,40.3412,0,0.000885,0,0
0:2:53.635,714.233,40.4171,0,0.000885,0,0
0:2:54.039,716.697,40.555,0,0.000885,0,0
0:2:54.441,718.285,40.6446,0,0.000885,0,0
0:2:54.844,719.633,40.7204,0,0.000885,0,0
0:2:55.240,722.333,40.879,0,0.000885,0,0
0:2:55.637,724.211,40.9824,0,0.000885,0,0
0:2:56.033,725.443,41.0514,0,0.000885,0,0
0:2:56.430,727.266,41.1548,0,0.000885,0,0
0:2:56.829,729.379,41.272,0,0.000885,0,0
0:2:57.226,731.021,41.3685,0,0.000885,0,0
0:2:57.631,732.253,41.4375,0,0.000885,0,0
0:2:58.026,733.721,41.5202,0,0.000885,0,0
0:2:58.430,736.069,41.6512,0,0.000885,0,0
0:2:58.835,737.244,41.7202,0,0.000885,0,0
0:2:59.238,739.299,41.8374,0,0.000885,0,0
0:2:59.641,741.412,41.9546,0,0.000885,0,0
0:3:0.038,743.111,42.0511,0,0.000885,0,0
0:3:0.438,745.228,42.1683,0,0.000885,0,0
0:3:0.836,746.985,42.2718,0,0.000885,0,0
0:3:1.240,749.04,42.389,0,0.000885,0,0
0:3:1.635,750.041,42.4441,0,0.000885,0,0
0:3:2.036,751.861,42.5475,0,0.000885,0,0
0:3:2.433,753.796,42.6579,0,0.000885,0,0
0:3:2.840,755.379,42.7475,0,0.000885,0,0
0:3:3.235,757.141,42.844,0,0.000885,0,0
0:3:3.637,758.902,42.9474,0,0.000885,0,0
0:3:4.045,760.37,43.0302,0,0.000885,0,0
0:3:4.448,762.425,43.1474,0,0.000885,0,0
0:3:4.850,763.777,43.2232,0,0.000885,0,0
0:3:5.246,765.89,43.3404,0,0.000885,0,0
0:3:5.645,767.71,43.4439,0,0.000885,0,0
0:3:6.041,769.409,43.5404,0,0.000885,0,0
0:3:6.439,771.464,43.6576,0,0.000885,0,0
0:3:6.845,773.225,43.7541,0,0.000885,0,0
0:3:7.253,775.281,43.8713,0,0.000885,0,0
0:3:7.651,776.513,43.9403,0,0.000885,0,0
0:3:8.048,778.51,44.0575,0,0.000885,0,0
0:3:8.453,780.094,44.1471,0,0.000885,0,0
0:3:8.856,782.091,44.2574,0,0.000885,0,0
0:3:9.259,783.79,44.354,0,0.000885,0,0
0:3:9.663,785.436,44.4436,0,0.000885,0,0
0:3:10.058,787.607,44.5677,0,0.000885,0,0
0:3:10.453,789.662,44.6849,0,0.000885,0,0
0:3:10.850,791.303,44.7814,0,0.000885,0,0
0:3:11.251,792.949,44.8711,0,0.000885,0,0
0:3:11.648,794.475,44.9607,0,0.000885,0,0
0:3:12.040,796.12,45.0503,0,0.000885,0,0
0:3:12.438,797.704,45.14,0,0.000885,0,0
0:3:12.838,799.172,45.2227,0,0.000885,0,0
0:3:13.237,800.991,45.3261,0,0.000885,0,0
0:3:13.643,803.104,45.4433,0,0.000885,0,0
0:3:14.049,805.101,45.5606,0,0.000885,0,0
0:3:14.451,806.507,45.6364,0,0.000885,0,0
0:3:14.853,808.446,45.7467,0,0.000885,0,0
0:3:15.251,810.146,45.8432,0,0.000885,0,0
0:3:15.647,812.201,45.9605,0,0.000885,0,0
0:3:16.052,813.904,46.057,0,0.000885,0,0
0:3:16.449,815.782,46.1673,0,0.000885,0,0
0:3:16.849,817.25,46.25,0,0.000885,0,0
0:3:17.244,818.833,46.3397,0,0.000885,0,0
0:3:17.640,820.301,46.4224,0,0.000885,0,0
0:3:18.035,822.534,46.5465,0,0.000885,0,0
0:3:18.438,824.527,46.6568,0,0.000885,0,0
0:3:18.843,826.057,46.7465,0,0.000885,0,0
0:3:19.244,827.814,46.843,0,0.000885,0,0
0:3:19.650,829.402,46.9326,0,0.000885,0,0
0:3:20.047,831.631,47.0636,0,0.000885,0,0
0:3:20.444,833.57,47.167,0,0.000885,0,0
0:3:20.854,834.86,47.2429,0,0.000885,0,0
0:3:21.250,836.564,47.3394,0,0.000885,0,0
0:3:21.642,838.383,47.4428,0,0.000885,0,0
0:3:22.042,840.26,47.5462,0,0.000885,0,0
0:3:22.452,842.195,47.6566,0,0.000885,0,0
0:3:22.850,843.547,47.7324,0,0.000885,0,0
0:3:23.244,845.251,47.8289,0,0.000885,0,0
0:3:23.652,847.07,47.9324,0,0.000885,0,0
0:3:24.056,849.357,48.0634,0,0.000885,0,0
0:3:24.460,851.118,48.1668,0,0.000885,0,0
0:3:24.863,852.706,48.2564,0,0.000885,0,0
0:3:25.259,854.348,48.346,0,0.000885,0,0
0:3:25.656,856.581,48.4701,0,0.000885,0,0
0:3:26.054,858.164,48.5598,0,0.000885,0,0
0:3:26.454,860.099,48.6701,0,0.000885,0,0
0:3:26.850,861.567,48.7528,0,0.000885,0,0
0:3:27.245,863.564,48.87,0,0.000885,0,0
0:3:27.653,864.974,48.9459,0,0.000885,0,0
0:3:28.052,866.909,49.0562,0,0.000885,0,0
0:3:28.452,868.671,49.1596,0,0.000885,0,0
0:3:28.856,869.725,49.2148,0,0.000885,0,0
0:3:29.260,871.313,49.3044,0,0.000885,0,0
0:3:29.662,873.542,49.4354,0,0.000885,0,0
0:3:30.062,875.655,49.5526,0,0.000885,0,0
0:3:30.460,877.594,49.6629,0,0.000885,0,0
0:3:30.856,879.649,49.7801,0,0.000885,0,0
0:3:31.251,880.939,49.8491,0,0.000885,0,0
0:3:31.651,882.581,49.9456,0,0.000885,0,0
0:3:32.050,884.52,50.0559,0,0.000885,0,0
0:3:32.456,886.575,50.1731,0,0.000885,0,0
0:3:32.851,887.923,50.249,0,0.000885,0,0
0:3:33.255,889.804,50.3524,0,0.000885,0,0
0:3:33.660,891.504,50.4489,0,0.000885,0,0
0:3:34.063,893.323,50.5524,0,0.000885,0,0
0:3:34.464,894.911,50.642,0,0.000885,0,0
0:3:34.860,896.552,50.7316,0,0.000885,0,0
0:3:35.258,898.665,50.8557,0,0.000885,0,0
0:3:35.657,900.605,50.966,0,0.000885,0,0
0:3:36.056,902.304,51.0626,0,0.000885,0,0
0:3:36.451,904.243,51.1729,0,0.000885,0,0
0:3:36.844,905.36,51.2349,0,0.000885,0,0
0:3:37.243,907.411,51.3522,0,0.000885,0,0
0:3:37.641,909.23,51.4487,0,0.000885,0,0
0:3:38.040,911.405,51.5728,0,0.000885,0,0
0:3:38.443,913.104,51.6693,0,0.000885,0,0
0:3:38.851,914.75,51.7658,0,0.000885,0,0
0:3:39.253,916.16,51.8417,0,0.000885,0,0
0:3:39.655,918.86,51.9934,0,0.000885,0,0
0:3:40.050,920.035,52.0623,0,0.000885,0,0
0:3:40.445,921.498,52.145,0,0.000885,0,0
0:3:40.852,923.322,52.2485,0,0.000885,0,0
0:3:41.253,924.434,52.3105,0,0.000885,0,0
0:3:41.649,926.725,52.4415,0,0.000885,0,0
0:3:42.042,928.722,52.5518,0,0.000885,0,0
0:3:42.437,930.248,52.6415,0,0.000885,0,0
0:3:42.836,931.889,52.7311,0,0.000885,0,0
0:3:43.234,934.18,52.8621,0,0.000885,0,0
0:3:43.639,935.706,52.9517,0,0.000885,0,0
0:3:44.042,937.583,53.0552,0,0.000885,0,0
0:3:44.443,939.696,53.1793,0,0.000885,0,0
0:3:44.844,941.399,53.2689,0,0.000885,0,0
0:3:45.254,943.041,53.3654,0,0.000885,0,0
0:3:45.650,944.451,53.4482,0,0.000885,0,0
0:3:46.041,946.448,53.5585,0,0.000885,0,0
0:3:46.441,948.383,53.6688,0,0.000885,0,0
0:3:46.839,949.909,53.7515,0,0.000885,0,0
0:3:47.242,951.906,53.8687,0,0.000885,0,0
0:3:47.639,953.138,53.9377,0,0.000885,0,0
0:3:48.035,954.722,54.0273,0,0.000885,0,0
0:3:48.436,957.364,54.179,0,0.000885,0,0
0:3:48.841,958.774,54.2548,0,0.000885,0,0
0:3:49.244,961.065,54.3858,0,0.000885,0,0
0:3:49.644,962.822,54.4824,0,0.000885,0,0
0:3:50.044,963.587,54.5306,0,0.000885,0,0
0:3:50.442,965.642,54.641,0,0.000885,0,0
0:3:50.839,967.639,54.7582,0,0.000885,0,0
0:3:51.234,968.872,54.8271,0,0.000885,0,0
0:3:51.630,970.691,54.9305,0,0.000885,0,0
0:3:52.029,972.804,55.0477,0,0.000885,0,0
0:3:52.435,974.739,55.1581,0,0.000885,0,0
0:3:52.840,976.265,55.2477,0,0.000885,0,0
0:3:53.244,977.968,55.3442,0,0.000885,0,0
0:3:53.651,979.73,55.4407,0,0.000885,0,0
0:3:54.053,981.727,55.5511,0,0.000885,0,0
0:3:54.455,983.133,55.6338,0,0.000885,0,0
0:3:54.848,985.014,55.7372,0,0.000885,0,0
0:3:55.245,986.713,55.8337,0,0.000885,0,0
0:3:55.644,989.12,55.9716,0,0.000885,0,0
0:3:56.051,990.881,56.0751,0,0.000885,0,0
0:3:56.446,992.407,56.1578,0,0.000885,0,0
0:3:56.841,994.111,56.2543,0,0.000885,0,0
0:3:57.241,996.046,56.3646,0,0.000885,0,0
0:3:57.638,997.634,56.4543,0,0.000885,0,0
0:3:58.041,999.805,56.5784,0,0.000885,0,0
0:3:58.446,1001.62,56.6818,0,0.000885,0,0
0:3:58.851,1003.62,56.7921,0,0.000885,0,0
0:3:59.254,1005.03,56.8749,0,0.000885,0,0
0:3:59.656,1006.14,56.9369,0,0.000885,0,0
0:4:0.051,1007.67,57.0196,0,0.000885,0,0
0:4:0.446,1009.49,57.1231,0,0.000885,0,0
0:4:0.854,1011.6,57.2472,0,0.000885,0,0
0:4:1.254,1013.3,57.3437,0,0.000885,0,0
0:4:1.648,1015.01,57.4402,0,0.000885,0,0
0:4:2.053,1016.77,57.5367,0,0.000885,0,0
0:4:2.449,1018.53,57.6402,0,0.000885,0,0
0:4:2.847,1020.52,57.7505,0,0.000885,0,0
0:4:3.243,1022.17,57.8401,0,0.000885,0,0
0:4:3.648,1024.16,57.9573,0,0.000885,0,0
0:4:4.054,1026.16,58.0676,0,0.000885,0,0
0:4:4.456,1027.69,58.1573,0,0.000885,0,0
0:4:4.859,1029.51,58.2607,0,0.000885,0,0
0:4:5.254,1030.92,58.3365,0,0.000885,0,0
0:4:5.648,1032.97,58.4538,0,0.000885,0,0
0:4:6.046,1034.79,58.5572,0,0.000885,0,0
0:4:6.444,1036.37,58.6468,0,0.000885,0,0
0:4:6.842,1038.66,58.7778,0,0.000885,0,0
0:4:7.237,1040.25,58.8674,0,0.000885,0,0
0:4:7.634,1042.01,58.964,0,0.000885,0,0
0:4:8.042,1043.89,59.0743,0,0.000885,0,0
0:4:8.452,1045.77,59.1777,0,0.000885,0,0
0:4:8.857,1047.41,59.2742,0,0.000885,0,0
0:4:9.261,1049.17,59.3708,0,0.000885,0,0
0:4:9.663,1050.58,59.4535,0,0.000885,0,0
0:4:10.064,1052.69,59.5707,0,0.000885,0,0
0:4:10.462,1053.45,59.6121,0,0.000885,0,0
0:4:10.858,1055.45,59.7293,0,0.000885,0,0
0:4:11.254,1057.74,59.8534,0,0.000885,0,0
0:4:11.653,1059.21,59.9361,0,0.000885,0,0
0:4:12.053,1061.15,60.0464,0,0.000885,0,0
0:4:12.446,1062.91,60.1499,0,0.000885,0,0
0:4:12.841,1065.08,60.274,0,0.000885,0,0
0:4:13.246,1066.55,60.3567,0,0.000885,0,0
0:4:13.654,1068.01,60.4394,0,0.000885,0,0
0:4:14.057,1069.78,60.536,0,0.000885,0,0
0:4:14.459,1071.89,60.6532,0,0.000885,0,0
0:4:14.854,1074.35,60.798,0,0.000885,0,0
0:4:15.254,1075.76,60.8738,0,0.000885,0,0
0:4:15.652,1077.17,60.9565,0,0.000885,0,0
0:4:16.045,1078.58,61.0324,0,0.000885,0,0
0:4:16.440,1080.63,61.1496,0,0.000885,0,0
0:4:16.839,1082.75,61.2737,0,0.000885,0,0
0:4:17.239,1084.16,61.3496,0,0.000885,0,0
0:4:17.658,1085.92,61.453,0,0.000885,0,0
0:4:18.050,1087.85,61.5633,0,0.000885,0,0
0:4:18.456,1090.09,61.6874,0,0.000885,0,0
0:4:18.861,1091.55,61.7701,0,0.000885,0,0
0:4:19.265,1092.72,61.8322,0,0.000885,0,0
0:4:19.667,1094.72,61.9494,0,0.000885,0,0
0:4:20.064,1096.3,62.039,0,0.000885,0,0
0:4:20.461,1098.07,62.1356,0,0.000885,0,0
0:4:20.861,1100.24,62.2597,0,0.000885,0,0
0:4:21.258,1101.41,62.3286,0,0.000885,0,0
0:4:21.654,1103.53,62.4458,0,0.000885,0,0
0:4:22.047,1105.23,62.5423,0,0.000885,0,0
0:4:22.447,1107.4,62.6664,0,0.000885,0,0
0:4:22.845,1109.34,62.7768,0,0.000885,0,0
0:4:23.240,1111.21,62.8802,0,0.000885,0,0
0:4:23.644,1112.98,62.9836,0,0.000885,0,0
0:4:24.048,1114.27,63.0526,0,0.000885,0,0
0:4:24.453,1116.03,63.156,0,0.000885,0,0
0:4:24.857,1117.55,63.2387,0,0.000885,0,0
0:4:25.249,1119.14,63.3283,0,0.000885,0,0
0:4:25.648,1121.49,63.4662,0,0.000885,0,0
0:4:26.046,1122.72,63.5352,0,0.000885,0,0
0:4:26.457,1125.24,63.6731,0,0.000885,0,0
0:4:26.851,1127.01,63.7765,0,0.000885,0,0
0:4:27.245,1128.53,63.8592,0,0.000885,0,0
0:4:27.644,1129.71,63.9282,0,0.000885,0,0
0:4:28.044,1131.82,64.0454,0,0.000885,0,0
0:4:28.450,1133.17,64.1212,0,0.000885,0,0
0:4:28.855,1135.11,64.2316,0,0.000885,0,0
0:4:29.259,1136.69,64.3212,0,0.000885,0,0
0:4:29.659,1138.63,64.4315,0,0.000885,0,0
0:4:30.056,1140.51,64.5418,0,0.000885,0,0
0:4:30.450,1143.15,64.6866,0,0.000885,0,0
0:4:30.856,1144.03,64.7418,0,0.000885,0,0
0:4:31.256,1146.14,64.859,0,0.000885,0,0
0:4:31.652,1148.02,64.9624,0,0.000885,0,0
0:4:32.048,1149.55,65.052,0,0.000885,0,0
0:4:32.456,1151.43,65.1555,0,0.000885,0,0
0:4:32.860,1153.3,65.2658,0,0.000885,0,0
0:4:33.263,1154.54,65.3347,0,0.000885,0,0
0:4:33.669,1156.71,65.4588,0,0.000885,0,0
0:4:34.073,1158.41,65.5554,0,0.000885,0,0
0:4:34.474,1159.82,65.6312,0,0.000885,0,0
0:4:34.871,1162.28,65.7691,0,0.000885,0,0
0:4:35.272,1164.28,65.8863,0,0.000885,0,0
0:4:35.670,1166.1,65.9897,0,0.000885,0,0
0:4:36.064,1167.51,66.0656,0,0.000885,0,0
0:4:36.460,1169.5,66.1828,0,0.000885,0,0
0:4:36.859,1171.21,66.2793,0,0.000885,0,0
0:4:37.257,1172.61,66.3551,0,0.000885,0,0
0:4:37.651,1173.61,66.4103,0,0.000885,0,0
0:4:38.045,1175.84,66.5413,0,0.000885,0,0
0:4:38.449,1177.84,66.6516,0,0.000885,0,0
0:4:38.856,1179.37,66.7413,0,0.000885,0,0
0:4:39.259,1180.89,66.824,0,0.000885,0,0
0:4:39.661,1182.95,66.9412,0,0.000885,0,0
0:4:40.059,1184.77,67.0446,0,0.000885,0,0
0:4:40.458,1186.82,67.1618,0,0.000885,0,0
0:4:40.864,1188.7,67.2653,0,0.000885,0,0
0:4:41.260,1190.17,67.348,0,0.000885,0,0
0:4:41.656,1191.81,67.4445,0,0.000885,0,0
0:4:42.055,1193.75,67.5548,0,0.000885,0,0
0:4:42.452,1195.51,67.6514,0,0.000885,0,0
0:4:42.850,1197.27,67.7548,0,0.000885,0,0
0:4:43.245,1199.09,67.8513,0,0.000885,0,0
0:4:43.649,1201.08,67.9685,0,0.000885,0,0
0:4:44.057,1202.79,68.065,0,0.000885,0,0
0:4:44.461,1204.84,68.1823,0,0.000885,0,0
0:4:44.863,1206.42,68.2719,0,0.000885,0,0
0:4:45.258,1208.31,68.3753,0,0.000885,0,0
0:4:45.657,1210.24,68.4856,0,0.000885,0,0
0:4:46.053,1211.89,68.5753,0,0.000885,0,0
0:4:46.462,1213.88,68.6925,0,0.000885,0,0
0:4:46.856,1214.76,68.7407,0,0.000885,0,0
0:4:47.263,1216.46,68.8373,0,0.000885,0,0
0:4:47.662,1218.63,68.9614,0,0.000885,0,0
0:4:48.059,1219.87,69.0303,0,0.000885,0,0
0:4:48.464,1221.74,69.1337,0,0.000885,0,0
0:4:48.868,1223.86,69.2578,0,0.000885,0,0
0:4:49.272,1225.5,69.3475,0,0.000885,0,0
0:4:49.674,1227.26,69.4509,0,0.000885,0,0
0:4:50.070,1229.32,69.5681,0,0.000885,0,0
0:4:50.467,1230.9,69.6577,0,0.000885,0,0
0:4:50.861,1232.43,69.7405,0,0.000885,0,0
0:4:51.263,1233.9,69.8232,0,0.000885,0,0
0:4:51.661,1236.07,69.9473,0,0.000885,0,0
0:4:52.064,1238.18,70.0645,0,0.000885,0,0
0:4:52.460,1239.65,70.1473,0,0.000885,0,0
0:4:52.858,1241.29,70.2438,0,0.000885,0,0
0:4:53.259,1243.52,70.3679,0,0.000885,0,0
0:4:53.663,1245.34,70.4713,0,0.000885,0,0
0:4:54.067,1247.52,70.5954,0,0.000885,0,0
0:4:54.468,1248.98,70.6782,0,0.000885,0,0
0:4:54.869,1250.86,70.7816,0,0.000885,0,0
0:4:55.267,1252.45,70.8712,0,0.000885,0,0
0:4:55.664,1254.09,70.9677,0,0.000885,0,0
0:4:56.058,1255.62,71.0505,0,0.000885,0,0
0:4:56.458,1257.09,71.1332,0,0.000885,0,0
0:4:56.859,1258.9,71.2366,0,0.000885,0,0
0:4:57.263,1261.19,71.3676,0,0.000885,0,0
0:4:57.658,1262.84,71.4642,0,0.000885,0,0
0:4:58.054,1264.3,71.5469,0,0.000885,0,0
0:4:58.458,1266.42,71.6641,0,0.000885,0,0
0:4:58.863,1268.18,71.7675,0,0.000885,0,0
0:4:59.268,1269.58,71.8434,0,0.000885,0,0
0:4:59.671,1271.17,71.933,0,0.000885,0,0
0:5:0.071,1273.29,72.0502,0,0.000885,0,0
0:5:0.470,1275.46,72.1743,0,0.000885,0,0
0:5:0.867,1277.04,72.264,0,0.000885,0,0
0:5:1.262,1278.1,72.326,0,0.000885,0,0
0:5:1.659,1279.92,72.4294,0,0.000885,0,0
0:5:2.060,1282.38,72.5673,0,0.000885,0,0
0:5:2.455,1284.2,72.6707,0,0.000885,0,0
0:5:2.849,1285.32,72.7328,0,0.000885,0,0
0:5:3.253,1287.43,72.8569,0,0.000885,0,0
0:5:3.660,1289.9,72.9948,0,0.000885,0,0
0:5:4.063,1291.19,73.0637,0,0.000885,0,0
0:5:4.466,1292.95,73.1672,0,0.000885,0,0
0:5:4.861,1295.12,73.2913,0,0.000885,0,0
0:5:5.260,1296.35,73.3602,0,0.000885,0,0
0:5:5.659,1297.7,73.4361,0,0.000885,0,0
0:5:6.053,1299.76,73.5533,0,0.000885,0,0
0:5:6.449,1300.7,73.6015,0,0.000885,0,0
0:5:6.865,1303.92,73.7877,0,0.000885,0,0
0:5:7.265,1304.86,73.8429,0,0.000885,0,0
0:5:7.664,1306.8,73.9532,0,0.000885,0,0
0:5:8.060,1308.62,74.0497,0,0.000885,0,0
0:5:8.465,1309.91,74.1255,0,0.000885,0,0
0:5:8.867,1312.43,74.2703,0,0.000885,0,0
0:5:9.271,1313.67,74.3393,0,0.000885,0,0
0:5:9.673,1315.78,74.4565,0,0.000885,0,0
0:5:10.070,1317.72,74.5668,0,0.000885,0,0
0:5:10.465,1319.66,74.6771,0,0.000885,0,0
0:5:10.864,1321.24,74.7667,0,0.000885,0,0
0:5:11.264,1322.53,74.8426,0,0.000885,0,0
0:5:11.661,1324.82,74.9667,0,0.000885,0,0
0:5:12.053,1326.17,75.0425,0,0.000885,0,0
0:5:12.453,1328.28,75.1666,0,0.000885,0,0
0:5:12.852,1329.52,75.2356,0,0.000885,0,0
0:5:13.248,1332.51,75.408,0,0.000885,0,0
0:5:13.654,1333.39,75.4562,0,0.000885,0,0
0:5:14.060,1335.39,75.5665,0,0.000885,0,0
0:5:14.463,1336.68,75.6424,0,0.000885,0,0
0:5:14.866,1339.08,75.7734,0,0.000885,0,0
0:5:15.262,1340.67,75.863,0,0.000885,0,0
0:5:15.655,1341.9,75.9389,0,0.000885,0,0
0:5:16.053,1344.19,76.063,0,0.000885,0,0
0:5:16.451,1345.66,76.1457,0,0.000885,0,0
0:5:16.850,1347.48,76.2491,0,0.000885,0,0
0:5:17.245,1349.01,76.3388,0,0.000885,0,0
0:5:17.651,1350.71,76.4353,0,0.000885,0,0
0:5:18.050,1353,76.5663,0,0.000885,0,0
0:5:18.448,1354.29,76.6352,0,0.000885,0,0
0:5:18.854,1356.29,76.7524,0,0.000885,0,0
0:5:19.261,1357.93,76.8421,0,0.000885,0,0
0:5:19.664,1359.63,76.9386,0,0.000885,0,0
0:5:20.067,1361.8,77.0627,0,0.000885,0,0
0:5:20.463,1363.33,77.1454,0,0.000885,0,0
0:5:20.856,1365.62,77.2764,0,0.000885,0,0
0:5:21.254,1366.91,77.3523,0,0.000885,0,0
0:5:21.664,1368.85,77.4626,0,0.000885,0,0
0:5:22.062,1371.08,77.5867,0,0.000885,0,0
0:5:22.456,1371.9,77.635,0,0.000885,0,0
0:5:22.851,1374.19,77.766,0,0.000885,0,0
0:5:23.254,1376.18,77.8763,0,0.000885,0,0
0:5:23.661,1377.65,77.959,0,0.000885,0,0
0:5:24.064,1379.12,78.0418,0,0.000885,0,0
0:5:24.467,1381.47,78.1728,0,0.000885,0,0
0:5:24.863,1382.93,78.2555,0,0.000885,0,0
0:5:25.262,1385.11,78.3796,0,0.000885,0,0
0:5:25.661,1386.28,78.4485,0,0.000885,0,0
0:5:26.065,1388.04,78.5451,0,0.000885,0,0
0:5:26.461,1390.04,78.6623,0,0.000885,0,0
0:5:26.860,1391.68,78.7519,0,0.000885,0,0
0:5:27.257,1392.97,78.8278,0,0.000885,0,0
0:5:27.654,1395.2,78.9519,0,0.000885,0,0
0:5:28.061,1396.55,79.0277,0,0.000885,0,0
0:5:28.465,1398.73,79.1518,0,0.000885,0,0
0:5:28.871,1400.84,79.269,0,0.000885,0,0
0:5:29.274,1402.77,79.3793,0,0.000885,0,0
0:5:29.675,1403.6,79.4276,0,0.000885,0,0
0:5:30.071,1405.3,79.5241,0,0.000885,0,0
0:5:30.469,1407.65,79.6551,0,0.000885,0,0
0:5:30.870,1409.23,79.7448,0,0.000885,0,0
0:5:31.267,1411.17,79.8551,0,0.000885,0,0
0:5:31.662,1412.76,79.9447,0,0.000885,0,0
0:5:32.068,1414.69,80.055,0,0.000885,0,0
0:5:32.467,1416.57,80.1584,0,0.000885,0,0
0:5:32.867,1418.74,80.2826,0,0.000885,0,0
0:5:33.262,1420.62,80.3929,0,0.000885,0,0
0:5:33.667,1422.32,80.4894,0,0.000885,0,0
0:5:34.072,1424.08,80.5859,0,0.000885,0,0
0:5:34.475,1425.9,80.6893,0,0.000885,0,0
0:5:34.876,1427.37,80.7721,0,0.000885,0,0
0:5:35.272,1428.6,80.841,0,0.000885,0,0
0:5:35.668,1431.13,80.9858,0,0.000885,0,0
0:5:36.068,1432.12,81.041,0,0.000885,0,0
0:5:36.466,1433.94,81.1444,0,0.000885,0,0
0:5:36.858,1435.59,81.2409,0,0.000885,0,0
0:5:37.254,1437.87,81.365,0,0.000885,0,0
0:5:37.653,1439.52,81.4616,0,0.000885,0,0
0:5:38.052,1440.75,81.5305,0,0.000885,0,0
0:5:38.458,1442.51,81.627,0,0.000885,0,0
0:5:38.864,1444.39,81.7373,0,0.000885,0,0
0:5:39.265,1446.74,81.8683,0,0.000885,0,0
0:5:39.666,1448.39,81.9649,0,0.000885,0,0
0:5:40.064,1449.85,82.0476,0,0.000885,0,0
0:5:40.459,1452.14,82.1717,0,0.000885,0,0
0:5:40.853,1453.31,82.2407,0,0.000885,0,0
0:5:41.250,1455.37,82.3579,0,0.000885,0,0
0:5:41.650,1456.89,82.4406,0,0.000885,0,0
0:5:42.046,1458.71,82.544,0,0.000885,0,0
0:5:42.452,1461.12,82.6819,0,0.000885,0,0
0:5:42.857,1463.18,82.7991,0,0.000885,0,0
0:5:43.259,1463.82,82.8336,0,0.000885,0,0
0:5:43.666,1465.64,82.937,0,0.000885,0,0
0:5:44.070,1467.23,83.0267,0,0.000885,0,0
0:5:44.472,1468.75,83.1163,0,0.000885,0,0
0:5:44.872,1471.04,83.2473,0,0.000885,0,0
0:5:45.271,1472.86,83.3438,0,0.000885,0,0
0:5:45.670,1474.62,83.4472,0,0.000885,0,0
0:5:46.065,1476.32,83.5438,0,0.000885,0,0
0:5:46.458,1477.68,83.6196,0,0.000885,0,0
0:5:46.859,1480.03,83.7506,0,0.000885,0,0
0:5:47.258,1482.03,83.8678,0,0.000885,0,0
0:5:47.653,1483.39,83.9437,0,0.000885,0,0
0:5:48.050,1485.63,84.0678,0,0.000885,0,0
0:5:48.453,1487.57,84.1781,0,0.000885,0,0
0:5:48.858,1489.22,84.2746,0,0.000885,0,0
0:5:49.264,1490.92,84.3711,0,0.000885,0,0
0:5:49.667,1492.69,84.4677,0,0.000885,0,0
0:5:50.062,1495.11,84.6056,0,0.000885,0,0
0:5:50.457,1496.34,84.6745,0,0.000885,0,0
0:5:50.859,1497.81,84.7573,0,0.000885,0,0
0:5:51.257,1499.46,84.8538,0,0.000885,0,0
0:5:51.652,1501.35,84.9572,0,0.000885,0,0
0:5:52.048,1502.29,85.0124,0,0.000885,0,0
0:5:52.455,1504.7,85.1503,0,0.000885,0,0
0:5:52.854,1506.71,85.2606,0,0.000885,0,0
0:5:53.263,1507.82,85.3226,0,0.000885,0,0
0:5:53.669,1509.71,85.4329,0,0.000885,0,0
0:5:54.073,1511.47,85.5295,0,0.000885,0,0
0:5:54.474,1513.24,85.6329,0,0.000885,0,0
0:5:54.877,1515.48,85.757,0,0.000885,0,0
0:5:55.274,1517.07,85.8466,0,0.000885,0,0
0:5:55.669,1518.89,85.95,0,0.000885,0,0
0:5:56.065,1521.07,86.0741,0,0.000885,0,0
0:5:56.465,1523.08,86.1914,0,0.000885,0,0
0:5:56.873,1524.19,86.2534,0,0.000885,0,0
0:5:57.271,1525.37,86.3155,0,0.000885,0,0
0:5:57.667,1528.2,86.4809,0,0.000885,0,0
0:5:58.071,1529.49,86.5499,0,0.000885,0,0
0:5:58.473,1531.91,86.6878,0,0.000885,0,0
0:5:58.879,1533.56,86.7843,0,0.000885,0,0
0:5:59.283,1535.21,86.8739,0,0.000885,0,0
0:5:59.684,1536.26,86.936,0,0.000885,0,0
0:6:0.085,1537.85,87.0256,0,0.000885,0,0
0:6:0.484,1540.56,87.1773,0,0.000885,0,0
0:6:0.882,1541.86,87.2532,0,0.000885,0,0
0:6:1.277,1544.56,87.4048,0,0.000885,0,0
0:6:1.673,1545.98,87.4876,0,0.000885,0,0
0:6:2.072,1547.39,87.5634,0,0.000885,0,0
0:6:2.472,1548.45,87.6255,0,0.000885,0,0
0:6:2.868,1550.57,87.7427,0,0.000885,0,0
0:6:3.272,1552.1,87.8323,0,0.000885,0,0
0:6:3.675,1554.64,87.9771,0,0.000885,0,0
0:6:4.081,1555.87,88.0461,0,0.000885,0,0
0:6:4.484,1557.4,88.1288,0,0.000885,0,0
0:6:4.885,1559.23,88.2322,0,0.000885,0,0
0:6:5.281,1561.23,88.3494,0,0.000885,0,0
0:6:5.681,1562.88,88.4391,0,0.000885,0,0
0:6:6.080,1565.12,88.5701,0,0.000885,0,0
0:6:6.475,1566.77,88.6597,0,0.000885,0,0
0:6:6.873,1568.65,88.77,0,0.000885,0,0
0:6:7.268,1570.42,88.8665,0,0.000885,0,0
0:6:7.666,1572.06,88.9631,0,0.000885,0,0
0:6:8.067,1572.66,88.9906,0,0.000885,0,0
0:6:8.473,1573.89,89.0665,0,0.000885,0,0
0:6:8.876,1576.3,89.1975,0,0.000885,0,0
0:6:9.279,1578.42,89.3216,0,0.000885,0,0
0:6:9.679,1580.54,89.4388,0,0.000885,0,0
0:6:10.076,1582.61,89.556,0,0.000885,0,0
0:6:10.472,1584.61,89.6732,0,0.000885,0,0
0:6:10.867,1586.85,89.7973,0,0.000885,0,0
0:6:11.269,1588.5,89.887,0,0.000885,0,0
0:6:11.675,1590.26,89.9904,0,0.000885,0,0
0:6:12.069,1591.03,90.0317,0,0.000885,0,0
0:6:12.467,1593.32,90.1627,0,0.000885,0,0
0:6:12.860,1595.15,90.2662,0,0.000885,0,0
0:6:13.262,1596.85,90.3627,0,0.000885,0,0
0:6:13.670,1598.5,90.4592,0,0.000885,0,0
0:6:14.073,1600.39,90.5626,0,0.000885,0,0
0:6:14.475,1602.69,90.6936,0,0.000885,0,0
0:6:14.874,1603.21,90.7212,0,0.000885,0,0
0:6:15.274,1604.69,90.804,0,0.000885,0,0
0:6:15.670,1606.28,90.8936,0,0.000885,0,0
0:6:16.074,1603.27,90.7281,0,0.000885,0,0
0:6:16.469,1604.57,90.7971,0,0.000885,0,0
0:6:16.867,1608.34,91.0108,0,0.000885,0,0
0:6:17.263,1612.34,91.2383,0,0.000885,0,0
0:6:17.670,1615.87,91.4383,0,0.000885,0,0
0:6:18.063,1618.29,91.5762,0,0.000885,0,0
0:6:18.468,1621.06,91.7347,0,0.000885,0,0
0:6:18.874,1623.29,91.8589,0,0.000885,0,0
0:6:19.276,1625.53,91.983,0,0.000885,0,0
0:6:19.679,1627.3,92.0864,0,0.000885,0,0
0:6:20.077,1628.83,92.176,0,0.000885,0,0
0:6:20.474,1630.83,92.2863,0,0.000885,0,0
0:6:20.874,1631.95,92.3484,0,0.000885,0,0
0:6:21.268,1633.3,92.4242,0,0.000885,0,0
0:6:21.662,1635.13,92.5276,0,0.000885,0,0
0:6:22.059,1636.54,92.6104,0,0.000885,0,0
0:6:22.459,1638.6,92.7276,0,0.000885,0,0
0:6:22.857,1640.13,92.8103,0,0.000885,0,0
0:6:23.261,1642.02,92.9206,0,0.000885,0,0
0:6:23.668,1642.14,92.9275,0,0.000885,0,0
0:6:24.071,1641.02,92.8655,0,0.000885,0,0
0:6:24.473,1643.25,92.9896,0,0.000885,0,0
0:6:24.877,1645.61,93.1206,0,0.000885,0,0
0:6:25.271,1645.61,93.1206,0,0.000885,0,0
0:6:25.668,1648.08,93.2654,0,0.000885,0,0
0:6:26.069,1650.26,93.3826,0,0.000885,0,0
0:6:26.463,1651.44,93.4515,0,0.000885,0,0
0:6:26.858,1654.8,93.6446,0,0.000885,0,0
0:6:27.254,1657.62,93.8032,0,0.000885,0,0
0:6:27.654,1656.91,93.7618,0,0.000885,0,0
0:6:28.051,1576.01,89.1837,0,0.000885,0,0
0:6:28.456,1522.84,86.1776,0,0.000885,0,0
0:6:28.857,1462.35,82.7509,0,0.000885,0,0
0:6:29.260,1457.37,82.4682,0,0.000885,0,0
0:6:29.661,1458.89,82.5578,0,0.000885,0,0
0:6:30.057,1460.71,82.6612,0,0.000885,0,0
0:6:30.451,1464.23,82.8612,0,0.000885,0,0
0:6:30.856,1467.93,83.068,0,0.000885,0,0
0:6:31.254,1424.9,80.6342,0,0.000885,0,0
0:6:31.652,1347.01,76.2284,0,0.000885,0,0
0:6:32.045,1326.17,75.0425,0,0.000885,0,0
0:6:32.440,1318.13,74.5875,0,0.000885,0,0
0:6:32.837,1308.8,74.0635,0,0.000885,0,0
0:6:33.233,1303.92,73.7877,0,0.000885,0,0
0:6:33.638,1301.05,73.6222,0,0.000885,0,0
0:6:34.041,1294.24,73.2361,0,0.000885,0,0
0:6:34.442,1292.01,73.112,0,0.000885,0,0
0:6:34.842,1288.25,72.8983,0,0.000885,0,0
0:6:35.238,1280.15,72.4432,0,0.000885,0,0
0:6:35.633,1259.31,71.2642,0,0.000885,0,0
0:6:36.028,1235.31,69.9059,0,0.000885,0,0
0:6:36.425,1205.78,68.2305,0,0.000885,0,0
0:6:36.823,1181.83,66.8791,0,0.000885,0,0
0:6:37.216,1166.1,65.9897,0,0.000885,0,0
0:6:37.368,1162.81,65.8036,0,0.000885,0,0