File: DataFile2021-06-24_053828.csv
Test ID:,Date Tested:,Time:,Test Type:,Diameter Avg. (mm):,Cyl. Corr. Factor:,Height (mm):,Age (days):,Weight (kN):,Break Type:,Ramp Rate (MPa/s):,Load at Break (kN):,Stress at Break (MPa):
12,6/24/2021,05:38,Cylinder,150,1,300,0,3.6,3,0.25,1213.7,68.68
Sample Time,Load (kN),Stress (MPa),Long. Strain,Trans. Strain,Chan1 Deflection (mm),Chan2 Deflection (mm)
0:0:15.932,10.6757,0.606739,0,0.000885,0,0
0:0:16.233,18.767,1.06179,0,0.000885,0,0
0:0:16.531,19.2386,1.08937,0,0.000885,0,0
0:0:16.826,18.0642,1.02042,0,0.000885,0,0
0:0:17.126,17.7706,1.00663,0,0.000885,0,0
0:0:17.421,17.7128,0.99974,0,0.000885,0,0
0:0:17.722,17.3614,0.979056,0,0.000885,0,0
0:0:18.017,17.0678,0.965266,0,0.000885,0,0
0:0:18.316,16.9522,0.958371,0,0.000885,0,0
0:0:18.614,16.9522,0.958371,0,0.000885,0,0
0:0:18.909,16.7742,0.951477,0,0.000885,0,0
0:0:19.209,18.5357,1.048,0,0.000885,0,0
0:0:19.504,20.1193,1.13763,0,0.000885,0,0
0:0:19.806,21.6406,1.22727,0,0.000885,0,0
0:0:20.102,22.6993,1.28242,0,0.000885,0,0
0:0:20.399,24.5141,1.38585,0,0.000885,0,0
0:0:20.701,25.3949,1.43411,0,0.000885,0,0
0:0:20.995,26.8628,1.51685,0,0.000885,0,0
0:0:21.298,29.2648,1.65474,0,0.000885,0,0
0:0:21.602,30.8484,1.74437,0,0.000885,0,0
0:0:21.908,32.3742,1.83401,0,0.000885,0,0
0:0:22.211,33.3706,1.88916,0,0.000885,0,0
0:0:22.514,35.4835,2.00637,0,0.000885,0,0
0:0:22.816,36.6578,2.07532,0,0.000885,0,0
0:0:23.113,38.0056,2.15116,0,0.000885,0,0
0:0:23.414,38.7084,2.19253,0,0.000885,0,0
0:0:23.713,39.9406,2.26148,0,0.000885,0,0
0:0:24.011,41.4085,2.34422,0,0.000885,0,0
0:0:24.311,42.4049,2.39938,0,0.000885,0,0
0:0:24.607,43.517,2.46143,0,0.000885,0,0
0:0:24.910,44.6335,2.52348,0,0.000885,0,0
0:0:25.206,46.1014,2.60622,0,0.000885,0,0
0:0:25.506,47.1556,2.66827,0,0.000885,0,0
0:0:25.806,48.7392,2.7579,0,0.000885,0,0
0:0:26.102,50.0291,2.83375,0,0.000885,0,0
0:0:26.405,51.0834,2.8889,0,0.000885,0,0
0:0:26.711,53.3119,3.0199,0,0.000885,0,0
0:0:27.014,54.6019,3.08885,0,0.000885,0,0
0:0:27.317,55.8919,3.16469,0,0.000885,0,0
0:0:27.620,57.302,3.24054,0,0.000885,0,0
0:0:27.923,58.6498,3.31638,0,0.000885,0,0
0:0:28.218,59.9398,3.39222,0,0.000885,0,0
0:0:28.520,60.8784,3.44738,0,0.000885,0,0
0:0:28.816,62.1105,3.51633,0,0.000885,0,0
0:0:29.117,63.9298,3.61975,0,0.000885,0,0
0:0:29.417,65.162,3.6887,0,0.000885,0,0
0:0:29.712,66.452,3.75764,0,0.000885,0,0
0:0:30.014,67.1548,3.79901,0,0.000885,0,0
0:0:30.309,68.0934,3.85417,0,0.000885,0,0
0:0:30.611,69.8549,3.9507,0,0.000885,0,0
0:0:30.909,71.4384,4.04033,0,0.000885,0,0
0:0:31.207,72.7284,4.11617,0,0.000885,0,0
0:0:31.509,74.0184,4.18512,0,0.000885,0,0
0:0:31.812,75.5397,4.27475,0,0.000885,0,0
0:0:32.118,77.4168,4.37817,0,0.000885,0,0
0:0:32.421,79.0627,4.4747,0,0.000885,0,0
0:0:32.723,80.0591,4.52986,0,0.000885,0,0
0:0:33.026,80.9398,4.57812,0,0.000885,0,0
0:0:33.323,82.5234,4.66775,0,0.000885,0,0
0:0:33.626,83.3419,4.71601,0,0.000885,0,0
0:0:33.920,84.8676,4.80565,0,0.000885,0,0
0:0:34.222,86.3355,4.88838,0,0.000885,0,0
0:0:34.520,87.0962,4.92975,0,0.000885,0,0
0:0:34.817,89.2091,5.04696,0,0.000885,0,0
0:0:35.118,90.0276,5.09523,0,0.000885,0,0
0:0:35.415,91.4955,5.17796,0,0.000885,0,0
0:0:35.716,92.3139,5.22623,0,0.000885,0,0
0:0:36.011,93.6662,5.30207,0,0.000885,0,0
0:0:36.314,95.6012,5.41238,0,0.000885,0,0
0:0:36.619,96.7132,5.47444,0,0.000885,0,0
0:0:36.923,98.239,5.55717,0,0.000885,0,0
0:0:37.226,99.529,5.63302,0,0.000885,0,0
0:0:37.529,101.113,5.72265,0,0.000885,0,0
0:0:37.831,101.522,5.74333,0,0.000885,0,0
0:0:38.131,103.048,5.83296,0,0.000885,0,0
0:0:38.426,104.28,5.90191,0,0.000885,0,0
0:0:38.729,106.686,6.03981,0,0.000885,0,0
0:0:39.025,107.798,6.10186,0,0.000885,0,0
0:0:39.325,109.208,6.1777,0,0.000885,0,0
0:0:39.624,110.44,6.24665,0,0.000885,0,0
0:0:39.922,111.379,6.30181,0,0.000885,0,0
0:0:40.223,112.669,6.37765,0,0.000885,0,0
0:0:40.519,113.723,6.43281,0,0.000885,0,0
0:0:40.822,115.129,6.51555,0,0.000885,0,0
0:0:41.118,115.952,6.56381,0,0.000885,0,0
0:0:41.421,117.184,6.63276,0,0.000885,0,0
0:0:41.726,119.706,6.77065,0,0.000885,0,0
0:0:42.030,120.996,6.84649,0,0.000885,0,0
0:0:42.331,122.228,6.91544,0,0.000885,0,0
0:0:42.636,123.754,7.00507,0,0.000885,0,0
0:0:42.936,125.102,7.08092,0,0.000885,0,0
0:0:43.236,126.214,7.14297,0,0.000885,0,0
0:0:43.531,127.273,7.20502,0,0.000885,0,0
0:0:43.833,128.62,7.28086,0,0.000885,0,0
0:0:44.131,129.617,7.33602,0,0.000885,0,0
0:0:44.430,130.791,7.39807,0,0.000885,0,0
0:0:44.729,132.259,7.48081,0,0.000885,0,0
0:0:45.026,133.9,7.57734,0,0.000885,0,0
0:0:45.327,135.133,7.64629,0,0.000885,0,0
0:0:45.624,136.129,7.70144,0,0.000885,0,0
0:0:45.925,138.122,7.81865,0,0.000885,0,0
0:0:46.224,139.176,7.87381,0,0.000885,0,0
0:0:46.527,140.586,7.95655,0,0.000885,0,0
0:0:46.831,141.698,8.0186,0,0.000885,0,0
0:0:47.135,143.344,8.10823,0,0.000885,0,0
0:0:47.438,144.807,8.19787,0,0.000885,0,0
0:0:47.742,145.982,8.25992,0,0.000885,0,0
0:0:48.041,146.978,8.31508,0,0.000885,0,0
0:0:48.342,148.384,8.39781,0,0.000885,0,0
0:0:48.636,149.616,8.46676,0,0.000885,0,0
0:0:48.937,151.026,8.5495,0,0.000885,0,0
0:0:49.235,152.903,8.65292,0,0.000885,0,0
0:0:49.533,153.779,8.70118,0,0.000885,0,0
0:0:49.833,155.599,8.80461,0,0.000885,0,0
0:0:50.130,157.067,8.88734,0,0.000885,0,0
0:0:50.433,157.712,8.92182,0,0.000885,0,0
0:0:50.728,158.766,8.98387,0,0.000885,0,0
0:0:51.027,159.825,9.04592,0,0.000885,0,0
0:0:51.326,161.76,9.15624,0,0.000885,0,0
0:0:51.630,162.578,9.19761,0,0.000885,0,0
0:0:51.935,164.104,9.28724,0,0.000885,0,0
0:0:52.239,165.514,9.36308,0,0.000885,0,0
0:0:52.541,167.329,9.4665,0,0.000885,0,0
0:0:52.843,168.854,9.55613,0,0.000885,0,0
0:0:53.141,170.144,9.62508,0,0.000885,0,0
0:0:53.443,170.789,9.66645,0,0.000885,0,0
0:0:53.741,172.845,9.78366,0,0.000885,0,0
0:0:54.040,173.721,9.83192,0,0.000885,0,0
0:0:54.338,174.659,9.88708,0,0.000885,0,0
0:0:54.635,176.07,9.96292,0,0.000885,0,0
0:0:54.937,177.302,10.0319,0,0.000885,0,0
0:0:55.231,179.41,10.156,0,0.000885,0,0
0:0:55.535,180.469,10.2111,0,0.000885,0,0
0:0:55.832,181.523,10.2732,0,0.000885,0,0
0:0:56.130,182.933,10.349,0,0.000885,0,0
0:0:56.430,183.752,10.3973,0,0.000885,0,0
0:0:56.735,185.687,10.5076,0,0.000885,0,0
0:0:57.039,186.745,10.5697,0,0.000885,0,0
0:0:57.342,187.622,10.6179,0,0.000885,0,0
0:0:57.645,189.499,10.7213,0,0.000885,0,0
0:0:57.949,190.967,10.8041,0,0.000885,0,0
0:0:58.245,191.847,10.8592,0,0.000885,0,0
0:0:58.546,193.604,10.9558,0,0.000885,0,0
0:0:58.841,195.014,11.0385,0,0.000885,0,0
0:0:59.139,195.891,11.0868,0,0.000885,0,0
0:0:59.437,197.417,11.1695,0,0.000885,0,0
0:0:59.731,199.12,11.266,0,0.000885,0,0
0:1:0.031,200.059,11.3212,0,0.000885,0,0
0:1:0.323,201.407,11.397,0,0.000885,0,0
0:1:0.621,202.519,11.4591,0,0.000885,0,0
0:1:0.919,204.454,11.5694,0,0.000885,0,0
0:1:1.214,205.748,11.6452,0,0.000885,0,0
0:1:1.512,206.976,11.7142,0,0.000885,0,0
0:1:1.816,208.501,11.7969,0,0.000885,0,0
0:1:2.118,209.324,11.8452,0,0.000885,0,0
0:1:2.420,211.144,11.9486,0,0.000885,0,0
0:1:2.721,211.904,11.99,0,0.000885,0,0
0:1:3.022,213.372,12.0727,0,0.000885,0,0
0:1:3.316,214.133,12.1141,0,0.000885,0,0
0:1:3.617,216.184,12.2313,0,0.000885,0,0
0:1:3.912,217.122,12.2865,0,0.000885,0,0
0:1:4.209,218.417,12.3623,0,0.000885,0,0
0:1:4.507,219.413,12.4175,0,0.000885,0,0
0:1:4.800,221.054,12.5071,0,0.000885,0,0
0:1:5.100,222.518,12.5898,0,0.000885,0,0
0:1:5.394,223.928,12.6726,0,0.000885,0,0
0:1:5.693,225.276,12.7484,0,0.000885,0,0
0:1:5.988,226.508,12.8174,0,0.000885,0,0
0:1:6.290,227.504,12.8725,0,0.000885,0,0
0:1:6.593,229.381,12.9828,0,0.000885,0,0
0:1:6.894,231.259,13.0862,0,0.000885,0,0
0:1:7.194,232.082,13.1345,0,0.000885,0,0
0:1:7.494,233.078,13.1897,0,0.000885,0,0
0:1:7.800,234.426,13.2655,0,0.000885,0,0
0:1:8.101,236.009,13.3551,0,0.000885,0,0
0:1:8.394,237.184,13.4241,0,0.000885,0,0
0:1:8.694,238.474,13.493,0,0.000885,0,0
0:1:8.988,239.879,13.5758,0,0.000885,0,0
0:1:9.284,240.876,13.6309,0,0.000885,0,0
0:1:9.584,242.989,13.7481,0,0.000885,0,0
0:1:9.887,243.576,13.7826,0,0.000885,0,0
0:1:10.187,244.981,13.8654,0,0.000885,0,0
0:1:10.478,245.862,13.9136,0,0.000885,0,0
0:1:10.776,247.21,13.9895,0,0.000885,0,0
0:1:11.084,248.793,14.0791,0,0.000885,0,0
0:1:11.385,250.026,14.148,0,0.000885,0,0
0:1:11.688,250.906,14.1963,0,0.000885,0,0
0:1:11.990,252.726,14.2997,0,0.000885,0,0
0:1:12.290,254.545,14.4031,0,0.000885,0,0
0:1:12.590,256.008,14.4859,0,0.000885,0,0
0:1:12.888,257.356,14.5617,0,0.000885,0,0
0:1:13.184,258.179,14.61,0,0.000885,0,0
0:1:13.476,259.647,14.6927,0,0.000885,0,0
0:1:13.776,260.817,14.7617,0,0.000885,0,0
0:1:14.070,262.814,14.872,0,0.000885,0,0
0:1:14.368,263.517,14.9134,0,0.000885,0,0
0:1:14.663,264.691,14.9754,0,0.000885,0,0
0:1:14.969,265.688,15.0375,0,0.000885,0,0
0:1:15.267,268.09,15.1685,0,0.000885,0,0
0:1:15.571,268.619,15.2029,0,0.000885,0,0
0:1:15.871,269.794,15.265,0,0.000885,0,0
0:1:16.166,270.963,15.3339,0,0.000885,0,0
0:1:16.467,272.667,15.4305,0,0.000885,0,0
0:1:16.771,274.193,15.5132,0,0.000885,0,0
0:1:17.071,275.421,15.589,0,0.000885,0,0
0:1:17.370,276.715,15.658,0,0.000885,0,0
0:1:17.670,277.943,15.7269,0,0.000885,0,0
0:1:17.970,279.882,15.8373,0,0.000885,0,0
0:1:18.265,280.349,15.8648,0,0.000885,0,0
0:1:18.561,282.048,15.9614,0,0.000885,0,0
0:1:18.859,283.107,16.0234,0,0.000885,0,0
0:1:19.153,284.339,16.0924,0,0.000885,0,0
0:1:19.454,286.154,16.1958,0,0.000885,0,0
0:1:19.746,287.506,16.2716,0,0.000885,0,0
0:1:20.045,288.739,16.3406,0,0.000885,0,0
0:1:20.342,290.086,16.4164,0,0.000885,0,0
0:1:20.636,291.318,16.4854,0,0.000885,0,0
0:1:20.934,292.84,16.5681,0,0.000885,0,0
0:1:21.236,293.721,16.6233,0,0.000885,0,0
0:1:21.539,294.953,16.6922,0,0.000885,0,0
0:1:21.841,296.421,16.7749,0,0.000885,0,0
0:1:22.141,297.884,16.8577,0,0.000885,0,0
0:1:22.442,299.116,16.9266,0,0.000885,0,0
0:1:22.735,300.175,16.9887,0,0.000885,0,0
0:1:23.036,301.874,17.0852,0,0.000885,0,0
0:1:23.330,302.755,17.1335,0,0.000885,0,0
0:1:23.628,304.574,17.2369,0,0.000885,0,0
0:1:23.924,305.571,17.2921,0,0.000885,0,0
0:1:24.220,306.976,17.3679,0,0.000885,0,0
0:1:24.519,308.324,17.4506,0,0.000885,0,0
0:1:24.810,309.908,17.5403,0,0.000885,0,0
0:1:25.110,310.379,17.5609,0,0.000885,0,0
0:1:25.406,312.608,17.6919,0,0.000885,0,0
0:1:25.703,313.84,17.7609,0,0.000885,0,0
0:1:25.999,315.01,17.8229,0,0.000885,0,0
0:1:26.301,316.068,17.885,0,0.000885,0,0
0:1:26.603,317.768,17.9815,0,0.000885,0,0
0:1:26.905,319.529,18.0849,0,0.000885,0,0
0:1:27.206,319.938,18.1056,0,0.000885,0,0
0:1:27.507,321.344,18.1815,0,0.000885,0,0
0:1:27.802,322.167,18.2297,0,0.000885,0,0
0:1:28.102,324.631,18.3676,0,0.000885,0,0
0:1:28.395,326.037,18.4504,0,0.000885,0,0
0:1:28.695,326.918,18.4986,0,0.000885,0,0
0:1:28.990,328.034,18.5607,0,0.000885,0,0
0:1:29.284,329.262,18.6296,0,0.000885,0,0
0:1:29.592,331.201,18.74,0,0.000885,0,0
0:1:29.886,332.549,18.8158,0,0.000885,0,0
0:1:30.186,333.194,18.8572,0,0.000885,0,0
0:1:30.478,334.542,18.933,0,0.000885,0,0
0:1:30.777,335.423,18.9813,0,0.000885,0,0
0:1:31.074,337.887,19.1192,0,0.000885,0,0
0:1:31.373,338.999,19.1812,0,0.000885,0,0
0:1:31.677,340.231,19.2502,0,0.000885,0,0
0:1:31.977,340.992,19.2984,0,0.000885,0,0
0:1:32.278,342.518,19.3812,0,0.000885,0,0
0:1:32.579,344.279,19.4846,0,0.000885,0,0
0:1:32.875,344.808,19.5122,0,0.000885,0,0
0:1:33.174,346.801,19.6225,0,0.000885,0,0
0:1:33.469,347.798,19.6845,0,0.000885,0,0
0:1:33.767,348.62,19.7259,0,0.000885,0,0
0:1:34.063,350.849,19.8569,0,0.000885,0,0
0:1:34.377,351.788,19.9052,0,0.000885,0,0
0:1:34.676,353.135,19.981,0,0.000885,0,0
0:1:34.970,354.31,20.05,0,0.000885,0,0
0:1:35.269,355.658,20.1258,0,0.000885,0,0
0:1:35.563,357.241,20.2154,0,0.000885,0,0
0:1:35.861,358.589,20.2913,0,0.000885,0,0
0:1:36.159,359.937,20.3671,0,0.000885,0,0
0:1:36.461,361.347,20.4499,0,0.000885,0,0
0:1:36.764,363.046,20.5464,0,0.000885,0,0
0:1:37.065,363.749,20.5809,0,0.000885,0,0
0:1:37.364,365.275,20.6705,0,0.000885,0,0
0:1:37.665,366.098,20.7187,0,0.000885,0,0
0:1:37.969,368.442,20.8497,0,0.000885,0,0
0:1:38.269,369.322,20.898,0,0.000885,0,0
0:1:38.585,370.435,20.9601,0,0.000885,0,0
0:1:38.890,372.138,21.0566,0,0.000885,0,0
0:1:39.188,372.783,21.098,0,0.000885,0,0
0:1:39.491,374.603,21.2014,0,0.000885,0,0
0:1:39.792,376.008,21.2772,0,0.000885,0,0
0:1:40.084,376.538,21.3048,0,0.000885,0,0
0:1:40.381,378.001,21.3875,0,0.000885,0,0
0:1:40.689,379.998,21.5047,0,0.000885,0,0
0:1:40.992,381.346,21.5806,0,0.000885,0,0
0:1:41.292,382.4,21.6426,0,0.000885,0,0
0:1:41.594,383.397,21.6978,0,0.000885,0,0
0:1:41.895,385.043,21.7874,0,0.000885,0,0
0:1:42.198,386.684,21.884,0,0.000885,0,0
0:1:42.498,388.09,21.9598,0,0.000885,0,0
0:1:42.800,389.086,22.015,0,0.000885,0,0
0:1:43.093,390.612,22.1046,0,0.000885,0,0
0:1:43.393,392.489,22.208,0,0.000885,0,0
0:1:43.687,393.312,22.2563,0,0.000885,0,0
0:1:43.985,394.188,22.3045,0,0.000885,0,0
0:1:44.290,395.247,22.3666,0,0.000885,0,0
0:1:44.586,396.359,22.4286,0,0.000885,0,0
0:1:44.894,398.236,22.539,0,0.000885,0,0
0:1:45.188,399.94,22.6286,0,0.000885,0,0
0:1:45.487,400.464,22.6631,0,0.000885,0,0
0:1:45.780,401.817,22.7389,0,0.000885,0,0
0:1:46.079,402.813,22.7941,0,0.000885,0,0
0:1:46.386,404.69,22.8975,0,0.000885,0,0
0:1:46.687,406.332,22.994,0,0.000885,0,0
0:1:46.989,407.328,23.0492,0,0.000885,0,0
0:1:47.288,409.027,23.1457,0,0.000885,0,0
0:1:47.588,410.317,23.2215,0,0.000885,0,0
0:1:47.894,411.901,23.3112,0,0.000885,0,0
0:1:48.188,412.782,23.3594,0,0.000885,0,0
0:1:48.487,414.481,23.456,0,0.000885,0,0
0:1:48.779,415.246,23.4973,0,0.000885,0,0
0:1:49.079,417.359,23.6145,0,0.000885,0,0
0:1:49.393,418.355,23.6766,0,0.000885,0,0
0:1:49.691,419.525,23.7386,0,0.000885,0,0
0:1:49.988,421.109,23.8283,0,0.000885,0,0
0:1:50.292,422.87,23.9317,0,0.000885,0,0
0:1:50.591,423.222,23.9524,0,0.000885,0,0
0:1:50.885,424.396,24.0144,0,0.000885,0,0
0:1:51.187,425.802,24.0972,0,0.000885,0,0
0:1:51.490,427.034,24.1661,0,0.000885,0,0
0:1:51.792,429.204,24.2902,0,0.000885,0,0
0:1:52.093,430.085,24.3385,0,0.000885,0,0
0:1:52.393,431.549,24.4212,0,0.000885,0,0
0:1:52.692,433.132,24.5109,0,0.000885,0,0
0:1:52.986,434.484,24.5867,0,0.000885,0,0
0:1:53.293,436.242,24.6832,0,0.000885,0,0
0:1:53.590,436.299,24.6901,0,0.000885,0,0
0:1:53.893,437.883,24.7798,0,0.000885,0,0
0:1:54.193,438.942,24.8418,0,0.000885,0,0
0:1:54.487,440.467,24.9245,0,0.000885,0,0
0:1:54.786,442.051,25.0142,0,0.000885,0,0
0:1:55.091,442.927,25.0624,0,0.000885,0,0
0:1:55.386,444.924,25.1797,0,0.000885,0,0
0:1:55.694,445.334,25.2003,0,0.000885,0,0
0:1:55.987,447.447,25.3175,0,0.000885,0,0
0:1:56.287,448.674,25.3865,0,0.000885,0,0
0:1:56.590,449.906,25.4623,0,0.000885,0,0
0:1:56.891,451.432,25.5451,0,0.000885,0,0
0:1:57.193,453.252,25.6485,0,0.000885,0,0
0:1:57.492,454.364,25.7105,0,0.000885,0,0
0:1:57.793,455.716,25.7864,0,0.000885,0,0
0:1:58.094,456.183,25.814,0,0.000885,0,0
0:1:58.395,457.531,25.8898,0,0.000885,0,0
0:1:58.690,459.408,26.0001,0,0.000885,0,0
0:1:58.994,460.698,26.0691,0,0.000885,0,0
0:1:59.294,461.93,26.138,0,0.000885,0,0
0:1:59.587,462.989,26.2001,0,0.000885,0,0
0:1:59.887,464.279,26.2759,0,0.000885,0,0
0:2:0.190,465.978,26.3656,0,0.000885,0,0
0:2:0.488,466.974,26.4276,0,0.000885,0,0
0:2:0.795,468.558,26.5172,0,0.000885,0,0
0:2:1.088,469.848,26.5862,0,0.000885,0,0
0:2:1.388,471.961,26.7103,0,0.000885,0,0
0:2:1.691,472.49,26.7379,0,0.000885,0,0
0:2:1.993,473.954,26.8206,0,0.000885,0,0
0:2:2.294,475.128,26.8896,0,0.000885,0,0
0:2:2.595,475.831,26.924,0,0.000885,0,0
0:2:2.896,478.237,27.0619,0,0.000885,0,0
0:2:3.190,478.824,27.0964,0,0.000885,0,0
0:2:3.490,480.288,27.1791,0,0.000885,0,0
0:2:3.795,481.169,27.2274,0,0.000885,0,0
0:2:4.092,483.691,27.3722,0,0.000885,0,0
0:2:4.388,484.514,27.4204,0,0.000885,0,0
0:2:4.692,485.741,27.4894,0,0.000885,0,0
0:2:4.993,487.267,27.5721,0,0.000885,0,0
0:2:5.294,487.681,27.5997,0,0.000885,0,0
0:2:5.594,489.847,27.7169,0,0.000885,0,0
0:2:5.889,491.257,27.7997,0,0.000885,0,0
0:2:6.191,492.605,27.8755,0,0.000885,0,0
0:2:6.495,493.895,27.9513,0,0.000885,0,0
0:2:6.796,495.305,28.0272,0,0.000885,0,0
0:2:7.096,496.359,28.0892,0,0.000885,0,0
0:2:7.396,497.591,28.1582,0,0.000885,0,0
0:2:7.693,499.291,28.2547,0,0.000885,0,0
0:2:7.991,500.349,28.3168,0,0.000885,0,0
0:2:8.287,501.577,28.3857,0,0.000885,0,0
0:2:8.584,503.045,28.4685,0,0.000885,0,0
0:2:8.890,503.984,28.5167,0,0.000885,0,0
0:2:9.189,505.038,28.5788,0,0.000885,0,0
0:2:9.493,506.621,28.6684,0,0.000885,0,0
0:2:9.788,508.734,28.7856,0,0.000885,0,0
0:2:10.087,509.851,28.8546,0,0.000885,0,0
0:2:10.390,511.141,28.9235,0,0.000885,0,0
0:2:10.691,512.546,29.0062,0,0.000885,0,0
0:2:10.982,513.369,29.0476,0,0.000885,0,0
0:2:11.282,514.717,29.1303,0,0.000885,0,0
0:2:11.587,516.065,29.2062,0,0.000885,0,0
0:2:11.888,517.355,29.2751,0,0.000885,0,0
0:2:12.190,518.587,29.3441,0,0.000885,0,0
0:2:12.490,520.291,29.4406,0,0.000885,0,0
0:2:12.789,521.754,29.5234,0,0.000885,0,0
0:2:13.094,522.751,29.5785,0,0.000885,0,0
0:2:13.389,524.103,29.6612,0,0.000885,0,0
0:2:13.688,524.979,29.7095,0,0.000885,0,0
0:2:13.990,527.034,29.8267,0,0.000885,0,0
0:2:14.290,527.795,29.8681,0,0.000885,0,0
0:2:14.595,529.614,29.9715,0,0.000885,0,0
0:2:14.890,530.553,30.0198,0,0.000885,0,0
0:2:15.185,532.194,30.1163,0,0.000885,0,0
0:2:15.492,533.778,30.2059,0,0.000885,0,0
0:2:15.792,534.365,30.2404,0,0.000885,0,0
0:2:16.093,535.948,30.33,0,0.000885,0,0
0:2:16.394,537.003,30.3852,0,0.000885,0,0
0:2:16.696,539.116,30.5093,0,0.000885,0,0
0:2:16.998,540.17,30.5645,0,0.000885,0,0
0:2:17.298,541.402,30.6403,0,0.000885,0,0
0:2:17.599,543.221,30.7368,0,0.000885,0,0
0:2:17.900,544.92,30.8334,0,0.000885,0,0
0:2:18.193,545.743,30.8816,0,0.000885,0,0
0:2:18.490,547.033,30.9575,0,0.000885,0,0
0:2:18.788,547.5,30.985,0,0.000885,0,0
0:2:19.091,549.204,31.0816,0,0.000885,0,0
0:2:19.392,550.961,31.1781,0,0.000885,0,0
0:2:19.683,552.02,31.2401,0,0.000885,0,0
0:2:19.983,553.603,31.3298,0,0.000885,0,0
0:2:20.288,554.6,31.3849,0,0.000885,0,0
0:2:20.583,555.481,31.4332,0,0.000885,0,0
0:2:20.893,557.238,31.5366,0,0.000885,0,0
0:2:21.195,558.706,31.6194,0,0.000885,0,0
0:2:21.498,559.524,31.6607,0,0.000885,0,0
0:2:21.797,560.756,31.7297,0,0.000885,0,0
0:2:22.099,563.456,31.8883,0,0.000885,0,0
0:2:22.400,564.101,31.9227,0,0.000885,0,0
0:2:22.694,565.978,32.0261,0,0.000885,0,0
0:2:22.994,566.503,32.0606,0,0.000885,0,0
0:2:23.296,567.913,32.1365,0,0.000885,0,0
0:2:23.597,569.67,32.2399,0,0.000885,0,0
0:2:23.891,570.258,32.2675,0,0.000885,0,0
0:2:24.189,571.899,32.364,0,0.000885,0,0
0:2:24.484,572.606,32.4054,0,0.000885,0,0
0:2:24.790,575.066,32.5433,0,0.000885,0,0
0:2:25.091,575.831,32.5846,0,0.000885,0,0
0:2:25.393,577.708,32.6949,0,0.000885,0,0
0:2:25.690,578.118,32.7156,0,0.000885,0,0
0:2:25.996,579.528,32.7915,0,0.000885,0,0
0:2:26.297,581.169,32.888,0,0.000885,0,0
0:2:26.601,582.401,32.9569,0,0.000885,0,0
0:2:26.902,583.046,32.9914,0,0.000885,0,0
0:2:27.204,584.803,33.0948,0,0.000885,0,0
0:2:27.503,586.329,33.1776,0,0.000885,0,0
0:2:27.799,588.206,33.2879,0,0.000885,0,0
0:2:28.099,589.496,33.3568,0,0.000885,0,0
0:2:28.393,590.964,33.4396,0,0.000885,0,0
0:2:28.696,592.023,33.5016,0,0.000885,0,0
0:2:28.990,593.371,33.5775,0,0.000885,0,0
0:2:29.290,594.781,33.6602,0,0.000885,0,0
0:2:29.597,595.661,33.7085,0,0.000885,0,0
0:2:29.893,596.951,33.7774,0,0.000885,0,0
0:2:30.192,598.304,33.8602,0,0.000885,0,0
0:2:30.486,600.296,33.9705,0,0.000885,0,0
0:2:30.790,601.061,34.0118,0,0.000885,0,0
0:2:31.095,602.881,34.1153,0,0.000885,0,0
0:2:31.396,603.641,34.1566,0,0.000885,0,0
0:2:31.701,605.229,34.2463,0,0.000885,0,0
0:2:32.004,606.991,34.3497,0,0.000885,0,0
0:2:32.307,607.752,34.391,0,0.000885,0,0
0:2:32.608,608.632,34.4393,0,0.000885,0,0
0:2:32.909,610.745,34.5634,0,0.000885,0,0
0:2:33.205,611.275,34.591,0,0.000885,0,0
0:2:33.501,612.8,34.6806,0,0.000885,0,0
0:2:33.803,613.917,34.7427,0,0.000885,0,0
0:2:34.096,615.207,34.8116,0,0.000885,0,0
0:2:34.398,617.791,34.9564,0,0.000885,0,0
0:2:34.695,618.316,34.9909,0,0.000885,0,0
0:2:34.993,619.668,35.0667,0,0.000885,0,0
0:2:35.291,620.549,35.115,0,0.000885,0,0
0:2:35.586,621.781,35.1839,0,0.000885,0,0
0:2:35.887,624.246,35.3218,0,0.000885,0,0
0:2:36.193,624.833,35.3563,0,0.000885,0,0
0:2:36.496,626.421,35.4459,0,0.000885,0,0
0:2:36.799,627.533,35.508,0,0.000885,0,0
0:2:37.103,629.179,35.6045,0,0.000885,0,0
0:2:37.406,630.469,35.6804,0,0.000885,0,0
0:2:37.707,632.172,35.7769,0,0.000885,0,0
0:2:38.009,633.111,35.8252,0,0.000885,0,0
0:2:38.303,634.401,35.901,0,0.000885,0,0
0:2:38.601,635.402,35.9562,0,0.000885,0,0
0:2:38.901,636.985,36.0458,0,0.000885,0,0
0:2:39.197,637.808,36.0941,0,0.000885,0,0
0:2:39.498,639.45,36.1837,0,0.000885,0,0
0:2:39.793,640.624,36.2526,0,0.000885,0,0
0:2:40.094,642.443,36.3561,0,0.000885,0,0
0:2:40.399,644.027,36.4457,0,0.000885,0,0
0:2:40.695,644.672,36.4802,0,0.000885,0,0
0:2:40.997,646.024,36.556,0,0.000885,0,0
0:2:41.302,647.198,36.625,0,0.000885,0,0
0:2:41.606,648.431,36.6939,0,0.000885,0,0
0:2:41.909,650.014,36.7835,0,0.000885,0,0
0:2:42.210,651.366,36.8594,0,0.000885,0,0
0:2:42.514,652.714,36.9352,0,0.000885,0,0
0:2:42.808,654.596,37.0455,0,0.000885,0,0
0:2:43.110,656.001,37.1214,0,0.000885,0,0
0:2:43.404,657.234,37.1903,0,0.000885,0,0
0:2:43.703,657.589,37.211,0,0.000885,0,0
0:2:44.001,659.057,37.2937,0,0.000885,0,0
0:2:44.298,660.699,37.3903,0,0.000885,0,0
0:2:44.598,661.931,37.4592,0,0.000885,0,0
0:2:44.893,663.163,37.5282,0,0.000885,0,0
0:2:45.195,664.573,37.604,0,0.000885,0,0
0:2:45.500,666.57,37.7212,0,0.000885,0,0
0:2:45.799,667.567,37.7764,0,0.000885,0,0
0:2:46.097,668.857,37.8522,0,0.000885,0,0
0:2:46.399,670.031,37.9143,0,0.000885,0,0
0:2:46.704,670.561,37.9487,0,0.000885,0,0
0:2:47.007,672.731,38.066,0,0.000885,0,0
0:2:47.309,673.612,38.1211,0,0.000885,0,0
0:2:47.612,675.196,38.2107,0,0.000885,0,0
0:2:47.908,676.312,38.2728,0,0.000885,0,0
0:2:48.209,678.074,38.3693,0,0.000885,0,0
0:2:48.503,679.599,38.459,0,0.000885,0,0
0:2:48.805,680.6,38.5141,0,0.000885,0,0
0:2:49.099,682.126,38.6037,0,0.000885,0,0
0:2:49.398,682.887,38.6451,0,0.000885,0,0
0:2:49.697,685.12,38.7692,0,0.000885,0,0
0:2:49.992,686.467,38.8451,0,0.000885,0,0
0:2:50.293,687.055,38.8795,0,0.000885,0,0
0:2:50.599,688.113,38.9416,0,0.000885,0,0
0:2:50.899,689.403,39.0105,0,0.000885,0,0
0:2:51.196,690.987,39.1002,0,0.000885,0,0
0:2:51.498,692.455,39.1829,0,0.000885,0,0
0:2:51.802,693.807,39.2587,0,0.000885,0,0
0:2:52.104,695.097,39.3346,0,0.000885,0,0
0:2:52.407,697.152,39.4518,0,0.000885,0,0
0:2:52.710,698.326,39.5139,0,0.000885,0,0
0:2:53.008,699.145,39.5621,0,0.000885,0,0
0:2:53.306,700.791,39.6586,0,0.000885,0,0
0:2:53.600,701.845,39.7138,0,0.000885,0,0
0:2:53.902,703.081,39.7827,0,0.000885,0,0
0:2:54.196,704.136,39.8448,0,0.000885,0,0
0:2:54.495,705.074,39.9,0,0.000885,0,0
0:2:54.794,706.6,39.9827,0,0.000885,0,0
0:2:55.099,707.952,40.0585,0,0.000885,0,0
0:2:55.399,710.065,40.1826,0,0.000885,0,0
0:2:55.694,710.71,40.2171,0,0.000885,0,0
0:2:55.996,712.178,40.2999,0,0.000885,0,0
0:2:56.300,713.352,40.3688,0,0.000885,0,0
0:2:56.605,715.172,40.4722,0,0.000885,0,0
0:2:56.904,716.052,40.5205,0,0.000885,0,0
0:2:57.207,717.285,40.5894,0,0.000885,0,0
0:2:57.509,718.575,40.6653,0,0.000885,0,0
0:2:57.804,720.22,40.7549,0,0.000885,0,0
0:2:58.104,721.395,40.8239,0,0.000885,0,0
0:2:58.401,722.921,40.9066,0,0.000885,0,0
0:2:58.697,723.917,40.9686,0,0.000885,0,0
0:2:58.999,725.736,41.0652,0,0.000885,0,0
0:2:59.293,727.031,41.141,0,0.000885,0,0
0:2:59.595,728.436,41.2238,0,0.000885,0,0
0:2:59.899,729.731,41.2927,0,0.000885,0,0
0:3:0.198,730.549,41.341,0,0.000885,0,0
0:3:0.496,731.724,41.4099,0,0.000885,0,0
0:3:0.801,733.312,41.4995,0,0.000885,0,0
0:3:1.103,734.779,41.5823,0,0.000885,0,0
0:3:1.408,735.718,41.6305,0,0.000885,0,0
0:3:1.712,737.244,41.7202,0,0.000885,0,0
0:3:2.015,738.885,41.8098,0,0.000885,0,0
0:3:2.317,739.886,41.8719,0,0.000885,0,0
0:3:2.620,741.412,41.9546,0,0.000885,0,0
0:3:2.914,742.35,42.0098,0,0.000885,0,0
0:3:3.216,744.285,42.1201,0,0.000885,0,0
0:3:3.511,745.402,42.1821,0,0.000885,0,0
0:3:3.809,746.398,42.2373,0,0.000885,0,0
0:3:4.107,746.985,42.2718,0,0.000885,0,0
0:3:4.401,748.218,42.3407,0,0.000885,0,0
0:3:4.703,749.921,42.4372,0,0.000885,0,0
0:3:4.996,751.505,42.5269,0,0.000885,0,0
0:3:5.298,752.799,42.6027,0,0.000885,0,0
0:3:5.594,753.911,42.6648,0,0.000885,0,0
0:3:5.889,755.086,42.7268,0,0.000885,0,0
0:3:6.202,756.202,42.7958,0,0.000885,0,0
0:3:6.503,757.612,42.8716,0,0.000885,0,0
0:3:6.808,758.435,42.9199,0,0.000885,0,0
0:3:7.110,759.725,42.9888,0,0.000885,0,0
0:3:7.413,761.251,43.0784,0,0.000885,0,0
0:3:7.715,761.838,43.1129,0,0.000885,0,0
0:3:8.011,762.074,43.1267,0,0.000885,0,0
0:3:8.311,762.541,43.1543,0,0.000885,0,0
0:3:8.609,763.07,43.1819,0,0.000885,0,0
0:3:8.908,764.422,43.2577,0,0.000885,0,0
0:3:9.204,765.067,43.2922,0,0.000885,0,0
0:3:9.502,766.179,43.3542,0,0.000885,0,0
0:3:9.803,766.593,43.3818,0,0.000885,0,0
0:3:10.096,768.119,43.4645,0,0.000885,0,0
0:3:10.398,770.525,43.6024,0,0.000885,0,0
0:3:10.693,771.993,43.6852,0,0.000885,0,0
0:3:11.002,774.28,43.8162,0,0.000885,0,0
0:3:11.299,776.455,43.9403,0,0.000885,0,0
0:3:11.603,779.097,44.0851,0,0.000885,0,0
0:3:11.908,781.032,44.1954,0,0.000885,0,0
0:3:12.209,783.496,44.3402,0,0.000885,0,0
0:3:12.511,786.196,44.4919,0,0.000885,0,0
0:3:12.813,789.777,44.6918,0,0.000885,0,0
0:3:13.112,792.304,44.8366,0,0.000885,0,0
0:3:13.412,794.123,44.94,0,0.000885,0,0
0:3:13.707,796.116,45.0503,0,0.000885,0,0
0:3:14.009,797.646,45.14,0,0.000885,0,0
0:3:14.303,799.99,45.271,0,0.000885,0,0
0:3:14.600,801.285,45.3399,0,0.000885,0,0
0:3:14.900,801.872,45.3744,0,0.000885,0,0
0:3:15.195,802.811,45.4296,0,0.000885,0,0
0:3:15.497,803.456,45.464,0,0.000885,0,0
0:3:15.801,804.394,45.5192,0,0.000885,0,0
0:3:16.103,805.453,45.5812,0,0.000885,0,0
0:3:16.409,805.862,45.6019,0,0.000885,0,0
0:3:16.711,806.449,45.6364,0,0.000885,0,0
0:3:17.014,807.739,45.7053,0,0.000885,0,0
0:3:17.314,808.914,45.7743,0,0.000885,0,0
0:3:17.616,810.088,45.8432,0,0.000885,0,0
0:3:17.913,810.439,45.8639,0,0.000885,0,0
0:3:18.208,811.734,45.9329,0,0.000885,0,0
0:3:18.510,812.437,45.9742,0,0.000885,0,0
0:3:18.803,813.375,46.0294,0,0.000885,0,0
0:3:19.104,814.372,46.0846,0,0.000885,0,0
0:3:19.400,816.017,46.1742,0,0.000885,0,0
0:3:19.698,817.072,46.2362,0,0.000885,0,0
0:3:19.997,818.424,46.3121,0,0.000885,0,0
0:3:20.302,819.892,46.3948,0,0.000885,0,0
0:3:20.602,820.888,46.45,0,0.000885,0,0
0:3:20.899,822.298,46.5327,0,0.000885,0,0
0:3:21.201,824.589,46.6637,0,0.000885,0,0
0:3:21.506,825.528,46.712,0,0.000885,0,0
0:3:21.809,826.173,46.7533,0,0.000885,0,0
0:3:22.111,826.996,46.8016,0,0.000885,0,0
0:3:22.413,828.695,46.8912,0,0.000885,0,0
0:3:22.713,829.927,46.9671,0,0.000885,0,0
0:3:23.012,831.809,47.0705,0,0.000885,0,0
0:3:23.306,832.04,47.0843,0,0.000885,0,0
0:3:23.607,832.04,47.0843,0,0.000885,0,0
0:3:23.899,832.276,47.0981,0,0.000885,0,0
0:3:24.198,834.389,47.2153,0,0.000885,0,0
0:3:24.498,835.505,47.2774,0,0.000885,0,0
0:3:24.802,837.676,47.4015,0,0.000885,0,0
0:3:25.104,839.557,47.5118,0,0.000885,0,0
0:3:25.400,841.964,47.6428,0,0.000885,0,0
0:3:25.700,843.134,47.7117,0,0.000885,0,0
0:3:25.996,845.251,47.8289,0,0.000885,0,0
0:3:26.299,846.305,47.891,0,0.000885,0,0
0:3:26.603,847.364,47.953,0,0.000885,0,0
0:3:26.907,849.77,48.084,0,0.000885,0,0
0:3:27.208,851.06,48.1599,0,0.000885,0,0
0:3:27.511,852.822,48.2564,0,0.000885,0,0
0:3:27.810,853.876,48.3185,0,0.000885,0,0
0:3:28.109,855.758,48.4288,0,0.000885,0,0
0:3:28.403,857.519,48.5253,0,0.000885,0,0
0:3:28.706,858.516,48.5805,0,0.000885,0,0
0:3:29.001,860.041,48.6701,0,0.000885,0,0
0:3:29.299,861.158,48.7321,0,0.000885,0,0
0:3:29.598,862.448,48.808,0,0.000885,0,0
0:3:29.902,862.564,48.808,0,0.000885,0,0
0:3:30.204,864.503,48.9183,0,0.000885,0,0
0:3:30.497,865.384,48.9735,0,0.000885,0,0
0:3:30.798,866.322,49.0217,0,0.000885,0,0
0:3:31.106,867.848,49.1114,0,0.000885,0,0
0:3:31.409,868.729,49.1596,0,0.000885,0,0
0:3:31.713,870.664,49.2699,0,0.000885,0,0
0:3:32.016,871.193,49.2975,0,0.000885,0,0
0:3:32.317,873.484,49.4285,0,0.000885,0,0
0:3:32.620,874.013,49.4561,0,0.000885,0,0
0:3:32.916,875.303,49.5319,0,0.000885,0,0
0:3:33.218,876.535,49.6009,0,0.000885,0,0
0:3:33.511,878.061,49.6905,0,0.000885,0,0
0:3:33.811,879.88,49.7939,0,0.000885,0,0
0:3:34.109,880.819,49.8422,0,0.000885,0,0
0:3:34.404,881.584,49.8905,0,0.000885,0,0
0:3:34.704,883.052,49.9732,0,0.000885,0,0
0:3:35.000,884.693,50.0628,0,0.000885,0,0
0:3:35.302,886.281,50.1525,0,0.000885,0,0
0:3:35.597,887.1,50.2007,0,0.000885,0,0
0:3:35.904,888.804,50.2973,0,0.000885,0,0
0:3:36.206,889.506,50.3386,0,0.000885,0,0
0:3:36.510,890.974,50.4214,0,0.000885,0,0
0:3:36.814,892.442,50.5041,0,0.000885,0,0
0:3:37.116,893.91,50.5868,0,0.000885,0,0
0:3:37.419,895.142,50.6558,0,0.000885,0,0
0:3:37.720,897.375,50.7799,0,0.000885,0,0
0:3:38.016,898.43,50.8419,0,0.000885,0,0
0:3:38.316,899.195,50.8833,0,0.000885,0,0
0:3:38.612,901.014,50.9867,0,0.000885,0,0
0:3:38.911,901.13,50.9936,0,0.000885,0,0
0:3:39.210,903.185,51.1108,0,0.000885,0,0
0:3:39.507,904.768,51.2005,0,0.000885,0,0
0:3:39.807,905.418,51.2349,0,0.000885,0,0
0:3:40.100,907.411,51.3522,0,0.000885,0,0
0:3:40.400,908.936,51.4349,0,0.000885,0,0
0:3:40.698,909.995,51.4969,0,0.000885,0,0
0:3:41.003,911.169,51.559,0,0.000885,0,0
0:3:41.305,912.459,51.6348,0,0.000885,0,0
0:3:41.608,913.398,51.69,0,0.000885,0,0
0:3:41.912,915.279,51.7934,0,0.000885,0,0
0:3:42.214,916.685,51.8762,0,0.000885,0,0
0:3:42.515,918.153,51.9589,0,0.000885,0,0
0:3:42.817,918.74,51.9934,0,0.000885,0,0
0:3:43.112,920.559,52.0899,0,0.000885,0,0
0:3:43.413,921.912,52.1726,0,0.000885,0,0
0:3:43.709,923.495,52.2623,0,0.000885,0,0
0:3:44.007,924.082,52.2898,0,0.000885,0,0
0:3:44.305,925.844,52.3933,0,0.000885,0,0
0:3:44.601,926.489,52.4277,0,0.000885,0,0
0:3:44.903,928.193,52.5243,0,0.000885,0,0
0:3:45.195,929.305,52.5863,0,0.000885,0,0
0:3:45.506,929.661,52.607,0,0.000885,0,0
0:3:45.804,930.893,52.6759,0,0.000885,0,0
0:3:46.099,933.179,52.8069,0,0.000885,0,0
0:3:46.401,935.176,52.9173,0,0.000885,0,0
0:3:46.706,936.466,52.9931,0,0.000885,0,0
0:3:47.010,938.228,53.0896,0,0.000885,0,0
0:3:47.311,939.46,53.1655,0,0.000885,0,0
0:3:47.614,940.692,53.2344,0,0.000885,0,0
0:3:47.916,942.222,53.3172,0,0.000885,0,0
0:3:48.212,943.628,53.3999,0,0.000885,0,0
0:3:48.512,945.038,53.4757,0,0.000885,0,0
0:3:48.809,945.625,53.5102,0,0.000885,0,0
0:3:49.108,947.329,53.6067,0,0.000885,0,0
0:3:49.407,949.206,53.7171,0,0.000885,0,0
0:3:49.700,950.438,53.786,0,0.000885,0,0
0:3:50.002,951.492,53.8412,0,0.000885,0,0
0:3:50.298,953.316,53.9446,0,0.000885,0,0
0:3:50.604,953.432,53.9515,0,0.000885,0,0
0:3:50.906,955.487,54.0687,0,0.000885,0,0
0:3:51.207,956.541,54.1307,0,0.000885,0,0
0:3:51.512,958.009,54.2135,0,0.000885,0,0
0:3:51.814,958.89,54.2617,0,0.000885,0,0
0:3:52.116,959.771,54.31,0,0.000885,0,0
0:3:52.417,961.59,54.4134,0,0.000885,0,0
0:3:52.713,962.528,54.4686,0,0.000885,0,0
0:3:53.015,963.703,54.5375,0,0.000885,0,0
0:3:53.309,965.406,54.6341,0,0.000885,0,0
0:3:53.610,967.284,54.7375,0,0.000885,0,0
0:3:53.907,968.516,54.8064,0,0.000885,0,0
0:3:54.203,969.396,54.8547,0,0.000885,0,0
0:3:54.504,970.629,54.9236,0,0.000885,0,0
0:3:54.798,972.217,55.0133,0,0.000885,0,0
0:3:55.098,973.685,55.096,0,0.000885,0,0
0:3:55.407,974.33,55.1374,0,0.000885,0,0
0:3:55.702,975.504,55.1994,0,0.000885,0,0
0:3:56.003,977.03,55.2891,0,0.000885,0,0
0:3:56.308,978.555,55.3718,0,0.000885,0,0
0:3:56.611,979.903,55.4545,0,0.000885,0,0
0:3:56.913,981.665,55.5511,0,0.000885,0,0
0:3:57.214,982.603,55.6062,0,0.000885,0,0
0:3:57.518,984.249,55.6958,0,0.000885,0,0
0:3:57.813,985.188,55.751,0,0.000885,0,0
0:3:58.114,986.771,55.8406,0,0.000885,0,0
0:3:58.409,988.239,55.9234,0,0.000885,0,0
0:3:58.708,989.765,56.0061,0,0.000885,0,0
0:3:59.007,990.414,56.0475,0,0.000885,0,0
0:3:59.300,991.646,56.1164,0,0.000885,0,0
0:3:59.602,993.114,56.1992,0,0.000885,0,0
0:3:59.908,995.107,56.3095,0,0.000885,0,0
0:4:0.208,995.988,56.3646,0,0.000885,0,0
0:4:0.506,997.807,56.4612,0,0.000885,0,0
0:4:0.801,999.039,56.537,0,0.000885,0,0
0:4:1.103,1000.51,56.6197,0,0.000885,0,0
0:4:1.408,1000.98,56.6404,0,0.000885,0,0
0:4:1.710,1002.03,56.7025,0,0.000885,0,0
0:4:2.013,1003.68,56.799,0,0.000885,0,0
0:4:2.314,1005.03,56.8749,0,0.000885,0,0
0:4:2.616,1006.38,56.9507,0,0.000885,0,0
0:4:2.911,1007.2,56.999,0,0.000885,0,0
0:4:3.212,1007.73,57.0265,0,0.000885,0,0
0:4:3.507,1009.72,57.1369,0,0.000885,0,0
0:4:3.804,1011.13,57.2196,0,0.000885,0,0
0:4:4.105,1013.36,57.3437,0,0.000885,0,0
0:4:4.410,1013.54,57.3575,0,0.000885,0,0
0:4:4.710,1015.77,57.4816,0,0.000885,0,0
0:4:5.007,1016.71,57.5367,0,0.000885,0,0
0:4:5.304,1018.41,57.6333,0,0.000885,0,0
0:4:5.603,1020.12,57.7298,0,0.000885,0,0
0:4:5.899,1020.76,57.7643,0,0.000885,0,0
0:4:6.202,1022.46,57.8608,0,0.000885,0,0
0:4:6.507,1024.46,57.9711,0,0.000885,0,0
0:4:6.810,1025.57,58.0332,0,0.000885,0,0
0:4:7.112,1026.75,58.1021,0,0.000885,0,0
0:4:7.414,1028.16,58.1849,0,0.000885,0,0
0:4:7.717,1029.74,58.2745,0,0.000885,0,0
0:4:8.012,1030.33,58.3021,0,0.000885,0,0
0:4:8.312,1032.26,58.4124,0,0.000885,0,0
0:4:8.608,1032.62,58.4331,0,0.000885,0,0
0:4:8.903,1034.79,58.5572,0,0.000885,0,0
0:4:9.204,1036.61,58.6606,0,0.000885,0,0
0:4:9.510,1036.9,58.6744,0,0.000885,0,0
0:4:9.810,1039.25,58.8123,0,0.000885,0,0
0:4:10.107,1039.48,58.8261,0,0.000885,0,0
0:4:10.403,1040.83,58.9019,0,0.000885,0,0
0:4:10.703,1043.18,59.0329,0,0.000885,0,0
0:4:11.008,1043.77,59.0674,0,0.000885,0,0
0:4:11.309,1045,59.1363,0,0.000885,0,0
0:4:11.613,1046,59.1915,0,0.000885,0,0
0:4:11.917,1047.94,59.3018,0,0.000885,0,0
0:4:12.218,1050.23,59.4328,0,0.000885,0,0
0:4:12.519,1049.93,59.4121,0,0.000885,0,0
0:4:12.822,1052.4,59.5569,0,0.000885,0,0
0:4:13.117,1052.69,59.5707,0,0.000885,0,0
0:4:13.417,1055.27,59.7155,0,0.000885,0,0
0:4:13.714,1055.16,59.7086,0,0.000885,0,0
0:4:14.010,1057.27,59.8327,0,0.000885,0,0
0:4:14.311,1057.86,59.8603,0,0.000885,0,0
0:4:14.605,1059.79,59.9706,0,0.000885,0,0
0:4:14.906,1061.32,60.0602,0,0.000885,0,0
0:4:15.202,1062.38,60.1154,0,0.000885,0,0
0:4:15.497,1063.37,60.1774,0,0.000885,0,0
0:4:15.797,1064.67,60.2464,0,0.000885,0,0
0:4:16.103,1065.72,60.3084,0,0.000885,0,0
0:4:16.404,1067.48,60.405,0,0.000885,0,0
0:4:16.710,1068.84,60.4808,0,0.000885,0,0
0:4:17.013,1070.89,60.598,0,0.000885,0,0
0:4:17.314,1071.3,60.6256,0,0.000885,0,0
0:4:17.616,1073.06,60.7221,0,0.000885,0,0
0:4:17.918,1074.24,60.7911,0,0.000885,0,0
0:4:18.213,1076.35,60.9083,0,0.000885,0,0
0:4:18.511,1076.47,60.9152,0,0.000885,0,0
0:4:18.810,1077.81,60.991,0,0.000885,0,0
0:4:19.104,1079.75,61.1013,0,0.000885,0,0
0:4:19.404,1080.98,61.1703,0,0.000885,0,0
0:4:19.709,1081.39,61.1979,0,0.000885,0,0
0:4:20.010,1082.92,61.2806,0,0.000885,0,0
0:4:20.305,1084.92,61.3909,0,0.000885,0,0
0:4:20.602,1086.68,61.4943,0,0.000885,0,0
0:4:20.902,1087.97,61.5633,0,0.000885,0,0
0:4:21.206,1088.56,61.5978,0,0.000885,0,0
0:4:21.509,1089.32,61.646,0,0.000885,0,0
0:4:21.811,1091.2,61.7494,0,0.000885,0,0
0:4:22.113,1092.61,61.8322,0,0.000885,0,0
0:4:22.415,1093.72,61.8942,0,0.000885,0,0
0:4:22.711,1095.01,61.9632,0,0.000885,0,0
0:4:23.011,1096.01,62.0183,0,0.000885,0,0
0:4:23.308,1097.36,62.1011,0,0.000885,0,0
0:4:23.607,1098.36,62.1562,0,0.000885,0,0
0:4:23.902,1099.59,62.2252,0,0.000885,0,0
0:4:24.201,1101.35,62.3217,0,0.000885,0,0
0:4:24.511,1102.23,62.3769,0,0.000885,0,0
0:4:24.803,1103.47,62.4458,0,0.000885,0,0
0:4:25.106,1103.52,62.4458,0,0.000885,0,0
0:4:25.410,1104.82,62.5217,0,0.000885,0,0
0:4:25.711,1105.52,62.563,0,0.000885,0,0
0:4:26.009,1107.28,62.6596,0,0.000885,0,0
0:4:26.310,1108.63,62.7354,0,0.000885,0,0
0:4:26.614,1110.57,62.8457,0,0.000885,0,0
0:4:26.917,1112.39,62.9491,0,0.000885,0,0
0:4:27.220,1114.85,63.087,0,0.000885,0,0
0:4:27.521,1116.5,63.1836,0,0.000885,0,0
0:4:27.818,1118.26,63.2801,0,0.000885,0,0
0:4:28.119,1119.55,63.3559,0,0.000885,0,0
0:4:28.413,1121.19,63.4456,0,0.000885,0,0
0:4:28.716,1122.84,63.5421,0,0.000885,0,0
0:4:29.010,1124.31,63.6248,0,0.000885,0,0
0:4:29.311,1124.95,63.6593,0,0.000885,0,0
0:4:29.608,1125.65,63.7007,0,0.000885,0,0
0:4:29.903,1127.77,63.8179,0,0.000885,0,0
0:4:30.214,1129,63.8868,0,0.000885,0,0
0:4:30.508,1130.29,63.9627,0,0.000885,0,0
0:4:30.810,1131.58,64.0316,0,0.000885,0,0
0:4:31.103,1133.34,64.135,0,0.000885,0,0
0:4:31.407,1134.93,64.2247,0,0.000885,0,0
0:4:31.711,1136.28,64.3005,0,0.000885,0,0
0:4:32.015,1137.75,64.3832,0,0.000885,0,0
0:4:32.316,1138.86,64.4453,0,0.000885,0,0
0:4:32.618,1140.68,64.5487,0,0.000885,0,0
0:4:32.917,1142.27,64.6383,0,0.000885,0,0
0:4:33.215,1143.21,64.6935,0,0.000885,0,0
0:4:33.511,1144.55,64.7693,0,0.000885,0,0
0:4:33.813,1144.91,64.79,0,0.000885,0,0
0:4:34.107,1146.49,64.8797,0,0.000885,0,0
0:4:34.408,1147.37,64.9279,0,0.000885,0,0
0:4:34.704,1148.55,64.9969,0,0.000885,0,0
0:4:35.011,1150.31,65.0934,0,0.000885,0,0
0:4:35.310,1151.25,65.1486,0,0.000885,0,0
0:4:35.607,1153.24,65.2589,0,0.000885,0,0
0:4:35.908,1154.18,65.314,0,0.000885,0,0
0:4:36.211,1155.83,65.4037,0,0.000885,0,0
0:4:36.514,1156.82,65.4657,0,0.000885,0,0
0:4:36.818,1158.82,65.576,0,0.000885,0,0
0:4:37.122,1160.29,65.6588,0,0.000885,0,0
0:4:37.423,1161.35,65.7208,0,0.000885,0,0
0:4:37.724,1162.28,65.7691,0,0.000885,0,0
0:4:38.026,1164.34,65.8863,0,0.000885,0,0
0:4:38.322,1164.63,65.907,0,0.000885,0,0
0:4:38.619,1162.87,65.8036,0,0.000885,0,0
0:4:38.917,1163.05,65.8174,0,0.000885,0,0
0:4:39.212,1164.63,65.907,0,0.000885,0,0
0:4:39.513,1166.98,66.038,0,0.000885,0,0
0:4:39.807,1168.8,66.1414,0,0.000885,0,0
0:4:40.108,1170.38,66.231,0,0.000885,0,0
0:4:40.403,1171.85,66.3138,0,0.000885,0,0
0:4:40.710,1173.55,66.4103,0,0.000885,0,0
0:4:41.009,1175.79,66.5344,0,0.000885,0,0
0:4:41.313,1176.72,66.5896,0,0.000885,0,0
0:4:41.617,1177.08,66.6103,0,0.000885,0,0
0:4:41.918,1173.2,66.3896,0,0.000885,0,0
0:4:42.218,1164.93,65.9208,0,0.000885,0,0
0:4:42.520,1166.22,65.9966,0,0.000885,0,0
0:4:42.815,1168.62,66.1276,0,0.000885,0,0
0:4:43.115,1170.68,66.2448,0,0.000885,0,0
0:4:43.409,1173.14,66.3896,0,0.000885,0,0
0:4:43.708,1175.73,66.5344,0,0.000885,0,0
0:4:44.001,1177.2,66.6171,0,0.000885,0,0
0:4:44.299,1179.78,66.7619,0,0.000885,0,0
0:4:44.598,1182.01,66.886,0,0.000885,0,0
0:4:44.905,1184.65,67.0377,0,0.000885,0,0
0:4:45.206,1187.29,67.1894,0,0.000885,0,0
0:4:45.512,1189.52,67.3135,0,0.000885,0,0
0:4:45.809,1190.81,67.3894,0,0.000885,0,0
0:4:46.108,1191.46,67.4238,0,0.000885,0,0
0:4:46.411,1193.45,67.5341,0,0.000885,0,0
0:4:46.716,1195.27,67.6376,0,0.000885,0,0
0:4:47.017,1196.91,67.7341,0,0.000885,0,0
0:4:47.319,1198.85,67.8444,0,0.000885,0,0
0:4:47.620,1200.14,67.9134,0,0.000885,0,0
0:4:47.919,1201.96,68.0168,0,0.000885,0,0
0:4:48.218,1202.49,68.0444,0,0.000885,0,0
0:4:48.514,1203.78,68.1202,0,0.000885,0,0
0:4:48.815,1205.13,68.196,0,0.000885,0,0
0:4:49.109,1205.31,68.2098,0,0.000885,0,0
0:4:49.408,1207.36,68.3201,0,0.000885,0,0
0:4:49.708,1209.48,68.4443,0,0.000885,0,0
0:4:50.012,1211.12,68.5339,0,0.000885,0,0
0:4:50.314,1212.94,68.6373,0,0.000885,0,0
0:4:50.609,1213.64,68.6787,0,0.000885,0,0
0:4:50.908,1214.29,68.7132,0,0.000885,0,0
0:4:51.214,1212.41,68.6097,0,0.000885,0,0
0:4:51.516,1210.13,68.4787,0,0.000885,0,0
0:4:51.819,1209.48,68.4443,0,0.000885,0,0
0:4:52.120,1205.25,68.2029,0,0.000885,0,0
0:4:52.422,1128.77,63.873,0,0.000885,0,0
0:4:52.722,1089.73,61.6667,0,0.000885,0,0
0:4:53.021,1087.21,61.5219,0,0.000885,0,0
0:4:53.318,1081.98,61.2254,0,0.000885,0,0
0:4:53.612,1076.47,60.9152,0,0.000885,0,0
0:4:53.914,1067.54,60.4119,0,0.000885,0,0
0:4:54.208,1067.19,60.3912,0,0.000885,0,0
0:4:54.504,1066.02,60.3222,0,0.000885,0,0
0:4:54.811,1065.96,60.3222,0,0.000885,0,0
0:4:55.108,1066.55,60.3567,0,0.000885,0,0
0:4:55.407,1033.85,58.502,0,0.000885,0,0
0:4:55.709,1027.28,58.1297,0,0.000885,0,0
0:4:56.011,1028.1,58.178,0,0.000885,0,0
0:4:56.315,850.651,48.1392,0,0.000885,0,0
0:4:56.414,850.651,48.1392,0,0.000885,0,0