File: DataFile2021-07-28_105420.csv
Test ID:,Date Tested:,Time:,Test Type:,Diameter Avg. (mm):,Cyl. Corr. Factor:,Height (mm):,Age (days):,Weight (kN):,Break Type:,Ramp Rate (MPa/s):,Load at Break (kN):,Stress at Break (MPa):
12,7/28/2021,10:54,Cylinder,100,1,200,0,13.69,3,0.34,848.77,108.07
Sample Time,Load (kN),Stress (MPa),Long. Strain,Trans. Strain,Chan1 Deflection (mm),Chan2 Deflection (mm)
0:0:17.828,5.57362,0.71016,0,0.000885,0,0
0:0:18.126,8.97206,1.14453,0,0.000885,0,0
0:0:18.435,10.0886,1.28242,0,0.000885,0,0
0:0:18.735,9.91064,1.26174,0,0.000885,0,0
0:0:19.027,9.85281,1.25485,0,0.000885,0,0
0:0:19.327,10.0307,1.27553,0,0.000885,0,0
0:0:19.635,10.0307,1.27553,0,0.000885,0,0
0:0:19.930,10.3243,1.3169,0,0.000885,0,0
0:0:20.229,10.5556,1.34448,0,0.000885,0,0
0:0:20.537,11.4364,1.45479,0,0.000885,0,0
0:0:20.840,12.0814,1.53753,0,0.000885,0,0
0:0:21.136,14.1943,1.80643,0,0.000885,0,0
0:0:21.435,15.075,1.91674,0,0.000885,0,0
0:0:21.741,15.4264,1.96501,0,0.000885,0,0
0:0:22.037,16.1293,2.05464,0,0.000885,0,0
0:0:22.340,17.1257,2.17874,0,0.000885,0,0
0:0:22.636,18.1221,2.30974,0,0.000885,0,0
0:0:22.937,19.1185,2.43385,0,0.000885,0,0
0:0:23.235,19.7056,2.50969,0,0.000885,0,0
0:0:23.538,20.235,2.57864,0,0.000885,0,0
0:0:23.845,21.5828,2.75101,0,0.000885,0,0
0:0:24.149,22.1121,2.81306,0,0.000885,0,0
0:0:24.451,23.1085,2.94406,0,0.000885,0,0
0:0:24.753,23.8113,3.03369,0,0.000885,0,0
0:0:25.053,25.4527,3.24054,0,0.000885,0,0
0:0:25.351,26.3913,3.35775,0,0.000885,0,0
0:0:25.649,27.1564,3.45427,0,0.000885,0,0
0:0:25.950,28.095,3.57838,0,0.000885,0,0
0:0:26.245,28.9134,3.6818,0,0.000885,0,0
0:0:26.548,30.3235,3.86106,0,0.000885,0,0
0:0:26.844,30.9685,3.9438,0,0.000885,0,0
0:0:27.142,32.2007,4.10238,0,0.000885,0,0
0:0:27.443,32.8457,4.18512,0,0.000885,0,0
0:0:27.739,33.2549,4.23338,0,0.000885,0,0
0:0:28.041,34.4292,4.38507,0,0.000885,0,0
0:0:28.346,34.8385,4.43333,0,0.000885,0,0
0:0:28.649,35.4256,4.50917,0,0.000885,0,0
0:0:28.954,36.1863,4.6057,0,0.000885,0,0
0:0:29.255,37.0092,4.70912,0,0.000885,0,0
0:0:29.559,37.5964,4.78496,0,0.000885,0,0
0:0:29.854,38.0634,4.84701,0,0.000885,0,0
0:0:30.156,39.0598,4.97112,0,0.000885,0,0
0:0:30.452,39.7048,5.05386,0,0.000885,0,0
0:0:30.753,40.5277,5.15728,0,0.000885,0,0
0:0:31.052,41.0571,5.22623,0,0.000885,0,0
0:0:31.346,41.9334,5.33654,0,0.000885,0,0
0:0:31.648,42.6407,5.42617,0,0.000885,0,0
0:0:31.944,43.9885,5.59854,0,0.000885,0,0
0:0:32.245,45.1628,5.75023,0,0.000885,0,0
0:0:32.542,46.0391,5.86054,0,0.000885,0,0
0:0:32.840,47.0355,5.99154,0,0.000885,0,0
0:0:33.142,48.0363,6.11565,0,0.000885,0,0
0:0:33.447,48.6191,6.19149,0,0.000885,0,0
0:0:33.750,49.4998,6.30181,0,0.000885,0,0
0:0:34.054,50.6741,6.45349,0,0.000885,0,0
0:0:34.356,51.2035,6.52244,0,0.000885,0,0
0:0:34.658,51.6705,6.5776,0,0.000885,0,0
0:0:34.955,52.6669,6.7086,0,0.000885,0,0
0:0:35.258,53.1963,6.77065,0,0.000885,0,0
0:0:35.552,53.7834,6.84649,0,0.000885,0,0
0:0:35.851,54.6019,6.94992,0,0.000885,0,0
0:0:36.151,55.367,7.04644,0,0.000885,0,0
0:0:36.449,56.4791,7.19123,0,0.000885,0,0
0:0:36.749,57.1241,7.27397,0,0.000885,0,0
0:0:37.045,58.414,7.43944,0,0.000885,0,0
0:0:37.347,58.8277,7.48771,0,0.000885,0,0
0:0:37.644,60.1177,7.65318,0,0.000885,0,0
0:0:37.942,60.8784,7.74971,0,0.000885,0,0
0:0:38.241,61.5234,7.83244,0,0.000885,0,0
0:0:38.545,62.1105,7.90829,0,0.000885,0,0
0:0:38.849,62.6977,7.98413,0,0.000885,0,0
0:0:39.154,63.872,8.12892,0,0.000885,0,0
0:0:39.457,64.8106,8.25302,0,0.000885,0,0
0:0:39.760,65.2198,8.30129,0,0.000885,0,0
0:0:40.056,65.8648,8.38402,0,0.000885,0,0
0:0:40.358,67.742,8.62534,0,0.000885,0,0
0:0:40.655,68.3291,8.70118,0,0.000885,0,0
0:0:40.956,68.9741,8.78392,0,0.000885,0,0
0:0:41.253,69.6769,8.87355,0,0.000885,0,0
0:0:41.552,70.7312,9.00455,0,0.000885,0,0
0:0:41.853,71.7276,9.13555,0,0.000885,0,0
0:0:42.147,72.4927,9.23208,0,0.000885,0,0
0:0:42.450,73.0798,9.30792,0,0.000885,0,0
0:0:42.746,73.7827,9.39755,0,0.000885,0,0
0:0:43.045,74.3698,9.4665,0,0.000885,0,0
0:0:43.344,75.3084,9.59061,0,0.000885,0,0
0:0:43.647,76.069,9.68713,0,0.000885,0,0
0:0:43.952,77.1855,9.82503,0,0.000885,0,0
0:0:44.255,78.1241,9.94913,0,0.000885,0,0
0:0:44.559,78.9426,10.0526,0,0.000885,0,0
0:0:44.862,79.5298,10.1284,0,0.000885,0,0
0:0:45.160,80.2326,10.218,0,0.000885,0,0
0:0:45.462,80.8197,10.287,0,0.000885,0,0
0:0:45.758,82.2298,10.4662,0,0.000885,0,0
0:0:46.062,82.5812,10.5145,0,0.000885,0,0
0:0:46.356,83.7511,10.6662,0,0.000885,0,0
0:0:46.656,84.3961,10.7489,0,0.000885,0,0
0:0:46.956,85.5126,10.8868,0,0.000885,0,0
0:0:47.253,86.7448,11.0454,0,0.000885,0,0
0:0:47.553,87.5054,11.1419,0,0.000885,0,0
0:0:47.848,87.799,11.1764,0,0.000885,0,0
0:0:48.152,89.0312,11.335,0,0.000885,0,0
0:0:48.457,89.8541,11.4384,0,0.000885,0,0
0:0:48.762,91.024,11.5901,0,0.000885,0,0
0:0:49.065,91.4955,11.6521,0,0.000885,0,0
0:0:49.367,91.7891,11.6866,0,0.000885,0,0
0:0:49.668,92.6075,11.79,0,0.000885,0,0
0:0:49.964,94.0176,11.9693,0,0.000885,0,0
0:0:50.265,94.7204,12.0589,0,0.000885,0,0
0:0:50.562,95.2498,12.1279,0,0.000885,0,0
0:0:50.857,96.0682,12.2313,0,0.000885,0,0
0:0:51.160,96.949,12.3416,0,0.000885,0,0
0:0:51.455,97.594,12.4244,0,0.000885,0,0
0:0:51.757,98.4169,12.5278,0,0.000885,0,0
0:0:52.054,99.2932,12.645,0,0.000885,0,0
0:0:52.354,100,12.7346,0,0.000885,0,0
0:0:52.654,101.17,12.8794,0,0.000885,0,0
0:0:52.949,101.993,12.9828,0,0.000885,0,0
0:0:53.251,102.99,13.1138,0,0.000885,0,0
0:0:53.556,103.87,13.2241,0,0.000885,0,0
0:0:53.860,104.4,13.2931,0,0.000885,0,0
0:0:54.165,105.454,13.4241,0,0.000885,0,0
0:0:54.466,105.983,13.493,0,0.000885,0,0
0:0:54.771,106.744,13.5896,0,0.000885,0,0
0:0:55.065,107.683,13.7137,0,0.000885,0,0
0:0:55.369,108.443,13.8102,0,0.000885,0,0
0:0:55.665,109.266,13.9136,0,0.000885,0,0
0:0:55.964,109.969,14.0033,0,0.000885,0,0
0:0:56.263,110.85,14.1136,0,0.000885,0,0
0:0:56.559,111.495,14.1963,0,0.000885,0,0
0:0:56.860,112.549,14.3273,0,0.000885,0,0
0:0:57.154,113.487,14.4514,0,0.000885,0,0
0:0:57.456,114.253,14.5479,0,0.000885,0,0
0:0:57.753,114.777,14.6169,0,0.000885,0,0
0:0:58.050,115.485,14.7065,0,0.000885,0,0
0:0:58.351,116.833,14.8789,0,0.000885,0,0
0:0:58.656,117.184,14.9203,0,0.000885,0,0
0:0:58.960,118.065,15.0306,0,0.000885,0,0
0:0:59.265,119.297,15.1892,0,0.000885,0,0
0:0:59.567,120.409,15.3339,0,0.000885,0,0
0:0:59.871,121.405,15.458,0,0.000885,0,0
0:1:0.166,121.992,15.5339,0,0.000885,0,0
0:1:0.468,122.758,15.6304,0,0.000885,0,0
0:1:0.764,123.634,15.7407,0,0.000885,0,0
0:1:1.066,124.221,15.8166,0,0.000885,0,0
0:1:1.362,125.102,15.9269,0,0.000885,0,0
0:1:1.660,125.805,16.0165,0,0.000885,0,0
0:1:1.961,126.507,16.1062,0,0.000885,0,0
0:1:2.256,127.273,16.2027,0,0.000885,0,0
0:1:2.557,128.678,16.3819,0,0.000885,0,0
0:1:2.855,128.798,16.3957,0,0.000885,0,0
0:1:3.159,129.381,16.4716,0,0.000885,0,0
0:1:3.464,130.382,16.6026,0,0.000885,0,0
0:1:3.768,131.552,16.7474,0,0.000885,0,0
0:1:4.071,133.135,16.9542,0,0.000885,0,0
0:1:4.374,133.722,17.0232,0,0.000885,0,0
0:1:4.673,134.603,17.1404,0,0.000885,0,0
0:1:4.973,135.012,17.1886,0,0.000885,0,0
0:1:5.270,135.715,17.2783,0,0.000885,0,0
0:1:5.571,136.716,17.4093,0,0.000885,0,0
0:1:5.868,137.125,17.4575,0,0.000885,0,0
0:1:6.167,137.477,17.5058,0,0.000885,0,0
0:1:6.466,138.825,17.6782,0,0.000885,0,0
0:1:6.763,139.59,17.7747,0,0.000885,0,0
0:1:7.064,140.702,17.9126,0,0.000885,0,0
0:1:7.360,141.582,18.0298,0,0.000885,0,0
0:1:7.658,142.17,18.0987,0,0.000885,0,0
0:1:7.957,142.988,18.2091,0,0.000885,0,0
0:1:8.260,143.575,18.278,0,0.000885,0,0
0:1:8.565,144.692,18.4228,0,0.000885,0,0
0:1:8.869,145.217,18.4917,0,0.000885,0,0
0:1:9.173,146.685,18.6779,0,0.000885,0,0
0:1:9.476,147.623,18.7951,0,0.000885,0,0
0:1:9.774,147.801,18.8158,0,0.000885,0,0
0:1:10.074,148.677,18.933,0,0.000885,0,0
0:1:10.371,149.442,19.0295,0,0.000885,0,0
0:1:10.674,150.848,19.2088,0,0.000885,0,0
0:1:10.970,151.613,19.3053,0,0.000885,0,0
0:1:11.270,152.61,19.4294,0,0.000885,0,0
0:1:11.571,153.197,19.5053,0,0.000885,0,0
0:1:11.864,153.842,19.588,0,0.000885,0,0
0:1:12.167,154.66,19.6914,0,0.000885,0,0
0:1:12.464,155.541,19.8017,0,0.000885,0,0
0:1:12.761,156.186,19.8845,0,0.000885,0,0
0:1:13.061,157.009,19.9879,0,0.000885,0,0
0:1:13.365,158.063,20.1258,0,0.000885,0,0
0:1:13.671,158.886,20.2292,0,0.000885,0,0
0:1:13.974,159.647,20.3257,0,0.000885,0,0
0:1:14.275,160.176,20.3947,0,0.000885,0,0
0:1:14.578,161.524,20.5671,0,0.000885,0,0
0:1:14.876,162.284,20.6636,0,0.000885,0,0
0:1:15.177,162.698,20.7119,0,0.000885,0,0
0:1:15.472,163.637,20.836,0,0.000885,0,0
0:1:15.774,164.34,20.9256,0,0.000885,0,0
0:1:16.073,165.572,21.0842,0,0.000885,0,0
0:1:16.369,166.626,21.2152,0,0.000885,0,0
0:1:16.670,166.626,21.2152,0,0.000885,0,0
0:1:16.965,167.974,21.3875,0,0.000885,0,0
0:1:17.267,168.561,21.4634,0,0.000885,0,0
0:1:17.564,169.615,21.5944,0,0.000885,0,0
0:1:17.863,170.616,21.7254,0,0.000885,0,0
0:1:18.163,171.141,21.7874,0,0.000885,0,0
0:1:18.467,172.493,21.9598,0,0.000885,0,0
0:1:18.772,172.845,22.0081,0,0.000885,0,0
0:1:19.075,173.547,22.0977,0,0.000885,0,0
0:1:19.377,174.486,22.2149,0,0.000885,0,0
0:1:19.679,174.953,22.277,0,0.000885,0,0
0:1:19.975,175.892,22.3942,0,0.000885,0,0
0:1:20.279,177.008,22.539,0,0.000885,0,0
0:1:20.574,177.827,22.6424,0,0.000885,0,0
0:1:20.875,178.472,22.7251,0,0.000885,0,0
0:1:21.173,179.472,22.8492,0,0.000885,0,0
0:1:21.469,180.527,22.9871,0,0.000885,0,0
0:1:21.772,180.936,23.0354,0,0.000885,0,0
0:1:22.068,182.168,23.194,0,0.000885,0,0
0:1:22.368,183.222,23.3319,0,0.000885,0,0
0:1:22.666,183.4,23.3525,0,0.000885,0,0
0:1:22.964,184.69,23.518,0,0.000885,0,0
0:1:23.265,185.451,23.6145,0,0.000885,0,0
0:1:23.570,185.807,23.6559,0,0.000885,0,0
0:1:23.874,186.745,23.78,0,0.000885,0,0
0:1:24.178,187.622,23.8903,0,0.000885,0,0
0:1:24.480,188.618,24.0144,0,0.000885,0,0
0:1:24.783,188.974,24.0627,0,0.000885,0,0
0:1:25.079,189.85,24.173,0,0.000885,0,0
0:1:25.382,190.437,24.2489,0,0.000885,0,0
0:1:25.680,192.079,24.4557,0,0.000885,0,0
0:1:25.976,192.902,24.5591,0,0.000885,0,0
0:1:26.275,193.489,24.635,0,0.000885,0,0
0:1:26.569,194.134,24.7177,0,0.000885,0,0
0:1:26.867,194.894,24.8142,0,0.000885,0,0
0:1:27.163,196.362,25.0004,0,0.000885,0,0
0:1:27.459,196.892,25.0693,0,0.000885,0,0
0:1:27.756,197.768,25.1797,0,0.000885,0,0
0:1:28.050,198.413,25.2624,0,0.000885,0,0
0:1:28.350,199.058,25.3451,0,0.000885,0,0
0:1:28.653,200.059,25.4692,0,0.000885,0,0
0:1:28.956,200.935,25.5864,0,0.000885,0,0
0:1:29.256,201.58,25.6692,0,0.000885,0,0
0:1:29.557,202.519,25.7864,0,0.000885,0,0
0:1:29.857,203.342,25.8898,0,0.000885,0,0
0:1:30.152,204.102,25.9863,0,0.000885,0,0
0:1:30.452,204.689,26.0622,0,0.000885,0,0
0:1:30.748,205.686,26.1863,0,0.000885,0,0
0:1:31.043,206.624,26.3104,0,0.000885,0,0
0:1:31.342,207.389,26.4069,0,0.000885,0,0
0:1:31.645,208.444,26.5379,0,0.000885,0,0
0:1:31.946,209.089,26.6207,0,0.000885,0,0
0:1:32.248,209.324,26.6551,0,0.000885,0,0
0:1:32.546,210.321,26.7792,0,0.000885,0,0
0:1:32.843,211.611,26.9447,0,0.000885,0,0
0:1:33.146,212.549,27.0619,0,0.000885,0,0
0:1:33.445,212.959,27.1171,0,0.000885,0,0
0:1:33.747,213.31,27.1584,0,0.000885,0,0
0:1:34.050,215.014,27.3791,0,0.000885,0,0
0:1:34.351,215.659,27.4618,0,0.000885,0,0
0:1:34.650,216.539,27.5721,0,0.000885,0,0
0:1:34.952,217.122,27.648,0,0.000885,0,0
0:1:35.245,217.945,27.7514,0,0.000885,0,0
0:1:35.545,219.177,27.9031,0,0.000885,0,0
0:1:35.849,219.88,27.9927,0,0.000885,0,0
0:1:36.145,220.583,28.0823,0,0.000885,0,0
0:1:36.443,221.17,28.1582,0,0.000885,0,0
0:1:36.747,222.166,28.2892,0,0.000885,0,0
0:1:37.048,223.225,28.4202,0,0.000885,0,0
0:1:37.338,224.222,28.5512,0,0.000885,0,0
0:1:37.636,224.924,28.6408,0,0.000885,0,0
0:1:37.933,225.569,28.7236,0,0.000885,0,0
0:1:38.235,225.805,28.7511,0,0.000885,0,0
0:1:38.539,227.74,28.9993,0,0.000885,0,0
0:1:38.842,227.74,28.9993,0,0.000885,0,0
0:1:39.142,228.794,29.1303,0,0.000885,0,0
0:1:39.443,229.266,29.1924,0,0.000885,0,0
0:1:39.747,230.792,29.3855,0,0.000885,0,0
0:1:40.046,231.143,29.4268,0,0.000885,0,0
0:1:40.349,231.961,29.5371,0,0.000885,0,0
0:1:40.648,233.02,29.6681,0,0.000885,0,0
0:1:40.942,233.839,29.7716,0,0.000885,0,0
0:1:41.237,234.661,29.875,0,0.000885,0,0
0:1:41.546,235.306,29.9577,0,0.000885,0,0
0:1:41.848,236.187,30.0749,0,0.000885,0,0
0:1:42.149,236.77,30.1439,0,0.000885,0,0
0:1:42.446,238.064,30.3094,0,0.000885,0,0
0:1:42.742,238.18,30.3231,0,0.000885,0,0
0:1:43.049,239.003,30.4335,0,0.000885,0,0
0:1:43.348,240.231,30.5851,0,0.000885,0,0
0:1:43.651,241.232,30.7161,0,0.000885,0,0
0:1:43.953,242.344,30.854,0,0.000885,0,0
0:1:44.254,242.931,30.9299,0,0.000885,0,0
0:1:44.553,243.811,31.0402,0,0.000885,0,0
0:1:44.849,244.399,31.116,0,0.000885,0,0
0:1:45.148,245.453,31.2539,0,0.000885,0,0
0:1:45.442,245.862,31.3022,0,0.000885,0,0
0:1:45.739,246.565,31.3918,0,0.000885,0,0
0:1:46.046,247.503,31.5159,0,0.000885,0,0
0:1:46.343,247.855,31.5573,0,0.000885,0,0
0:1:46.639,249.149,31.7228,0,0.000885,0,0
0:1:46.933,249.968,31.8262,0,0.000885,0,0
0:1:47.233,250.791,31.9296,0,0.000885,0,0
0:1:47.527,252.081,32.0951,0,0.000885,0,0
0:1:47.824,252.606,32.164,0,0.000885,0,0
0:1:48.122,253.544,32.2813,0,0.000885,0,0
0:1:48.424,254.131,32.3571,0,0.000885,0,0
0:1:48.727,255.07,32.4743,0,0.000885,0,0
0:1:49.027,256.066,32.6053,0,0.000885,0,0
0:1:49.328,256.774,32.6949,0,0.000885,0,0
0:1:49.629,257.828,32.8259,0,0.000885,0,0
0:1:49.925,258.651,32.9294,0,0.000885,0,0
0:1:50.222,259.411,33.0259,0,0.000885,0,0
0:1:50.535,259.821,33.081,0,0.000885,0,0
0:1:50.835,261.053,33.2396,0,0.000885,0,0
0:1:51.151,261.818,33.3362,0,0.000885,0,0
0:1:51.446,262.343,33.4051,0,0.000885,0,0
0:1:51.744,263.575,33.5568,0,0.000885,0,0
0:1:52.048,264.162,33.6326,0,0.000885,0,0
0:1:52.347,265.158,33.7636,0,0.000885,0,0
0:1:52.652,265.919,33.8602,0,0.000885,0,0
0:1:52.948,266.097,33.8808,0,0.000885,0,0
0:1:53.246,267.151,34.0118,0,0.000885,0,0
0:1:53.548,268.441,34.1773,0,0.000885,0,0
0:1:53.852,268.971,34.2463,0,0.000885,0,0
0:1:54.152,270.087,34.391,0,0.000885,0,0
0:1:54.453,270.67,34.46,0,0.000885,0,0
0:1:54.752,271.786,34.6048,0,0.000885,0,0
0:1:55.049,272.667,34.7151,0,0.000885,0,0
0:1:55.348,273.37,34.8047,0,0.000885,0,0
0:1:55.650,274.308,34.9288,0,0.000885,0,0
0:1:55.949,275.069,35.0254,0,0.000885,0,0
0:1:56.247,276.07,35.1495,0,0.000885,0,0
0:1:56.550,276.537,35.2115,0,0.000885,0,0
0:1:56.849,277.24,35.3012,0,0.000885,0,0
0:1:57.141,277.943,35.3908,0,0.000885,0,0
0:1:57.451,279.117,35.5356,0,0.000885,0,0
0:1:57.745,279.94,35.6459,0,0.000885,0,0
0:1:58.051,280.527,35.7148,0,0.000885,0,0
0:1:58.350,281.23,35.8045,0,0.000885,0,0
0:1:58.653,282.048,35.9148,0,0.000885,0,0
0:1:58.955,283.458,36.0941,0,0.000885,0,0
0:1:59.256,284.103,36.1699,0,0.000885,0,0
0:1:59.557,284.806,36.2595,0,0.000885,0,0
0:1:59.857,285.158,36.3078,0,0.000885,0,0
0:2:0.151,286.274,36.4526,0,0.000885,0,0
0:2:0.452,286.919,36.5284,0,0.000885,0,0
0:2:0.746,287.973,36.6663,0,0.000885,0,0
0:2:1.052,288.796,36.7697,0,0.000885,0,0
0:2:1.348,289.673,36.8801,0,0.000885,0,0
0:2:1.644,290.731,37.018,0,0.000885,0,0
0:2:1.943,291.434,37.1076,0,0.000885,0,0
0:2:2.247,292.195,37.2041,0,0.000885,0,0
0:2:2.546,293.076,37.3144,0,0.000885,0,0
0:2:2.850,293.663,37.3903,0,0.000885,0,0
0:2:3.145,294.659,37.5144,0,0.000885,0,0
0:2:3.445,295.482,37.6247,0,0.000885,0,0
0:2:3.747,296.127,37.7005,0,0.000885,0,0
0:2:4.050,297.239,37.8453,0,0.000885,0,0
0:2:4.351,298.004,37.9418,0,0.000885,0,0
0:2:4.651,299.174,38.0935,0,0.000885,0,0
0:2:4.953,299.53,38.1349,0,0.000885,0,0
0:2:5.246,300.468,38.259,0,0.000885,0,0
0:2:5.546,301.523,38.39,0,0.000885,0,0
0:2:5.851,302.11,38.4659,0,0.000885,0,0
0:2:6.147,302.871,38.5624,0,0.000885,0,0
0:2:6.444,303.809,38.6796,0,0.000885,0,0
0:2:6.748,304.574,38.7761,0,0.000885,0,0
0:2:7.048,305.157,38.852,0,0.000885,0,0
0:2:7.351,306.509,39.0243,0,0.000885,0,0
0:2:7.651,307.154,39.1071,0,0.000885,0,0
0:2:7.947,307.679,39.176,0,0.000885,0,0
0:2:8.247,308.386,39.2656,0,0.000885,0,0
0:2:8.552,309.734,39.438,0,0.000885,0,0
0:2:8.852,310.201,39.4932,0,0.000885,0,0
0:2:9.154,311.14,39.6173,0,0.000885,0,0
0:2:9.452,311.905,39.7138,0,0.000885,0,0
0:2:9.748,313.075,39.8655,0,0.000885,0,0
0:2:10.048,313.782,39.9551,0,0.000885,0,0
0:2:10.350,314.543,40.0516,0,0.000885,0,0
0:2:10.650,315.303,40.1482,0,0.000885,0,0
0:2:10.942,315.948,40.2309,0,0.000885,0,0
0:2:11.251,317.532,40.4309,0,0.000885,0,0
0:2:11.547,318.297,40.5274,0,0.000885,0,0
0:2:11.850,318.826,40.5963,0,0.000885,0,0
0:2:12.150,319.529,40.686,0,0.000885,0,0
0:2:12.451,320.348,40.7894,0,0.000885,0,0
0:2:12.752,321.638,40.9549,0,0.000885,0,0
0:2:13.047,322.403,41.0514,0,0.000885,0,0
0:2:13.348,322.812,41.0996,0,0.000885,0,0
0:2:13.653,323.341,41.1686,0,0.000885,0,0
0:2:13.953,324.102,41.2651,0,0.000885,0,0
0:2:14.254,325.334,41.4237,0,0.000885,0,0
0:2:14.553,325.863,41.4926,0,0.000885,0,0
0:2:14.851,326.682,41.5961,0,0.000885,0,0
0:2:15.145,327.269,41.6719,0,0.000885,0,0
0:2:15.454,328.679,41.8512,0,0.000885,0,0
0:2:15.752,329.555,41.9615,0,0.000885,0,0
0:2:16.046,330.027,42.0235,0,0.000885,0,0
0:2:16.347,330.965,42.1408,0,0.000885,0,0
0:2:16.649,331.433,42.2028,0,0.000885,0,0
0:2:16.948,332.843,42.3821,0,0.000885,0,0
0:2:17.253,333.31,42.4372,0,0.000885,0,0
0:2:17.548,334.19,42.5475,0,0.000885,0,0
0:2:17.847,334.835,42.6303,0,0.000885,0,0
0:2:18.149,336.303,42.8164,0,0.000885,0,0
0:2:18.450,336.891,42.8923,0,0.000885,0,0
0:2:18.753,337.593,42.9819,0,0.000885,0,0
0:2:19.055,338.06,43.044,0,0.000885,0,0
0:2:19.355,338.941,43.1543,0,0.000885,0,0
0:2:19.655,340.525,43.3542,0,0.000885,0,0
0:2:19.956,341.054,43.4232,0,0.000885,0,0
0:2:20.251,342.108,43.5611,0,0.000885,0,0
0:2:20.548,342.931,43.6645,0,0.000885,0,0
0:2:20.854,343.576,43.7472,0,0.000885,0,0
0:2:21.148,344.337,43.8438,0,0.000885,0,0
0:2:21.448,345.275,43.961,0,0.000885,0,0
0:2:21.752,345.685,44.0161,0,0.000885,0,0
0:2:22.050,346.975,44.1816,0,0.000885,0,0
0:2:22.354,347.798,44.285,0,0.000885,0,0
0:2:22.650,348.558,44.3816,0,0.000885,0,0
0:2:22.949,349.203,44.4643,0,0.000885,0,0
0:2:23.250,350.142,44.5815,0,0.000885,0,0
0:2:23.552,350.671,44.6504,0,0.000885,0,0
0:2:23.853,352.139,44.8366,0,0.000885,0,0
0:2:24.154,352.726,44.9124,0,0.000885,0,0
0:2:24.455,353.251,44.9745,0,0.000885,0,0
0:2:24.749,353.602,45.0228,0,0.000885,0,0
0:2:25.050,354.777,45.1744,0,0.000885,0,0
0:2:25.352,355.773,45.2986,0,0.000885,0,0
0:2:25.651,356.654,45.4089,0,0.000885,0,0
0:2:25.948,357.477,45.5123,0,0.000885,0,0
0:2:26.253,357.944,45.5743,0,0.000885,0,0
0:2:26.551,358.825,45.6847,0,0.000885,0,0
0:2:26.843,359.821,45.8157,0,0.000885,0,0
0:2:27.143,360.875,45.9467,0,0.000885,0,0
0:2:27.449,361.872,46.0777,0,0.000885,0,0
0:2:27.753,362.165,46.1121,0,0.000885,0,0
0:2:28.053,362.988,46.2156,0,0.000885,0,0
0:2:28.354,363.34,46.2638,0,0.000885,0,0
0:2:28.658,364.456,46.4017,0,0.000885,0,0
0:2:28.958,365.395,46.5258,0,0.000885,0,0
0:2:29.259,366.449,46.6568,0,0.000885,0,0
0:2:29.559,367.739,46.8223,0,0.000885,0,0
0:2:29.853,367.855,46.8361,0,0.000885,0,0
0:2:30.153,369.265,47.0153,0,0.000885,0,0
0:2:30.447,369.616,47.0636,0,0.000885,0,0
0:2:30.748,370.79,47.2084,0,0.000885,0,0
0:2:31.052,371.609,47.3118,0,0.000885,0,0
0:2:31.349,372.49,47.429,0,0.000885,0,0
0:2:31.655,373.019,47.4911,0,0.000885,0,0
0:2:31.949,373.486,47.5531,0,0.000885,0,0
0:2:32.248,374.425,47.6704,0,0.000885,0,0
0:2:32.552,375.07,47.7531,0,0.000885,0,0
0:2:32.851,375.772,47.8427,0,0.000885,0,0
0:2:33.154,376.595,47.9461,0,0.000885,0,0
0:2:33.454,377.77,48.0978,0,0.000885,0,0
0:2:33.757,378.179,48.153,0,0.000885,0,0
0:2:34.059,379.175,48.2771,0,0.000885,0,0
0:2:34.360,380.114,48.3943,0,0.000885,0,0
0:2:34.660,381.813,48.6149,0,0.000885,0,0
0:2:34.957,382.52,48.7046,0,0.000885,0,0
0:2:35.254,383.339,48.808,0,0.000885,0,0
0:2:35.549,383.748,48.8631,0,0.000885,0,0
0:2:35.848,384.687,48.9804,0,0.000885,0,0
0:2:36.150,385.567,49.0907,0,0.000885,0,0
0:2:36.451,386.212,49.1734,0,0.000885,0,0
0:2:36.754,387.445,49.332,0,0.000885,0,0
0:2:37.050,388.267,49.4354,0,0.000885,0,0
0:2:37.348,388.855,49.5113,0,0.000885,0,0
0:2:37.652,389.793,49.6285,0,0.000885,0,0
0:2:37.953,390.79,49.7595,0,0.000885,0,0
0:2:38.254,391.55,49.856,0,0.000885,0,0
0:2:38.556,392.253,49.9456,0,0.000885,0,0
0:2:38.858,393.249,50.0697,0,0.000885,0,0
0:2:39.160,393.721,50.1318,0,0.000885,0,0
0:2:39.461,394.66,50.249,0,0.000885,0,0
0:2:39.763,395.656,50.3731,0,0.000885,0,0
0:2:40.061,396.301,50.4558,0,0.000885,0,0
0:2:40.355,397.182,50.573,0,0.000885,0,0
0:2:40.652,397.711,50.6351,0,0.000885,0,0
0:2:40.949,398.294,50.7109,0,0.000885,0,0
0:2:41.253,399.352,50.8488,0,0.000885,0,0
0:2:41.553,400.113,50.9454,0,0.000885,0,0
0:2:41.845,400.994,51.0557,0,0.000885,0,0
0:2:42.154,401.697,51.1453,0,0.000885,0,0
0:2:42.449,402.399,51.2349,0,0.000885,0,0
0:2:42.754,403.222,51.3384,0,0.000885,0,0
0:2:43.054,404.334,51.4832,0,0.000885,0,0
0:2:43.356,404.979,51.5659,0,0.000885,0,0
0:2:43.658,405.98,51.69,0,0.000885,0,0
0:2:43.959,406.741,51.7865,0,0.000885,0,0
0:2:44.260,407.68,51.9106,0,0.000885,0,0
0:2:44.560,408.734,52.0416,0,0.000885,0,0
0:2:44.851,409.614,52.1519,0,0.000885,0,0
0:2:45.152,410.144,52.2209,0,0.000885,0,0
0:2:45.454,410.731,52.2967,0,0.000885,0,0
0:2:45.752,411.843,52.4346,0,0.000885,0,0
0:2:46.048,412.666,52.5449,0,0.000885,0,0
0:2:46.354,413.369,52.6346,0,0.000885,0,0
0:2:46.652,414.129,52.7311,0,0.000885,0,0
0:2:46.954,414.895,52.8276,0,0.000885,0,0
0:2:47.254,415.949,52.9586,0,0.000885,0,0
0:2:47.558,416.594,53.0414,0,0.000885,0,0
0:2:47.855,417.474,53.1517,0,0.000885,0,0
0:2:48.152,418.413,53.2758,0,0.000885,0,0
0:2:48.454,419.116,53.3654,0,0.000885,0,0
0:2:48.756,420.17,53.4964,0,0.000885,0,0
0:2:49.058,421.109,53.6205,0,0.000885,0,0
0:2:49.357,421.874,53.7171,0,0.000885,0,0
0:2:49.659,422.399,53.7791,0,0.000885,0,0
0:2:49.954,423.515,53.9239,0,0.000885,0,0
0:2:50.253,424.338,54.0273,0,0.000885,0,0
0:2:50.557,425.335,54.1583,0,0.000885,0,0
0:2:50.856,425.859,54.2204,0,0.000885,0,0
0:2:51.149,426.504,54.3031,0,0.000885,0,0
0:2:51.457,428.15,54.5168,0,0.000885,0,0
0:2:51.754,428.617,54.572,0,0.000885,0,0
0:2:52.056,429.32,54.6616,0,0.000885,0,0
0:2:52.356,429.965,54.7444,0,0.000885,0,0
0:2:52.650,430.437,54.8064,0,0.000885,0,0
0:2:52.958,432.02,55.0064,0,0.000885,0,0
0:2:53.253,432.665,55.0891,0,0.000885,0,0
0:2:53.554,433.252,55.165,0,0.000885,0,0
0:2:53.856,433.662,55.2132,0,0.000885,0,0
0:2:54.158,434.836,55.3649,0,0.000885,0,0
0:2:54.458,435.423,55.4407,0,0.000885,0,0
0:2:54.759,435.89,55.4959,0,0.000885,0,0
0:2:55.056,437.238,55.6683,0,0.000885,0,0
0:2:55.353,438.234,55.7993,0,0.000885,0,0
0:2:55.656,439.293,55.9303,0,0.000885,0,0
0:2:55.957,440.054,56.0268,0,0.000885,0,0
0:2:56.250,440.641,56.1026,0,0.000885,0,0
0:2:56.557,441.637,56.2336,0,0.000885,0,0
0:2:56.854,442.634,56.3577,0,0.000885,0,0
0:2:57.158,443.341,56.4474,0,0.000885,0,0
0:2:57.457,443.924,56.5232,0,0.000885,0,0
0:2:57.750,445.04,56.6611,0,0.000885,0,0
0:2:58.051,445.863,56.7714,0,0.000885,0,0
0:2:58.355,446.975,56.9093,0,0.000885,0,0
0:2:58.656,447.327,56.9576,0,0.000885,0,0
0:2:58.957,448.385,57.0886,0,0.000885,0,0
0:2:59.257,448.968,57.1644,0,0.000885,0,0
0:2:59.558,449.791,57.2679,0,0.000885,0,0
0:2:59.852,450.903,57.4126,0,0.000885,0,0
0:3:0.150,451.023,57.4264,0,0.000885,0,0
0:3:0.455,452.019,57.5505,0,0.000885,0,0
0:3:0.750,453.136,57.6953,0,0.000885,0,0
0:3:1.058,454.248,57.8332,0,0.000885,0,0
0:3:1.351,454.777,57.9022,0,0.000885,0,0
0:3:1.652,455.538,57.9987,0,0.000885,0,0
0:3:1.956,455.774,58.0332,0,0.000885,0,0
0:3:2.254,457.299,58.2262,0,0.000885,0,0
0:3:2.552,458.002,58.3159,0,0.000885,0,0
0:3:2.854,459.056,58.4469,0,0.000885,0,0
0:3:3.154,459.35,58.4882,0,0.000885,0,0
0:3:3.456,459.995,58.571,0,0.000885,0,0
0:3:3.758,461.169,58.7158,0,0.000885,0,0
0:3:4.059,462.166,58.8468,0,0.000885,0,0
0:3:4.359,462.753,58.9226,0,0.000885,0,0
0:3:4.660,463.34,58.9915,0,0.000885,0,0
0:3:4.953,464.159,59.1019,0,0.000885,0,0
0:3:5.254,465.391,59.2535,0,0.000885,0,0
0:3:5.559,466.214,59.357,0,0.000885,0,0
0:3:5.855,466.974,59.4604,0,0.000885,0,0
0:3:6.152,467.677,59.55,0,0.000885,0,0
0:3:6.456,469.029,59.7155,0,0.000885,0,0
0:3:6.757,469.79,59.8189,0,0.000885,0,0
0:3:7.047,470.026,59.8465,0,0.000885,0,0
0:3:7.346,471.316,60.012,0,0.000885,0,0
0:3:7.653,471.552,60.0395,0,0.000885,0,0
0:3:7.957,473.251,60.2533,0,0.000885,0,0
0:3:8.256,473.66,60.3084,0,0.000885,0,0
0:3:8.557,474.425,60.405,0,0.000885,0,0
0:3:8.860,475.128,60.4946,0,0.000885,0,0
0:3:9.160,475.889,60.5911,0,0.000885,0,0
0:3:9.461,476.769,60.7014,0,0.000885,0,0
0:3:9.763,477.414,60.7842,0,0.000885,0,0
0:3:10.056,478.411,60.9152,0,0.000885,0,0
0:3:10.356,479.527,61.0531,0,0.000885,0,0
0:3:10.647,480.172,61.1358,0,0.000885,0,0
0:3:10.957,481.053,61.2461,0,0.000885,0,0
0:3:11.253,481.871,61.3564,0,0.000885,0,0
0:3:11.558,482.343,61.4116,0,0.000885,0,0
0:3:11.857,483.575,61.5702,0,0.000885,0,0
0:3:12.160,484.336,61.6667,0,0.000885,0,0
0:3:12.458,484.571,61.6943,0,0.000885,0,0
0:3:12.755,485.684,61.8391,0,0.000885,0,0
0:3:13.060,486.68,61.9632,0,0.000885,0,0
0:3:13.358,488.148,62.1562,0,0.000885,0,0
0:3:13.660,488.851,62.2459,0,0.000885,0,0
0:3:13.963,489.616,62.3424,0,0.000885,0,0
0:3:14.264,490.025,62.3907,0,0.000885,0,0
0:3:14.564,491.373,62.563,0,0.000885,0,0
0:3:14.865,492.076,62.6527,0,0.000885,0,0
0:3:15.160,492.605,62.7216,0,0.000885,0,0
0:3:15.459,493.601,62.8457,0,0.000885,0,0
0:3:15.752,494.482,62.956,0,0.000885,0,0
0:3:16.053,495.305,63.0663,0,0.000885,0,0
0:3:16.356,496.244,63.1836,0,0.000885,0,0
0:3:16.652,497.004,63.2801,0,0.000885,0,0
0:3:16.957,497.356,63.3283,0,0.000885,0,0
0:3:17.254,498.236,63.4387,0,0.000885,0,0
0:3:17.552,499.642,63.6179,0,0.000885,0,0
0:3:17.854,500.056,63.6662,0,0.000885,0,0
0:3:18.155,501.168,63.811,0,0.000885,0,0
0:3:18.457,501.933,63.9075,0,0.000885,0,0
0:3:18.758,502.809,64.0178,0,0.000885,0,0
0:3:19.060,504.455,64.2316,0,0.000885,0,0
0:3:19.358,504.393,64.2247,0,0.000885,0,0
0:3:19.659,505.158,64.3212,0,0.000885,0,0
0:3:19.953,506.154,64.4453,0,0.000885,0,0
0:3:20.260,506.857,64.5349,0,0.000885,0,0
0:3:20.557,507.208,64.5832,0,0.000885,0,0
0:3:20.860,508.031,64.6866,0,0.000885,0,0
0:3:21.160,509.264,64.8383,0,0.000885,0,0
0:3:21.453,509.673,64.8935,0,0.000885,0,0
0:3:21.752,511.199,65.0865,0,0.000885,0,0
0:3:22.056,511.786,65.1624,0,0.000885,0,0
0:3:22.353,512.431,65.2451,0,0.000885,0,0
0:3:22.649,513.076,65.3278,0,0.000885,0,0
0:3:22.954,513.894,65.4312,0,0.000885,0,0
0:3:23.254,515.362,65.6174,0,0.000885,0,0
0:3:23.558,515.598,65.645,0,0.000885,0,0
0:3:23.859,516.416,65.7553,0,0.000885,0,0
0:3:24.160,517.355,65.8725,0,0.000885,0,0
0:3:24.460,518.293,65.9897,0,0.000885,0,0
0:3:24.761,518.823,66.0587,0,0.000885,0,0
0:3:25.053,520.228,66.2379,0,0.000885,0,0
0:3:25.350,520.522,66.2724,0,0.000885,0,0
0:3:25.659,521.225,66.362,0,0.000885,0,0
0:3:25.954,522.399,66.5137,0,0.000885,0,0
0:3:26.249,523.338,66.6309,0,0.000885,0,0
0:3:26.555,523.689,66.6792,0,0.000885,0,0
0:3:26.854,524.161,66.7413,0,0.000885,0,0
0:3:27.158,525.099,66.8585,0,0.000885,0,0
0:3:27.454,525.976,66.9688,0,0.000885,0,0
0:3:27.753,526.976,67.0998,0,0.000885,0,0
0:3:28.055,528.031,67.2308,0,0.000885,0,0
0:3:28.355,528.791,67.3273,0,0.000885,0,0
0:3:28.657,530.081,67.4928,0,0.000885,0,0
0:3:28.961,530.611,67.5617,0,0.000885,0,0
0:3:29.261,531.665,67.6927,0,0.000885,0,0
0:3:29.561,532.43,67.7893,0,0.000885,0,0
0:3:29.863,533.311,67.8996,0,0.000885,0,0
0:3:30.156,534.071,68.003,0,0.000885,0,0
0:3:30.456,534.716,68.0788,0,0.000885,0,0
0:3:30.759,535.477,68.1823,0,0.000885,0,0
0:3:31.058,537.06,68.3822,0,0.000885,0,0
0:3:31.353,537.532,68.4374,0,0.000885,0,0
0:3:31.657,538.586,68.5753,0,0.000885,0,0
0:3:31.956,539.173,68.6511,0,0.000885,0,0
0:3:32.259,539.703,68.72,0,0.000885,0,0
0:3:32.557,540.348,68.7959,0,0.000885,0,0
0:3:32.849,541.522,68.9476,0,0.000885,0,0
0:3:33.153,541.58,68.9545,0,0.000885,0,0
0:3:33.456,542.812,69.113,0,0.000885,0,0
0:3:33.758,543.573,69.2096,0,0.000885,0,0
0:3:34.059,544.453,69.3199,0,0.000885,0,0
0:3:34.360,545.098,69.4026,0,0.000885,0,0
0:3:34.657,546.153,69.5405,0,0.000885,0,0
0:3:34.950,546.74,69.6164,0,0.000885,0,0
0:3:35.248,547.385,69.6922,0,0.000885,0,0
0:3:35.546,548.208,69.8025,0,0.000885,0,0
0:3:35.860,549.084,69.9128,0,0.000885,0,0
0:3:36.159,549.729,69.9956,0,0.000885,0,0
0:3:36.455,550.668,70.1128,0,0.000885,0,0
0:3:36.760,552.193,70.3058,0,0.000885,0,0
0:3:37.059,553.252,70.4437,0,0.000885,0,0
0:3:37.361,554.191,70.5609,0,0.000885,0,0
0:3:37.661,554.836,70.6437,0,0.000885,0,0
0:3:37.951,554.836,70.6437,0,0.000885,0,0
0:3:38.255,556.419,70.8436,0,0.000885,0,0
0:3:38.557,557.238,70.9471,0,0.000885,0,0
0:3:38.859,557.825,71.0229,0,0.000885,0,0
0:3:39.159,558.585,71.1194,0,0.000885,0,0
0:3:39.460,559.524,71.2435,0,0.000885,0,0
0:3:39.759,560.525,71.3676,0,0.000885,0,0
0:3:40.064,561.05,71.4366,0,0.000885,0,0
0:3:40.359,562.166,71.5745,0,0.000885,0,0
0:3:40.659,562.633,71.6365,0,0.000885,0,0
0:3:40.961,564.275,71.8434,0,0.000885,0,0
0:3:41.260,564.862,71.9192,0,0.000885,0,0
0:3:41.557,565.565,72.0088,0,0.000885,0,0
0:3:41.861,566.388,72.1123,0,0.000885,0,0
0:3:42.159,566.566,72.1398,0,0.000885,0,0
0:3:42.455,568.207,72.3467,0,0.000885,0,0
0:3:42.751,568.674,72.4087,0,0.000885,0,0
0:3:43.045,569.497,72.5122,0,0.000885,0,0
0:3:43.345,570.258,72.6087,0,0.000885,0,0
0:3:43.648,570.903,72.6914,0,0.000885,0,0
0:3:43.950,572.193,72.8569,0,0.000885,0,0
0:3:44.250,572.838,72.9327,0,0.000885,0,0
0:3:44.549,573.309,72.9948,0,0.000885,0,0
0:3:44.848,574.363,73.1327,0,0.000885,0,0
0:3:45.145,575.422,73.2637,0,0.000885,0,0
0:3:45.440,576.24,73.3671,0,0.000885,0,0
0:3:45.739,577.651,73.5464,0,0.000885,0,0
0:3:46.031,578.002,73.5946,0,0.000885,0,0
0:3:46.331,578.647,73.6774,0,0.000885,0,0
0:3:46.627,579.528,73.7877,0,0.000885,0,0
0:3:46.924,580.346,73.8911,0,0.000885,0,0
0:3:47.220,581.111,73.9876,0,0.000885,0,0
0:3:47.514,582.223,74.1324,0,0.000885,0,0
0:3:47.814,582.753,74.2014,0,0.000885,0,0
0:3:48.109,583.455,74.291,0,0.000885,0,0
0:3:48.409,584.394,74.4082,0,0.000885,0,0
0:3:48.711,585.212,74.5116,0,0.000885,0,0
0:3:49.014,586.035,74.6151,0,0.000885,0,0
0:3:49.314,586.565,74.684,0,0.000885,0,0
0:3:49.615,587.561,74.8081,0,0.000885,0,0
0:3:49.914,588.148,74.884,0,0.000885,0,0
0:3:50.213,588.793,74.9667,0,0.000885,0,0
0:3:50.508,590.025,75.1253,0,0.000885,0,0
0:3:50.809,590.377,75.1666,0,0.000885,0,0
0:3:51.104,591.378,75.2976,0,0.000885,0,0
0:3:51.404,592.316,75.4149,0,0.000885,0,0
0:3:51.700,593.313,75.5459,0,0.000885,0,0
0:3:51.999,594.016,75.6355,0,0.000885,0,0
0:3:52.298,595.074,75.7665,0,0.000885,0,0
0:3:52.594,595.777,75.8561,0,0.000885,0,0
0:3:52.895,595.835,75.863,0,0.000885,0,0
0:3:53.191,596.836,75.994,0,0.000885,0,0
0:3:53.494,597.365,76.0561,0,0.000885,0,0
0:3:53.799,599.3,76.3043,0,0.000885,0,0
0:3:54.101,599.536,76.3319,0,0.000885,0,0
0:3:54.404,600.768,76.4904,0,0.000885,0,0
0:3:54.706,601.119,76.5387,0,0.000885,0,0
0:3:55.004,602.645,76.7318,0,0.000885,0,0
0:3:55.302,603.352,76.8214,0,0.000885,0,0
0:3:55.599,604.349,76.9455,0,0.000885,0,0
0:3:55.901,605.172,77.0558,0,0.000885,0,0
0:3:56.195,606.11,77.173,0,0.000885,0,0
0:3:56.495,606.991,77.2833,0,0.000885,0,0
0:3:56.793,607.752,77.3799,0,0.000885,0,0
0:3:57.088,608.517,77.4764,0,0.000885,0,0
0:3:57.388,608.752,77.5109,0,0.000885,0,0
0:3:57.683,609.513,77.6074,0,0.000885,0,0
0:3:57.986,610.278,77.7039,0,0.000885,0,0
0:3:58.291,610.687,77.7522,0,0.000885,0,0
0:3:58.593,611.92,77.9108,0,0.000885,0,0
0:3:58.896,612.978,78.0487,0,0.000885,0,0
0:3:59.199,613.975,78.1728,0,0.000885,0,0
0:3:59.499,615.207,78.3313,0,0.000885,0,0
0:3:59.798,615.5,78.3658,0,0.000885,0,0
0:4:0.094,616.03,78.4348,0,0.000885,0,0
0:4:0.393,616.911,78.5451,0,0.000885,0,0
0:4:0.689,618.085,78.6968,0,0.000885,0,0
0:4:0.990,618.494,78.7519,0,0.000885,0,0
0:4:1.285,619.726,78.9036,0,0.000885,0,0
0:4:1.585,620.198,78.9657,0,0.000885,0,0
0:4:1.883,620.843,79.0484,0,0.000885,0,0
0:4:2.177,622.426,79.2483,0,0.000885,0,0
0:4:2.478,622.84,79.3035,0,0.000885,0,0
0:4:2.773,623.427,79.3793,0,0.000885,0,0
0:4:3.076,624.072,79.4621,0,0.000885,0,0
0:4:3.380,624.659,79.531,0,0.000885,0,0
0:4:3.684,625.771,79.6758,0,0.000885,0,0
0:4:3.986,626.536,79.7723,0,0.000885,0,0
0:4:4.287,627.826,79.9378,0,0.000885,0,0
0:4:4.587,628.471,80.0206,0,0.000885,0,0
0:4:4.883,629.059,80.0964,0,0.000885,0,0
0:4:5.183,630.002,80.2136,0,0.000885,0,0
0:4:5.481,630.233,80.2412,0,0.000885,0,0
0:4:5.776,630.94,80.3308,0,0.000885,0,0
0:4:6.078,632.582,80.5446,0,0.000885,0,0
0:4:6.373,633.227,80.6273,0,0.000885,0,0
0:4:6.670,633.814,80.7031,0,0.000885,0,0
0:4:6.968,634.401,80.7721,0,0.000885,0,0
0:4:7.264,635.695,80.9376,0,0.000885,0,0
0:4:7.565,636.283,81.0134,0,0.000885,0,0
0:4:7.858,637.221,81.1306,0,0.000885,0,0
0:4:8.161,638.217,81.2616,0,0.000885,0,0
0:4:8.465,639.507,81.4271,0,0.000885,0,0
0:4:8.768,640.095,81.5029,0,0.000885,0,0
0:4:9.070,640.86,81.5995,0,0.000885,0,0
0:4:9.371,641.798,81.7167,0,0.000885,0,0
0:4:9.672,643.324,81.9097,0,0.000885,0,0
0:4:9.968,643.444,81.9235,0,0.000885,0,0
0:4:10.266,644.676,82.0821,0,0.000885,0,0
0:4:10.566,646.082,82.2613,0,0.000885,0,0
0:4:10.860,646.496,82.3165,0,0.000885,0,0
0:4:11.161,646.905,82.3648,0,0.000885,0,0
0:4:11.468,648.257,82.5371,0,0.000885,0,0
0:4:11.766,648.844,82.613,0,0.000885,0,0
0:4:12.063,649.076,82.6406,0,0.000885,0,0
0:4:12.358,650.192,82.7854,0,0.000885,0,0
0:4:12.660,650.544,82.8267,0,0.000885,0,0
0:4:12.952,651.131,82.9026,0,0.000885,0,0
0:4:13.254,652.132,83.0336,0,0.000885,0,0
0:4:13.560,652.95,83.137,0,0.000885,0,0
0:4:13.865,654.596,83.3438,0,0.000885,0,0
0:4:14.166,654.769,83.3714,0,0.000885,0,0
0:4:14.466,656.122,83.5369,0,0.000885,0,0
0:4:14.768,657.118,83.6679,0,0.000885,0,0
0:4:15.065,657.469,83.7092,0,0.000885,0,0
0:4:15.360,658.234,83.8058,0,0.000885,0,0
0:4:15.662,659.115,83.923,0,0.000885,0,0
0:4:15.955,660.232,84.0609,0,0.000885,0,0
0:4:16.255,660.463,84.0954,0,0.000885,0,0
0:4:16.564,661.286,84.1988,0,0.000885,0,0
0:4:16.861,662.638,84.3711,0,0.000885,0,0
0:4:17.161,663.283,84.4539,0,0.000885,0,0
0:4:17.466,664.4,84.5918,0,0.000885,0,0
0:4:17.768,665.338,84.7159,0,0.000885,0,0
0:4:18.063,666.219,84.8262,0,0.000885,0,0
0:4:18.365,666.864,84.9089,0,0.000885,0,0
0:4:18.670,667.331,84.9641,0,0.000885,0,0
0:4:18.973,668.096,85.0675,0,0.000885,0,0
0:4:19.273,668.919,85.1709,0,0.000885,0,0
0:4:19.575,669.564,85.2537,0,0.000885,0,0
0:4:19.875,670.561,85.3778,0,0.000885,0,0
0:4:20.173,672.028,85.5639,0,0.000885,0,0
0:4:20.467,672.673,85.6467,0,0.000885,0,0
0:4:20.769,673.261,85.7225,0,0.000885,0,0
0:4:21.063,673.67,85.7777,0,0.000885,0,0
0:4:21.364,674.435,85.8742,0,0.000885,0,0
0:4:21.659,675.667,86.0259,0,0.000885,0,0
0:4:21.956,676.726,86.1638,0,0.000885,0,0
0:4:22.268,677.722,86.2879,0,0.000885,0,0
0:4:22.561,678.194,86.3499,0,0.000885,0,0
0:4:22.863,678.839,86.4327,0,0.000885,0,0
0:4:23.158,679.719,86.543,0,0.000885,0,0
0:4:23.461,680.186,86.605,0,0.000885,0,0
0:4:23.766,681.245,86.736,0,0.000885,0,0
0:4:24.068,681.774,86.805,0,0.000885,0,0
0:4:24.369,682.771,86.936,0,0.000885,0,0
0:4:24.670,684.119,87.1015,0,0.000885,0,0
0:4:24.971,684.884,87.2049,0,0.000885,0,0
0:4:25.268,685.471,87.2738,0,0.000885,0,0
0:4:25.565,686.525,87.4117,0,0.000885,0,0
0:4:25.865,687.055,87.4807,0,0.000885,0,0
0:4:26.160,688.229,87.6255,0,0.000885,0,0
0:4:26.461,688.874,87.7082,0,0.000885,0,0
0:4:26.766,689.167,87.7496,0,0.000885,0,0
0:4:27.064,690.578,87.9288,0,0.000885,0,0
0:4:27.364,691.107,87.9909,0,0.000885,0,0
0:4:27.669,692.045,88.115,0,0.000885,0,0
0:4:27.969,692.512,88.1771,0,0.000885,0,0
0:4:28.274,693.278,88.2736,0,0.000885,0,0
0:4:28.576,694.1,88.377,0,0.000885,0,0
0:4:28.879,695.333,88.5356,0,0.000885,0,0
0:4:29.180,696.271,88.6528,0,0.000885,0,0
0:4:29.481,696.801,88.7217,0,0.000885,0,0
0:4:29.779,698.033,88.8734,0,0.000885,0,0
0:4:30.078,698.562,88.9424,0,0.000885,0,0
0:4:30.376,699.558,89.0734,0,0.000885,0,0
0:4:30.672,700.675,89.2113,0,0.000885,0,0
0:4:30.972,701.142,89.2733,0,0.000885,0,0
0:4:31.267,702.023,89.3836,0,0.000885,0,0
0:4:31.569,702.668,89.4664,0,0.000885,0,0
0:4:31.864,703.317,89.5491,0,0.000885,0,0
0:4:32.160,704.078,89.6456,0,0.000885,0,0
0:4:32.470,705.252,89.7973,0,0.000885,0,0
0:4:32.765,706.542,89.9628,0,0.000885,0,0
0:4:33.067,707.249,90.0524,0,0.000885,0,0
0:4:33.371,707.601,90.0938,0,0.000885,0,0
0:4:33.673,708.655,90.2317,0,0.000885,0,0
0:4:33.975,709.656,90.3558,0,0.000885,0,0
0:4:34.278,710.065,90.411,0,0.000885,0,0
0:4:34.579,711.182,90.5488,0,0.000885,0,0
0:4:34.875,712.062,90.6592,0,0.000885,0,0
0:4:35.175,712.765,90.7488,0,0.000885,0,0
0:4:35.472,713.646,90.866,0,0.000885,0,0
0:4:35.767,714.175,90.935,0,0.000885,0,0
0:4:36.068,715.23,91.066,0,0.000885,0,0
0:4:36.362,715.407,91.0866,0,0.000885,0,0
0:4:36.661,716.462,91.2245,0,0.000885,0,0
0:4:36.961,718.285,91.4521,0,0.000885,0,0
0:4:37.267,718.695,91.5072,0,0.000885,0,0
0:4:37.567,718.93,91.5348,0,0.000885,0,0
0:4:37.861,719.927,91.6658,0,0.000885,0,0
0:4:38.165,720.923,91.7899,0,0.000885,0,0
0:4:38.468,721.395,91.852,0,0.000885,0,0
0:4:38.771,722.155,91.9485,0,0.000885,0,0
0:4:39.073,723.392,92.1071,0,0.000885,0,0
0:4:39.375,724.388,92.2312,0,0.000885,0,0
0:4:39.676,725.211,92.3346,0,0.000885,0,0
0:4:39.971,725.799,92.4104,0,0.000885,0,0
0:4:40.270,726.323,92.4794,0,0.000885,0,0
0:4:40.569,726.795,92.5414,0,0.000885,0,0
0:4:40.864,728.792,92.7896,0,0.000885,0,0
0:4:41.165,729.789,92.9206,0,0.000885,0,0
0:4:41.458,729.846,92.9275,0,0.000885,0,0
0:4:41.769,730.554,93.0172,0,0.000885,0,0
0:4:42.067,731.079,93.0861,0,0.000885,0,0
0:4:42.364,732.84,93.3068,0,0.000885,0,0
0:4:42.662,733.547,93.3964,0,0.000885,0,0
0:4:42.967,733.899,93.4446,0,0.000885,0,0
0:4:43.269,734.366,93.4998,0,0.000885,0,0
0:4:43.574,736.247,93.7411,0,0.000885,0,0
0:4:43.878,736.599,93.7894,0,0.000885,0,0
0:4:44.179,736.714,93.8032,0,0.000885,0,0
0:4:44.479,737.889,93.948,0,0.000885,0,0
0:4:44.782,738.827,94.0721,0,0.000885,0,0
0:4:45.077,740.06,94.2306,0,0.000885,0,0
0:4:45.377,741.292,94.3823,0,0.000885,0,0
0:4:45.673,741.292,94.3823,0,0.000885,0,0
0:4:45.968,742.057,94.4789,0,0.000885,0,0
0:4:46.270,743.583,94.6788,0,0.000885,0,0
0:4:46.565,744.521,94.796,0,0.000885,0,0
0:4:46.866,744.993,94.8581,0,0.000885,0,0
0:4:47.170,745.517,94.9201,0,0.000885,0,0
0:4:47.469,746.518,95.0511,0,0.000885,0,0
0:4:47.768,747.573,95.1821,0,0.000885,0,0
0:4:48.061,747.986,95.2373,0,0.000885,0,0
0:4:48.362,748.747,95.3338,0,0.000885,0,0
0:4:48.668,750.157,95.5131,0,0.000885,0,0
0:4:48.970,750.744,95.5889,0,0.000885,0,0
0:4:49.273,751.976,95.7475,0,0.000885,0,0
0:4:49.573,752.212,95.7751,0,0.000885,0,0
0:4:49.875,752.563,95.8164,0,0.000885,0,0
0:4:50.170,754.147,96.0233,0,0.000885,0,0
0:4:50.470,754.734,96.0991,0,0.000885,0,0
0:4:50.768,755.557,96.2025,0,0.000885,0,0
0:4:51.066,756.202,96.2853,0,0.000885,0,0
0:4:51.365,757.141,96.4025,0,0.000885,0,0
0:4:51.658,758.142,96.5266,0,0.000885,0,0
0:4:51.962,759.022,96.6438,0,0.000885,0,0
0:4:52.266,759.374,96.6852,0,0.000885,0,0
0:4:52.565,760.606,96.8438,0,0.000885,0,0
0:4:52.861,761.487,96.9541,0,0.000885,0,0
0:4:53.166,762.132,97.0368,0,0.000885,0,0
0:4:53.469,762.834,97.1264,0,0.000885,0,0
0:4:53.772,763.715,97.2368,0,0.000885,0,0
0:4:54.074,764.889,97.3884,0,0.000885,0,0
0:4:54.375,765.534,97.4712,0,0.000885,0,0
0:4:54.674,766.064,97.5401,0,0.000885,0,0
0:4:54.972,767.002,97.6573,0,0.000885,0,0
0:4:55.269,768.061,97.7952,0,0.000885,0,0
0:4:55.570,768.47,97.8435,0,0.000885,0,0
0:4:55.862,768.942,97.9056,0,0.000885,0,0
0:4:56.165,770.761,98.1331,0,0.000885,0,0
0:4:56.458,771.29,98.202,0,0.000885,0,0
0:4:56.755,771.993,98.2917,0,0.000885,0,0
0:4:57.054,772.758,98.3882,0,0.000885,0,0
0:4:57.359,773.755,98.5192,0,0.000885,0,0
0:4:57.659,774.515,98.6157,0,0.000885,0,0
0:4:57.954,775.69,98.7674,0,0.000885,0,0
0:4:58.256,776.277,98.8363,0,0.000885,0,0
0:4:58.559,776.277,98.8363,0,0.000885,0,0
0:4:58.866,778.159,99.0777,0,0.000885,0,0
0:4:59.167,778.804,99.1604,0,0.000885,0,0
0:4:59.469,779.449,99.2431,0,0.000885,0,0
0:4:59.768,780.209,99.3397,0,0.000885,0,0
0:5:0.066,781.384,99.4913,0,0.000885,0,0
0:5:0.362,781.855,99.5465,0,0.000885,0,0
0:5:0.659,782.736,99.6637,0,0.000885,0,0
0:5:0.966,783.968,99.8154,0,0.000885,0,0
0:5:1.266,784.262,99.8568,0,0.000885,0,0
0:5:1.571,785.551,100.022,0,0.000885,0,0
0:5:1.869,786.668,100.16,0,0.000885,0,0
0:5:2.168,787.371,100.25,0,0.000885,0,0
0:5:2.464,788.078,100.339,0,0.000885,0,0
0:5:2.766,788.372,100.381,0,0.000885,0,0
0:5:3.070,789.19,100.484,0,0.000885,0,0
0:5:3.371,790.307,100.622,0,0.000885,0,0
0:5:3.675,791.245,100.746,0,0.000885,0,0
0:5:3.979,791.775,100.815,0,0.000885,0,0
0:5:4.281,792.54,100.912,0,0.000885,0,0
0:5:4.580,793.478,101.029,0,0.000885,0,0
0:5:4.883,794.003,101.098,0,0.000885,0,0
0:5:5.179,795.471,101.284,0,0.000885,0,0
0:5:5.478,795.885,101.332,0,0.000885,0,0
0:5:5.778,796.588,101.422,0,0.000885,0,0
0:5:6.072,797.584,101.553,0,0.000885,0,0
0:5:6.373,798.7,101.691,0,0.000885,0,0
0:5:6.668,799.466,101.794,0,0.000885,0,0
0:5:6.968,799.759,101.829,0,0.000885,0,0
0:5:7.274,800.871,101.973,0,0.000885,0,0
0:5:7.572,802.223,102.139,0,0.000885,0,0
0:5:7.871,802.575,102.187,0,0.000885,0,0
0:5:8.174,803.046,102.249,0,0.000885,0,0
0:5:8.478,804.278,102.401,0,0.000885,0,0
0:5:8.780,805.568,102.566,0,0.000885,0,0
0:5:9.081,805.568,102.566,0,0.000885,0,0
0:5:9.382,806.213,102.649,0,0.000885,0,0
0:5:9.678,807.801,102.849,0,0.000885,0,0
0:5:9.980,808.033,102.884,0,0.000885,0,0
0:5:10.273,809.034,103.008,0,0.000885,0,0
0:5:10.571,810.088,103.146,0,0.000885,0,0
0:5:10.870,810.324,103.173,0,0.000885,0,0
0:5:11.167,810.795,103.235,0,0.000885,0,0
0:5:11.467,812.201,103.414,0,0.000885,0,0
0:5:11.770,812.846,103.497,0,0.000885,0,0
0:5:12.072,813.669,103.601,0,0.000885,0,0
0:5:12.367,814.901,103.759,0,0.000885,0,0
0:5:12.665,815.608,103.849,0,0.000885,0,0
0:5:12.974,817.192,104.049,0,0.000885,0,0
0:5:13.275,816.898,104.007,0,0.000885,0,0
0:5:13.581,818.424,104.207,0,0.000885,0,0
0:5:13.883,819.011,104.276,0,0.000885,0,0
0:5:14.184,819.656,104.359,0,0.000885,0,0
0:5:14.484,821.066,104.538,0,0.000885,0,0
0:5:14.781,821.182,104.559,0,0.000885,0,0
0:5:15.080,822.476,104.718,0,0.000885,0,0
0:5:15.376,823.766,104.883,0,0.000885,0,0
0:5:15.677,824.295,104.952,0,0.000885,0,0
0:5:15.972,825.176,105.062,0,0.000885,0,0
0:5:16.270,825.408,105.097,0,0.000885,0,0
0:5:16.569,825.937,105.159,0,0.000885,0,0
0:5:16.873,827.169,105.317,0,0.000885,0,0
0:5:17.174,828.521,105.49,0,0.000885,0,0
0:5:17.469,828.815,105.531,0,0.000885,0,0
0:5:17.768,829.108,105.566,0,0.000885,0,0
0:5:18.074,830.692,105.766,0,0.000885,0,0
0:5:18.376,831.688,105.897,0,0.000885,0,0
0:5:18.681,832.044,105.938,0,0.000885,0,0
0:5:18.984,832.863,106.041,0,0.000885,0,0
0:5:19.285,832.863,106.041,0,0.000885,0,0
0:5:19.587,833.334,106.103,0,0.000885,0,0
0:5:19.886,834.273,106.221,0,0.000885,0,0
0:5:20.184,834.682,106.276,0,0.000885,0,0
0:5:20.480,835.799,106.421,0,0.000885,0,0
0:5:20.782,837.209,106.6,0,0.000885,0,0
0:5:21.074,837.618,106.648,0,0.000885,0,0
0:5:21.375,838.499,106.758,0,0.000885,0,0
0:5:21.671,839.615,106.903,0,0.000885,0,0
0:5:21.969,840.26,106.986,0,0.000885,0,0
0:5:22.269,841.377,107.124,0,0.000885,0,0
0:5:22.573,843.369,107.379,0,0.000885,0,0
0:5:22.874,843.605,107.413,0,0.000885,0,0
0:5:23.169,844.78,107.558,0,0.000885,0,0
0:5:23.470,845.66,107.675,0,0.000885,0,0
0:5:23.775,846.483,107.779,0,0.000885,0,0
0:5:24.078,847.128,107.862,0,0.000885,0,0
0:5:24.379,847.715,107.937,0,0.000885,0,0
0:5:24.681,848.77,108.068,0,0.000885,0,0
0:5:24.982,848.067,107.979,0,0.000885,0,0
0:5:25.278,847.48,107.903,0,0.000885,0,0
0:5:25.574,844.486,107.524,0,0.000885,0,0
0:5:25.875,843.369,107.379,0,0.000885,0,0
0:5:26.167,841.612,107.158,0,0.000885,0,0
0:5:26.468,824.118,104.931,0,0.000885,0,0
0:5:26.771,798.527,101.67,0,0.000885,0,0
0:5:27.069,793.652,101.05,0,0.000885,0,0
0:5:27.366,649.783,82.7302,0,0.000885,0,0
0:5:27.671,638.511,81.2961,0,0.000885,0,0