File: DataFile2021-06-24_063505.csv
Test ID:,Date Tested:,Time:,Test Type:,Diameter Avg. (mm):,Cyl. Corr. Factor:,Height (mm):,Age (days):,Weight (kN):,Break Type:,Ramp Rate (MPa/s):,Load at Break (kN):,Stress at Break (MPa):
12,6/24/2021,06:35,Cylinder,150,1,300,0,3.6,2,0.24,597.01,33.78
Sample Time,Load (kN),Stress (MPa),Long. Strain,Trans. Strain,Chan1 Deflection (mm),Chan2 Deflection (mm)
0:0:23.242,5.92503,0.337843,0,0.000885,0,0
0:0:23.440,17.5349,0.992845,0,0.000885,0,0
0:0:23.637,19.0606,1.07558,0,0.000885,0,0
0:0:23.840,19.2964,1.08937,0,0.000885,0,0
0:0:24.034,18.5936,1.0549,0,0.000885,0,0
0:0:24.234,18.3,1.03421,0,0.000885,0,0
0:0:24.442,17.8285,1.00663,0,0.000885,0,0
0:0:24.638,17.7706,1.00663,0,0.000885,0,0
0:0:24.840,17.2413,0.979056,0,0.000885,0,0
0:0:25.035,17.1835,0.972161,0,0.000885,0,0
0:0:25.233,17.1257,0.972161,0,0.000885,0,0
0:0:25.432,17.3614,0.979056,0,0.000885,0,0
0:0:25.625,17.4192,0.98595,0,0.000885,0,0
0:0:25.827,17.5349,0.992845,0,0.000885,0,0
0:0:26.036,17.2413,0.979056,0,0.000885,0,0
0:0:26.232,16.9522,0.958371,0,0.000885,0,0
0:0:26.434,18.3,1.03421,0,0.000885,0,0
0:0:26.639,18.8871,1.06869,0,0.000885,0,0
0:0:26.839,19.6478,1.11006,0,0.000885,0,0
0:0:27.037,19.9992,1.13074,0,0.000885,0,0
0:0:27.235,21.2892,1.20658,0,0.000885,0,0
0:0:27.438,21.7607,1.23416,0,0.000885,0,0
0:0:27.632,23.5756,1.33758,0,0.000885,0,0
0:0:27.835,24.3985,1.37895,0,0.000885,0,0
0:0:28.032,25.0435,1.42032,0,0.000885,0,0
0:0:28.240,26.6271,1.50995,0,0.000885,0,0
0:0:28.443,28.6199,1.62027,0,0.000885,0,0
0:0:28.645,29.5584,1.67543,0,0.000885,0,0
0:0:28.848,30.5548,1.73058,0,0.000885,0,0
0:0:29.051,31.7292,1.79264,0,0.000885,0,0
0:0:29.254,33.1971,1.87537,0,0.000885,0,0
0:0:29.454,34.1357,1.93053,0,0.000885,0,0
0:0:29.656,34.7228,1.96501,0,0.000885,0,0
0:0:29.857,36.2441,2.04774,0,0.000885,0,0
0:0:30.059,36.6,2.06843,0,0.000885,0,0
0:0:30.257,37.712,2.13737,0,0.000885,0,0
0:0:30.458,38.1213,2.15806,0,0.000885,0,0
0:0:30.655,39.1799,2.22011,0,0.000885,0,0
0:0:30.855,39.5313,2.2339,0,0.000885,0,0
0:0:31.056,40.5277,2.29595,0,0.000885,0,0
0:0:31.252,40.937,2.31664,0,0.000885,0,0
0:0:31.452,41.7021,2.35801,0,0.000885,0,0
0:0:31.650,42.3471,2.39938,0,0.000885,0,0
0:0:31.849,43.517,2.46143,0,0.000885,0,0
0:0:32.051,44.0463,2.4959,0,0.000885,0,0
0:0:32.248,45.3941,2.57174,0,0.000885,0,0
0:0:32.448,45.6877,2.58553,0,0.000885,0,0
0:0:32.647,46.8042,2.64759,0,0.000885,0,0
0:0:32.844,47.3291,2.67517,0,0.000885,0,0
0:0:33.046,48.9126,2.7648,0,0.000885,0,0
0:0:33.243,49.2685,2.78548,0,0.000885,0,0
0:0:33.442,49.9713,2.82685,0,0.000885,0,0
0:0:33.644,51.7284,2.93027,0,0.000885,0,0
0:0:33.847,52.1999,2.95096,0,0.000885,0,0
0:0:34.050,53.6633,3.03369,0,0.000885,0,0
0:0:34.252,54.2505,3.06817,0,0.000885,0,0
0:0:34.454,55.4248,3.13711,0,0.000885,0,0
0:0:34.654,56.012,3.17159,0,0.000885,0,0
0:0:34.857,57.0084,3.22675,0,0.000885,0,0
0:0:35.059,57.7112,3.26811,0,0.000885,0,0
0:0:35.260,58.3562,3.30259,0,0.000885,0,0
0:0:35.457,58.9434,3.33706,0,0.000885,0,0
0:0:35.659,60.4113,3.4198,0,0.000885,0,0
0:0:35.853,61.3499,3.47496,0,0.000885,0,0
0:0:36.054,62.582,3.54391,0,0.000885,0,0
0:0:36.254,62.582,3.54391,0,0.000885,0,0
0:0:36.451,64.1033,3.62664,0,0.000885,0,0
0:0:36.652,64.6905,3.66112,0,0.000885,0,0
0:0:36.848,65.807,3.72317,0,0.000885,0,0
0:0:37.049,65.9805,3.73696,0,0.000885,0,0
0:0:37.250,67.2705,3.80591,0,0.000885,0,0
0:0:37.446,68.1512,3.85417,0,0.000885,0,0
0:0:37.649,69.3255,3.92312,0,0.000885,0,0
0:0:37.846,69.9127,3.95759,0,0.000885,0,0
0:0:38.043,70.3798,3.98517,0,0.000885,0,0
0:0:38.245,71.7898,4.06101,0,0.000885,0,0
0:0:38.440,72.7863,4.11617,0,0.000885,0,0
0:0:38.642,73.8405,4.17822,0,0.000885,0,0
0:0:38.844,74.0184,4.18512,0,0.000885,0,0
0:0:39.048,75.3662,4.26785,0,0.000885,0,0
0:0:39.251,76.4783,4.32991,0,0.000885,0,0
0:0:39.454,77.1855,4.36438,0,0.000885,0,0
0:0:39.656,77.9462,4.41264,0,0.000885,0,0
0:0:39.857,78.7691,4.45401,0,0.000885,0,0
0:0:40.059,79.4141,4.49538,0,0.000885,0,0
0:0:40.261,80.7619,4.57122,0,0.000885,0,0
0:0:40.458,81.1133,4.59191,0,0.000885,0,0
0:0:40.659,82.4033,4.66086,0,0.000885,0,0
0:0:40.859,82.9905,4.69533,0,0.000885,0,0
0:0:41.055,84.3961,4.77807,0,0.000885,0,0
0:0:41.257,84.6319,4.79186,0,0.000885,0,0
0:0:41.455,86.3355,4.88838,0,0.000885,0,0
0:0:41.655,86.7448,4.90907,0,0.000885,0,0
0:0:41.856,87.9191,4.97801,0,0.000885,0,0
0:0:42.050,88.3862,4.9987,0,0.000885,0,0
0:0:42.252,89.5605,5.06765,0,0.000885,0,0
0:0:42.451,90.2633,5.10902,0,0.000885,0,0
0:0:42.650,91.7891,5.19175,0,0.000885,0,0
0:0:42.852,92.6075,5.24002,0,0.000885,0,0
0:0:43.046,93.079,5.26759,0,0.000885,0,0
0:0:43.249,94.0754,5.32275,0,0.000885,0,0
0:0:43.447,94.6048,5.35033,0,0.000885,0,0
0:0:43.645,95.4811,5.40549,0,0.000885,0,0
0:0:43.848,95.9526,5.43307,0,0.000885,0,0
0:0:44.049,97.7096,5.5296,0,0.000885,0,0
0:0:44.252,98.0032,5.54338,0,0.000885,0,0
0:0:44.456,99.1197,5.61233,0,0.000885,0,0
0:0:44.657,99.9426,5.6537,0,0.000885,0,0
0:0:44.859,101.233,5.72954,0,0.000885,0,0
0:0:45.061,102.051,5.77781,0,0.000885,0,0
0:0:45.262,102.816,5.81918,0,0.000885,0,0
0:0:45.462,103.461,5.85365,0,0.000885,0,0
0:0:45.659,104.515,5.9157,0,0.000885,0,0
0:0:45.861,105.276,5.95707,0,0.000885,0,0
0:0:46.059,106.272,6.01223,0,0.000885,0,0
0:0:46.260,106.802,6.0467,0,0.000885,0,0
0:0:46.459,108.092,6.11565,0,0.000885,0,0
0:0:46.656,108.679,6.15012,0,0.000885,0,0
0:0:46.859,110.027,6.22597,0,0.000885,0,0
0:0:47.055,110.498,6.25354,0,0.000885,0,0
0:0:47.256,111.73,6.32249,0,0.000885,0,0
0:0:47.455,112.491,6.36386,0,0.000885,0,0
0:0:47.651,113.487,6.41902,0,0.000885,0,0
0:0:47.854,114.31,6.46728,0,0.000885,0,0
0:0:48.051,115.249,6.52244,0,0.000885,0,0
0:0:48.251,116.01,6.56381,0,0.000885,0,0
0:0:48.453,116.245,6.5776,0,0.000885,0,0
0:0:48.656,117.593,6.65344,0,0.000885,0,0
0:0:48.859,118.18,6.68791,0,0.000885,0,0
0:0:49.062,119.528,6.76376,0,0.000885,0,0
0:0:49.264,119.822,6.77755,0,0.000885,0,0
0:0:49.466,121.583,6.88097,0,0.000885,0,0
0:0:49.667,121.992,6.90165,0,0.000885,0,0
0:0:49.870,122.873,6.94992,0,0.000885,0,0
0:0:50.069,124.048,7.01886,0,0.000885,0,0
0:0:50.267,125.28,7.08781,0,0.000885,0,0
0:0:50.469,126.214,7.14297,0,0.000885,0,0
0:0:50.665,127.273,7.20502,0,0.000885,0,0
0:0:50.866,127.566,7.21881,0,0.000885,0,0
0:0:51.064,129.15,7.30844,0,0.000885,0,0
0:0:51.262,129.323,7.31534,0,0.000885,0,0
0:0:51.466,129.91,7.34981,0,0.000885,0,0
0:0:51.660,130.32,7.37739,0,0.000885,0,0
0:0:51.861,132.023,7.47392,0,0.000885,0,0
0:0:52.060,132.61,7.5015,0,0.000885,0,0
0:0:52.259,134.132,7.59113,0,0.000885,0,0
0:0:52.461,134.719,7.6256,0,0.000885,0,0
0:0:52.657,135.778,7.68076,0,0.000885,0,0
0:0:52.857,136.36,7.71523,0,0.000885,0,0
0:0:53.056,136.89,7.74971,0,0.000885,0,0
0:0:53.254,137.77,7.79797,0,0.000885,0,0
0:0:53.456,138.3,7.82555,0,0.000885,0,0
0:0:53.659,139.647,7.90139,0,0.000885,0,0
0:0:53.862,140.292,7.93587,0,0.000885,0,0
0:0:54.064,141.934,8.03239,0,0.000885,0,0
0:0:54.266,142.405,8.05997,0,0.000885,0,0
0:0:54.467,143.753,8.13581,0,0.000885,0,0
0:0:54.669,144.105,8.1565,0,0.000885,0,0
0:0:54.871,145.337,8.22545,0,0.000885,0,0
0:0:55.071,145.746,8.24613,0,0.000885,0,0
0:0:55.268,147.036,8.32197,0,0.000885,0,0
0:0:55.470,147.445,8.34266,0,0.000885,0,0
0:0:55.668,148.855,8.42539,0,0.000885,0,0
0:0:55.868,149.678,8.46676,0,0.000885,0,0
0:0:56.067,150.675,8.52881,0,0.000885,0,0
0:0:56.264,151.2,8.55639,0,0.000885,0,0
0:0:56.466,152.61,8.63913,0,0.000885,0,0
0:0:56.664,152.845,8.64603,0,0.000885,0,0
0:0:56.864,154.367,8.73566,0,0.000885,0,0
0:0:57.064,154.66,8.74945,0,0.000885,0,0
0:0:57.260,156.012,8.82529,0,0.000885,0,0
0:0:57.462,156.773,8.87355,0,0.000885,0,0
0:0:57.660,158.179,8.94939,0,0.000885,0,0
0:0:57.859,158.65,8.97697,0,0.000885,0,0
0:0:58.059,159.469,9.02524,0,0.000885,0,0
0:0:58.256,160.349,9.0735,0,0.000885,0,0
0:0:58.457,160.701,9.09418,0,0.000885,0,0
0:0:58.658,161.933,9.16313,0,0.000885,0,0
0:0:58.862,162.284,9.18382,0,0.000885,0,0
0:0:59.065,163.343,9.24587,0,0.000885,0,0
0:0:59.267,164.162,9.28724,0,0.000885,0,0
0:0:59.469,164.927,9.3355,0,0.000885,0,0
0:0:59.670,166.097,9.39755,0,0.000885,0,0
0:0:59.872,167.271,9.4665,0,0.000885,0,0
0:1:0.074,168.267,9.52166,0,0.000885,0,0
0:1:0.271,169.384,9.58371,0,0.000885,0,0
0:1:0.472,169.735,9.6044,0,0.000885,0,0
0:1:0.672,171.199,9.68713,0,0.000885,0,0
0:1:0.869,171.906,9.7285,0,0.000885,0,0
0:1:1.071,172.782,9.77677,0,0.000885,0,0
0:1:1.268,173.49,9.81813,0,0.000885,0,0
0:1:1.468,174.544,9.88019,0,0.000885,0,0
0:1:1.668,175.304,9.92156,0,0.000885,0,0
0:1:1.866,176.363,9.97671,0,0.000885,0,0
0:1:2.068,177.066,10.0181,0,0.000885,0,0
0:1:2.264,178.182,10.0801,0,0.000885,0,0
0:1:2.464,178.885,10.1215,0,0.000885,0,0
0:1:2.664,179.997,10.1836,0,0.000885,0,0
0:1:2.861,180.7,10.2249,0,0.000885,0,0
0:1:3.063,180.936,10.2387,0,0.000885,0,0
0:1:3.260,182.284,10.3146,0,0.000885,0,0
0:1:3.460,182.813,10.3421,0,0.000885,0,0
0:1:3.662,184.103,10.418,0,0.000885,0,0
0:1:3.864,184.748,10.4525,0,0.000885,0,0
0:1:4.068,185.807,10.5145,0,0.000885,0,0
0:1:4.269,186.216,10.5352,0,0.000885,0,0
0:1:4.472,187.622,10.6179,0,0.000885,0,0
0:1:4.673,187.915,10.6317,0,0.000885,0,0
0:1:4.874,189.97,10.7489,0,0.000885,0,0
0:1:5.076,190.202,10.7627,0,0.000885,0,0
0:1:5.276,191.496,10.8386,0,0.000885,0,0
0:1:5.473,191.669,10.8455,0,0.000885,0,0
0:1:5.674,192.844,10.9144,0,0.000885,0,0
0:1:5.868,193.431,10.9489,0,0.000885,0,0
0:1:6.069,195.014,11.0385,0,0.000885,0,0
0:1:6.266,195.539,11.0661,0,0.000885,0,0
0:1:6.461,196.829,11.135,0,0.000885,0,0
0:1:6.662,197.123,11.1557,0,0.000885,0,0
0:1:6.857,198.649,11.2385,0,0.000885,0,0
0:1:7.056,199.12,11.266,0,0.000885,0,0
0:1:7.255,199.294,11.2798,0,0.000885,0,0
0:1:7.451,200.762,11.3626,0,0.000885,0,0
0:1:7.651,201.113,11.3832,0,0.000885,0,0
0:1:7.846,202.287,11.4453,0,0.000885,0,0
0:1:8.043,202.87,11.4798,0,0.000885,0,0
0:1:8.243,204.338,11.5625,0,0.000885,0,0
0:1:8.438,204.689,11.5832,0,0.000885,0,0
0:1:8.638,206.331,11.6728,0,0.000885,0,0
0:1:8.839,207.154,11.7211,0,0.000885,0,0
0:1:9.043,208.092,11.7762,0,0.000885,0,0
0:1:9.242,208.973,11.8245,0,0.000885,0,0
0:1:9.444,209.969,11.8797,0,0.000885,0,0
0:1:9.644,210.788,11.9279,0,0.000885,0,0
0:1:9.844,212.256,12.0107,0,0.000885,0,0
0:1:10.045,212.549,12.0245,0,0.000885,0,0
0:1:10.245,213.724,12.0934,0,0.000885,0,0
0:1:10.439,214.427,12.1348,0,0.000885,0,0
0:1:10.641,215.014,12.1692,0,0.000885,0,0
0:1:10.836,216.246,12.2382,0,0.000885,0,0
0:1:11.043,216.833,12.2727,0,0.000885,0,0
0:1:11.244,217.887,12.3278,0,0.000885,0,0
0:1:11.438,218.296,12.3554,0,0.000885,0,0
0:1:11.639,219.529,12.4244,0,0.000885,0,0
0:1:11.844,220,12.4519,0,0.000885,0,0
0:1:12.042,221.112,12.514,0,0.000885,0,0
0:1:12.241,221.873,12.5554,0,0.000885,0,0
0:1:12.446,222.874,12.6105,0,0.000885,0,0
0:1:12.646,223.399,12.645,0,0.000885,0,0
0:1:12.843,224.573,12.707,0,0.000885,0,0
0:1:13.038,225.334,12.7484,0,0.000885,0,0
0:1:13.239,226.272,12.8036,0,0.000885,0,0
0:1:13.445,227.153,12.8518,0,0.000885,0,0
0:1:13.643,228.269,12.9139,0,0.000885,0,0
0:1:13.844,229.03,12.9621,0,0.000885,0,0
0:1:14.046,229.853,13.0035,0,0.000885,0,0
0:1:14.247,230.556,13.0449,0,0.000885,0,0
0:1:14.449,232.139,13.1345,0,0.000885,0,0
0:1:14.648,232.606,13.1621,0,0.000885,0,0
0:1:14.849,233.545,13.2172,0,0.000885,0,0
0:1:15.049,234.016,13.2448,0,0.000885,0,0
0:1:15.249,235.306,13.3138,0,0.000885,0,0
0:1:15.446,235.951,13.3551,0,0.000885,0,0
0:1:15.644,236.596,13.3896,0,0.000885,0,0
0:1:15.844,237.886,13.4586,0,0.000885,0,0
0:1:16.038,238.122,13.4724,0,0.000885,0,0
0:1:16.239,239.586,13.5551,0,0.000885,0,0
0:1:16.446,240.351,13.6034,0,0.000885,0,0
0:1:16.642,241.756,13.6792,0,0.000885,0,0
0:1:16.843,242.521,13.7206,0,0.000885,0,0
0:1:17.036,243.518,13.7826,0,0.000885,0,0
0:1:17.244,244.105,13.8102,0,0.000885,0,0
0:1:17.443,244.866,13.8585,0,0.000885,0,0
0:1:17.638,245.626,13.8998,0,0.000885,0,0
0:1:17.840,246.565,13.955,0,0.000885,0,0
0:1:18.045,247.388,13.9964,0,0.000885,0,0
0:1:18.242,248.562,14.0653,0,0.000885,0,0
0:1:18.442,249.381,14.1136,0,0.000885,0,0
0:1:18.646,250.906,14.1963,0,0.000885,0,0
0:1:18.845,251.316,14.2239,0,0.000885,0,0
0:1:19.047,252.023,14.2584,0,0.000885,0,0
0:1:19.248,252.548,14.2928,0,0.000885,0,0
0:1:19.447,254.074,14.3756,0,0.000885,0,0
0:1:19.648,254.776,14.4169,0,0.000885,0,0
0:1:19.849,256.008,14.4859,0,0.000885,0,0
0:1:20.047,256.538,14.5204,0,0.000885,0,0
0:1:20.242,256.653,14.5204,0,0.000885,0,0
0:1:20.443,258.064,14.6031,0,0.000885,0,0
0:1:20.637,258.473,14.6238,0,0.000885,0,0
0:1:20.837,260.35,14.7341,0,0.000885,0,0
0:1:21.046,260.644,14.7479,0,0.000885,0,0
0:1:21.240,261.462,14.7961,0,0.000885,0,0
0:1:21.441,262.169,14.8375,0,0.000885,0,0
0:1:21.637,263.459,14.9065,0,0.000885,0,0
0:1:21.832,264.046,14.9409,0,0.000885,0,0
0:1:22.032,265.51,15.0237,0,0.000885,0,0
0:1:22.239,266.275,15.065,0,0.000885,0,0
0:1:22.441,267.565,15.1409,0,0.000885,0,0
0:1:22.644,268.21,15.1754,0,0.000885,0,0
0:1:22.843,269.442,15.2443,0,0.000885,0,0
0:1:23.043,269.794,15.265,0,0.000885,0,0
0:1:23.237,270.848,15.327,0,0.000885,0,0
0:1:23.438,271.435,15.3615,0,0.000885,0,0
0:1:23.640,272.725,15.4305,0,0.000885,0,0
0:1:23.841,273.37,15.4718,0,0.000885,0,0
0:1:24.044,274.424,15.527,0,0.000885,0,0
0:1:24.242,275.011,15.5615,0,0.000885,0,0
0:1:24.443,275.776,15.6028,0,0.000885,0,0
0:1:24.643,276.537,15.6511,0,0.000885,0,0
0:1:24.843,277.182,15.6856,0,0.000885,0,0
0:1:25.043,278.414,15.7545,0,0.000885,0,0
0:1:25.248,279.001,15.789,0,0.000885,0,0
0:1:25.450,280.527,15.8717,0,0.000885,0,0
0:1:25.644,280.758,15.8855,0,0.000885,0,0
0:1:25.842,281.875,15.9476,0,0.000885,0,0
0:1:26.041,282.168,15.9683,0,0.000885,0,0
0:1:26.235,283.868,16.0648,0,0.000885,0,0
0:1:26.438,284.455,16.0993,0,0.000885,0,0
0:1:26.643,285.509,16.1544,0,0.000885,0,0
0:1:26.841,286.154,16.1958,0,0.000885,0,0
0:1:27.041,287.564,16.2716,0,0.000885,0,0
0:1:27.245,288.209,16.3061,0,0.000885,0,0
0:1:27.446,289.793,16.3957,0,0.000885,0,0
0:1:27.643,290.38,16.4302,0,0.000885,0,0
0:1:27.838,291.55,16.4992,0,0.000885,0,0
0:1:28.039,291.906,16.5198,0,0.000885,0,0
0:1:28.231,292.902,16.575,0,0.000885,0,0
0:1:28.431,293.547,16.6095,0,0.000885,0,0
0:1:28.631,294.014,16.637,0,0.000885,0,0
0:1:28.833,295.188,16.706,0,0.000885,0,0
0:1:29.037,295.718,16.7336,0,0.000885,0,0
0:1:29.239,297.066,16.8094,0,0.000885,0,0
0:1:29.438,297.884,16.8577,0,0.000885,0,0
0:1:29.639,298.649,16.8991,0,0.000885,0,0
0:1:29.840,299.001,16.9197,0,0.000885,0,0
0:1:30.041,300.175,16.9887,0,0.000885,0,0
0:1:30.245,300.878,17.0232,0,0.000885,0,0
0:1:30.444,302.11,17.099,0,0.000885,0,0
0:1:30.644,302.697,17.1266,0,0.000885,0,0
0:1:30.840,304.396,17.2231,0,0.000885,0,0
0:1:31.041,305.219,17.2714,0,0.000885,0,0
0:1:31.245,306.331,17.3334,0,0.000885,0,0
0:1:31.442,307.092,17.3748,0,0.000885,0,0
0:1:31.642,307.741,17.4162,0,0.000885,0,0
0:1:31.847,308.266,17.4437,0,0.000885,0,0
0:1:32.047,309.441,17.5127,0,0.000885,0,0
0:1:32.242,310.028,17.5472,0,0.000885,0,0
0:1:32.440,311.318,17.6161,0,0.000885,0,0
0:1:32.640,312.021,17.6575,0,0.000885,0,0
0:1:32.833,313.195,17.7264,0,0.000885,0,0
0:1:33.032,313.72,17.754,0,0.000885,0,0
0:1:33.241,314.894,17.8161,0,0.000885,0,0
0:1:33.439,315.303,17.8436,0,0.000885,0,0
0:1:33.639,315.659,17.8643,0,0.000885,0,0
0:1:33.841,317.301,17.9539,0,0.000885,0,0
0:1:34.043,317.888,17.9884,0,0.000885,0,0
0:1:34.245,318.942,18.0505,0,0.000885,0,0
0:1:34.445,319.645,18.0849,0,0.000885,0,0
0:1:34.647,321.17,18.1746,0,0.000885,0,0
0:1:34.845,321.522,18.1953,0,0.000885,0,0
0:1:35.045,322.87,18.2711,0,0.000885,0,0
0:1:35.245,323.163,18.2849,0,0.000885,0,0
0:1:35.440,324.631,18.3676,0,0.000885,0,0
0:1:35.641,324.983,18.3883,0,0.000885,0,0
0:1:35.847,326.157,18.4573,0,0.000885,0,0
0:1:36.046,326.86,18.4986,0,0.000885,0,0
0:1:36.244,328.208,18.5745,0,0.000885,0,0
0:1:36.436,328.853,18.6089,0,0.000885,0,0
0:1:36.639,329.791,18.6641,0,0.000885,0,0
0:1:36.832,330.263,18.6917,0,0.000885,0,0
0:1:37.031,331.317,18.7468,0,0.000885,0,0
0:1:37.229,332.255,18.802,0,0.000885,0,0
0:1:37.424,333.723,18.8847,0,0.000885,0,0
0:1:37.625,334.306,18.9192,0,0.000885,0,0
0:1:37.831,335.596,18.9882,0,0.000885,0,0
0:1:38.042,336.183,19.0226,0,0.000885,0,0
0:1:38.241,336.948,19.064,0,0.000885,0,0
0:1:38.445,337.651,19.1054,0,0.000885,0,0
0:1:38.646,338.999,19.1812,0,0.000885,0,0
0:1:38.848,339.644,19.2226,0,0.000885,0,0
0:1:39.049,341.112,19.3053,0,0.000885,0,0
0:1:39.251,341.699,19.3329,0,0.000885,0,0
0:1:39.450,342.05,19.3536,0,0.000885,0,0
0:1:39.651,343.225,19.4225,0,0.000885,0,0
0:1:39.851,343.87,19.457,0,0.000885,0,0
0:1:40.051,344.688,19.5053,0,0.000885,0,0
0:1:40.252,345.275,19.5397,0,0.000885,0,0
0:1:40.446,346.859,19.6294,0,0.000885,0,0
0:1:40.647,347.446,19.6638,0,0.000885,0,0
0:1:40.843,348.265,19.7052,0,0.000885,0,0
0:1:41.040,348.62,19.7259,0,0.000885,0,0
0:1:41.241,349.733,19.788,0,0.000885,0,0
0:1:41.446,350.262,19.8224,0,0.000885,0,0
0:1:41.645,351.552,19.8914,0,0.000885,0,0
0:1:41.841,352.019,19.919,0,0.000885,0,0
0:1:42.039,353.371,19.9948,0,0.000885,0,0
0:1:42.236,354.074,20.0362,0,0.000885,0,0
0:1:42.443,355.773,20.1327,0,0.000885,0,0
0:1:42.643,356.418,20.1672,0,0.000885,0,0
0:1:42.839,357.593,20.2361,0,0.000885,0,0
0:1:43.046,358.411,20.2844,0,0.000885,0,0
0:1:43.247,359.118,20.3188,0,0.000885,0,0
0:1:43.440,359.35,20.3326,0,0.000885,0,0
0:1:43.639,359.879,20.3671,0,0.000885,0,0
0:1:43.837,361.405,20.4499,0,0.000885,0,0
0:1:44.042,362.343,20.505,0,0.000885,0,0
0:1:44.243,363.224,20.5533,0,0.000885,0,0
0:1:44.443,363.927,20.5946,0,0.000885,0,0
0:1:44.644,364.808,20.6429,0,0.000885,0,0
0:1:44.845,365.453,20.6774,0,0.000885,0,0
0:1:45.044,366.565,20.7463,0,0.000885,0,0
0:1:45.246,367.445,20.7946,0,0.000885,0,0
0:1:45.442,368.793,20.8704,0,0.000885,0,0
0:1:45.649,369.674,20.9187,0,0.000885,0,0
0:1:45.848,370.612,20.9739,0,0.000885,0,0
0:1:46.041,371.373,21.0152,0,0.000885,0,0
0:1:46.242,372.783,21.098,0,0.000885,0,0
0:1:46.441,373.192,21.1186,0,0.000885,0,0
0:1:46.633,373.895,21.16,0,0.000885,0,0
0:1:46.835,374.54,21.1945,0,0.000885,0,0
0:1:47.041,376.008,21.2772,0,0.000885,0,0
0:1:47.239,376.48,21.3048,0,0.000885,0,0
0:1:47.440,377.476,21.36,0,0.000885,0,0
0:1:47.643,377.885,21.3806,0,0.000885,0,0
0:1:47.843,379.233,21.4634,0,0.000885,0,0
0:1:48.037,379.762,21.491,0,0.000885,0,0
0:1:48.235,380.523,21.5323,0,0.000885,0,0
0:1:48.436,381.697,21.6013,0,0.000885,0,0
0:1:48.637,382.165,21.6289,0,0.000885,0,0
0:1:48.841,383.69,21.7116,0,0.000885,0,0
0:1:49.041,384.162,21.7392,0,0.000885,0,0
0:1:49.242,385.332,21.8081,0,0.000885,0,0
0:1:49.443,385.981,21.8426,0,0.000885,0,0
0:1:49.642,387.387,21.9184,0,0.000885,0,0
0:1:49.843,388.09,21.9598,0,0.000885,0,0
0:1:50.041,389.38,22.0356,0,0.000885,0,0
0:1:50.235,390.025,22.0701,0,0.000885,0,0
0:1:50.437,390.67,22.1046,0,0.000885,0,0
0:1:50.642,391.492,22.1529,0,0.000885,0,0
0:1:50.841,392.604,22.2149,0,0.000885,0,0
0:1:51.040,393.312,22.2563,0,0.000885,0,0
0:1:51.243,394.602,22.3321,0,0.000885,0,0
0:1:51.445,395.305,22.3666,0,0.000885,0,0
0:1:51.642,396.71,22.4493,0,0.000885,0,0
0:1:51.837,397.24,22.4769,0,0.000885,0,0
0:1:52.037,397.711,22.5045,0,0.000885,0,0
0:1:52.242,398.587,22.5528,0,0.000885,0,0
0:1:52.442,399.762,22.6217,0,0.000885,0,0
0:1:52.637,400.585,22.67,0,0.000885,0,0
0:1:52.833,401.109,22.6975,0,0.000885,0,0
0:1:53.033,402.284,22.7665,0,0.000885,0,0
0:1:53.237,402.226,22.7596,0,0.000885,0,0
0:1:53.438,403.165,22.8148,0,0.000885,0,0
0:1:53.640,403.925,22.8561,0,0.000885,0,0
0:1:53.843,405.157,22.9251,0,0.000885,0,0
0:1:54.045,405.918,22.9733,0,0.000885,0,0
0:1:54.244,407.15,23.0423,0,0.000885,0,0
0:1:54.445,407.857,23.0768,0,0.000885,0,0
0:1:54.644,408.854,23.1388,0,0.000885,0,0
0:1:54.844,410.317,23.2215,0,0.000885,0,0
0:1:55.046,411.727,23.2974,0,0.000885,0,0
0:1:55.249,412.079,23.3181,0,0.000885,0,0
0:1:55.449,413.191,23.3801,0,0.000885,0,0
0:1:55.648,413.605,23.4077,0,0.000885,0,0
0:1:55.843,415.188,23.4973,0,0.000885,0,0
0:1:56.044,415.597,23.518,0,0.000885,0,0
0:1:56.237,416.42,23.5663,0,0.000885,0,0
0:1:56.446,417.123,23.6076,0,0.000885,0,0
0:1:56.647,418.297,23.6697,0,0.000885,0,0
0:1:56.837,418.707,23.6973,0,0.000885,0,0
0:1:57.040,420.17,23.78,0,0.000885,0,0
0:1:57.237,420.877,23.8145,0,0.000885,0,0
0:1:57.443,421.171,23.8352,0,0.000885,0,0
0:1:57.645,422.692,23.9179,0,0.000885,0,0
0:1:57.837,423.048,23.9386,0,0.000885,0,0
0:1:58.035,424.454,24.0213,0,0.000885,0,0
0:1:58.236,425.214,24.0627,0,0.000885,0,0
0:1:58.442,426.153,24.1179,0,0.000885,0,0
0:1:58.641,426.095,24.111,0,0.000885,0,0
0:1:58.843,427.563,24.1937,0,0.000885,0,0
0:1:59.045,428.15,24.2282,0,0.000885,0,0
0:1:59.247,429.32,24.2971,0,0.000885,0,0
0:1:59.447,429.792,24.3178,0,0.000885,0,0
0:1:59.647,431.375,24.4074,0,0.000885,0,0
0:1:59.847,432.02,24.4488,0,0.000885,0,0
0:2:0.048,433.31,24.5178,0,0.000885,0,0
0:2:0.247,433.777,24.5453,0,0.000885,0,0
0:2:0.443,435.539,24.6488,0,0.000885,0,0
0:2:0.643,436.068,24.6763,0,0.000885,0,0
0:2:0.848,437.122,24.7384,0,0.000885,0,0
0:2:1.043,437.767,24.7729,0,0.000885,0,0
0:2:1.245,439.115,24.8487,0,0.000885,0,0
0:2:1.437,439.409,24.8625,0,0.000885,0,0
0:2:1.636,440.174,24.9108,0,0.000885,0,0
0:2:1.835,441.05,24.959,0,0.000885,0,0
0:2:2.038,441.522,24.9866,0,0.000885,0,0
0:2:2.241,442.869,25.0624,0,0.000885,0,0
0:2:2.436,443.457,25.0969,0,0.000885,0,0
0:2:2.645,444.689,25.1659,0,0.000885,0,0
0:2:2.844,445.569,25.2141,0,0.000885,0,0
0:2:3.037,446.152,25.2486,0,0.000885,0,0
0:2:3.237,446.739,25.2831,0,0.000885,0,0
0:2:3.436,447.678,25.3313,0,0.000885,0,0
0:2:3.643,448.207,25.3658,0,0.000885,0,0
0:2:3.844,449.906,25.4623,0,0.000885,0,0
0:2:4.044,450.729,25.5037,0,0.000885,0,0
0:2:4.247,451.61,25.5589,0,0.000885,0,0
0:2:4.448,452.077,25.5795,0,0.000885,0,0
0:2:4.649,453.661,25.6692,0,0.000885,0,0
0:2:4.849,454.132,25.6968,0,0.000885,0,0
0:2:5.050,455.48,25.7726,0,0.000885,0,0
0:2:5.251,455.832,25.7933,0,0.000885,0,0
0:2:5.450,457.299,25.876,0,0.000885,0,0
0:2:5.645,457.882,25.9105,0,0.000885,0,0
0:2:5.845,459.177,25.9863,0,0.000885,0,0
0:2:6.050,459.759,26.0139,0,0.000885,0,0
0:2:6.248,460.934,26.0829,0,0.000885,0,0
0:2:6.449,461.285,26.1036,0,0.000885,0,0
0:2:6.643,461.814,26.1311,0,0.000885,0,0
0:2:6.843,462.869,26.1932,0,0.000885,0,0
0:2:7.039,463.571,26.2346,0,0.000885,0,0
0:2:7.246,464.688,26.2966,0,0.000885,0,0
0:2:7.446,464.982,26.3104,0,0.000885,0,0
0:2:7.642,466.449,26.3931,0,0.000885,0,0
0:2:7.838,467.21,26.4414,0,0.000885,0,0
0:2:8.037,468.206,26.4966,0,0.000885,0,0
0:2:8.245,468.851,26.531,0,0.000885,0,0
0:2:8.445,470.026,26.6,0,0.000885,0,0
0:2:8.645,470.844,26.6413,0,0.000885,0,0
0:2:8.848,472.312,26.7241,0,0.000885,0,0
0:2:9.050,472.957,26.7654,0,0.000885,0,0
0:2:9.249,474.011,26.8206,0,0.000885,0,0
0:2:9.451,474.541,26.8551,0,0.000885,0,0
0:2:9.652,475.537,26.9102,0,0.000885,0,0
0:2:9.851,476.009,26.9378,0,0.000885,0,0
0:2:10.052,477.005,26.993,0,0.000885,0,0
0:2:10.245,478.411,27.0757,0,0.000885,0,0
0:2:10.446,479.234,27.1171,0,0.000885,0,0
0:2:10.642,479.879,27.1584,0,0.000885,0,0
0:2:10.837,481.284,27.2343,0,0.000885,0,0
0:2:11.038,481.929,27.2688,0,0.000885,0,0
0:2:11.244,483.046,27.3377,0,0.000885,0,0
0:2:11.442,483.575,27.3653,0,0.000885,0,0
0:2:11.639,484.278,27.4067,0,0.000885,0,0
0:2:11.833,485.096,27.448,0,0.000885,0,0
0:2:12.036,485.861,27.4963,0,0.000885,0,0
0:2:12.231,487.151,27.5652,0,0.000885,0,0
0:2:12.428,487.503,27.5859,0,0.000885,0,0
0:2:12.628,488.735,27.6549,0,0.000885,0,0
0:2:12.832,488.793,27.6618,0,0.000885,0,0
0:2:13.033,490.141,27.7376,0,0.000885,0,0
0:2:13.239,491.021,27.7859,0,0.000885,0,0
0:2:13.449,492.369,27.8617,0,0.000885,0,0
0:2:13.650,493.134,27.9031,0,0.000885,0,0
0:2:13.851,494.54,27.9858,0,0.000885,0,0
0:2:14.052,495.185,28.0203,0,0.000885,0,0
0:2:14.255,496.123,28.0755,0,0.000885,0,0
0:2:14.455,496.475,28.0961,0,0.000885,0,0
0:2:14.654,497.471,28.1513,0,0.000885,0,0
0:2:14.855,498.179,28.1927,0,0.000885,0,0
0:2:15.054,499.526,28.2685,0,0.000885,0,0
0:2:15.253,500.171,28.303,0,0.000885,0,0
0:2:15.450,501.288,28.365,0,0.000885,0,0
0:2:15.650,501.991,28.4064,0,0.000885,0,0
0:2:15.845,503.339,28.4822,0,0.000885,0,0
0:2:16.040,503.748,28.5029,0,0.000885,0,0
0:2:16.240,504.041,28.5236,0,0.000885,0,0
0:2:16.447,505.038,28.5788,0,0.000885,0,0
0:2:16.646,505.918,28.627,0,0.000885,0,0
0:2:16.842,507.035,28.6891,0,0.000885,0,0
0:2:17.038,507.56,28.7236,0,0.000885,0,0
0:2:17.238,508.85,28.7925,0,0.000885,0,0
0:2:17.445,509.321,28.8201,0,0.000885,0,0
0:2:17.645,511.078,28.9235,0,0.000885,0,0
0:2:17.850,511.55,28.9511,0,0.000885,0,0
0:2:18.048,512.662,29.0131,0,0.000885,0,0
0:2:18.248,513.191,29.0407,0,0.000885,0,0
0:2:18.444,514.308,29.1028,0,0.000885,0,0
0:2:18.640,515.304,29.1579,0,0.000885,0,0
0:2:18.839,516.065,29.2062,0,0.000885,0,0
0:2:19.045,516.594,29.2338,0,0.000885,0,0
0:2:19.247,517.826,29.3027,0,0.000885,0,0
0:2:19.447,518.351,29.3303,0,0.000885,0,0
0:2:19.648,519.704,29.4061,0,0.000885,0,0
0:2:19.848,519.819,29.413,0,0.000885,0,0
0:2:20.049,521.287,29.4958,0,0.000885,0,0
0:2:20.249,521.581,29.5165,0,0.000885,0,0
0:2:20.446,523.102,29.5992,0,0.000885,0,0
0:2:20.644,523.631,29.6337,0,0.000885,0,0
0:2:20.843,525.157,29.7164,0,0.000885,0,0
0:2:21.047,525.802,29.7509,0,0.000885,0,0
0:2:21.248,526.389,29.7854,0,0.000885,0,0
0:2:21.446,527.386,29.8405,0,0.000885,0,0
0:2:21.651,528.324,29.8957,0,0.000885,0,0
0:2:21.852,529.788,29.9784,0,0.000885,0,0
0:2:22.045,530.201,30.006,0,0.000885,0,0
0:2:22.245,531.082,30.0542,0,0.000885,0,0
0:2:22.440,531.901,30.1025,0,0.000885,0,0
0:2:22.649,533.191,30.1715,0,0.000885,0,0
0:2:22.850,534.013,30.2197,0,0.000885,0,0
0:2:23.044,535.068,30.2818,0,0.000885,0,0
0:2:23.241,535.188,30.2887,0,0.000885,0,0
0:2:23.443,536.709,30.3714,0,0.000885,0,0
0:2:23.644,537.354,30.4059,0,0.000885,0,0
0:2:23.846,538.177,30.4541,0,0.000885,0,0
0:2:24.046,539.116,30.5093,0,0.000885,0,0
0:2:24.246,539.938,30.5576,0,0.000885,0,0
0:2:24.447,540.463,30.5851,0,0.000885,0,0
0:2:24.646,541.873,30.661,0,0.000885,0,0
0:2:24.847,542.398,30.6955,0,0.000885,0,0
0:2:25.044,543.279,30.7437,0,0.000885,0,0
0:2:25.250,544.218,30.7989,0,0.000885,0,0
0:2:25.451,545.686,30.8816,0,0.000885,0,0
0:2:25.646,546.037,30.9023,0,0.000885,0,0
0:2:25.846,546.682,30.9368,0,0.000885,0,0
0:2:26.045,547.914,31.0057,0,0.000885,0,0
0:2:26.237,548.323,31.0264,0,0.000885,0,0
0:2:26.438,549.498,31.0954,0,0.000885,0,0
0:2:26.646,550.085,31.1298,0,0.000885,0,0
0:2:26.852,551.255,31.1919,0,0.000885,0,0
0:2:27.052,551.9,31.2333,0,0.000885,0,0
0:2:27.247,552.665,31.2746,0,0.000885,0,0
0:2:27.446,553.483,31.3229,0,0.000885,0,0
0:2:27.644,554.542,31.378,0,0.000885,0,0
0:2:27.839,555.481,31.4332,0,0.000885,0,0
0:2:28.040,556.241,31.4746,0,0.000885,0,0
0:2:28.246,557.18,31.5297,0,0.000885,0,0
0:2:28.446,558.47,31.6056,0,0.000885,0,0
0:2:28.645,559.173,31.64,0,0.000885,0,0
0:2:28.848,560.231,31.7021,0,0.000885,0,0
0:2:29.050,560.698,31.7297,0,0.000885,0,0
0:2:29.250,561.93,31.7986,0,0.000885,0,0
0:2:29.451,562.753,31.8469,0,0.000885,0,0
0:2:29.652,563.63,31.8951,0,0.000885,0,0
0:2:29.852,564.275,31.9296,0,0.000885,0,0
0:2:30.052,565.155,31.9779,0,0.000885,0,0
0:2:30.249,565.391,31.9917,0,0.000885,0,0
0:2:30.446,566.33,32.0468,0,0.000885,0,0
0:2:30.647,567.562,32.1158,0,0.000885,0,0
0:2:30.838,568.029,32.1434,0,0.000885,0,0
0:2:31.039,569.319,32.2192,0,0.000885,0,0
0:2:31.237,570.315,32.2744,0,0.000885,0,0
0:2:31.444,571.254,32.3295,0,0.000885,0,0
0:2:31.642,571.61,32.3433,0,0.000885,0,0
0:2:31.837,573.131,32.4329,0,0.000885,0,0
0:2:32.035,573.545,32.4536,0,0.000885,0,0
0:2:32.236,574.95,32.5364,0,0.000885,0,0
0:2:32.441,575.595,32.5708,0,0.000885,0,0
0:2:32.644,576.65,32.6329,0,0.000885,0,0
0:2:32.847,577.473,32.6811,0,0.000885,0,0
0:2:33.046,578.295,32.7225,0,0.000885,0,0
0:2:33.247,579.114,32.7708,0,0.000885,0,0
0:2:33.450,580.173,32.8328,0,0.000885,0,0
0:2:33.650,581.227,32.888,0,0.000885,0,0
0:2:33.851,582.281,32.95,0,0.000885,0,0
0:2:34.054,582.868,32.9845,0,0.000885,0,0
0:2:34.254,583.513,33.019,0,0.000885,0,0
0:2:34.455,583.807,33.0397,0,0.000885,0,0
0:2:34.656,585.097,33.1086,0,0.000885,0,0
0:2:34.855,585.8,33.15,0,0.000885,0,0
0:2:35.055,586.796,33.2052,0,0.000885,0,0
0:2:35.256,587.152,33.2258,0,0.000885,0,0
0:2:35.450,587.503,33.2465,0,0.000885,0,0
0:2:35.651,588.793,33.3155,0,0.000885,0,0
0:2:35.849,589.318,33.3499,0,0.000885,0,0
0:2:36.045,590.377,33.4051,0,0.000885,0,0
0:2:36.247,591.022,33.4465,0,0.000885,0,0
0:2:36.440,591.022,33.4465,0,0.000885,0,0
0:2:36.638,591.903,33.4947,0,0.000885,0,0
0:2:36.839,592.899,33.5499,0,0.000885,0,0
0:2:37.046,593.313,33.5775,0,0.000885,0,0
0:2:37.247,594.193,33.6257,0,0.000885,0,0
0:2:37.445,594.723,33.6533,0,0.000885,0,0
0:2:37.641,595.248,33.6809,0,0.000885,0,0
0:2:37.840,595.368,33.6878,0,0.000885,0,0
0:2:38.036,595.955,33.7223,0,0.000885,0,0
0:2:38.237,596.186,33.736,0,0.000885,0,0
0:2:38.436,596.658,33.7636,0,0.000885,0,0
0:2:38.645,596.951,33.7774,0,0.000885,0,0
0:2:38.847,597.067,33.7843,0,0.000885,0,0
0:2:39.047,596.836,33.7705,0,0.000885,0,0
0:2:39.251,596.422,33.7498,0,0.000885,0,0
0:2:39.453,595.777,33.7154,0,0.000885,0,0
0:2:39.652,593.371,33.5775,0,0.000885,0,0
0:2:39.853,590.786,33.4327,0,0.000885,0,0
0:2:40.053,587.503,33.2465,0,0.000885,0,0
0:2:40.252,578.94,32.7639,0,0.000885,0,0
0:2:40.450,573.131,32.4329,0,0.000885,0,0
0:2:40.642,555.481,31.4332,0,0.000885,0,0
0:2:40.843,544.689,30.8196,0,0.000885,0,0
0:2:41.037,520.286,29.4406,0,0.000885,0,0
0:2:41.242,509.495,28.8339,0,0.000885,0,0
0:2:41.442,492.605,27.8755,0,0.000885,0,0
0:2:41.637,485.51,27.4756,0,0.000885,0,0
0:2:41.836,475.657,26.9171,0,0.000885,0,0
0:2:42.042,471.374,26.6758,0,0.000885,0,0
0:2:42.238,463.162,26.207,0,0.000885,0,0
0:2:42.437,457.121,25.8691,0,0.000885,0,0
0:2:42.642,448.385,25.3727,0,0.000885,0,0
0:2:42.841,444.044,25.1245,0,0.000885,0,0
0:2:43.038,435.481,24.6419,0,0.000885,0,0
0:2:43.243,431.433,24.4143,0,0.000885,0,0
0:2:43.443,424.805,24.042,0,0.000885,0,0
0:2:43.642,420.464,23.7938,0,0.000885,0,0
0:2:43.703,420.464,23.7938,0,0.000885,0,0