File: DataFile2021-06-06_055535.csv
Test ID:,Date Tested:,Time:,Test Type:,Diameter Avg. (mm):,Cyl. Corr. Factor:,Height (mm):,Age (days):,Weight (kN):,Break Type:,Ramp Rate (MPa/s):,Load at Break (kN):,Stress at Break (MPa):
12,6/6/2021,05:55,Cylinder,150,1,300,0,13.39,1,0.25,2171.3,122.87
Sample Time,Load (kN),Stress (MPa),Long. Strain,Trans. Strain,Chan1 Deflection (mm),Chan2 Deflection (mm)
0:0:18.292,5.7471,0.324054,0,0.000885,0,0
0:0:18.790,10.8492,0.613633,0,0.000885,0,0
0:0:19.287,12.2015,0.689476,0,0.000885,0,0
0:0:19.793,12.3171,0.69637,0,0.000885,0,0
0:0:20.289,13.785,0.779108,0,0.000885,0,0
0:0:20.786,14.9549,0.848055,0,0.000885,0,0
0:0:21.292,17.4771,0.98595,0,0.000885,0,0
0:0:21.791,20.702,1.17211,0,0.000885,0,0
0:0:22.287,23.2864,1.3169,0,0.000885,0,0
0:0:22.785,25.5728,1.4479,0,0.000885,0,0
0:0:23.291,28.1528,1.59269,0,0.000885,0,0
0:0:23.790,30.7906,1.74437,0,0.000885,0,0
0:0:24.298,32.432,1.83401,0,0.000885,0,0
0:0:24.803,35.0742,1.98569,0,0.000885,0,0
0:0:25.307,37.1249,2.1029,0,0.000885,0,0
0:0:25.807,38.9442,2.20632,0,0.000885,0,0
0:0:26.302,40.5856,2.29595,0,0.000885,0,0
0:0:26.801,42.9921,2.43385,0,0.000885,0,0
0:0:27.298,45.6299,2.58553,0,0.000885,0,0
0:0:27.795,47.6227,2.69585,0,0.000885,0,0
0:0:28.292,49.7934,2.81996,0,0.000885,0,0
0:0:28.798,52.0798,2.94406,0,0.000885,0,0
0:0:29.304,53.8991,3.04748,0,0.000885,0,0
0:0:29.809,56.3634,3.19227,0,0.000885,0,0
0:0:30.306,58.3562,3.30259,0,0.000885,0,0
0:0:30.805,60.2334,3.40601,0,0.000885,0,0
0:0:31.302,62.8712,3.55769,0,0.000885,0,0
0:0:31.799,65.9226,3.73006,0,0.000885,0,0
0:0:32.298,67.6219,3.82659,0,0.000885,0,0
0:0:32.793,69.3834,3.92312,0,0.000885,0,0
0:0:33.292,71.0248,4.01964,0,0.000885,0,0
0:0:33.796,74.0762,4.19201,0,0.000885,0,0
0:0:34.303,76.4204,4.32301,0,0.000885,0,0
0:0:34.808,78.649,4.45401,0,0.000885,0,0
0:0:35.309,80.8197,4.57122,0,0.000885,0,0
0:0:35.806,82.9905,4.69533,0,0.000885,0,0
0:0:36.305,84.9833,4.81254,0,0.000885,0,0
0:0:36.803,87.2741,4.93665,0,0.000885,0,0
0:0:37.300,89.089,5.04007,0,0.000885,0,0
0:0:37.798,91.3175,5.16417,0,0.000885,0,0
0:0:38.294,94.1333,5.32965,0,0.000885,0,0
0:0:38.793,96.2462,5.44686,0,0.000885,0,0
0:0:39.300,98.4747,5.57096,0,0.000885,0,0
0:0:39.805,100.645,5.69507,0,0.000885,0,0
0:0:40.309,103.225,5.83986,0,0.000885,0,0
0:0:40.809,105.16,5.95018,0,0.000885,0,0
0:0:41.305,106.686,6.03981,0,0.000885,0,0
0:0:41.804,108.915,6.16391,0,0.000885,0,0
0:0:42.299,111.143,6.28802,0,0.000885,0,0
0:0:42.799,114.075,6.45349,0,0.000885,0,0
0:0:43.295,115.774,6.55002,0,0.000885,0,0
0:0:43.794,118.296,6.69481,0,0.000885,0,0
0:0:44.301,120.351,6.81202,0,0.000885,0,0
0:0:44.807,122.873,6.94992,0,0.000885,0,0
0:0:45.311,125.338,7.09471,0,0.000885,0,0
0:0:45.808,126.57,7.16365,0,0.000885,0,0
0:0:46.307,128.798,7.28776,0,0.000885,0,0
0:0:46.805,131.494,7.43944,0,0.000885,0,0
0:0:47.303,133.487,7.55665,0,0.000885,0,0
0:0:47.801,135.951,7.69455,0,0.000885,0,0
0:0:48.297,138.237,7.82555,0,0.000885,0,0
0:0:48.805,140.292,7.93587,0,0.000885,0,0
0:0:49.310,142.17,8.04618,0,0.000885,0,0
0:0:49.815,144.398,8.17029,0,0.000885,0,0
0:0:50.314,147.445,8.34266,0,0.000885,0,0
0:0:50.813,149.091,8.43918,0,0.000885,0,0
0:0:51.310,151.787,8.59087,0,0.000885,0,0
0:0:51.808,153.019,8.65982,0,0.000885,0,0
0:0:52.304,155.19,8.78392,0,0.000885,0,0
0:0:52.803,157.77,8.92871,0,0.000885,0,0
0:0:53.302,160.349,9.0735,0,0.000885,0,0
0:0:53.809,162.284,9.18382,0,0.000885,0,0
0:0:54.315,164.282,9.29413,0,0.000885,0,0
0:0:54.819,166.742,9.43892,0,0.000885,0,0
0:0:55.317,169.851,9.61129,0,0.000885,0,0
0:0:55.816,171.377,9.70092,0,0.000885,0,0
0:0:56.313,173.663,9.82503,0,0.000885,0,0
0:0:56.812,175.834,9.94913,0,0.000885,0,0
0:0:57.308,177.653,10.0526,0,0.000885,0,0
0:0:57.807,179.762,10.1698,0,0.000885,0,0
0:0:58.303,181.932,10.2939,0,0.000885,0,0
0:0:58.807,183.987,10.4111,0,0.000885,0,0
0:0:59.313,185.807,10.5145,0,0.000885,0,0
0:0:59.819,188.974,10.6938,0,0.000885,0,0
0:1:0.320,191.554,10.8386,0,0.000885,0,0
0:1:0.816,193.782,10.9627,0,0.000885,0,0
0:1:1.310,196.127,11.1006,0,0.000885,0,0
0:1:1.804,198.004,11.204,0,0.000885,0,0
0:1:2.298,199.351,11.2798,0,0.000885,0,0
0:1:2.792,201.642,11.4108,0,0.000885,0,0
0:1:3.287,204.689,11.5832,0,0.000885,0,0
0:1:3.794,206.331,11.6728,0,0.000885,0,0
0:1:4.299,208.559,11.8038,0,0.000885,0,0
0:1:4.800,210.672,11.921,0,0.000885,0,0
0:1:5.300,212.198,12.0107,0,0.000885,0,0
0:1:5.793,214.6,12.1417,0,0.000885,0,0
0:1:6.289,217.006,12.2796,0,0.000885,0,0
0:1:6.792,220.058,12.4519,0,0.000885,0,0
0:1:7.287,222.051,12.5622,0,0.000885,0,0
0:1:7.791,225.04,12.7346,0,0.000885,0,0
0:1:8.295,227.389,12.8656,0,0.000885,0,0
0:1:8.790,228.972,12.9552,0,0.000885,0,0
0:1:9.297,230.907,13.0656,0,0.000885,0,0
0:1:9.797,233.078,13.1897,0,0.000885,0,0
0:1:10.297,234.661,13.2793,0,0.000885,0,0
0:1:10.792,236.832,13.4034,0,0.000885,0,0
0:1:11.294,239.586,13.5551,0,0.000885,0,0
0:1:11.789,241.814,13.6861,0,0.000885,0,0
0:1:12.293,243.985,13.8102,0,0.000885,0,0
0:1:12.798,246.271,13.9343,0,0.000885,0,0
0:1:13.290,248.326,14.0515,0,0.000885,0,0
0:1:13.794,250.497,14.1756,0,0.000885,0,0
0:1:14.299,253.135,14.3273,0,0.000885,0,0
0:1:14.801,255.599,14.4652,0,0.000885,0,0
0:1:15.301,256.947,14.541,0,0.000885,0,0
0:1:15.796,259.411,14.6789,0,0.000885,0,0
0:1:16.289,261.991,14.8237,0,0.000885,0,0
0:1:16.792,263.753,14.9271,0,0.000885,0,0
0:1:17.296,266.333,15.0719,0,0.000885,0,0
0:1:17.791,268.504,15.196,0,0.000885,0,0
0:1:18.293,271.319,15.3546,0,0.000885,0,0
0:1:18.798,272.431,15.4167,0,0.000885,0,0
0:1:19.300,274.838,15.5546,0,0.000885,0,0
0:1:19.799,277.476,15.6994,0,0.000885,0,0
0:1:20.294,279.117,15.7959,0,0.000885,0,0
0:1:20.798,281.639,15.9407,0,0.000885,0,0
0:1:21.292,284.277,16.0855,0,0.000885,0,0
0:1:21.794,285.981,16.182,0,0.000885,0,0
0:1:22.290,288.325,16.313,0,0.000885,0,0
0:1:22.794,290.496,16.4371,0,0.000885,0,0
0:1:23.290,291.786,16.5129,0,0.000885,0,0
0:1:23.797,294.601,16.6715,0,0.000885,0,0
0:1:24.302,296.714,16.7887,0,0.000885,0,0
0:1:24.801,299.001,16.9197,0,0.000885,0,0
0:1:25.301,300.936,17.0301,0,0.000885,0,0
0:1:25.796,303.573,17.1817,0,0.000885,0,0
0:1:26.290,306.095,17.3196,0,0.000885,0,0
0:1:26.794,307.799,17.4162,0,0.000885,0,0
0:1:27.297,310.259,17.5541,0,0.000885,0,0
0:1:27.792,312.372,17.6782,0,0.000885,0,0
0:1:28.296,314.133,17.7747,0,0.000885,0,0
0:1:28.791,317.243,17.9539,0,0.000885,0,0
0:1:29.296,319.351,18.0712,0,0.000885,0,0
0:1:29.797,321.873,18.2159,0,0.000885,0,0
0:1:30.297,323.693,18.3194,0,0.000885,0,0
0:1:30.791,325.685,18.4297,0,0.000885,0,0
0:1:31.294,328.323,18.5814,0,0.000885,0,0
0:1:31.786,329.675,18.6572,0,0.000885,0,0
0:1:32.292,332.429,18.8089,0,0.000885,0,0
0:1:32.797,335.187,18.9675,0,0.000885,0,0
0:1:33.299,336.361,19.0364,0,0.000885,0,0
0:1:33.802,339.177,19.195,0,0.000885,0,0
0:1:34.304,341.405,19.3191,0,0.000885,0,0
0:1:34.806,344.395,19.4915,0,0.000885,0,0
0:1:35.301,346.036,19.5811,0,0.000885,0,0
0:1:35.793,348.091,19.6983,0,0.000885,0,0
0:1:36.298,350.084,19.8086,0,0.000885,0,0
0:1:36.791,351.961,19.919,0,0.000885,0,0
0:1:37.297,354.425,20.0568,0,0.000885,0,0
0:1:37.799,356.712,20.1878,0,0.000885,0,0
0:1:38.294,358.705,20.2982,0,0.000885,0,0
0:1:38.794,360.582,20.4016,0,0.000885,0,0
0:1:39.299,362.81,20.5326,0,0.000885,0,0
0:1:39.800,364.981,20.6567,0,0.000885,0,0
0:1:40.298,367.797,20.8153,0,0.000885,0,0
0:1:40.791,370.497,20.967,0,0.000885,0,0
0:1:41.297,372.783,21.098,0,0.000885,0,0
0:1:41.791,374.247,21.1807,0,0.000885,0,0
0:1:42.294,376.48,21.3048,0,0.000885,0,0
0:1:42.786,379.469,21.4703,0,0.000885,0,0
0:1:43.292,380.643,21.5392,0,0.000885,0,0
0:1:43.799,383.281,21.6909,0,0.000885,0,0
0:1:44.304,385.1,21.7943,0,0.000885,0,0
0:1:44.805,386.8,21.8909,0,0.000885,0,0
0:1:45.306,389.673,22.0494,0,0.000885,0,0
0:1:45.801,392.898,22.2356,0,0.000885,0,0
0:1:46.303,394.66,22.3321,0,0.000885,0,0
0:1:46.797,396.652,22.4493,0,0.000885,0,0
0:1:47.299,399.059,22.5803,0,0.000885,0,0
0:1:47.793,401.109,22.6975,0,0.000885,0,0
0:1:48.295,402.342,22.7665,0,0.000885,0,0
0:1:48.788,404.864,22.9113,0,0.000885,0,0
0:1:49.293,407.622,23.0699,0,0.000885,0,0
0:1:49.794,410.024,23.2009,0,0.000885,0,0
0:1:50.297,412.021,23.3181,0,0.000885,0,0
0:1:50.798,414.543,23.456,0,0.000885,0,0
0:1:51.302,416.242,23.5525,0,0.000885,0,0
0:1:51.794,418.822,23.6973,0,0.000885,0,0
0:1:52.298,420.348,23.7869,0,0.000885,0,0
0:1:52.802,423.164,23.9455,0,0.000885,0,0
0:1:53.295,424.863,24.042,0,0.000885,0,0
0:1:53.799,427.269,24.1799,0,0.000885,0,0
0:1:54.301,429.498,24.304,0,0.000885,0,0
0:1:54.801,432.136,24.4557,0,0.000885,0,0
0:1:55.294,434.484,24.5867,0,0.000885,0,0
0:1:55.788,437.007,24.7315,0,0.000885,0,0
0:1:56.293,438.528,24.8142,0,0.000885,0,0
0:1:56.798,440.699,24.9383,0,0.000885,0,0
0:1:57.302,442.927,25.0624,0,0.000885,0,0
0:1:57.795,444.511,25.1521,0,0.000885,0,0
0:1:58.288,446.859,25.29,0,0.000885,0,0
0:1:58.798,449.791,25.4554,0,0.000885,0,0
0:1:59.303,452.255,25.5933,0,0.000885,0,0
0:1:59.804,454.599,25.7243,0,0.000885,0,0
0:2:0.301,455.947,25.8002,0,0.000885,0,0
0:2:0.797,458.296,25.9312,0,0.000885,0,0
0:2:1.300,459.937,26.0277,0,0.000885,0,0
0:2:1.794,462.637,26.1794,0,0.000885,0,0
0:2:2.298,464.688,26.2966,0,0.000885,0,0
0:2:2.803,467.21,26.4414,0,0.000885,0,0
0:2:3.297,469.674,26.5793,0,0.000885,0,0
0:2:3.788,471.845,26.7034,0,0.000885,0,0
0:2:4.294,474.367,26.8413,0,0.000885,0,0
0:2:4.794,475.715,26.9171,0,0.000885,0,0
0:2:5.295,478.059,27.055,0,0.000885,0,0
0:2:5.799,480.466,27.186,0,0.000885,0,0
0:2:6.293,482.165,27.2826,0,0.000885,0,0
0:2:6.795,484.981,27.4411,0,0.000885,0,0
0:2:7.300,487.387,27.579,0,0.000885,0,0
0:2:7.790,489.616,27.7031,0,0.000885,0,0
0:2:8.297,491.431,27.8066,0,0.000885,0,0
0:2:8.801,493.779,27.9445,0,0.000885,0,0
0:2:9.303,496.359,28.0892,0,0.000885,0,0
0:2:9.802,497.591,28.1582,0,0.000885,0,0
0:2:10.298,499.878,28.2892,0,0.000885,0,0
0:2:10.789,502.987,28.4616,0,0.000885,0,0
0:2:11.294,504.806,28.565,0,0.000885,0,0
0:2:11.798,507.208,28.7029,0,0.000885,0,0
0:2:12.302,509.731,28.8477,0,0.000885,0,0
0:2:12.796,510.789,28.9028,0,0.000885,0,0
0:2:13.301,513.369,29.0476,0,0.000885,0,0
0:2:13.804,515.246,29.1579,0,0.000885,0,0
0:2:14.306,518.12,29.3165,0,0.000885,0,0
0:2:14.807,519.877,29.4199,0,0.000885,0,0
0:2:15.302,522.226,29.5509,0,0.000885,0,0
0:2:15.798,525.041,29.7095,0,0.000885,0,0
0:2:16.300,526.563,29.7991,0,0.000885,0,0
0:2:16.794,528.44,29.9026,0,0.000885,0,0
0:2:17.299,531.14,30.0542,0,0.000885,0,0
0:2:17.803,533.368,30.1852,0,0.000885,0,0
0:2:18.297,535.833,30.3231,0,0.000885,0,0
0:2:18.794,537.474,30.4128,0,0.000885,0,0
0:2:19.299,539.525,30.53,0,0.000885,0,0
0:2:19.801,541.989,30.6679,0,0.000885,0,0
0:2:20.299,544.863,30.8334,0,0.000885,0,0
0:2:20.805,546.855,30.9437,0,0.000885,0,0
0:2:21.298,548.559,31.0402,0,0.000885,0,0
0:2:21.802,551.139,31.185,0,0.000885,0,0
0:2:22.297,553.19,31.3022,0,0.000885,0,0
0:2:22.801,555.36,31.4263,0,0.000885,0,0
0:2:23.293,557.589,31.5504,0,0.000885,0,0
0:2:23.801,559.875,31.6814,0,0.000885,0,0
0:2:24.305,561.401,31.771,0,0.000885,0,0
0:2:24.805,563.923,31.9089,0,0.000885,0,0
0:2:25.307,566.681,32.0675,0,0.000885,0,0
0:2:25.801,569.319,32.2192,0,0.000885,0,0
0:2:26.306,570.609,32.2881,0,0.000885,0,0
0:2:26.800,573.073,32.426,0,0.000885,0,0
0:2:27.304,575.36,32.557,0,0.000885,0,0
0:2:27.797,577.651,32.688,0,0.000885,0,0
0:2:28.303,579.759,32.8053,0,0.000885,0,0
0:2:28.793,582.045,32.9363,0,0.000885,0,0
0:2:29.300,583.865,33.0397,0,0.000885,0,0
0:2:29.801,586.623,33.1983,0,0.000885,0,0
0:2:30.302,588.851,33.3224,0,0.000885,0,0
0:2:30.798,591.489,33.474,0,0.000885,0,0
0:2:31.303,593.25,33.5706,0,0.000885,0,0
0:2:31.800,595.421,33.6947,0,0.000885,0,0
0:2:32.304,597.183,33.7912,0,0.000885,0,0
0:2:32.801,599.064,33.9015,0,0.000885,0,0
0:2:33.307,601.529,34.0394,0,0.000885,0,0
0:2:33.805,604.171,34.1911,0,0.000885,0,0
0:2:34.311,605.812,34.2807,0,0.000885,0,0
0:2:34.815,609.099,34.4669,0,0.000885,0,0
0:2:35.317,610.919,34.5703,0,0.000885,0,0
0:2:35.815,612.974,34.6875,0,0.000885,0,0
0:2:36.310,615.322,34.8185,0,0.000885,0,0
0:2:36.808,617.671,34.9495,0,0.000885,0,0
0:2:37.303,619.958,35.0805,0,0.000885,0,0
0:2:37.799,621.546,35.1702,0,0.000885,0,0
0:2:38.304,624.126,35.3149,0,0.000885,0,0
0:2:38.803,626.065,35.4253,0,0.000885,0,0
0:2:39.308,627.764,35.5218,0,0.000885,0,0
0:2:39.812,631.114,35.7148,0,0.000885,0,0
0:2:40.316,633.4,35.8458,0,0.000885,0,0
0:2:40.812,635.575,35.9631,0,0.000885,0,0
0:2:41.309,636.923,36.0458,0,0.000885,0,0
0:2:41.806,639.445,36.1837,0,0.000885,0,0
0:2:42.302,642.145,36.3354,0,0.000885,0,0
0:2:42.806,643.791,36.4319,0,0.000885,0,0
0:2:43.304,645.788,36.5422,0,0.000885,0,0
0:2:43.809,648.311,36.687,0,0.000885,0,0
0:2:44.314,650.25,36.7973,0,0.000885,0,0
0:2:44.815,652.421,36.9214,0,0.000885,0,0
0:2:45.313,654.649,37.0455,0,0.000885,0,0
0:2:45.807,656.998,37.1765,0,0.000885,0,0
0:2:46.305,658.817,37.28,0,0.000885,0,0
0:2:46.802,661.869,37.4523,0,0.000885,0,0
0:2:47.299,663.75,37.5626,0,0.000885,0,0
0:2:47.805,665.685,37.673,0,0.000885,0,0
0:2:48.302,668.505,37.8315,0,0.000885,0,0
0:2:48.802,671.143,37.9763,0,0.000885,0,0
0:2:49.310,672.495,38.0522,0,0.000885,0,0
0:2:49.813,674.373,38.1625,0,0.000885,0,0
0:2:50.313,676.957,38.3073,0,0.000885,0,0
0:2:50.811,678.95,38.4176,0,0.000885,0,0
0:2:51.306,681.534,38.5693,0,0.000885,0,0
0:2:51.804,684.292,38.721,0,0.000885,0,0
0:2:52.309,686.054,38.8244,0,0.000885,0,0
0:2:52.806,687.757,38.9209,0,0.000885,0,0
0:2:53.301,690.106,39.0519,0,0.000885,0,0
0:2:53.808,692.161,39.1691,0,0.000885,0,0
0:2:54.313,694.683,39.3139,0,0.000885,0,0
0:2:54.818,696.796,39.4311,0,0.000885,0,0
0:2:55.320,699.496,39.5828,0,0.000885,0,0
0:2:55.815,701.08,39.6724,0,0.000885,0,0
0:2:56.312,703.077,39.7827,0,0.000885,0,0
0:2:56.808,706.48,39.9758,0,0.000885,0,0
0:2:57.305,708.241,40.0792,0,0.000885,0,0
0:2:57.801,709.887,40.1689,0,0.000885,0,0
0:2:58.307,712.174,40.2999,0,0.000885,0,0
0:2:58.814,714.816,40.4515,0,0.000885,0,0
0:2:59.318,716.168,40.5274,0,0.000885,0,0
0:2:59.821,718.69,40.6722,0,0.000885,0,0
0:3:0.317,721.217,40.8101,0,0.000885,0,0
0:3:0.813,723.681,40.9549,0,0.000885,0,0
0:3:1.309,725.385,41.0514,0,0.000885,0,0
0:3:1.806,728.085,41.2031,0,0.000885,0,0
0:3:2.302,729.842,41.2996,0,0.000885,0,0
0:3:2.809,732.191,41.4306,0,0.000885,0,0
0:3:3.305,735.069,41.5961,0,0.000885,0,0
0:3:3.809,736.594,41.6857,0,0.000885,0,0
0:3:4.314,738.236,41.7753,0,0.000885,0,0
0:3:4.817,740.762,41.9201,0,0.000885,0,0
0:3:5.316,743.284,42.058,0,0.000885,0,0
0:3:5.812,745.282,42.1752,0,0.000885,0,0
0:3:6.309,748.453,42.3545,0,0.000885,0,0
0:3:6.807,750.504,42.4717,0,0.000885,0,0
0:3:7.302,751.856,42.5475,0,0.000885,0,0
0:3:7.800,754.147,42.6785,0,0.000885,0,0
0:3:8.306,756.14,42.7889,0,0.000885,0,0
0:3:8.804,758.373,42.913,0,0.000885,0,0
0:3:9.311,761.131,43.0715,0,0.000885,0,0
0:3:9.813,763.537,43.2094,0,0.000885,0,0
0:3:10.316,766.002,43.3473,0,0.000885,0,0
0:3:10.812,768.114,43.4645,0,0.000885,0,0
0:3:11.310,769.702,43.5542,0,0.000885,0,0
0:3:11.805,771.286,43.6438,0,0.000885,0,0
0:3:12.302,773.515,43.7748,0,0.000885,0,0
0:3:12.806,776.215,43.9265,0,0.000885,0,0
0:3:13.303,778.621,44.0644,0,0.000885,0,0
0:3:13.795,780.912,44.1885,0,0.000885,0,0
0:3:14.304,782.616,44.285,0,0.000885,0,0
0:3:14.808,785.489,44.4505,0,0.000885,0,0
0:3:15.313,787.371,44.5539,0,0.000885,0,0
0:3:15.809,789.715,44.6918,0,0.000885,0,0
0:3:16.306,792.006,44.8159,0,0.000885,0,0
0:3:16.800,794.648,44.9676,0,0.000885,0,0
0:3:17.307,796.116,45.0503,0,0.000885,0,0
0:3:17.803,798.287,45.1744,0,0.000885,0,0
0:3:18.298,800.693,45.3123,0,0.000885,0,0
0:3:18.805,802.455,45.4089,0,0.000885,0,0
0:3:19.309,805.742,45.595,0,0.000885,0,0
0:3:19.813,807.326,45.6847,0,0.000885,0,0
0:3:20.311,809.616,45.8157,0,0.000885,0,0
0:3:20.807,811.32,45.9122,0,0.000885,0,0
0:3:21.304,813.549,46.0363,0,0.000885,0,0
0:3:21.801,816.013,46.1742,0,0.000885,0,0
0:3:22.308,818.126,46.2983,0,0.000885,0,0
0:3:22.804,820.595,46.4362,0,0.000885,0,0
0:3:23.299,822.65,46.5534,0,0.000885,0,0
0:3:23.803,824.642,46.6637,0,0.000885,0,0
0:3:24.309,827.578,46.8292,0,0.000885,0,0
0:3:24.813,829.985,46.9671,0,0.000885,0,0
0:3:25.312,831.982,47.0774,0,0.000885,0,0
0:3:25.810,833.272,47.1532,0,0.000885,0,0
0:3:26.305,836.323,47.3256,0,0.000885,0,0
0:3:26.802,837.324,47.3808,0,0.000885,0,0
0:3:27.297,839.962,47.5325,0,0.000885,0,0
0:3:27.805,843.134,47.7117,0,0.000885,0,0
0:3:28.311,844.775,47.8014,0,0.000885,0,0
0:3:28.810,846.83,47.9186,0,0.000885,0,0
0:3:29.317,848.885,48.0358,0,0.000885,0,0
0:3:29.820,851.937,48.2081,0,0.000885,0,0
0:3:30.321,854.228,48.3391,0,0.000885,0,0
0:3:30.817,856.518,48.4701,0,0.000885,0,0
0:3:31.314,858.102,48.5598,0,0.000885,0,0
0:3:31.810,860.037,48.6701,0,0.000885,0,0
0:3:32.308,862.564,48.808,0,0.000885,0,0
0:3:32.805,865.028,48.9528,0,0.000885,0,0
0:3:33.303,867.492,49.0907,0,0.000885,0,0
0:3:33.809,869.489,49.201,0,0.000885,0,0
0:3:34.315,871.193,49.2975,0,0.000885,0,0
0:3:34.819,873.657,49.4423,0,0.000885,0,0
0:3:35.322,875.886,49.5664,0,0.000885,0,0
0:3:35.818,878.235,49.6974,0,0.000885,0,0
0:3:36.315,880.174,49.8077,0,0.000885,0,0
0:3:36.812,882.754,49.9525,0,0.000885,0,0
0:3:37.307,884.809,50.0697,0,0.000885,0,0
0:3:37.812,886.98,50.1938,0,0.000885,0,0
0:3:38.308,889.155,50.3179,0,0.000885,0,0
0:3:38.805,890.917,50.4145,0,0.000885,0,0
0:3:39.312,893.496,50.5593,0,0.000885,0,0
0:3:39.815,895.258,50.6627,0,0.000885,0,0
0:3:40.318,898.367,50.835,0,0.000885,0,0
0:3:40.816,900.542,50.9592,0,0.000885,0,0
0:3:41.312,902.655,51.0764,0,0.000885,0,0
0:3:41.809,904.297,51.1729,0,0.000885,0,0
0:3:42.306,907.055,51.3315,0,0.000885,0,0
0:3:42.804,908.878,51.4349,0,0.000885,0,0
0:3:43.311,911.223,51.5659,0,0.000885,0,0
0:3:43.807,913.162,51.6762,0,0.000885,0,0
0:3:44.313,915.217,51.7934,0,0.000885,0,0
0:3:44.818,917.681,51.9313,0,0.000885,0,0
0:3:45.321,919.737,52.0485,0,0.000885,0,0
0:3:45.815,922.143,52.1795,0,0.000885,0,0
0:3:46.313,924.959,52.345,0,0.000885,0,0
0:3:46.807,926.605,52.4346,0,0.000885,0,0
0:3:47.305,928.833,52.5587,0,0.000885,0,0
0:3:47.798,930.946,52.6828,0,0.000885,0,0
0:3:48.306,933.588,52.8276,0,0.000885,0,0
0:3:48.811,934.941,52.9035,0,0.000885,0,0
0:3:49.318,937.756,53.0689,0,0.000885,0,0
0:3:49.820,939.754,53.1793,0,0.000885,0,0
0:3:50.316,941.573,53.2827,0,0.000885,0,0
0:3:50.812,944.509,53.4482,0,0.000885,0,0
0:3:51.309,946.915,53.5861,0,0.000885,0,0
0:3:51.804,948.321,53.6619,0,0.000885,0,0
0:3:52.311,951.377,53.8343,0,0.000885,0,0
0:3:52.809,953.312,53.9446,0,0.000885,0,0
0:3:53.306,954.664,54.0204,0,0.000885,0,0
0:3:53.807,957.422,54.179,0,0.000885,0,0
0:3:54.313,960.002,54.3238,0,0.000885,0,0
0:3:54.815,962.293,54.4548,0,0.000885,0,0
0:3:55.315,963.703,54.5375,0,0.000885,0,0
0:3:55.813,966.696,54.703,0,0.000885,0,0
0:3:56.309,969.396,54.8547,0,0.000885,0,0
0:3:56.807,970.509,54.9167,0,0.000885,0,0
0:3:57.300,972.799,55.0477,0,0.000885,0,0
0:3:57.809,975.326,55.1925,0,0.000885,0,0
0:3:58.302,976.789,55.2753,0,0.000885,0,0
0:3:58.800,979.432,55.427,0,0.000885,0,0
0:3:59.308,981.958,55.5648,0,0.000885,0,0
0:3:59.812,984.601,55.7165,0,0.000885,0,0
0:4:0.315,986.651,55.8337,0,0.000885,0,0
0:4:0.809,988.826,55.9579,0,0.000885,0,0
0:4:1.307,991.406,56.1026,0,0.000885,0,0
0:4:1.799,992.638,56.1716,0,0.000885,0,0
0:4:2.310,994.751,56.2888,0,0.000885,0,0
0:4:2.814,997.1,56.4267,0,0.000885,0,0
0:4:3.310,998.982,56.5301,0,0.000885,0,0
0:4:3.805,1001.21,56.6542,0,0.000885,0,0
0:4:4.312,1003.73,56.799,0,0.000885,0,0
0:4:4.815,1006.96,56.9852,0,0.000885,0,0
0:4:5.318,1008.55,57.0748,0,0.000885,0,0
0:4:5.814,1010.37,57.1782,0,0.000885,0,0
0:4:6.311,1013.07,57.3299,0,0.000885,0,0
0:4:6.807,1014.83,57.4264,0,0.000885,0,0
0:4:7.301,1017.24,57.5643,0,0.000885,0,0
0:4:7.798,1019.52,57.6953,0,0.000885,0,0
0:4:8.306,1021.05,57.7781,0,0.000885,0,0
0:4:8.811,1023.93,57.9435,0,0.000885,0,0
0:4:9.315,1026.39,58.0814,0,0.000885,0,0
0:4:9.818,1028.92,58.2262,0,0.000885,0,0
0:4:10.315,1030.03,58.2883,0,0.000885,0,0
0:4:10.812,1032.44,58.4262,0,0.000885,0,0
0:4:11.309,1035.2,58.5779,0,0.000885,0,0
0:4:11.816,1036.72,58.6675,0,0.000885,0,0
0:4:12.312,1039.19,58.8054,0,0.000885,0,0
0:4:12.810,1041.54,58.9364,0,0.000885,0,0
0:4:13.304,1043.41,59.0467,0,0.000885,0,0
0:4:13.803,1045.71,59.1777,0,0.000885,0,0
0:4:14.311,1048.35,59.3225,0,0.000885,0,0
0:4:14.814,1049.99,59.419,0,0.000885,0,0
0:4:15.317,1052.63,59.5638,0,0.000885,0,0
0:4:15.813,1055.27,59.7155,0,0.000885,0,0
0:4:16.310,1057.27,59.8258,0,0.000885,0,0
0:4:16.803,1059.03,59.9292,0,0.000885,0,0
0:4:17.300,1061.55,60.074,0,0.000885,0,0
0:4:17.808,1063.61,60.1912,0,0.000885,0,0
0:4:18.313,1065.72,60.3084,0,0.000885,0,0
0:4:18.809,1068.13,60.4463,0,0.000885,0,0
0:4:19.313,1070.65,60.5842,0,0.000885,0,0
0:4:19.817,1071.71,60.6463,0,0.000885,0,0
0:4:20.319,1074,60.7773,0,0.000885,0,0
0:4:20.818,1076.64,60.9221,0,0.000885,0,0
0:4:21.314,1079.1,61.0669,0,0.000885,0,0
0:4:21.809,1081.34,61.191,0,0.000885,0,0
0:4:22.316,1083.74,61.3289,0,0.000885,0,0
0:4:22.810,1085.8,61.4461,0,0.000885,0,0
0:4:23.308,1088.08,61.5702,0,0.000885,0,0
0:4:23.813,1089.97,61.6805,0,0.000885,0,0
0:4:24.317,1092.31,61.8115,0,0.000885,0,0
0:4:24.819,1094.31,61.9218,0,0.000885,0,0
0:4:25.315,1096.6,62.0528,0,0.000885,0,0
0:4:25.812,1099.24,62.2045,0,0.000885,0,0
0:4:26.308,1100.53,62.2803,0,0.000885,0,0
0:4:26.814,1102.59,62.3907,0,0.000885,0,0
0:4:27.311,1105.17,62.5423,0,0.000885,0,0
0:4:27.808,1107.87,62.694,0,0.000885,0,0
0:4:28.303,1109.92,62.8112,0,0.000885,0,0
0:4:28.804,1112.21,62.9353,0,0.000885,0,0
0:4:29.312,1114.62,63.0732,0,0.000885,0,0
0:4:29.815,1116.85,63.1973,0,0.000885,0,0
0:4:30.314,1118.9,63.3146,0,0.000885,0,0
0:4:30.812,1121.13,63.4456,0,0.000885,0,0
0:4:31.306,1123.36,63.5697,0,0.000885,0,0
0:4:31.803,1125.18,63.6731,0,0.000885,0,0
0:4:32.299,1127.53,63.8041,0,0.000885,0,0
0:4:32.817,1130.64,63.9833,0,0.000885,0,0
0:4:33.313,1132.17,64.0661,0,0.000885,0,0
0:4:33.806,1134.16,64.1833,0,0.000885,0,0
0:4:34.314,1136.33,64.3005,0,0.000885,0,0
0:4:34.818,1137.98,64.397,0,0.000885,0,0
0:4:35.321,1140.8,64.5556,0,0.000885,0,0
0:4:35.818,1143.5,64.7073,0,0.000885,0,0
0:4:36.315,1145.67,64.8314,0,0.000885,0,0
0:4:36.810,1147.2,64.921,0,0.000885,0,0
0:4:37.317,1149.78,65.0658,0,0.000885,0,0
0:4:37.812,1152.07,65.1968,0,0.000885,0,0
0:4:38.309,1154.06,65.3071,0,0.000885,0,0
0:4:38.815,1156.35,65.4381,0,0.000885,0,0
0:4:39.319,1158.94,65.5829,0,0.000885,0,0
0:4:39.822,1160.46,65.6657,0,0.000885,0,0
0:4:40.319,1163.05,65.8174,0,0.000885,0,0
0:4:40.814,1164.74,65.9139,0,0.000885,0,0
0:4:41.310,1167.09,66.0449,0,0.000885,0,0
0:4:41.815,1169.56,66.1828,0,0.000885,0,0
0:4:42.312,1171.85,66.3138,0,0.000885,0,0
0:4:42.806,1173.96,66.431,0,0.000885,0,0
0:4:43.302,1175.96,66.5482,0,0.000885,0,0
0:4:43.806,1178.89,66.7137,0,0.000885,0,0
0:4:44.314,1181.47,66.8585,0,0.000885,0,0
0:4:44.816,1182.94,66.9412,0,0.000885,0,0
0:4:45.314,1185.06,67.0584,0,0.000885,0,0
0:4:45.812,1186.99,67.1687,0,0.000885,0,0
0:4:46.318,1188.4,67.2515,0,0.000885,0,0
0:4:46.815,1190.87,67.3894,0,0.000885,0,0
0:4:47.311,1193.86,67.5617,0,0.000885,0,0
0:4:47.817,1196.91,67.7341,0,0.000885,0,0
0:4:48.313,1198.38,67.8168,0,0.000885,0,0
0:4:48.812,1200.85,67.9547,0,0.000885,0,0
0:4:49.318,1202.78,68.065,0,0.000885,0,0
0:4:49.822,1204.84,68.1823,0,0.000885,0,0
0:4:50.323,1206.83,68.2926,0,0.000885,0,0
0:4:50.818,1209.65,68.4512,0,0.000885,0,0
0:4:51.315,1211.47,68.5546,0,0.000885,0,0
0:4:51.812,1213.7,68.6787,0,0.000885,0,0
0:4:52.307,1215.99,68.8097,0,0.000885,0,0
0:4:52.802,1217.75,68.9131,0,0.000885,0,0
0:4:53.300,1220.33,69.0579,0,0.000885,0,0
0:4:53.795,1222.57,69.182,0,0.000885,0,0
0:4:54.302,1224.09,69.2716,0,0.000885,0,0
0:4:54.805,1226.38,69.3957,0,0.000885,0,0
0:4:55.308,1229.55,69.575,0,0.000885,0,0
0:4:55.816,1231.9,69.7129,0,0.000885,0,0
0:4:56.314,1233.78,69.8163,0,0.000885,0,0
0:4:56.808,1235.65,69.9266,0,0.000885,0,0
0:4:57.315,1237.54,70.03,0,0.000885,0,0
0:4:57.812,1239.88,70.1611,0,0.000885,0,0
0:4:58.305,1242.41,70.3058,0,0.000885,0,0
0:4:58.802,1245.05,70.4575,0,0.000885,0,0
0:4:59.311,1246.34,70.5265,0,0.000885,0,0
0:4:59.815,1249.04,70.6782,0,0.000885,0,0
0:5:0.318,1251.27,70.8092,0,0.000885,0,0
0:5:0.816,1253.97,70.9608,0,0.000885,0,0
0:5:1.309,1255.38,71.0367,0,0.000885,0,0
0:5:1.818,1257.67,71.1677,0,0.000885,0,0
0:5:2.313,1260.6,71.3332,0,0.000885,0,0
0:5:2.808,1262.3,71.4297,0,0.000885,0,0
0:5:3.303,1264.3,71.5469,0,0.000885,0,0
0:5:3.802,1266.71,71.6779,0,0.000885,0,0
0:5:4.308,1268.64,71.7882,0,0.000885,0,0
0:5:4.814,1271.34,71.9468,0,0.000885,0,0
0:5:5.318,1274.04,72.0985,0,0.000885,0,0
0:5:5.809,1276.27,72.2226,0,0.000885,0,0
0:5:6.306,1277.62,72.2984,0,0.000885,0,0
0:5:6.804,1279.33,72.395,0,0.000885,0,0
0:5:7.301,1282.08,72.5535,0,0.000885,0,0
0:5:7.806,1283.9,72.657,0,0.000885,0,0
0:5:8.303,1286.72,72.8155,0,0.000885,0,0
0:5:8.808,1289.6,72.9741,0,0.000885,0,0
0:5:9.314,1291.07,73.0568,0,0.000885,0,0
0:5:9.819,1293.47,73.1947,0,0.000885,0,0
0:5:10.316,1295.7,73.3188,0,0.000885,0,0
0:5:10.810,1297.17,73.4016,0,0.000885,0,0
0:5:11.306,1299.46,73.5326,0,0.000885,0,0
0:5:11.815,1301.93,73.6774,0,0.000885,0,0
0:5:12.309,1303.92,73.7877,0,0.000885,0,0
0:5:12.805,1306.45,73.9325,0,0.000885,0,0
0:5:13.302,1308.91,74.0704,0,0.000885,0,0
0:5:13.807,1311.26,74.2014,0,0.000885,0,0
0:5:14.314,1313.08,74.3048,0,0.000885,0,0
0:5:14.816,1315.43,74.4358,0,0.000885,0,0
0:5:15.314,1317.54,74.5599,0,0.000885,0,0
0:5:15.808,1319.42,74.6633,0,0.000885,0,0
0:5:16.316,1321.65,74.7874,0,0.000885,0,0
0:5:16.813,1324.06,74.9253,0,0.000885,0,0
0:5:17.319,1326.87,75.0839,0,0.000885,0,0
0:5:17.816,1328.34,75.1666,0,0.000885,0,0
0:5:18.309,1331.16,75.3252,0,0.000885,0,0
0:5:18.811,1333.15,75.4424,0,0.000885,0,0
0:5:19.319,1334.97,75.5459,0,0.000885,0,0
0:5:19.822,1337.85,75.7044,0,0.000885,0,0
0:5:20.323,1339.61,75.8079,0,0.000885,0,0
0:5:20.819,1341.96,75.9389,0,0.000885,0,0
0:5:21.315,1343.78,76.0423,0,0.000885,0,0
0:5:21.810,1346.25,76.1802,0,0.000885,0,0
0:5:22.305,1348.24,76.2974,0,0.000885,0,0
0:5:22.811,1350.35,76.4146,0,0.000885,0,0
0:5:23.320,1353.11,76.5732,0,0.000885,0,0
0:5:23.817,1355.4,76.6973,0,0.000885,0,0
0:5:24.321,1357.16,76.8007,0,0.000885,0,0
0:5:24.827,1358.98,76.9041,0,0.000885,0,0
0:5:25.328,1361.97,77.0696,0,0.000885,0,0
0:5:25.824,1363.79,77.173,0,0.000885,0,0
0:5:26.321,1366.49,77.3247,0,0.000885,0,0
0:5:26.816,1368.38,77.435,0,0.000885,0,0
0:5:27.314,1369.78,77.5109,0,0.000885,0,0
0:5:27.807,1372.6,77.6763,0,0.000885,0,0
0:5:28.305,1374.66,77.7867,0,0.000885,0,0
0:5:28.809,1376.71,77.9039,0,0.000885,0,0
0:5:29.315,1379.18,78.0487,0,0.000885,0,0
0:5:29.818,1381.7,78.1865,0,0.000885,0,0
0:5:30.316,1384.16,78.3244,0,0.000885,0,0
0:5:30.809,1386.1,78.4348,0,0.000885,0,0
0:5:31.318,1388.33,78.5658,0,0.000885,0,0
0:5:31.810,1390.68,78.6968,0,0.000885,0,0
0:5:32.307,1392.26,78.7864,0,0.000885,0,0
0:5:32.815,1395.02,78.945,0,0.000885,0,0
0:5:33.307,1397.25,79.0691,0,0.000885,0,0
0:5:33.812,1399.19,79.1794,0,0.000885,0,0
0:5:34.320,1400.89,79.2759,0,0.000885,0,0
0:5:34.824,1403.42,79.4138,0,0.000885,0,0
0:5:35.322,1406.47,79.5931,0,0.000885,0,0
0:5:35.820,1407.64,79.6551,0,0.000885,0,0
0:5:36.323,1410.58,79.8206,0,0.000885,0,0
0:5:36.821,1412.4,79.924,0,0.000885,0,0
0:5:37.316,1414.63,80.055,0,0.000885,0,0
0:5:37.815,1416.74,80.1722,0,0.000885,0,0
0:5:38.308,1419.73,80.3377,0,0.000885,0,0
0:5:38.817,1421.26,80.4273,0,0.000885,0,0
0:5:39.324,1423.44,80.5514,0,0.000885,0,0
0:5:39.826,1425.78,80.6824,0,0.000885,0,0
0:5:40.330,1428.25,80.8203,0,0.000885,0,0
0:5:40.826,1429.72,80.9031,0,0.000885,0,0
0:5:41.324,1432.47,81.0617,0,0.000885,0,0
0:5:41.819,1435.12,81.2133,0,0.000885,0,0
0:5:42.317,1436.82,81.3099,0,0.000885,0,0
0:5:42.810,1438.52,81.4064,0,0.000885,0,0
0:5:43.320,1441.51,81.5719,0,0.000885,0,0
0:5:43.813,1443.1,81.6615,0,0.000885,0,0
0:5:44.322,1445.8,81.8132,0,0.000885,0,0
0:5:44.826,1447.97,81.9373,0,0.000885,0,0
0:5:45.328,1450.44,82.0752,0,0.000885,0,0
0:5:45.824,1452.26,82.1786,0,0.000885,0,0
0:5:46.320,1454.96,82.3303,0,0.000885,0,0
0:5:46.816,1457.3,82.4682,0,0.000885,0,0
0:5:47.310,1459.3,82.5785,0,0.000885,0,0
0:5:47.818,1461.24,82.6888,0,0.000885,0,0
0:5:48.312,1462.88,82.7854,0,0.000885,0,0
0:5:48.819,1465.35,82.9232,0,0.000885,0,0
0:5:49.324,1467.81,83.0611,0,0.000885,0,0
0:5:49.826,1470.51,83.2128,0,0.000885,0,0
0:5:50.322,1472.57,83.33,0,0.000885,0,0
0:5:50.819,1474.33,83.4266,0,0.000885,0,0
0:5:51.313,1476.15,83.53,0,0.000885,0,0
0:5:51.810,1479.08,83.6955,0,0.000885,0,0
0:5:52.318,1481.25,83.8196,0,0.000885,0,0
0:5:52.812,1483.73,83.9644,0,0.000885,0,0
0:5:53.308,1485.91,84.0816,0,0.000885,0,0
0:5:53.809,1487.49,84.1781,0,0.000885,0,0
0:5:54.317,1489.61,84.2953,0,0.000885,0,0
0:5:54.820,1491.91,84.4263,0,0.000885,0,0
0:5:55.320,1494.21,84.5573,0,0.000885,0,0
0:5:55.817,1496.33,84.6745,0,0.000885,0,0
0:5:56.312,1498.74,84.8124,0,0.000885,0,0
0:5:56.810,1501.1,84.9434,0,0.000885,0,0
0:5:57.306,1502.98,85.0537,0,0.000885,0,0
0:5:57.811,1505.1,85.1709,0,0.000885,0,0
0:5:58.309,1507.45,85.3019,0,0.000885,0,0
0:5:58.819,1509.69,85.4329,0,0.000885,0,0
0:5:59.325,1512.05,85.5639,0,0.000885,0,0
0:5:59.828,1514.7,85.7156,0,0.000885,0,0
0:6:0.330,1516.76,85.8328,0,0.000885,0,0
0:6:0.826,1519,85.9569,0,0.000885,0,0
0:6:1.324,1521,86.0741,0,0.000885,0,0
0:6:1.820,1522.88,86.1776,0,0.000885,0,0
0:6:2.314,1524.94,86.2948,0,0.000885,0,0
0:6:2.823,1527.71,86.4534,0,0.000885,0,0
0:6:3.319,1530.18,86.5913,0,0.000885,0,0
0:6:3.814,1531.77,86.6809,0,0.000885,0,0
0:6:4.323,1533.78,86.7912,0,0.000885,0,0
0:6:4.826,1536.31,86.936,0,0.000885,0,0
0:6:5.331,1537.84,87.0256,0,0.000885,0,0
0:6:5.828,1540.49,87.1704,0,0.000885,0,0
0:6:6.324,1543.08,87.3221,0,0.000885,0,0
0:6:6.819,1545.14,87.4393,0,0.000885,0,0
0:6:7.314,1547.44,87.5703,0,0.000885,0,0
0:6:7.812,1550.09,87.7151,0,0.000885,0,0
0:6:8.308,1551.62,87.8047,0,0.000885,0,0
0:6:8.804,1553.44,87.9082,0,0.000885,0,0
0:6:9.310,1556.45,88.0736,0,0.000885,0,0
0:6:9.813,1558.51,88.1908,0,0.000885,0,0
0:6:10.315,1560.63,88.3149,0,0.000885,0,0
0:6:10.813,1562.81,88.4391,0,0.000885,0,0
0:6:11.311,1565.04,88.5632,0,0.000885,0,0
0:6:11.815,1566.81,88.6666,0,0.000885,0,0
0:6:12.311,1569.16,88.7976,0,0.000885,0,0
0:6:12.816,1571.52,88.9286,0,0.000885,0,0
0:6:13.314,1573.52,89.0458,0,0.000885,0,0
0:6:13.820,1575.76,89.1699,0,0.000885,0,0
0:6:14.324,1578.18,89.3078,0,0.000885,0,0
0:6:14.826,1581,89.4664,0,0.000885,0,0
0:6:15.323,1582.41,89.5491,0,0.000885,0,0
0:6:15.828,1584.42,89.6594,0,0.000885,0,0
0:6:16.326,1587.01,89.8042,0,0.000885,0,0
0:6:16.822,1589.3,89.9352,0,0.000885,0,0
0:6:17.320,1591.72,90.0731,0,0.000885,0,0
0:6:17.825,1594.07,90.2041,0,0.000885,0,0
0:6:18.321,1596.25,90.3282,0,0.000885,0,0
0:6:18.828,1597.49,90.3972,0,0.000885,0,0
0:6:19.332,1599.9,90.5351,0,0.000885,0,0
0:6:19.836,1602.49,90.6798,0,0.000885,0,0
0:6:20.334,1604.38,90.7902,0,0.000885,0,0
0:6:20.830,1607.32,90.9556,0,0.000885,0,0
0:6:21.326,1609.68,91.0866,0,0.000885,0,0
0:6:21.822,1611.21,91.1763,0,0.000885,0,0
0:6:22.328,1613.33,91.2935,0,0.000885,0,0
0:6:22.826,1615.86,91.4383,0,0.000885,0,0
0:6:23.321,1617.8,91.5486,0,0.000885,0,0
0:6:23.823,1619.86,91.6658,0,0.000885,0,0
0:6:24.330,1622.28,91.8037,0,0.000885,0,0
0:6:24.833,1624.69,91.9416,0,0.000885,0,0
0:6:25.332,1626.81,92.0588,0,0.000885,0,0
0:6:25.831,1629.11,92.1898,0,0.000885,0,0
0:6:26.327,1631.7,92.3346,0,0.000885,0,0
0:6:26.823,1633.17,92.4173,0,0.000885,0,0
0:6:27.317,1635.53,92.5552,0,0.000885,0,0
0:6:27.814,1638.06,92.6931,0,0.000885,0,0
0:6:28.311,1639.59,92.7827,0,0.000885,0,0
0:6:28.806,1642.06,92.9206,0,0.000885,0,0
0:6:29.311,1644.71,93.0723,0,0.000885,0,0
0:6:29.815,1646.18,93.1551,0,0.000885,0,0
0:6:30.316,1648.84,93.3068,0,0.000885,0,0
0:6:30.813,1651.37,93.4515,0,0.000885,0,0
0:6:31.311,1653.55,93.5688,0,0.000885,0,0
0:6:31.805,1654.84,93.6446,0,0.000885,0,0
0:6:32.313,1658.14,93.8308,0,0.000885,0,0
0:6:32.829,1660.49,93.9618,0,0.000885,0,0
0:6:33.326,1661.96,94.0445,0,0.000885,0,0
0:6:33.821,1664.5,94.1893,0,0.000885,0,0
0:6:34.328,1666.32,94.2927,0,0.000885,0,0
0:6:34.832,1668.97,94.4444,0,0.000885,0,0
0:6:35.335,1670.68,94.5409,0,0.000885,0,0
0:6:35.832,1673.51,94.6995,0,0.000885,0,0
0:6:36.328,1676.04,94.8443,0,0.000885,0,0
0:6:36.823,1677.45,94.927,0,0.000885,0,0
0:6:37.318,1680.04,95.0718,0,0.000885,0,0
0:6:37.815,1682.28,95.1959,0,0.000885,0,0
0:6:38.310,1684.16,95.3062,0,0.000885,0,0
0:6:38.815,1686.34,95.4303,0,0.000885,0,0
0:6:39.323,1689.17,95.5889,0,0.000885,0,0
0:6:39.825,1691.35,95.713,0,0.000885,0,0
0:6:40.324,1693.41,95.8302,0,0.000885,0,0
0:6:40.820,1695.35,95.9405,0,0.000885,0,0
0:6:41.314,1697.47,96.0578,0,0.000885,0,0
0:6:41.812,1699.41,96.1681,0,0.000885,0,0
0:6:42.308,1702.06,96.3198,0,0.000885,0,0
0:6:42.806,1704.18,96.437,0,0.000885,0,0
0:6:43.311,1706.19,96.5473,0,0.000885,0,0
0:6:43.810,1708.66,96.6921,0,0.000885,0,0
0:6:44.318,1711.43,96.8438,0,0.000885,0,0
0:6:44.823,1713.01,96.9403,0,0.000885,0,0
0:6:45.325,1715.55,97.0782,0,0.000885,0,0
0:6:45.820,1717.08,97.1678,0,0.000885,0,0
0:6:46.329,1719.9,97.3264,0,0.000885,0,0
0:6:46.825,1722.08,97.4505,0,0.000885,0,0
0:6:47.323,1724.2,97.5677,0,0.000885,0,0
0:6:47.828,1726.27,97.6849,0,0.000885,0,0
0:6:48.325,1728.21,97.7952,0,0.000885,0,0
0:6:48.818,1730.38,97.9193,0,0.000885,0,0
0:6:49.327,1732.51,98.0366,0,0.000885,0,0
0:6:49.830,1734.74,98.1676,0,0.000885,0,0
0:6:50.333,1737.92,98.3468,0,0.000885,0,0
0:6:50.831,1739.98,98.464,0,0.000885,0,0
0:6:51.327,1741.93,98.5743,0,0.000885,0,0
0:6:51.823,1743.64,98.6709,0,0.000885,0,0
0:6:52.329,1746.17,98.8157,0,0.000885,0,0
0:6:52.823,1748.58,98.9467,0,0.000885,0,0
0:6:53.318,1749.99,99.0294,0,0.000885,0,0
0:6:53.828,1753,99.2018,0,0.000885,0,0
0:6:54.331,1755.82,99.3603,0,0.000885,0,0
0:6:54.833,1757.06,99.4293,0,0.000885,0,0
0:6:55.330,1759.48,99.5672,0,0.000885,0,0
0:6:55.825,1761.83,99.6982,0,0.000885,0,0
0:6:56.318,1763.36,99.7878,0,0.000885,0,0
0:6:56.816,1765.66,99.9188,0,0.000885,0,0
0:6:57.312,1768.07,100.05,0,0.000885,0,0
0:6:57.809,1770.07,100.167,0,0.000885,0,0
0:6:58.314,1772.25,100.291,0,0.000885,0,0
0:6:58.815,1774.72,100.429,0,0.000885,0,0
0:6:59.324,1777.49,100.588,0,0.000885,0,0
0:6:59.828,1779.14,100.677,0,0.000885,0,0
0:7:0.329,1781.62,100.822,0,0.000885,0,0
0:7:0.826,1784.03,100.953,0,0.000885,0,0
0:7:1.319,1786.09,101.07,0,0.000885,0,0
0:7:1.817,1788.39,101.201,0,0.000885,0,0
0:7:2.313,1790.15,101.305,0,0.000885,0,0
0:7:2.809,1792.1,101.415,0,0.000885,0,0
0:7:3.305,1794.57,101.553,0,0.000885,0,0
0:7:3.811,1797.16,101.698,0,0.000885,0,0
0:7:4.317,1798.99,101.801,0,0.000885,0,0
0:7:4.822,1801.1,101.918,0,0.000885,0,0
0:7:5.326,1803.28,102.042,0,0.000885,0,0
0:7:5.822,1805.88,102.194,0,0.000885,0,0
0:7:6.318,1807.82,102.304,0,0.000885,0,0
0:7:6.815,1810.41,102.449,0,0.000885,0,0
0:7:7.320,1812.94,102.594,0,0.000885,0,0
0:7:7.815,1814.41,102.677,0,0.000885,0,0
0:7:8.312,1816.65,102.801,0,0.000885,0,0
0:7:8.809,1819.18,102.946,0,0.000885,0,0
0:7:9.314,1820.89,103.042,0,0.000885,0,0
0:7:9.820,1823.3,103.18,0,0.000885,0,0
0:7:10.321,1825.72,103.318,0,0.000885,0,0
0:7:10.830,1828.07,103.449,0,0.000885,0,0
0:7:11.325,1829.78,103.545,0,0.000885,0,0
0:7:11.819,1832.37,103.69,0,0.000885,0,0
0:7:12.315,1834.55,103.814,0,0.000885,0,0
0:7:12.811,1836.61,103.932,0,0.000885,0,0
0:7:13.327,1839.26,104.083,0,0.000885,0,0
0:7:13.833,1840.85,104.173,0,0.000885,0,0
0:7:14.338,1843.73,104.331,0,0.000885,0,0
0:7:14.840,1845.5,104.435,0,0.000885,0,0
0:7:15.339,1847.62,104.552,0,0.000885,0,0
0:7:15.835,1850.33,104.711,0,0.000885,0,0
0:7:16.331,1852.33,104.821,0,0.000885,0,0
0:7:16.829,1854.33,104.931,0,0.000885,0,0
0:7:17.323,1856.46,105.055,0,0.000885,0,0
0:7:17.820,1858.57,105.173,0,0.000885,0,0
0:7:18.316,1861.17,105.317,0,0.000885,0,0
0:7:18.815,1863.46,105.448,0,0.000885,0,0
0:7:19.320,1865.52,105.566,0,0.000885,0,0
0:7:19.827,1867.76,105.697,0,0.000885,0,0
0:7:20.329,1869.88,105.814,0,0.000885,0,0
0:7:20.823,1872.23,105.945,0,0.000885,0,0
0:7:21.321,1873.83,106.034,0,0.000885,0,0
0:7:21.817,1876.54,106.193,0,0.000885,0,0
0:7:22.335,1881.48,106.469,0,0.000885,0,0
0:7:22.831,1882.07,106.503,0,0.000885,0,0
0:7:23.327,1883.19,106.565,0,0.000885,0,0
0:7:23.822,1885.07,106.676,0,0.000885,0,0
0:7:24.329,1886.25,106.738,0,0.000885,0,0
0:7:24.833,1889.08,106.903,0,0.000885,0,0
0:7:25.336,1891.61,107.041,0,0.000885,0,0
0:7:25.833,1894.55,107.207,0,0.000885,0,0
0:7:26.329,1896.2,107.303,0,0.000885,0,0
0:7:26.824,1898.32,107.42,0,0.000885,0,0
0:7:27.330,1900.44,107.544,0,0.000885,0,0
0:7:27.827,1902.91,107.682,0,0.000885,0,0
0:7:28.320,1905.33,107.82,0,0.000885,0,0
0:7:28.818,1907.57,107.944,0,0.000885,0,0
0:7:29.327,1909.39,108.048,0,0.000885,0,0
0:7:29.831,1912.16,108.206,0,0.000885,0,0
0:7:30.335,1914.57,108.344,0,0.000885,0,0
0:7:30.832,1916.75,108.468,0,0.000885,0,0
0:7:31.325,1918.28,108.551,0,0.000885,0,0
0:7:31.821,1920.4,108.675,0,0.000885,0,0
0:7:32.316,1922.11,108.772,0,0.000885,0,0
0:7:32.813,1924.94,108.93,0,0.000885,0,0
0:7:33.309,1927.7,109.089,0,0.000885,0,0
0:7:33.814,1929.71,109.199,0,0.000885,0,0
0:7:34.318,1931.29,109.289,0,0.000885,0,0
0:7:34.822,1933.59,109.42,0,0.000885,0,0
0:7:35.320,1936.24,109.571,0,0.000885,0,0
0:7:35.817,1937.95,109.668,0,0.000885,0,0
0:7:36.311,1940.48,109.806,0,0.000885,0,0
0:7:36.809,1942.96,109.951,0,0.000885,0,0
0:7:37.305,1944.42,110.033,0,0.000885,0,0
0:7:37.802,1946.9,110.171,0,0.000885,0,0
0:7:38.297,1949.55,110.323,0,0.000885,0,0
0:7:38.803,1951.14,110.413,0,0.000885,0,0
0:7:39.308,1953.91,110.571,0,0.000885,0,0
0:7:39.812,1956.44,110.709,0,0.000885,0,0
0:7:40.310,1958.26,110.813,0,0.000885,0,0
0:7:40.815,1959.68,110.895,0,0.000885,0,0
0:7:41.313,1962.39,111.047,0,0.000885,0,0
0:7:41.809,1964.68,111.178,0,0.000885,0,0
0:7:42.315,1966.86,111.302,0,0.000885,0,0
0:7:42.833,1969.21,111.433,0,0.000885,0,0
0:7:43.331,1971.39,111.557,0,0.000885,0,0
0:7:43.835,1974.16,111.716,0,0.000885,0,0
0:7:44.341,1976.05,111.819,0,0.000885,0,0
0:7:44.846,1977.87,111.923,0,0.000885,0,0
0:7:45.344,1980.76,112.088,0,0.000885,0,0
0:7:45.841,1982.47,112.185,0,0.000885,0,0
0:7:46.338,1984.65,112.309,0,0.000885,0,0
0:7:46.834,1986.88,112.433,0,0.000885,0,0
0:7:47.332,1988.71,112.536,0,0.000885,0,0
0:7:47.839,1991.18,112.681,0,0.000885,0,0
0:7:48.335,1993.77,112.826,0,0.000885,0,0
0:7:48.836,1996.36,112.971,0,0.000885,0,0
0:7:49.342,1997.89,113.06,0,0.000885,0,0
0:7:49.845,2000.07,113.177,0,0.000885,0,0
0:7:50.346,2002.37,113.308,0,0.000885,0,0
0:7:50.844,2004.08,113.405,0,0.000885,0,0
0:7:51.340,2006.9,113.57,0,0.000885,0,0
0:7:51.837,2009.44,113.708,0,0.000885,0,0
0:7:52.333,2011.37,113.819,0,0.000885,0,0
0:7:52.831,2013.32,113.929,0,0.000885,0,0
0:7:53.336,2015.61,114.06,0,0.000885,0,0
0:7:53.833,2017.79,114.184,0,0.000885,0,0
0:7:54.340,2019.68,114.287,0,0.000885,0,0
0:7:54.844,2022.33,114.439,0,0.000885,0,0
0:7:55.348,2024.92,114.584,0,0.000885,0,0
0:7:55.844,2026.51,114.674,0,0.000885,0,0
0:7:56.339,2028.87,114.811,0,0.000885,0,0
0:7:56.835,2031.75,114.97,0,0.000885,0,0
0:7:57.333,2032.81,115.032,0,0.000885,0,0
0:7:57.826,2035.64,115.191,0,0.000885,0,0
0:7:58.334,2038.17,115.335,0,0.000885,0,0
0:7:58.827,2039.76,115.425,0,0.000885,0,0
0:7:59.335,2042,115.556,0,0.000885,0,0
0:7:59.841,2044.18,115.673,0,0.000885,0,0
0:8:0.344,2046.71,115.818,0,0.000885,0,0
0:8:0.840,2048.94,115.949,0,0.000885,0,0
0:8:1.337,2051.12,116.066,0,0.000885,0,0
0:8:1.832,2053.53,116.204,0,0.000885,0,0
0:8:2.327,2054.71,116.273,0,0.000885,0,0
0:8:2.824,2057.6,116.439,0,0.000885,0,0
0:8:3.320,2060.48,116.597,0,0.000885,0,0
0:8:3.827,2061.31,116.646,0,0.000885,0,0
0:8:4.333,2063.96,116.797,0,0.000885,0,0
0:8:4.836,2066.26,116.928,0,0.000885,0,0
0:8:5.332,2069.14,117.087,0,0.000885,0,0
0:8:5.828,2070.79,117.183,0,0.000885,0,0
0:8:6.323,2073.26,117.321,0,0.000885,0,0
0:8:6.821,2075.5,117.452,0,0.000885,0,0
0:8:7.326,2077.74,117.576,0,0.000885,0,0
0:8:7.824,2079.68,117.687,0,0.000885,0,0
0:8:8.321,2082.15,117.825,0,0.000885,0,0
0:8:8.831,2083.68,117.914,0,0.000885,0,0
0:8:9.339,2085.92,118.038,0,0.000885,0,0
0:8:9.842,2088.57,118.19,0,0.000885,0,0
0:8:10.345,2090.81,118.314,0,0.000885,0,0
0:8:10.842,2092.58,118.417,0,0.000885,0,0
0:8:11.337,2095.46,118.576,0,0.000885,0,0
0:8:11.835,2097.82,118.714,0,0.000885,0,0
0:8:12.328,2099.58,118.81,0,0.000885,0,0
0:8:12.824,2101.88,118.941,0,0.000885,0,0
0:8:13.323,2104.35,119.079,0,0.000885,0,0
0:8:13.817,2106.24,119.19,0,0.000885,0,0
0:8:14.323,2108.42,119.314,0,0.000885,0,0
0:8:14.827,2110.83,119.452,0,0.000885,0,0
0:8:15.328,2112.77,119.555,0,0.000885,0,0
0:8:15.836,2114.95,119.679,0,0.000885,0,0
0:8:16.333,2116.84,119.79,0,0.000885,0,0
0:8:16.826,2119.72,119.955,0,0.000885,0,0
0:8:17.322,2121.49,120.052,0,0.000885,0,0
0:8:17.827,2124.02,120.196,0,0.000885,0,0
0:8:18.322,2126.73,120.348,0,0.000885,0,0
0:8:18.827,2128.43,120.445,0,0.000885,0,0
0:8:19.333,2130.26,120.548,0,0.000885,0,0
0:8:19.836,2132.5,120.672,0,0.000885,0,0
0:8:20.330,2134.44,120.782,0,0.000885,0,0
0:8:20.826,2136.8,120.92,0,0.000885,0,0
0:8:21.321,2139.63,121.079,0,0.000885,0,0
0:8:21.827,2141.33,121.175,0,0.000885,0,0
0:8:22.324,2144.22,121.341,0,0.000885,0,0
0:8:22.821,2146.1,121.444,0,0.000885,0,0
0:8:23.317,2146.93,121.493,0,0.000885,0,0
0:8:23.818,2149.1,121.617,0,0.000885,0,0
0:8:24.324,2152.4,121.803,0,0.000885,0,0
0:8:24.826,2155.17,121.954,0,0.000885,0,0
0:8:25.326,2157.46,122.085,0,0.000885,0,0
0:8:25.823,2159.82,122.223,0,0.000885,0,0
0:8:26.319,2161.76,122.334,0,0.000885,0,0
0:8:26.816,2163.35,122.423,0,0.000885,0,0
0:8:27.322,2165.65,122.547,0,0.000885,0,0
0:8:27.819,2168.59,122.72,0,0.000885,0,0
0:8:28.324,2169.36,122.761,0,0.000885,0,0
0:8:28.821,2171.83,122.899,0,0.000885,0,0
0:8:28.863,2171.83,122.899,0,0.000885,0,0