File: DataFile2021-06-06_020640.txt
Test ID:	Date Tested:	Time:	Test Type:	Diameter Avg. (mm):	Cyl. Corr. Factor:	Height (mm):	Age (days):	Weight (kN):	Break Type:	Ramp Rate (MPa/s):	Load at Break (kN):	Stress at Break (MPa):
12	6/6/2021	2:06	Cylinder	150	1	300	0	13.39	Invalid/No Break	0.25	1625.29	91.97
Column1	Sample Time	Load (kN)	Stress (MPa)	Long. Strain	Trans. Strain	Chan1 Deflection (mm)	Chan2 Deflection (mm)
1.00	00:14.1	60.0599	3.39912	0	0.000885	0	0
5.00	00:14.5	60.1755	3.40601	0	0.000885	0	0
9.00	00:14.9	62.582	3.54391	0	0.000885	0	0
3.00	00:15.2	65.9226	3.73006	0	0.000885	0	0
7.00	00:15.6	67.2126	3.80591	0	0.000885	0	0
1.00	00:16.0	68.9163	3.90243	0	0.000885	0	0
5.00	00:16.4	71.0826	4.01964	0	0.000885	0	0
9.00	00:16.8	73.3111	4.15064	0	0.000885	0	0
3.00	00:17.2	74.8947	4.24028	0	0.000885	0	0
7.00	00:17.6	76.714	4.3437	0	0.000885	0	0
1.00	00:18.0	77.537	4.38507	0	0.000885	0	0
5.00	00:18.4	78.9426	4.4678	0	0.000885	0	0
9.00	00:18.8	80.5262	4.55743	0	0.000885	0	0
3.00	00:19.2	82.9905	4.69533	0	0.000885	0	0
7.00	00:19.6	85.0411	4.81254	0	0.000885	0	0
1.00	00:20.0	86.6869	4.90217	0	0.000885	0	0
5.00	00:20.4	88.3862	4.9987	0	0.000885	0	0
9.00	00:20.8	90.3211	5.10902	0	0.000885	0	0
3.00	00:21.2	92.1405	5.21244	0	0.000885	0	0
7.00	00:21.6	93.724	5.30207	0	0.000885	0	0
1.00	00:22.0	95.6012	5.41238	0	0.000885	0	0
5.00	00:22.4	96.949	5.48823	0	0.000885	0	0
9.00	00:22.8	98.1233	5.55028	0	0.000885	0	0
3.00	00:23.2	100.939	5.70886	0	0.000885	0	0
7.00	00:23.6	102.874	5.81918	0	0.000885	0	0
1.00	00:24.0	104.337	5.90191	0	0.000885	0	0
5.00	00:24.4	106.099	6.00533	0	0.000885	0	0
9.00	00:24.8	107.798	6.10186	0	0.000885	0	0
3.00	00:25.3	109.444	6.19149	0	0.000885	0	0
7.00	00:25.7	111.143	6.28802	0	0.000885	0	0
1.00	00:26.1	112.842	6.38455	0	0.000885	0	0
5.00	00:26.4	115.013	6.50865	0	0.000885	0	0
9.00	00:26.8	117.126	6.62586	0	0.000885	0	0
3.00	00:27.2	118.71	6.71549	0	0.000885	0	0
7.00	00:27.6	119.822	6.77755	0	0.000885	0	0
1.00	00:28.0	122.228	6.91544	0	0.000885	0	0
5.00	00:28.4	123.692	6.99818	0	0.000885	0	0
9.00	00:28.8	124.808	7.06023	0	0.000885	0	0
3.00	00:29.2	127.095	7.19123	0	0.000885	0	0
7.00	00:29.6	128.385	7.26707	0	0.000885	0	0
1.00	00:30.0	130.146	7.3636	0	0.000885	0	0
5.00	00:30.5	132.61	7.5015	0	0.000885	0	0
9.00	00:30.9	134.719	7.6256	0	0.000885	0	0
3.00	00:31.3	136.716	7.73592	0	0.000885	0	0
7.00	00:31.6	138.064	7.81176	0	0.000885	0	0
1.00	00:32.1	139.412	7.8876	0	0.000885	0	0
5.00	00:32.4	141.467	8.00481	0	0.000885	0	0
9.00	00:32.8	143.402	8.11513	0	0.000885	0	0
3.00	00:33.2	144.514	8.17718	0	0.000885	0	0
7.00	00:33.6	146.511	8.2875	0	0.000885	0	0
1.00	00:34.0	148.913	8.42539	0	0.000885	0	0
5.00	00:34.4	150.79	8.53571	0	0.000885	0	0
9.00	00:34.8	152.138	8.61155	0	0.000885	0	0
3.00	00:35.2	153.664	8.69429	0	0.000885	0	0
7.00	00:35.7	155.363	8.79082	0	0.000885	0	0
1.00	00:36.1	157.418	8.90803	0	0.000885	0	0
5.00	00:36.5	159.589	9.03213	0	0.000885	0	0
9.00	00:36.8	161.172	9.12176	0	0.000885	0	0
3.00	00:37.3	163.459	9.25276	0	0.000885	0	0
7.00	00:37.6	164.633	9.31482	0	0.000885	0	0
1.00	00:38.0	166.159	9.40445	0	0.000885	0	0
5.00	00:38.4	167.449	9.4734	0	0.000885	0	0
9.00	00:38.8	169.264	9.57682	0	0.000885	0	0
3.00	00:39.2	171.083	9.68024	0	0.000885	0	0
7.00	00:39.6	173.076	9.79745	0	0.000885	0	0
1.00	00:40.0	175.247	9.91466	0	0.000885	0	0
5.00	00:40.5	177.244	10.0319	0	0.000885	0	0
9.00	00:40.9	178.592	10.1077	0	0.000885	0	0
3.00	00:41.3	180.291	10.2042	0	0.000885	0	0
7.00	00:41.7	181.523	10.2732	0	0.000885	0	0
1.00	00:42.1	183.285	10.3697	0	0.000885	0	0
5.00	00:42.5	185.451	10.4938	0	0.000885	0	0
9.00	00:42.9	187.328	10.6041	0	0.000885	0	0
3.00	00:43.3	189.325	10.7145	0	0.000885	0	0
7.00	00:43.6	191.26	10.8248	0	0.000885	0	0
1.00	00:44.0	192.608	10.9006	0	0.000885	0	0
5.00	00:44.4	194.485	11.004	0	0.000885	0	0
9.00	00:44.8	196.42	11.1143	0	0.000885	0	0
3.00	00:45.2	198.475	11.2316	0	0.000885	0	0
7.00	00:45.7	199.939	11.3143	0	0.000885	0	0
1.00	00:46.0	201.758	11.4177	0	0.000885	0	0
5.00	00:46.4	203.929	11.5418	0	0.000885	0	0
9.00	00:46.8	204.689	11.5832	0	0.000885	0	0
3.00	00:47.2	206.682	11.6935	0	0.000885	0	0
7.00	00:47.6	208.386	11.79	0	0.000885	0	0
1.00	00:48.0	210.027	11.8866	0	0.000885	0	0
5.00	00:48.4	212.14	12.0038	0	0.000885	0	0
9.00	00:48.8	213.724	12.0934	0	0.000885	0	0
3.00	00:49.2	215.365	12.1899	0	0.000885	0	0
7.00	00:49.6	217.416	12.3002	0	0.000885	0	0
1.00	00:50.0	218.999	12.3899	0	0.000885	0	0
5.00	00:50.4	220.583	12.4795	0	0.000885	0	0
9.00	00:50.8	222.874	12.6105	0	0.000885	0	0
3.00	00:51.2	224.515	12.707	0	0.000885	0	0
7.00	00:51.6	225.8629	12.78288	0	0.000885	0	0
1.00	00:52.0	228.269	12.9139	0	0.000885	0	0
5.00	00:52.4	229.675	12.9966	0	0.000885	0	0
9.00	00:52.8	231.259	13.0862	0	0.000885	0	0
3.00	00:53.2	232.197	13.1414	0	0.000885	0	0
7.00	00:53.6	234.426	13.2655	0	0.000885	0	0
1.00	00:54.0	236.419	13.3758	0	0.000885	0	0
5.00	00:54.4	238.767	13.5137	0	0.000885	0	0
9.00	00:54.8	239.648	13.562	0	0.000885	0	0
3.00	00:55.2	241.934	13.693	0	0.000885	0	0
7.00	00:55.6	243.576	13.7826	0	0.000885	0	0
1.00	00:56.0	244.688	13.8447	0	0.000885	0	0
5.00	00:56.4	247.446	14.0033	0	0.000885	0	0
9.00	00:56.8	248.562	14.0653	0	0.000885	0	0
3.00	00:57.2	250.613	14.1825	0	0.000885	0	0
7.00	00:57.6	252.668	14.2997	0	0.000885	0	0
1.00	00:58.0	254.483	14.4031	0	0.000885	0	0
5.00	00:58.4	256.596	14.5204	0	0.000885	0	0
9.00	00:58.8	258.001	14.6031	0	0.000885	0	0
3.00	00:59.2	259.527	14.6858	0	0.000885	0	0
7.00	00:59.6	261.404	14.7893	0	0.000885	0	0
1.00	01:00.0	263.459	14.9065	0	0.000885	0	0
5.00	01:00.4	265.158	15.003	0	0.000885	0	0
9.00	01:00.8	267.445	15.134	0	0.000885	0	0
3.00	01:01.2	268.441	15.1892	0	0.000885	0	0
7.00	01:01.6	270.906	15.327	0	0.000885	0	0
1.00	01:02.0	271.671	15.3753	0	0.000885	0	0
5.00	01:02.4	273.606	15.4856	0	0.000885	0	0
9.00	01:02.8	274.718	15.5477	0	0.000885	0	0
3.00	01:03.2	276.715	15.658	0	0.000885	0	0
7.00	01:03.6	278.708	15.7683	0	0.000885	0	0
1.00	01:04.0	280.291	15.8579	0	0.000885	0	0
5.00	01:04.4	282.929	16.0096	0	0.000885	0	0
9.00	01:04.8	284.397	16.0924	0	0.000885	0	0
3.00	01:05.2	285.803	16.1751	0	0.000885	0	0
7.00	01:05.6	287.973	16.2992	0	0.000885	0	0
1.00	01:06.0	289.557	16.3888	0	0.000885	0	0
5.00	01:06.4	291.492	16.4923	0	0.000885	0	0
9.00	01:06.8	293.898	16.6302	0	0.000885	0	0
3.00	01:07.2	294.601	16.6715	0	0.000885	0	0
7.00	01:07.6	297.239	16.8232	0	0.000885	0	0
1.00	01:08.0	299.174	16.9266	0	0.000885	0	0
5.00	01:08.4	300.758	17.0163	0	0.000885	0	0
9.00	01:08.8	301.874	17.0852	0	0.000885	0	0
3.00	01:09.2	303.867	17.1955	0	0.000885	0	0
7.00	01:09.6	306.095	17.3196	0	0.000885	0	0
1.00	01:10.0	307.563	17.4024	0	0.000885	0	0
5.00	01:10.4	309.441	17.5127	0	0.000885	0	0
9.00	01:10.8	310.731	17.5816	0	0.000885	0	0
3.00	01:11.2	313.017	17.7126	0	0.000885	0	0
7.00	01:11.6	314.427	17.7954	0	0.000885	0	0
1.00	01:12.0	316.887	17.9333	0	0.000885	0	0
5.00	01:12.4	317.768	17.9815	0	0.000885	0	0
9.00	01:12.8	319.293	18.0712	0	0.000885	0	0
3.00	01:13.2	321.113	18.1746	0	0.000885	0	0
7.00	01:13.6	323.048	18.278	0	0.000885	0	0
1.00	01:14.0	324.573	18.3676	0	0.000885	0	0
5.00	01:14.4	326.388	18.4711	0	0.000885	0	0
9.00	01:14.8	328.034	18.5607	0	0.000885	0	0
3.00	01:15.2	330.494	18.7055	0	0.000885	0	0
7.00	01:15.6	332.843	18.8365	0	0.000885	0	0
1.00	01:16.0	333.955	18.8985	0	0.000885	0	0
5.00	01:16.4	335.187	18.9675	0	0.000885	0	0
9.00	01:16.8	337.006	19.0709	0	0.000885	0	0
3.00	01:17.2	339.35	19.2019	0	0.000885	0	0
7.00	01:17.6	341.228	19.3122	0	0.000885	0	0
1.00	01:18.0	342.695	19.395	0	0.000885	0	0
5.00	01:18.4	344.395	19.4915	0	0.000885	0	0
9.00	01:18.8	346.743	19.6225	0	0.000885	0	0
3.00	01:19.2	348.149	19.6983	0	0.000885	0	0
7.00	01:19.6	348.972	19.7466	0	0.000885	0	0
1.00	01:20.0	351.143	19.8707	0	0.000885	0	0
5.00	01:20.4	352.606	19.9534	0	0.000885	0	0
9.00	01:20.8	355.128	20.0982	0	0.000885	0	0
3.00	01:21.2	355.893	20.1396	0	0.000885	0	0
7.00	01:21.6	358.473	20.2844	0	0.000885	0	0
1.00	01:21.9	359.821	20.3602	0	0.000885	0	0
5.00	01:22.3	361.578	20.4636	0	0.000885	0	0
9.00	01:22.7	364.22	20.6084	0	0.000885	0	0
3.00	01:23.1	365.746	20.6981	0	0.000885	0	0
7.00	01:23.5	367.739	20.8084	0	0.000885	0	0
1.00	01:23.9	369.029	20.8842	0	0.000885	0	0
5.00	01:24.3	370.377	20.9601	0	0.000885	0	0
9.00	01:24.7	371.609	21.029	0	0.000885	0	0
3.00	01:25.1	373.664	21.1462	0	0.000885	0	0
7.00	01:25.5	374.954	21.2152	0	0.000885	0	0
1.00	01:25.9	376.947	21.3324	0	0.000885	0	0
5.00	01:26.3	379.705	21.4841	0	0.000885	0	0
9.00	01:26.7	381.697	21.6013	0	0.000885	0	0
3.00	01:27.1	383.103	21.6771	0	0.000885	0	0
7.00	01:27.5	384.513	21.7599	0	0.000885	0	0
1.00	01:27.9	386.564	21.8771	0	0.000885	0	0
5.00	01:28.3	387.796	21.946	0	0.000885	0	0
9.00	01:28.7	390.318	22.0908	0	0.000885	0	0
3.00	01:29.1	391.608	22.1597	0	0.000885	0	0
7.00	01:29.5	393.721	22.277	0	0.000885	0	0
1.00	01:29.9	394.953	22.3528	0	0.000885	0	0
5.00	01:30.3	397.297	22.4838	0	0.000885	0	0
9.00	01:30.7	398.356	22.539	0	0.000885	0	0
3.00	01:31.1	400.936	22.6906	0	0.000885	0	0
7.00	01:31.5	402.52	22.7803	0	0.000885	0	0
1.00	01:31.9	404.922	22.9113	0	0.000885	0	0
5.00	01:32.3	406.447	23.0009	0	0.000885	0	0
9.00	01:32.7	407.092	23.0354	0	0.000885	0	0
3.00	01:33.1	409.205	23.1595	0	0.000885	0	0
7.00	01:33.5	410.731	23.2422	0	0.000885	0	0
1.00	01:33.9	412.43	23.3388	0	0.000885	0	0
5.00	01:34.3	415.01	23.4835	0	0.000885	0	0
9.00	01:34.7	416.3	23.5594	0	0.000885	0	0
3.00	01:35.1	418.235	23.6697	0	0.000885	0	0
7.00	01:35.5	420.112	23.7731	0	0.000885	0	0
1.00	01:35.9	420.877	23.8145	0	0.000885	0	0
5.00	01:36.3	423.279	23.9524	0	0.000885	0	0
9.00	01:36.7	424.632	24.0282	0	0.000885	0	0
3.00	01:37.1	427.034	24.1661	0	0.000885	0	0
7.00	01:37.5	428.969	24.2764	0	0.000885	0	0
1.00	01:37.9	430.73	24.373	0	0.000885	0	0
5.00	01:38.3	433.017	24.504	0	0.000885	0	0
9.00	01:38.7	434.364	24.5798	0	0.000885	0	0
3.00	01:39.1	435.832	24.6625	0	0.000885	0	0
7.00	01:39.5	438.119	24.7935	0	0.000885	0	0
1.00	01:39.9	439.115	24.8487	0	0.000885	0	0
5.00	01:40.3	440.525	24.9314	0	0.000885	0	0
9.00	01:40.7	442.869	25.0624	0	0.000885	0	0
3.00	01:41.1	444.453	25.1521	0	0.000885	0	0
7.00	01:41.5	446.152	25.2486	0	0.000885	0	0
1.00	01:41.9	448.029	25.352	0	0.000885	0	0
5.00	01:42.3	450.142	25.4761	0	0.000885	0	0
9.00	01:42.7	451.61	25.5589	0	0.000885	0	0
3.00	01:43.1	453.487	25.6623	0	0.000885	0	0
7.00	01:43.5	454.484	25.7174	0	0.000885	0	0
1.00	01:43.8	456.009	25.8071	0	0.000885	0	0
5.00	01:44.2	458.705	25.9588	0	0.000885	0	0
9.00	01:44.6	460.053	26.0346	0	0.000885	0	0
3.00	01:45.0	462.224	26.1587	0	0.000885	0	0
7.00	01:45.4	464.51	26.2828	0	0.000885	0	0
1.00	01:45.8	466.036	26.3724	0	0.000885	0	0
5.00	01:46.2	468.206	26.4966	0	0.000885	0	0
9.00	01:46.6	469.261	26.5517	0	0.000885	0	0
3.00	01:47.0	471.489	26.6827	0	0.000885	0	0
7.00	01:47.4	471.903	26.7034	0	0.000885	0	0
1.00	01:47.8	473.251	26.7792	0	0.000885	0	0
5.00	01:48.2	475.595	26.9102	0	0.000885	0	0
9.00	01:48.6	478.117	27.055	0	0.000885	0	0
3.00	01:49.0	479.527	27.1378	0	0.000885	0	0
7.00	01:49.4	481.578	27.255	0	0.000885	0	0
1.00	01:49.8	482.516	27.3032	0	0.000885	0	0
5.00	01:50.2	485.039	27.448	0	0.000885	0	0
9.00	01:50.6	486.68	27.5377	0	0.000885	0	0
3.00	01:51.0	489.144	27.6825	0	0.000885	0	0
7.00	01:51.4	490.434	27.7514	0	0.000885	0	0
1.00	01:51.8	492.431	27.8686	0	0.000885	0	0
5.00	01:52.2	494.073	27.9582	0	0.000885	0	0
9.00	01:52.6	495.772	28.0548	0	0.000885	0	0
3.00	01:53.0	497.707	28.1651	0	0.000885	0	0
7.00	01:53.4	498.881	28.234	0	0.000885	0	0
1.00	01:53.8	500.759	28.3375	0	0.000885	0	0
5.00	01:54.2	502.342	28.4271	0	0.000885	0	0
9.00	01:54.6	503.69	28.5029	0	0.000885	0	0
3.00	01:55.0	505.976	28.6339	0	0.000885	0	0
7.00	01:55.4	507.738	28.7305	0	0.000885	0	0
1.00	01:55.8	509.437	28.827	0	0.000885	0	0
5.00	01:56.2	511.314	28.9373	0	0.000885	0	0
9.00	01:56.6	512.782	29.02	0	0.000885	0	0
3.00	01:57.0	514.601	29.1235	0	0.000885	0	0
7.00	01:57.4	517.355	29.2751	0	0.000885	0	0
1.00	01:57.8	519.174	29.3786	0	0.000885	0	0
5.00	01:58.2	519.41	29.3924	0	0.000885	0	0
9.00	01:58.6	521.461	29.5096	0	0.000885	0	0
3.00	01:59.0	523.164	29.6061	0	0.000885	0	0
7.00	01:59.4	525.918	29.7578	0	0.000885	0	0
1.00	01:59.8	527.328	29.8405	0	0.000885	0	0
5.00	02:00.2	529.556	29.9646	0	0.000885	0	0
9.00	02:00.6	531.02	30.0474	0	0.000885	0	0
3.00	02:01.0	532.666	30.1439	0	0.000885	0	0
7.00	02:01.4	534.543	30.2473	0	0.000885	0	0
1.00	02:01.8	536.064	30.3369	0	0.000885	0	0
5.00	02:02.2	537.826	30.4335	0	0.000885	0	0
9.00	02:02.6	539.583	30.5369	0	0.000885	0	0
3.00	02:03.0	540.641	30.592	0	0.000885	0	0
7.00	02:03.4	542.87	30.723	0	0.000885	0	0
1.00	02:03.8	544.511	30.8127	0	0.000885	0	0
5.00	02:04.2	546.74	30.9368	0	0.000885	0	0
9.00	02:04.6	547.914	31.0057	0	0.000885	0	0
3.00	02:05.0	550.201	31.1367	0	0.000885	0	0
7.00	02:05.4	551.784	31.2264	0	0.000885	0	0
1.00	02:05.8	553.719	31.3367	0	0.000885	0	0
5.00	02:06.2	555.538	31.4401	0	0.000885	0	0
9.00	02:06.6	558.176	31.5849	0	0.000885	0	0
3.00	02:07.0	559.644	31.6676	0	0.000885	0	0
7.00	02:07.4	560.463	31.7159	0	0.000885	0	0
1.00	02:07.7	561.815	31.7917	0	0.000885	0	0
5.00	02:08.1	563.75	31.902	0	0.000885	0	0
9.00	02:08.5	564.862	31.9641	0	0.000885	0	0
3.00	02:08.9	566.681	32.0675	0	0.000885	0	0
7.00	02:09.3	569.555	32.233	0	0.000885	0	0
1.00	02:09.7	572.077	32.3709	0	0.000885	0	0
5.00	02:10.1	573.603	32.4605	0	0.000885	0	0
9.00	02:10.5	574.248	32.495	0	0.000885	0	0
3.00	02:10.9	576.534	32.626	0	0.000885	0	0
7.00	02:11.3	577.824	32.6949	0	0.000885	0	0
1.00	02:11.7	579.585	32.7984	0	0.000885	0	0
5.00	02:12.1	582.223	32.95	0	0.000885	0	0
9.00	02:12.5	583.691	33.0328	0	0.000885	0	0
3.00	02:12.9	585.448	33.1293	0	0.000885	0	0
7.00	02:13.3	586.738	33.2052	0	0.000885	0	0
1.00	02:13.7	589.203	33.343	0	0.000885	0	0
5.00	02:14.1	590.728	33.4258	0	0.000885	0	0
9.00	02:14.5	592.783	33.543	0	0.000885	0	0
3.00	02:14.9	593.664	33.5913	0	0.000885	0	0
7.00	02:15.3	595.074	33.674	0	0.000885	0	0
1.00	02:15.7	596.658	33.7636	0	0.000885	0	0
5.00	02:16.1	599.064	33.9015	0	0.000885	0	0
9.00	02:16.5	601.119	34.0187	0	0.000885	0	0
3.00	02:16.9	602.525	34.0946	0	0.000885	0	0
7.00	02:17.3	604.7	34.2187	0	0.000885	0	0
1.00	02:17.7	606.462	34.3152	0	0.000885	0	0
5.00	02:18.1	607.93	34.4048	0	0.000885	0	0
9.00	02:18.5	609.865	34.5083	0	0.000885	0	0
3.00	02:18.9	611.742	34.6186	0	0.000885	0	0
7.00	02:19.3	613.739	34.7289	0	0.000885	0	0
1.00	02:19.7	615.207	34.8116	0	0.000885	0	0
5.00	02:20.1	617.435	34.9426	0	0.000885	0	0
9.00	02:20.5	618.788	35.0185	0	0.000885	0	0
3.00	02:20.9	621.074	35.1426	0	0.000885	0	0
7.00	02:21.3	622.778	35.2391	0	0.000885	0	0
1.00	02:21.7	624.361	35.3287	0	0.000885	0	0
5.00	02:22.1	626.185	35.4322	0	0.000885	0	0
9.00	02:22.5	627.181	35.4942	0	0.000885	0	0
3.00	02:22.9	629.116	35.5976	0	0.000885	0	0
7.00	02:23.3	630.704	35.6873	0	0.000885	0	0
1.00	02:23.7	632.755	35.8045	0	0.000885	0	0
5.00	02:24.1	633.872	35.8665	0	0.000885	0	0
9.00	02:24.5	636.398	36.0113	0	0.000885	0	0
3.00	02:24.9	637.688	36.0872	0	0.000885	0	0
7.00	02:25.3	640.273	36.2319	0	0.000885	0	0
1.00	02:25.7	641.972	36.3285	0	0.000885	0	0
5.00	02:26.1	643.911	36.4388	0	0.000885	0	0
9.00	02:26.5	645.673	36.5353	0	0.000885	0	0
3.00	02:26.9	646.433	36.5836	0	0.000885	0	0
7.00	02:27.3	648.546	36.7008	0	0.000885	0	0
1.00	02:27.7	649.841	36.7766	0	0.000885	0	0
5.00	02:28.1	652.421	36.9214	0	0.000885	0	0
9.00	02:28.5	653.773	36.9973	0	0.000885	0	0
3.00	02:28.9	656.122	37.1283	0	0.000885	0	0
7.00	02:29.3	657.469	37.2041	0	0.000885	0	0
1.00	02:29.7	660.112	37.3558	0	0.000885	0	0
5.00	02:30.1	661.05	37.411	0	0.000885	0	0
9.00	02:30.5	663.105	37.5213	0	0.000885	0	0
3.00	02:30.9	665.218	37.6454	0	0.000885	0	0
7.00	02:31.3	666.215	37.7005	0	0.000885	0	0
1.00	02:31.7	668.915	37.8522	0	0.000885	0	0
5.00	02:32.1	669.973	37.9143	0	0.000885	0	0
9.00	02:32.5	672.086	38.0315	0	0.000885	0	0
3.00	02:32.9	673.14	38.0935	0	0.000885	0	0
7.00	02:33.3	674.666	38.1763	0	0.000885	0	0
1.00	02:33.7	677.193	38.3211	0	0.000885	0	0
5.00	02:34.1	678.834	38.4176	0	0.000885	0	0
9.00	02:34.5	680.654	38.5141	0	0.000885	0	0
3.00	02:34.9	682.299	38.6106	0	0.000885	0	0
7.00	02:35.3	684.119	38.7141	0	0.000885	0	0
1.00	02:35.7	686.347	38.8382	0	0.000885	0	0
5.00	02:36.1	687.464	38.9002	0	0.000885	0	0
9.00	02:36.5	689.403	39.0105	0	0.000885	0	0
3.00	02:36.9	691.458	39.1277	0	0.000885	0	0
7.00	02:37.3	692.512	39.1898	0	0.000885	0	0
1.00	02:37.7	694.158	39.2794	0	0.000885	0	0
5.00	02:38.1	696.387	39.4104	0	0.000885	0	0
9.00	02:38.5	698.442	39.5207	0	0.000885	0	0
3.00	02:38.9	699.91	39.6035	0	0.000885	0	0
7.00	02:39.3	701.609	39.7	0	0.000885	0	0
1.00	02:39.7	703.726	39.8241	0	0.000885	0	0
5.00	02:40.1	705.661	39.9344	0	0.000885	0	0
9.00	02:40.5	707.423	40.031	0	0.000885	0	0
3.00	02:40.9	709.887	40.1689	0	0.000885	0	0
7.00	02:41.3	710.652	40.2171	0	0.000885	0	0
1.00	02:41.7	712.645	40.3274	0	0.000885	0	0
5.00	02:42.1	714.7	40.4446	0	0.000885	0	0
9.00	02:42.5	716.168	40.5274	0	0.000885	0	0
3.00	02:42.9	717.4	40.5963	0	0.000885	0	0
7.00	02:43.3	719.104	40.6929	0	0.000885	0	0
1.00	02:43.7	720.808	40.7894	0	0.000885	0	0
5.00	02:44.1	722.627	40.8928	0	0.000885	0	0
9.00	02:44.5	724.504	40.9962	0	0.000885	0	0
3.00	02:44.9	726.208	41.0928	0	0.000885	0	0
7.00	02:45.3	728.552	41.2306	0	0.000885	0	0
1.00	02:45.7	729.904	41.3065	0	0.000885	0	0
5.00	02:46.1	732.253	41.4375	0	0.000885	0	0
9.00	02:46.5	734.188	41.5478	0	0.000885	0	0
3.00	02:46.9	735.126	41.603	0	0.000885	0	0
7.00	02:47.3	737.244	41.7202	0	0.000885	0	0
1.00	02:47.7	738.707	41.8029	0	0.000885	0	0
5.00	02:48.1	740.647	41.9132	0	0.000885	0	0
9.00	02:48.5	742.35	42.0098	0	0.000885	0	0
3.00	02:48.9	743.876	42.0925	0	0.000885	0	0
7.00	02:49.3	746.456	42.2442	0	0.000885	0	0
1.00	02:49.7	747.982	42.3269	0	0.000885	0	0
5.00	02:50.1	749.801	42.4303	0	0.000885	0	0
9.00	02:50.5	751.038	42.4993	0	0.000885	0	0
3.00	02:50.9	752.563	42.5889	0	0.000885	0	0
7.00	02:51.3	754.383	42.6923	0	0.000885	0	0
1.00	02:51.7	756.202	42.7889	0	0.000885	0	0
5.00	02:52.1	757.728	42.8785	0	0.000885	0	0
9.00	02:52.5	760.019	43.0095	0	0.000885	0	0
3.00	02:52.9	761.193	43.0715	0	0.000885	0	0
7.00	02:53.3	763.773	43.2232	0	0.000885	0	0
1.00	02:53.7	765.183	43.2991	0	0.000885	0	0
5.00	02:54.1	767.647	43.437	0	0.000885	0	0
9.00	02:54.5	769.057	43.5197	0	0.000885	0	0
3.00	02:54.9	770.992	43.63	0	0.000885	0	0
7.00	02:55.3	772.518	43.7128	0	0.000885	0	0
1.00	02:55.7	773.928	43.7955	0	0.000885	0	0
5.00	02:56.1	776.5127	43.9403	0	0.000885	0	0
9.00	02:56.5	777.393	43.9886	0	0.000885	0	0
3.00	02:56.9	778.977	44.0782	0	0.000885	0	0
7.00	02:57.3	781.384	44.2161	0	0.000885	0	0
1.00	02:57.7	782.558	44.285	0	0.000885	0	0
5.00	02:58.1	784.555	44.3953	0	0.000885	0	0
9.00	02:58.5	786.254	44.4919	0	0.000885	0	0
3.00	02:58.9	787.9	44.5884	0	0.000885	0	0
7.00	02:59.3	789.835	44.6987	0	0.000885	0	0
1.00	02:59.7	791.361	44.7814	0	0.000885	0	0
5.00	03:00.1	793.71	44.9124	0	0.000885	0	0
9.00	03:00.5	794.768	44.9745	0	0.000885	0	0
3.00	03:00.9	797.348	45.1193	0	0.000885	0	0
7.00	03:01.3	798.936	45.2089	0	0.000885	0	0
1.00	03:01.7	800.929	45.3261	0	0.000885	0	0
5.00	03:02.1	802.811	45.4296	0	0.000885	0	0
9.00	03:02.5	804.043	45.4985	0	0.000885	0	0
3.00	03:02.8	804.688	45.533	0	0.000885	0	0
7.00	03:03.2	807.446	45.6916	0	0.000885	0	0
1.00	03:03.6	809.091	45.7881	0	0.000885	0	0
5.00	03:04.0	811.084	45.8984	0	0.000885	0	0
9.00	03:04.4	813.784	46.0501	0	0.000885	0	0
3.00	03:04.8	814.785	46.1052	0	0.000885	0	0
7.00	03:05.3	816.311	46.1949	0	0.000885	0	0
1.00	03:05.7	818.539	46.319	0	0.000885	0	0
5.00	03:06.0	819.892	46.3948	0	0.000885	0	0
9.00	03:06.4	821.182	46.4707	0	0.000885	0	0
3.00	03:06.8	823.117	46.581	0	0.000885	0	0
7.00	03:07.2	824.878	46.6775	0	0.000885	0	0
1.00	03:07.6	827.285	46.8154	0	0.000885	0	0
5.00	03:08.0	828.637	46.8912	0	0.000885	0	0
9.00	03:08.4	830.163	46.9809	0	0.000885	0	0
3.00	03:08.8	832.391	47.105	0	0.000885	0	0
7.00	03:09.2	833.801	47.1808	0	0.000885	0	0
1.00	03:09.6	835.914	47.3049	0	0.000885	0	0
5.00	03:10.0	837.44	47.3877	0	0.000885	0	0
9.00	03:10.4	839.673	47.5187	0	0.000885	0	0
3.00	03:10.8	841.314	47.6083	0	0.000885	0	0
7.00	03:11.2	843.254	47.7186	0	0.000885	0	0
1.00	03:11.6	844.953	47.8151	0	0.000885	0	0
5.00	03:12.0	846.247	47.891	0	0.000885	0	0
9.00	03:12.4	848.885	48.0358	0	0.000885	0	0
3.00	03:12.8	850.238	48.1116	0	0.000885	0	0
7.00	03:13.2	851.296	48.1737	0	0.000885	0	0
1.00	03:13.6	852.293	48.2288	0	0.000885	0	0
5.00	03:14.0	855.166	48.3943	0	0.000885	0	0
9.00	03:14.4	857.163	48.5046	0	0.000885	0	0
3.00	03:14.8	858.925	48.608	0	0.000885	0	0
7.00	03:15.2	859.921	48.6632	0	0.000885	0	0
1.00	03:15.6	862.034	48.7804	0	0.000885	0	0
5.00	03:16.0	863.386	48.8563	0	0.000885	0	0
9.00	03:16.4	865.442	48.9735	0	0.000885	0	0
3.00	03:16.8	867.261	49.0769	0	0.000885	0	0
7.00	03:17.2	870.077	49.2355	0	0.000885	0	0
1.00	03:17.6	871.251	49.3044	0	0.000885	0	0
5.00	03:18.0	872.777	49.3871	0	0.000885	0	0
9.00	03:18.4	875.067	49.5181	0	0.000885	0	0
3.00	03:18.8	875.89	49.5664	0	0.000885	0	0
7.00	03:19.2	878.297	49.7043	0	0.000885	0	0
1.00	03:19.6	879.823	49.787	0	0.000885	0	0
5.00	03:20.0	881.642	49.8905	0	0.000885	0	0
9.00	03:20.4	883.346	49.987	0	0.000885	0	0
3.00	03:20.8	885.516	50.1111	0	0.000885	0	0
7.00	03:21.2	887.278	50.2076	0	0.000885	0	0
1.00	03:21.6	890.094	50.3662	0	0.000885	0	0
5.00	03:22.0	890.507	50.3938	0	0.000885	0	0
9.00	03:22.4	891.855	50.4696	0	0.000885	0	0
3.00	03:22.8	892.972	50.5317	0	0.000885	0	0
7.00	03:23.2	895.614	50.6834	0	0.000885	0	0
1.00	03:23.6	896.61	50.7385	0	0.000885	0	0
5.00	03:24.0	899.426	50.8971	0	0.000885	0	0
9.00	03:24.4	901.072	50.9936	0	0.000885	0	0
3.00	03:24.8	903.007	51.097	0	0.000885	0	0
7.00	03:25.2	905.062	51.2143	0	0.000885	0	0
1.00	03:25.6	906.766	51.3108	0	0.000885	0	0
5.00	03:26.0	908.113	51.3866	0	0.000885	0	0
9.00	03:26.4	910.226	51.5107	0	0.000885	0	0
3.00	03:26.8	911.343	51.5728	0	0.000885	0	0
7.00	03:27.2	913.513	51.6969	0	0.000885	0	0
1.00	03:27.6	915.333	51.8003	0	0.000885	0	0
5.00	03:28.0	917.214	51.9037	0	0.000885	0	0
9.00	03:28.4	919.092	52.0072	0	0.000885	0	0
3.00	03:28.8	920.266	52.0761	0	0.000885	0	0
7.00	03:29.2	922.437	52.2002	0	0.000885	0	0
1.00	03:29.6	924.082	52.2898	0	0.000885	0	0
5.00	03:30.0	926.431	52.4277	0	0.000885	0	0
9.00	03:30.4	927.307	52.476	0	0.000885	0	0
3.00	03:30.8	929.834	52.6208	0	0.000885	0	0
7.00	03:31.2	931.538	52.7173	0	0.000885	0	0
1.00	03:31.6	932.476	52.7656	0	0.000885	0	0
5.00	03:32.0	935.176	52.9173	0	0.000885	0	0
9.00	03:32.4	936.644	53	0	0.000885	0	0
3.00	03:32.8	938.228	53.0896	0	0.000885	0	0
7.00	03:33.2	940.047	53.1931	0	0.000885	0	0
1.00	03:33.6	940.928	53.2482	0	0.000885	0	0
5.00	03:34.0	943.334	53.3792	0	0.000885	0	0
9.00	03:34.4	945.154	53.4826	0	0.000885	0	0
3.00	03:34.8	947.387	53.6136	0	0.000885	0	0
7.00	03:35.2	948.677	53.6826	0	0.000885	0	0
1.00	03:35.6	950.202	53.7722	0	0.000885	0	0
5.00	03:36.0	952.257	53.8894	0	0.000885	0	0
9.00	03:36.4	953.783	53.9722	0	0.000885	0	0
3.00	03:36.8	955.954	54.0963	0	0.000885	0	0
7.00	03:37.2	958.125	54.2204	0	0.000885	0	0
1.00	03:37.6	960.18	54.3376	0	0.000885	0	0
5.00	03:38.0	961.474	54.4065	0	0.000885	0	0
9.00	03:38.4	963.058	54.4962	0	0.000885	0	0
3.00	03:38.8	964.468	54.5789	0	0.000885	0	0
7.00	03:39.2	966.461	54.6892	0	0.000885	0	0
1.00	03:39.6	968.574	54.8133	0	0.000885	0	0
5.00	03:40.0	970.629	54.9236	0	0.000885	0	0
9.00	03:40.4	971.687	54.9857	0	0.000885	0	0
3.00	03:40.8	973.858	55.1098	0	0.000885	0	0
7.00	03:41.2	975.62	55.2063	0	0.000885	0	0
1.00	03:41.6	976.91	55.2822	0	0.000885	0	0
5.00	03:42.0	979.374	55.4201	0	0.000885	0	0
9.00	03:42.4	980.548	55.489	0	0.000885	0	0
3.00	03:42.8	982.252	55.5855	0	0.000885	0	0
7.00	03:43.2	984.249	55.6958	0	0.000885	0	0
1.00	03:43.6	985.481	55.7648	0	0.000885	0	0
5.00	03:44.0	988.003	55.9096	0	0.000885	0	0
9.00	03:44.4	989.236	55.9785	0	0.000885	0	0
3.00	03:44.8	991.526	56.1095	0	0.000885	0	0
7.00	03:45.2	992.701	56.1785	0	0.000885	0	0
1.00	03:45.6	994.462	56.275	0	0.000885	0	0
5.00	03:46.0	996.046	56.3646	0	0.000885	0	0
9.00	03:46.4	998.159	56.4819	0	0.000885	0	0
3.00	03:46.8	1000.16	56.5991	0	0.000885	0	0
7.00	03:47.2	1002.8	56.7439	0	0.000885	0	0
1.00	03:47.6	1003.97	56.8128	0	0.000885	0	0
5.00	03:48.0	1005.38	56.8955	0	0.000885	0	0
9.00	03:48.4	1007.02	56.9852	0	0.000885	0	0
3.00	03:48.8	1009.08	57.1024	0	0.000885	0	0
7.00	03:49.2	1011.07	57.2127	0	0.000885	0	0
1.00	03:49.6	1012.78	57.3092	0	0.000885	0	0
5.00	03:50.0	1014.07	57.3851	0	0.000885	0	0
9.00	03:50.4	1015.95	57.4885	0	0.000885	0	0
3.00	03:50.8	1018.23	57.6195	0	0.000885	0	0
7.00	03:51.2	1019.7	57.7022	0	0.000885	0	0
1.00	03:51.6	1020.4	57.7436	0	0.000885	0	0
5.00	03:52.0	1022.99	57.8884	0	0.000885	0	0
9.00	03:52.4	1023.87	57.9366	0	0.000885	0	0
3.00	03:52.8	1026.33	58.0814	0	0.000885	0	0
7.00	03:53.2	1028.68	58.2124	0	0.000885	0	0
1.00	03:53.6	1030.56	58.3159	0	0.000885	0	0
5.00	03:54.0	1032.38	58.4193	0	0.000885	0	0
9.00	03:54.4	1033.85	58.502	0	0.000885	0	0
3.00	03:54.8	1035.08	58.571	0	0.000885	0	0
7.00	03:55.2	1037.31	58.702	0	0.000885	0	0
1.00	03:55.6	1038.66	58.7778	0	0.000885	0	0
5.00	03:56.0	1040.54	58.8812	0	0.000885	0	0
9.00	03:56.4	1042.24	58.9778	0	0.000885	0	0
3.00	03:56.8	1044.3	59.095	0	0.000885	0	0
7.00	03:57.2	1045.94	59.1915	0	0.000885	0	0
1.00	03:57.6	1048.05	59.3087	0	0.000885	0	0
5.00	03:58.0	1049.52	59.3914	0	0.000885	0	0
9.00	03:58.4	1051.69	59.5155	0	0.000885	0	0
3.00	03:58.8	1053.22	59.5983	0	0.000885	0	0
7.00	03:59.2	1055.57	59.7362	0	0.000885	0	0
1.00	03:59.6	1057.04	59.8189	0	0.000885	0	0
5.00	04:00.0	1058.85	59.9223	0	0.000885	0	0
9.00	04:00.4	1060.32	60.0051	0	0.000885	0	0
3.00	04:00.8	1061.67	60.0809	0	0.000885	0	0
7.00	04:01.2	1063.37	60.1774	0	0.000885	0	0
1.00	04:01.6	1065.31	60.2809	0	0.000885	0	0
5.00	04:02.0	1067.36	60.3981	0	0.000885	0	0
9.00	04:02.4	1068.83	60.4808	0	0.000885	0	0
3.00	04:02.8	1070.71	60.5911	0	0.000885	0	0
7.00	04:03.2	1072.12	60.667	0	0.000885	0	0
1.00	04:03.6	1075.06	60.8324	0	0.000885	0	0
5.00	04:04.0	1076.17	60.9014	0	0.000885	0	0
9.00	04:04.4	1077.23	60.9565	0	0.000885	0	0
3.00	04:04.8	1079.46	61.0875	0	0.000885	0	0
7.00	04:05.2	1081.22	61.1841	0	0.000885	0	0
1.00	04:05.6	1082.51	61.2599	0	0.000885	0	0
5.00	04:06.0	1084.92	61.3909	0	0.000885	0	0
9.00	04:06.4	1086.85	61.5012	0	0.000885	0	0
3.00	04:06.8	1088.56	61.5978	0	0.000885	0	0
7.00	04:07.2	1090.79	61.7288	0	0.000885	0	0
1.00	04:07.6	1092.49	61.8253	0	0.000885	0	0
5.00	04:08.0	1094.48	61.9356	0	0.000885	0	0
9.00	04:08.4	1095.95	62.0183	0	0.000885	0	0
3.00	04:08.8	1097.77	62.1218	0	0.000885	0	0
7.00	04:09.2	1098.71	62.1769	0	0.000885	0	0
1.00	04:09.6	1100.77	62.2872	0	0.000885	0	0
5.00	04:10.0	1102.18	62.37	0	0.000885	0	0
9.00	04:10.4	1104.4	62.4941	0	0.000885	0	0
3.00	04:10.8	1105.4	62.5561	0	0.000885	0	0
7.00	04:11.2	1107.58	62.6733	0	0.000885	0	0
1.00	04:11.6	1109.45	62.7837	0	0.000885	0	0
5.00	04:12.0	1111.09	62.8733	0	0.000885	0	0
9.00	04:12.4	1113.56	63.0181	0	0.000885	0	0
3.00	04:12.8	1115.44	63.1215	0	0.000885	0	0
7.00	04:13.2	1116.73	63.1973	0	0.000885	0	0
1.00	04:13.6	1119.55	63.3559	0	0.000885	0	0
5.00	04:14.0	1120.43	63.4042	0	0.000885	0	0
9.00	04:14.4	1121.49	63.4662	0	0.000885	0	0
3.00	04:14.8	1123.83	63.5972	0	0.000885	0	0
7.00	04:15.2	1126.06	63.7213	0	0.000885	0	0
1.00	04:15.6	1127.24	63.7903	0	0.000885	0	0
5.00	04:16.0	1129.64	63.9282	0	0.000885	0	0
9.00	04:16.4	1131.17	64.0109	0	0.000885	0	0
3.00	04:16.8	1132.87	64.1075	0	0.000885	0	0
7.00	04:17.2	1134.28	64.1902	0	0.000885	0	0
1.00	04:17.6	1136.45	64.3074	0	0.000885	0	0
5.00	04:18.0	1137.63	64.3763	0	0.000885	0	0
9.00	04:18.4	1140.03	64.5142	0	0.000885	0	0
3.00	04:18.8	1140.86	64.5625	0	0.000885	0	0
7.00	04:19.2	1143.32	64.7004	0	0.000885	0	0
1.00	04:19.6	1144.44	64.7625	0	0.000885	0	0
5.00	04:20.0	1146.72	64.8935	0	0.000885	0	0
9.00	04:20.4	1148.02	64.9624	0	0.000885	0	0
3.00	04:20.8	1150.66	65.1141	0	0.000885	0	0
7.00	04:21.2	1151.95	65.1899	0	0.000885	0	0
1.00	04:21.6	1153.66	65.2865	0	0.000885	0	0
5.00	04:22.0	1156	65.4175	0	0.000885	0	0
9.00	04:22.4	1157.17	65.4795	0	0.000885	0	0
3.00	04:22.8	1159.23	65.5967	0	0.000885	0	0
7.00	04:23.2	1160.7	65.6795	0	0.000885	0	0
1.00	04:23.6	1162.99	65.8105	0	0.000885	0	0
5.00	04:24.0	1164.34	65.8863	0	0.000885	0	0
9.00	04:24.4	1165.98	65.9828	0	0.000885	0	0
3.00	04:24.8	1168.33	66.1138	0	0.000885	0	0
7.00	04:25.2	1169.56	66.1828	0	0.000885	0	0
1.00	04:25.6	1171.5	66.2931	0	0.000885	0	0
5.00	04:26.0	1173.55	66.4103	0	0.000885	0	0
9.00	04:26.4	1175.61	66.5275	0	0.000885	0	0
3.00	04:26.8	1176.49	66.5758	0	0.000885	0	0
7.00	04:27.2	1178.31	66.6792	0	0.000885	0	0
1.00	04:27.6	1180.07	66.7757	0	0.000885	0	0
5.00	04:28.0	1181.3	66.8447	0	0.000885	0	0
9.00	04:28.4	1183.77	66.9895	0	0.000885	0	0
3.00	04:28.8	1186.11	67.1205	0	0.000885	0	0
7.00	04:29.2	1187.99	67.2239	0	0.000885	0	0
1.00	04:29.6	1189.29	67.2997	0	0.000885	0	0
5.00	04:30.0	1191.81	67.4445	0	0.000885	0	0
9.00	04:30.4	1192.34	67.4721	0	0.000885	0	0
3.00	04:30.8	1194.92	67.6169	0	0.000885	0	0
7.00	04:31.2	1196.15	67.6858	0	0.000885	0	0
1.00	04:31.6	1198.15	67.803	0	0.000885	0	0
5.00	04:32.0	1200.2	67.9203	0	0.000885	0	0
9.00	04:32.4	1201.26	67.9754	0	0.000885	0	0
3.00	04:32.8	1203.37	68.0995	0	0.000885	0	0
7.00	04:33.2	1205.01	68.1891	0	0.000885	0	0
1.00	04:33.6	1206.37	68.265	0	0.000885	0	0
5.00	04:34.0	1208.65	68.396	0	0.000885	0	0
9.00	04:34.4	1210.65	68.5063	0	0.000885	0	0
3.00	04:34.8	1212.47	68.6097	0	0.000885	0	0
7.00	04:35.2	1214.23	68.7132	0	0.000885	0	0
1.00	04:35.6	1216.52	68.8442	0	0.000885	0	0
5.00	04:36.0	1218.4	68.9476	0	0.000885	0	0
9.00	04:36.4	1219.34	69.0027	0	0.000885	0	0
3.00	04:36.8	1220.98	69.0924	0	0.000885	0	0
7.00	04:37.2	1222.74	69.1958	0	0.000885	0	0
1.00	04:37.6	1223.91	69.2578	0	0.000885	0	0
5.00	04:38.0	1225.56	69.3544	0	0.000885	0	0
9.00	04:38.4	1227.91	69.4854	0	0.000885	0	0
3.00	04:38.8	1229.79	69.5888	0	0.000885	0	0
7.00	04:39.2	1230.96	69.6577	0	0.000885	0	0
1.00	04:39.6	1232.96	69.768	0	0.000885	0	0
5.00	04:40.0	1235.48	69.9128	0	0.000885	0	0
9.00	04:40.4	1237.83	70.0438	0	0.000885	0	0
3.00	04:40.8	1238.71	70.099	0	0.000885	0	0
7.00	04:41.2	1241.06	70.23	0	0.000885	0	0
1.00	04:41.6	1242.11	70.2921	0	0.000885	0	0
5.00	04:42.0	1243.82	70.3886	0	0.000885	0	0
9.00	04:42.4	1245.81	70.4989	0	0.000885	0	0
3.00	04:42.8	1247.98	70.623	0	0.000885	0	0
7.00	04:43.2	1249.1	70.6851	0	0.000885	0	0
1.00	04:43.6	1251.09	70.7954	0	0.000885	0	0
5.00	04:44.0	1252.74	70.8919	0	0.000885	0	0
9.00	04:44.4	1254.73	71.0022	0	0.000885	0	0
3.00	04:44.8	1257.2	71.1401	0	0.000885	0	0
7.00	04:45.2	1259.25	71.2573	0	0.000885	0	0
1.00	04:45.6	1260.31	71.3194	0	0.000885	0	0
5.00	04:46.0	1262.54	71.4435	0	0.000885	0	0
9.00	04:46.4	1263.48	71.4986	0	0.000885	0	0
3.00	04:46.8	1264.89	71.5814	0	0.000885	0	0
7.00	04:47.2	1266.53	71.671	0	0.000885	0	0
1.00	04:47.6	1268.76	71.7951	0	0.000885	0	0
5.00	04:48.0	1269.82	71.8572	0	0.000885	0	0
9.00	04:48.4	1271.7	71.9606	0	0.000885	0	0
3.00	04:48.8	1274.1	72.0985	0	0.000885	0	0
7.00	04:49.2	1275.81	72.195	0	0.000885	0	0
1.00	04:49.6	1277.39	72.2846	0	0.000885	0	0
5.00	04:50.0	1279.5	72.4018	0	0.000885	0	0
9.00	04:50.4	1280.62	72.4708	0	0.000885	0	0
3.00	04:50.8	1282.26	72.5604	0	0.000885	0	0
7.00	04:51.2	1284.5	72.6845	0	0.000885	0	0
1.00	04:51.6	1285.96	72.7673	0	0.000885	0	0
5.00	04:52.0	1288.08	72.8914	0	0.000885	0	0
9.00	04:52.4	1290.13	73.0086	0	0.000885	0	0
3.00	04:52.8	1292.3	73.1327	0	0.000885	0	0
7.00	04:53.2	1294.18	73.2361	0	0.000885	0	0
1.00	04:53.6	1295.65	73.3188	0	0.000885	0	0
5.00	04:54.0	1297.11	73.4016	0	0.000885	0	0
9.00	04:54.4	1299.29	73.5257	0	0.000885	0	0
3.00	04:54.8	1301.63	73.6567	0	0.000885	0	0
7.00	04:55.2	1303.16	73.7463	0	0.000885	0	0
1.00	04:55.6	1303.75	73.7739	0	0.000885	0	0
5.00	04:56.0	1304.69	73.8291	0	0.000885	0	0
9.00	04:56.4	1307.21	73.9739	0	0.000885	0	0
3.00	04:56.8	1309.5	74.1049	0	0.000885	0	0
7.00	04:57.2	1311.14	74.1945	0	0.000885	0	0
1.00	04:57.6	1313.32	74.3186	0	0.000885	0	0
5.00	04:58.0	1314.84	74.4082	0	0.000885	0	0
9.00	04:58.4	1316.72	74.5116	0	0.000885	0	0
3.00	04:58.8	1317.78	74.5737	0	0.000885	0	0
7.00	04:59.2	1319.42	74.6633	0	0.000885	0	0
1.00	04:59.6	1321.36	74.7736	0	0.000885	0	0
5.00	05:00.0	1323.59	74.8977	0	0.000885	0	0
9.00	05:00.5	1325	74.9805	0	0.000885	0	0
3.00	05:00.8	1325.58	75.015	0	0.000885	0	0
7.00	05:01.2	1327.81	75.1391	0	0.000885	0	0
1.00	05:01.6	1330.1	75.2701	0	0.000885	0	0
5.00	05:02.0	1332.51	75.408	0	0.000885	0	0
9.00	05:02.4	1335.04	75.5459	0	0.000885	0	0
3.00	05:02.8	1337.56	75.6906	0	0.000885	0	0
7.00	05:03.2	1338.91	75.7665	0	0.000885	0	0
1.00	05:03.6	1340.32	75.8492	0	0.000885	0	0
5.00	05:04.0	1341.96	75.9389	0	0.000885	0	0
9.00	05:04.4	1342.61	75.9733	0	0.000885	0	0
3.00	05:04.8	1343.66	76.0354	0	0.000885	0	0
7.00	05:05.2	1345.66	76.1457	0	0.000885	0	0
1.00	05:05.6	1347.89	76.2767	0	0.000885	0	0
5.00	05:06.0	1349.88	76.387	0	0.000885	0	0
9.00	05:06.4	1352.17	76.518	0	0.000885	0	0
3.00	05:06.8	1353.99	76.6214	0	0.000885	0	0
7.00	05:07.2	1355.34	76.6973	0	0.000885	0	0
1.00	05:07.6	1357.05	76.7938	0	0.000885	0	0
5.00	05:08.0	1358.75	76.8903	0	0.000885	0	0
9.00	05:08.4	1359.92	76.9593	0	0.000885	0	0
3.00	05:08.8	1362.27	77.0903	0	0.000885	0	0
7.00	05:09.2	1364.44	77.2144	0	0.000885	0	0
1.00	05:09.6	1365.97	77.2971	0	0.000885	0	0
5.00	05:10.0	1367.67	77.3937	0	0.000885	0	0
9.00	05:10.4	1369.72	77.5109	0	0.000885	0	0
3.00	05:10.8	1371.96	77.635	0	0.000885	0	0
7.00	05:11.2	1373.42	77.7177	0	0.000885	0	0
1.00	05:11.6	1375.48	77.8349	0	0.000885	0	0
5.00	05:12.0	1377.24	77.9383	0	0.000885	0	0
9.00	05:12.4	1378.94	78.0349	0	0.000885	0	0
3.00	05:12.8	1380.59	78.1245	0	0.000885	0	0
7.00	05:13.2	1381.4	78.1728	0	0.000885	0	0
1.00	05:13.6	1383.58	78.2969	0	0.000885	0	0
5.00	05:14.0	1385.81	78.421	0	0.000885	0	0
9.00	05:14.4	1387.22	78.5037	0	0.000885	0	0
3.00	05:14.8	1389.1	78.6071	0	0.000885	0	0
7.00	05:15.3	1391.27	78.7312	0	0.000885	0	0
1.00	05:15.7	1393.03	78.8278	0	0.000885	0	0
5.00	05:16.1	1395.02	78.945	0	0.000885	0	0
9.00	05:16.4	1395.85	78.9863	0	0.000885	0	0
3.00	05:16.8	1397.25	79.0691	0	0.000885	0	0
7.00	05:17.2	1399.01	79.1656	0	0.000885	0	0
1.00	05:17.6	1400.6	79.2552	0	0.000885	0	0
5.00	05:18.0	1403.24	79.4069	0	0.000885	0	0
9.00	05:18.4	1405.36	79.5241	0	0.000885	0	0
3.00	05:18.8	1407.59	79.6551	0	0.000885	0	0
7.00	05:19.2	1408.35	79.6965	0	0.000885	0	0
1.00	05:19.6	1410.4	79.8137	0	0.000885	0	0
5.00	05:20.0	1412.4	79.924	0	0.000885	0	0
9.00	05:20.4	1413.81	80.0068	0	0.000885	0	0
3.00	05:20.8	1415.34	80.0895	0	0.000885	0	0
7.00	05:21.2	1417.27	80.1998	0	0.000885	0	0
1.00	05:21.6	1418.68	80.2826	0	0.000885	0	0
5.00	05:22.0	1420.26	80.3722	0	0.000885	0	0
9.00	05:22.4	1422.44	80.4963	0	0.000885	0	0
3.00	05:22.8	1424.43	80.6066	0	0.000885	0	0
7.00	05:23.2	1426.31	80.71	0	0.000885	0	0
1.00	05:23.6	1428.25	80.8203	0	0.000885	0	0
5.00	05:24.0	1428.89	80.8617	0	0.000885	0	0
9.00	05:24.4	1430.89	80.972	0	0.000885	0	0
3.00	05:24.8	1433	81.0892	0	0.000885	0	0
7.00	05:25.2	1434.35	81.1651	0	0.000885	0	0
1.00	05:25.6	1436.53	81.2892	0	0.000885	0	0
5.00	05:26.0	1438.17	81.3857	0	0.000885	0	0
9.00	05:26.4	1440.11	81.496	0	0.000885	0	0
3.00	05:26.8	1442.22	81.6132	0	0.000885	0	0
7.00	05:27.2	1443.75	81.696	0	0.000885	0	0
1.00	05:27.6	1444.8	81.758	0	0.000885	0	0
5.00	05:28.0	1446.39	81.8477	0	0.000885	0	0
9.00	05:28.4	1448.67	81.9787	0	0.000885	0	0
3.00	05:28.8	1450.67	82.089	0	0.000885	0	0
7.00	05:29.2	1452.61	82.1993	0	0.000885	0	0
1.00	05:29.6	1454.66	82.3165	0	0.000885	0	0
5.00	05:30.0	1456.72	82.4337	0	0.000885	0	0
9.00	05:30.5	1458.13	82.5165	0	0.000885	0	0
3.00	05:30.8	1459.71	82.6061	0	0.000885	0	0
7.00	05:31.2	1460.88	82.6681	0	0.000885	0	0
1.00	05:31.6	1463.29	82.806	0	0.000885	0	0
5.00	05:32.0	1465	82.9026	0	0.000885	0	0
9.00	05:32.4	1466.23	82.9715	0	0.000885	0	0
3.00	05:32.8	1468.99	83.1301	0	0.000885	0	0
7.00	05:33.2	1470.8	83.2335	0	0.000885	0	0
1.00	05:33.6	1471.98	83.2956	0	0.000885	0	0
5.00	05:34.0	1473.27	83.3714	0	0.000885	0	0
9.00	05:34.4	1474.91	83.461	0	0.000885	0	0
3.00	05:34.8	1476.62	83.5576	0	0.000885	0	0
7.00	05:35.3	1478.32	83.6541	0	0.000885	0	0
1.00	05:35.7	1481.02	83.8058	0	0.000885	0	0
5.00	05:36.0	1482.61	83.8954	0	0.000885	0	0
9.00	05:36.4	1483.32	83.9368	0	0.000885	0	0
3.00	05:36.8	1485.27	84.0471	0	0.000885	0	0
7.00	05:37.2	1487.73	84.1919	0	0.000885	0	0
1.00	05:37.6	1489.56	84.2953	0	0.000885	0	0
5.00	05:38.0	1491.74	84.4125	0	0.000885	0	0
9.00	05:38.4	1493.33	84.5021	0	0.000885	0	0
3.00	05:38.8	1495.8	84.6469	0	0.000885	0	0
7.00	05:39.2	1497.51	84.7435	0	0.000885	0	0
1.00	05:39.6	1498.93	84.8193	0	0.000885	0	0
5.00	05:40.0	1500.57	84.9158	0	0.000885	0	0
9.00	05:40.4	1501.93	84.9917	0	0.000885	0	0
3.00	05:40.8	1503.64	85.0882	0	0.000885	0	0
7.00	05:41.2	1505.75	85.2054	0	0.000885	0	0
1.00	05:41.6	1507.52	85.3088	0	0.000885	0	0
5.00	05:42.0	1509.35	85.4123	0	0.000885	0	0
9.00	05:42.4	1511.11	85.5088	0	0.000885	0	0
3.00	05:42.8	1513	85.6191	0	0.000885	0	0
7.00	05:43.2	1514.47	85.7018	0	0.000885	0	0
1.00	05:43.6	1515.7	85.7708	0	0.000885	0	0
5.00	05:44.0	1517.83	85.888	0	0.000885	0	0
9.00	05:44.4	1519.24	85.9707	0	0.000885	0	0
3.00	05:44.8	1520.65	86.0535	0	0.000885	0	0
7.00	05:45.2	1522.95	86.1845	0	0.000885	0	0
1.00	05:45.6	1524.83	86.2879	0	0.000885	0	0
5.00	05:46.0	1526.95	86.4051	0	0.000885	0	0
9.00	05:46.4	1528.48	86.4947	0	0.000885	0	0
3.00	05:46.8	1530.31	86.5982	0	0.000885	0	0
7.00	05:47.2	1532.02	86.6947	0	0.000885	0	0
1.00	05:47.6	1533.84	86.7981	0	0.000885	0	0
5.00	05:48.0	1535.31	86.8808	0	0.000885	0	0
9.00	05:48.4	1536.78	86.9636	0	0.000885	0	0
3.00	05:48.8	1539.02	87.0877	0	0.000885	0	0
7.00	05:49.2	1541.56	87.2325	0	0.000885	0	0
1.00	05:49.6	1543.03	87.3152	0	0.000885	0	0
5.00	05:50.1	1544.73	87.4117	0	0.000885	0	0
9.00	05:50.5	1545.85	87.4807	0	0.000885	0	0
3.00	05:50.9	1548.21	87.6117	0	0.000885	0	0
7.00	05:51.3	1549.27	87.6737	0	0.000885	0	0
1.00	05:51.6	1551.62	87.8047	0	0.000885	0	0
5.00	05:52.0	1553.63	87.9151	0	0.000885	0	0
9.00	05:52.4	1555.28	88.0116	0	0.000885	0	0
3.00	05:52.8	1555.1	87.9978	0	0.000885	0	0
7.00	05:53.2	1555.63	88.0323	0	0.000885	0	0
1.00	05:53.6	1558.99	88.2184	0	0.000885	0	0
5.00	05:54.0	1562.22	88.4046	0	0.000885	0	0
9.00	05:54.4	1565.23	88.5769	0	0.000885	0	0
3.00	05:54.9	1566.29	88.6321	0	0.000885	0	0
7.00	05:55.3	1568.99	88.7838	0	0.000885	0	0
1.00	05:55.7	1570.47	88.8734	0	0.000885	0	0
5.00	05:56.1	1571.47	88.9286	0	0.000885	0	0
9.00	05:56.5	1571.41	88.9217	0	0.000885	0	0
3.00	05:56.9	1572.82	89.0044	0	0.000885	0	0
7.00	05:57.2	1575.41	89.1492	0	0.000885	0	0
1.00	05:57.6	1577.3	89.2595	0	0.000885	0	0
5.00	05:58.0	1579.59	89.3836	0	0.000885	0	0
9.00	05:58.4	1581.65	89.5008	0	0.000885	0	0
3.00	05:58.8	1584.54	89.6663	0	0.000885	0	0
7.00	05:59.2	1585.19	89.7008	0	0.000885	0	0
1.00	05:59.6	1587.13	89.8111	0	0.000885	0	0
5.00	06:00.1	1588.54	89.8938	0	0.000885	0	0
9.00	06:00.5	1590.25	89.9904	0	0.000885	0	0
3.00	06:00.9	1590.49	90.0042	0	0.000885	0	0
7.00	06:01.2	1591.9	90.08	0	0.000885	0	0
1.00	06:01.6	1594.26	90.2179	0	0.000885	0	0
5.00	06:02.0	1596.38	90.3351	0	0.000885	0	0
9.00	06:02.4	1599.26	90.5006	0	0.000885	0	0
3.00	06:02.8	1601.44	90.6247	0	0.000885	0	0
7.00	06:03.2	1603.38	90.735	0	0.000885	0	0
1.00	06:03.6	1605.03	90.8246	0	0.000885	0	0
5.00	06:04.0	1606.68	90.9212	0	0.000885	0	0
9.00	06:04.5	1608.21	91.0039	0	0.000885	0	0
3.00	06:04.9	1608.98	91.0522	0	0.000885	0	0
7.00	06:05.3	1610.57	91.1418	0	0.000885	0	0
1.00	06:05.7	1612.86	91.2728	0	0.000885	0	0
5.00	06:06.1	1614.16	91.3417	0	0.000885	0	0
9.00	06:06.5	1616.75	91.4865	0	0.000885	0	0
3.00	06:06.8	1618.63	91.5969	0	0.000885	0	0
7.00	06:07.2	1621.05	91.7347	0	0.000885	0	0
1.00	06:07.6	1621.99	91.783	0	0.000885	0	0
5.00	06:08.0	1623.41	91.8657	0	0.000885	0	0
9.00	06:08.4	1615.39	91.4107	0	0.000885	0	0
3.00	06:08.8	1619.46	91.6451	0	0.000885	0	0
7.00	06:09.2	1625.29	91.9692	0	0.000885	0	0
1.00	06:09.6	1606.74	90.9212	0	0.000885	0	0
5.00	06:10.0	1576.24	89.1975	0	0.000885	0	0
7.00	06:10.2	1576.24	89.1975	0	0.000885	0	0