File: DataFile2021-06-09_071231.csv
Test ID:,Date Tested:,Time:,Test Type:,Diameter Avg. (mm):,Cyl. Corr. Factor:,Height (mm):,Age (days):,Weight (kN):,Break Type:,Ramp Rate (MPa/s):,Load at Break (kN):,Stress at Break (MPa):
12,6/9/2021,07:12,Cylinder,100,1,200,0,3.6,Invalid/No Break,0.23,403.93,51.43
Sample Time,Load (kN),Stress (MPa),Long. Strain,Trans. Strain,Chan1 Deflection (mm),Chan2 Deflection (mm)
0:0:3.885,5.45352,0.69637,0,0.000885,0,0
0:0:4.081,5.98286,0.758423,0,0.000885,0,0
0:0:4.281,6.09851,0.779108,0,0.000885,0,0
0:0:4.479,5.8672,0.744634,0,0.000885,0,0
0:0:4.677,6.5122,0.827371,0,0.000885,0,0
0:0:4.878,6.92143,0.882529,0,0.000885,0,0
0:0:5.074,6.97926,0.889424,0,0.000885,0,0
0:0:5.275,7.68208,0.979056,0,0.000885,0,0
0:0:5.473,7.91783,1.00663,0,0.000885,0,0
0:0:5.669,8.21142,1.048,0,0.000885,0,0
0:0:5.871,8.62065,1.09627,0,0.000885,0,0
0:0:6.069,9.03434,1.15142,0,0.000885,0,0
0:0:6.270,9.85281,1.25485,0,0.000885,0,0
0:0:6.468,10.262,1.31,0,0.000885,0,0
0:0:6.664,10.3821,1.32379,0,0.000885,0,0
0:0:6.867,10.6179,1.35137,0,0.000885,0,0
0:0:7.064,11.085,1.41343,0,0.000885,0,0
0:0:7.263,11.1428,1.42032,0,0.000885,0,0
0:0:7.463,11.9079,1.51685,0,0.000885,0,0
0:0:7.655,12.0814,1.53753,0,0.000885,0,0
0:0:7.860,12.5529,1.59958,0,0.000885,0,0
0:0:8.068,12.3171,1.56511,0,0.000885,0,0
0:0:8.266,12.8465,1.63406,0,0.000885,0,0
0:0:8.468,14.0163,1.78574,0,0.000885,0,0
0:0:8.662,14.6613,1.86848,0,0.000885,0,0
0:0:8.863,14.4879,1.84779,0,0.000885,0,0
0:0:9.063,14.8393,1.88916,0,0.000885,0,0
0:0:9.260,15.3686,1.95811,0,0.000885,0,0
0:0:9.462,15.6577,1.99258,0,0.000885,0,0
0:0:9.665,15.9513,2.03395,0,0.000885,0,0
0:0:9.868,16.3027,2.07532,0,0.000885,0,0
0:0:10.071,16.8321,2.14427,0,0.000885,0,0
0:0:10.272,17.1257,2.17874,0,0.000885,0,0
0:0:10.474,17.8285,2.26838,0,0.000885,0,0
0:0:10.675,18.3,2.33043,0,0.000885,0,0
0:0:10.877,18.6514,2.3718,0,0.000885,0,0
0:0:11.077,19.2964,2.45453,0,0.000885,0,0
0:0:11.273,19.8257,2.52348,0,0.000885,0,0
0:0:11.475,19.7634,2.51659,0,0.000885,0,0
0:0:11.673,20.9378,2.66827,0,0.000885,0,0
0:0:11.871,20.9956,2.67517,0,0.000885,0,0
0:0:12.073,21.7029,2.7648,0,0.000885,0,0
0:0:12.270,22.2278,2.82685,0,0.000885,0,0
0:0:12.471,22.4057,2.85443,0,0.000885,0,0
0:0:12.670,22.5213,2.86822,0,0.000885,0,0
0:0:12.866,22.9929,2.93027,0,0.000885,0,0
0:0:13.068,23.5756,2.99922,0,0.000885,0,0
0:0:13.265,24.0471,3.06127,0,0.000885,0,0
0:0:13.467,24.6343,3.13711,0,0.000885,0,0
0:0:13.666,24.6921,3.14401,0,0.000885,0,0
0:0:13.862,24.8077,3.1578,0,0.000885,0,0
0:0:14.064,25.1591,3.20606,0,0.000885,0,0
0:0:14.265,25.4527,3.24054,0,0.000885,0,0
0:0:14.469,25.7463,3.27501,0,0.000885,0,0
0:0:14.672,26.2756,3.34396,0,0.000885,0,0
0:0:14.873,26.3913,3.35775,0,0.000885,0,0
0:0:15.076,26.7427,3.40601,0,0.000885,0,0
0:0:15.277,27.0363,3.44048,0,0.000885,0,0
0:0:15.478,27.8014,3.53701,0,0.000885,0,0
0:0:15.680,27.7436,3.53012,0,0.000885,0,0
0:0:15.875,28.6821,3.65422,0,0.000885,0,0
0:0:16.076,29.0335,3.69559,0,0.000885,0,0
0:0:16.276,29.6785,3.77833,0,0.000885,0,0
0:0:16.472,29.6785,3.77833,0,0.000885,0,0
0:0:16.673,30.5548,3.88864,0,0.000885,0,0
0:0:16.871,30.6171,3.89554,0,0.000885,0,0
0:0:17.071,31.2043,3.97138,0,0.000885,0,0
0:0:17.271,31.4356,4.00585,0,0.000885,0,0
0:0:17.466,31.9071,4.06101,0,0.000885,0,0
0:0:17.669,32.4943,4.13685,0,0.000885,0,0
0:0:17.867,32.9035,4.19201,0,0.000885,0,0
0:0:18.067,33.4907,4.26096,0,0.000885,0,0
0:0:18.266,33.2549,4.23338,0,0.000885,0,0
0:0:18.462,33.4907,4.26096,0,0.000885,0,0
0:0:18.664,34.0156,4.32991,0,0.000885,0,0
0:0:18.863,34.7806,4.42643,0,0.000885,0,0
0:0:19.060,34.7806,4.42643,0,0.000885,0,0
0:0:19.262,35.3055,4.49538,0,0.000885,0,0
0:0:19.465,35.6614,4.54365,0,0.000885,0,0
0:0:19.670,36.2441,4.61259,0,0.000885,0,0
0:0:19.871,36.422,4.64017,0,0.000885,0,0
0:0:20.073,36.6578,4.66775,0,0.000885,0,0
0:0:20.275,36.8313,4.68843,0,0.000885,0,0
0:0:20.476,37.4184,4.76428,0,0.000885,0,0
0:0:20.677,37.8277,4.81944,0,0.000885,0,0
0:0:20.879,38.5928,4.91596,0,0.000885,0,0
0:0:21.074,38.8864,4.95044,0,0.000885,0,0
0:0:21.277,39.4735,5.02628,0,0.000885,0,0
0:0:21.474,39.5892,5.04007,0,0.000885,0,0
0:0:21.672,40.0562,5.10212,0,0.000885,0,0
0:0:21.874,40.1763,5.11591,0,0.000885,0,0
0:0:22.070,41.0571,5.22623,0,0.000885,0,0
0:0:22.272,41.3507,5.26759,0,0.000885,0,0
0:0:22.471,41.582,5.29517,0,0.000885,0,0
0:0:22.667,42.227,5.37791,0,0.000885,0,0
0:0:22.869,42.4627,5.40549,0,0.000885,0,0
0:0:23.067,42.872,5.46065,0,0.000885,0,0
0:0:23.267,43.1655,5.49512,0,0.000885,0,0
0:0:23.466,43.5792,5.55028,0,0.000885,0,0
0:0:23.662,43.5792,5.55028,0,0.000885,0,0
0:0:23.864,44.4555,5.6606,0,0.000885,0,0
0:0:24.061,44.4555,5.6606,0,0.000885,0,0
0:0:24.262,45.0427,5.73644,0,0.000885,0,0
0:0:24.463,45.3941,5.77781,0,0.000885,0,0
0:0:24.668,46.1592,5.87433,0,0.000885,0,0
0:0:24.869,46.3905,5.90881,0,0.000885,0,0
0:0:25.072,46.862,5.96397,0,0.000885,0,0
0:0:25.274,47.2713,6.01912,0,0.000885,0,0
0:0:25.474,47.7428,6.08118,0,0.000885,0,0
0:0:25.676,48.0363,6.11565,0,0.000885,0,0
0:0:25.878,48.3878,6.16391,0,0.000885,0,0
0:0:26.075,48.6813,6.19839,0,0.000885,0,0
0:0:26.276,49.2062,6.26733,0,0.000885,0,0
0:0:26.476,49.4998,6.30181,0,0.000885,0,0
0:0:26.671,50.087,6.37765,0,0.000885,0,0
0:0:26.873,50.4962,6.43281,0,0.000885,0,0
0:0:27.071,50.5585,6.4397,0,0.000885,0,0
0:0:27.270,50.9677,6.48797,0,0.000885,0,0
0:0:27.473,51.3191,6.53623,0,0.000885,0,0
0:0:27.668,51.6705,6.5776,0,0.000885,0,0
0:0:27.868,51.7862,6.59139,0,0.000885,0,0
0:0:28.069,52.6091,6.7017,0,0.000885,0,0
0:0:28.265,52.9027,6.73618,0,0.000885,0,0
0:0:28.468,53.7256,6.8396,0,0.000885,0,0
0:0:28.665,53.8413,6.85339,0,0.000885,0,0
0:0:28.863,54.077,6.88786,0,0.000885,0,0
0:0:29.065,54.5441,6.94302,0,0.000885,0,0
0:0:29.268,54.722,6.9706,0,0.000885,0,0
0:0:29.468,55.1313,7.01886,0,0.000885,0,0
0:0:29.672,55.6028,7.08092,0,0.000885,0,0
0:0:29.874,56.012,7.12918,0,0.000885,0,0
0:0:30.076,56.3056,7.17055,0,0.000885,0,0
0:0:30.278,56.4791,7.19123,0,0.000885,0,0
0:0:30.481,57.1241,7.27397,0,0.000885,0,0
0:0:30.680,57.4176,7.30844,0,0.000885,0,0
0:0:30.878,58.1827,7.40497,0,0.000885,0,0
0:0:31.080,58.414,7.43944,0,0.000885,0,0
0:0:31.275,59.1213,7.52907,0,0.000885,0,0
0:0:31.475,59.4727,7.57044,0,0.000885,0,0
0:0:31.675,59.7663,7.61181,0,0.000885,0,0
0:0:31.871,60.1177,7.65318,0,0.000885,0,0
0:0:32.074,60.4113,7.69455,0,0.000885,0,0
0:0:32.271,61.1141,7.78418,0,0.000885,0,0
0:0:32.469,60.9362,7.7566,0,0.000885,0,0
0:0:32.671,61.8748,7.88071,0,0.000885,0,0
0:0:32.866,62.0527,7.90139,0,0.000885,0,0
0:0:33.068,62.5198,7.96344,0,0.000885,0,0
0:0:33.266,62.9334,8.01171,0,0.000885,0,0
0:0:33.463,63.2848,8.05997,0,0.000885,0,0
0:0:33.665,63.7519,8.11513,0,0.000885,0,0
0:0:33.862,64.3391,8.19097,0,0.000885,0,0
0:0:34.062,64.517,8.21166,0,0.000885,0,0
0:0:34.264,64.8106,8.25302,0,0.000885,0,0
0:0:34.468,65.1042,8.2875,0,0.000885,0,0
0:0:34.672,65.6291,8.35645,0,0.000885,0,0
0:0:34.873,65.807,8.37713,0,0.000885,0,0
0:0:35.076,66.3942,8.45297,0,0.000885,0,0
0:0:35.277,66.5676,8.47366,0,0.000885,0,0
0:0:35.479,67.3327,8.57018,0,0.000885,0,0
0:0:35.680,67.742,8.62534,0,0.000885,0,0
0:0:35.879,67.742,8.62534,0,0.000885,0,0
0:0:36.078,68.1512,8.6805,0,0.000885,0,0
0:0:36.279,68.9741,8.78392,0,0.000885,0,0
0:0:36.474,68.9163,8.77703,0,0.000885,0,0
0:0:36.675,69.2054,8.8115,0,0.000885,0,0
0:0:36.873,69.3834,8.83218,0,0.000885,0,0
0:0:37.071,69.6769,8.87355,0,0.000885,0,0
0:0:37.274,70.8513,9.01834,0,0.000885,0,0
0:0:37.469,70.5577,8.98387,0,0.000885,0,0
0:0:37.669,71.4384,9.09418,0,0.000885,0,0
0:0:37.870,71.9055,9.15624,0,0.000885,0,0
0:0:38.065,72.0834,9.17692,0,0.000885,0,0
0:0:38.268,72.5505,9.23897,0,0.000885,0,0
0:0:38.465,73.0798,9.30792,0,0.000885,0,0
0:0:38.663,73.3111,9.3355,0,0.000885,0,0
0:0:38.864,73.8405,9.40445,0,0.000885,0,0
0:0:39.070,74.1919,9.44582,0,0.000885,0,0
0:0:39.272,74.3698,9.4665,0,0.000885,0,0
0:0:39.473,75.0148,9.54924,0,0.000885,0,0
0:0:39.677,75.7755,9.64577,0,0.000885,0,0
0:0:39.880,76.0112,9.68024,0,0.000885,0,0
0:0:40.082,76.5984,9.75608,0,0.000885,0,0
0:0:40.284,76.714,9.76987,0,0.000885,0,0
0:0:40.485,77.4168,9.8595,0,0.000885,0,0
0:0:40.686,77.4791,9.8664,0,0.000885,0,0
0:0:40.888,77.7727,9.90087,0,0.000885,0,0
0:0:41.084,77.6526,9.88708,0,0.000885,0,0
0:0:41.285,78.4755,9.9905,0,0.000885,0,0
0:0:41.484,78.649,10.0112,0,0.000885,0,0
0:0:41.682,78.9426,10.0526,0,0.000885,0,0
0:0:41.883,79.8812,10.1698,0,0.000885,0,0
0:0:42.079,79.8812,10.1698,0,0.000885,0,0
0:0:42.280,80.1747,10.2111,0,0.000885,0,0
0:0:42.480,80.2326,10.218,0,0.000885,0,0
0:0:42.676,81.4647,10.3697,0,0.000885,0,0
0:0:42.878,81.6427,10.3973,0,0.000885,0,0
0:0:43.074,82.1097,10.4525,0,0.000885,0,0
0:0:43.274,82.6391,10.5214,0,0.000885,0,0
0:0:43.476,83.3997,10.6179,0,0.000885,0,0
0:0:43.671,83.3997,10.6179,0,0.000885,0,0
0:0:43.872,83.929,10.6869,0,0.000885,0,0
0:0:44.071,84.1648,10.7145,0,0.000885,0,0
0:0:44.269,84.2226,10.7213,0,0.000885,0,0
0:0:44.471,84.574,10.7696,0,0.000885,0,0
0:0:44.674,85.2769,10.8592,0,0.000885,0,0
0:0:44.878,85.397,10.873,0,0.000885,0,0
0:0:45.080,85.7484,10.9144,0,0.000885,0,0
0:0:45.283,85.9797,10.9489,0,0.000885,0,0
0:0:45.484,86.3355,10.9902,0,0.000885,0,0
0:0:45.684,86.9805,11.073,0,0.000885,0,0
0:0:45.886,87.9769,11.204,0,0.000885,0,0
0:0:46.085,87.6833,11.1626,0,0.000885,0,0
0:0:46.281,88.5018,11.266,0,0.000885,0,0
0:0:46.483,88.7954,11.3074,0,0.000885,0,0
0:0:46.682,89.089,11.3419,0,0.000885,0,0
0:0:46.881,89.6183,11.4108,0,0.000885,0,0
0:0:47.081,90.2633,11.4936,0,0.000885,0,0
0:0:47.277,90.2633,11.4936,0,0.000885,0,0
0:0:47.478,90.1477,11.4798,0,0.000885,0,0
0:0:47.677,90.4991,11.5211,0,0.000885,0,0
0:0:47.874,91.2019,11.6108,0,0.000885,0,0
0:0:48.077,91.6111,11.6659,0,0.000885,0,0
0:0:48.271,91.9047,11.7004,0,0.000885,0,0
0:0:48.472,92.6075,11.79,0,0.000885,0,0
0:0:48.673,92.7855,11.8107,0,0.000885,0,0
0:0:48.869,93.4883,11.9004,0,0.000885,0,0
0:0:49.070,93.4883,11.9004,0,0.000885,0,0
0:0:49.273,94.1333,11.9831,0,0.000885,0,0
0:0:49.476,94.0754,11.9762,0,0.000885,0,0
0:0:49.680,94.7783,12.0658,0,0.000885,0,0
0:0:49.881,95.2498,12.1279,0,0.000885,0,0
0:0:50.083,96.1883,12.2451,0,0.000885,0,0
0:0:50.285,96.3618,12.2727,0,0.000885,0,0
0:0:50.487,97.1269,12.3692,0,0.000885,0,0
0:0:50.688,97.3004,12.3899,0,0.000885,0,0
0:0:50.884,97.6518,12.4312,0,0.000885,0,0
0:0:51.086,97.594,12.4244,0,0.000885,0,0
0:0:51.283,98.0032,12.4795,0,0.000885,0,0
0:0:51.481,98.6482,12.5622,0,0.000885,0,0
0:0:51.683,98.8261,12.5829,0,0.000885,0,0
0:0:51.879,99.5868,12.6795,0,0.000885,0,0
0:0:52.079,99.7647,12.7001,0,0.000885,0,0
0:0:52.279,100.058,12.7415,0,0.000885,0,0
0:0:52.474,100.645,12.8174,0,0.000885,0,0
0:0:52.676,100.819,12.838,0,0.000885,0,0
0:0:52.874,101.113,12.8725,0,0.000885,0,0
0:0:53.072,101.055,12.8656,0,0.000885,0,0
0:0:53.273,101.464,12.9208,0,0.000885,0,0
0:0:53.468,101.993,12.9828,0,0.000885,0,0
0:0:53.671,102.051,12.9966,0,0.000885,0,0
0:0:53.870,103.283,13.1483,0,0.000885,0,0
0:0:54.069,103.519,13.1828,0,0.000885,0,0
0:0:54.270,104.164,13.2655,0,0.000885,0,0
0:0:54.474,104.4,13.2931,0,0.000885,0,0
0:0:54.676,104.689,13.3276,0,0.000885,0,0
0:0:54.879,105.16,13.3896,0,0.000885,0,0
0:0:55.080,105.338,13.4103,0,0.000885,0,0
0:0:55.282,106.041,13.4999,0,0.000885,0,0
0:0:55.483,106.45,13.5551,0,0.000885,0,0
0:0:55.685,107.038,13.6309,0,0.000885,0,0
0:0:55.883,106.744,13.5896,0,0.000885,0,0
0:0:56.080,107.567,13.693,0,0.000885,0,0
0:0:56.283,107.74,13.7206,0,0.000885,0,0
0:0:56.481,108.563,13.824,0,0.000885,0,0
0:0:56.680,109.03,13.8791,0,0.000885,0,0
0:0:56.881,109.324,13.9205,0,0.000885,0,0
0:0:57.077,109.618,13.955,0,0.000885,0,0
0:0:57.280,110.378,14.0515,0,0.000885,0,0
0:0:57.476,110.205,14.0308,0,0.000885,0,0
0:0:57.674,110.792,14.1067,0,0.000885,0,0
0:0:57.875,111.259,14.1687,0,0.000885,0,0
0:0:58.071,111.73,14.2239,0,0.000885,0,0
0:0:58.272,112.082,14.2721,0,0.000885,0,0
0:0:58.471,112.607,14.3411,0,0.000885,0,0
0:0:58.669,113.078,14.3963,0,0.000885,0,0
0:0:58.869,112.669,14.348,0,0.000885,0,0
0:0:59.065,113.665,14.4721,0,0.000885,0,0
0:0:59.267,113.665,14.4721,0,0.000885,0,0
0:0:59.468,114.368,14.5617,0,0.000885,0,0
0:0:59.671,115.013,14.6445,0,0.000885,0,0
0:0:59.874,115.543,14.7134,0,0.000885,0,0
0:1:0.075,115.836,14.7479,0,0.000885,0,0
0:1:0.277,116.245,14.803,0,0.000885,0,0
0:1:0.478,116.423,14.8237,0,0.000885,0,0
0:1:0.680,116.948,14.8927,0,0.000885,0,0
0:1:0.882,117.184,14.9203,0,0.000885,0,0
0:1:1.080,117.535,14.9685,0,0.000885,0,0
0:1:1.277,117.478,14.9547,0,0.000885,0,0
0:1:1.479,117.945,15.0168,0,0.000885,0,0
0:1:1.673,117.887,15.0099,0,0.000885,0,0
0:1:1.874,118.652,15.1064,0,0.000885,0,0
0:1:2.073,118.652,15.1064,0,0.000885,0,0
0:1:2.269,119.355,15.196,0,0.000885,0,0
0:1:2.472,120.115,15.2926,0,0.000885,0,0
0:1:2.670,120.76,15.3753,0,0.000885,0,0
0:1:2.868,121.29,15.4443,0,0.000885,0,0
0:1:3.069,121.877,15.5201,0,0.000885,0,0
0:1:3.264,122.108,15.5477,0,0.000885,0,0
0:1:3.466,122.286,15.5684,0,0.000885,0,0
0:1:3.665,122.58,15.6097,0,0.000885,0,0
0:1:3.860,123.109,15.6718,0,0.000885,0,0
0:1:4.065,123.634,15.7407,0,0.000885,0,0
0:1:4.268,123.985,15.789,0,0.000885,0,0
0:1:4.473,124.866,15.8993,0,0.000885,0,0
0:1:4.674,125.16,15.9338,0,0.000885,0,0
0:1:4.876,125.217,15.9407,0,0.000885,0,0
0:1:5.075,125.338,15.9614,0,0.000885,0,0
0:1:5.277,125.805,16.0165,0,0.000885,0,0
0:1:5.479,126.04,16.051,0,0.000885,0,0
0:1:5.678,126.334,16.0855,0,0.000885,0,0
0:1:5.875,126.507,16.1062,0,0.000885,0,0
0:1:6.078,126.921,16.1613,0,0.000885,0,0
0:1:6.273,127.33,16.2096,0,0.000885,0,0
0:1:6.473,127.975,16.2923,0,0.000885,0,0
0:1:6.673,127.975,16.2923,0,0.000885,0,0
0:1:6.870,129.207,16.4509,0,0.000885,0,0
0:1:7.072,129.323,16.4647,0,0.000885,0,0
0:1:7.269,129.501,16.4854,0,0.000885,0,0
0:1:7.467,129.675,16.5129,0,0.000885,0,0
0:1:7.668,130.32,16.5957,0,0.000885,0,0
0:1:7.864,130.44,16.6095,0,0.000885,0,0
0:1:8.066,131.142,16.6991,0,0.000885,0,0
0:1:8.264,131.436,16.7336,0,0.000885,0,0
0:1:8.458,131.672,16.768,0,0.000885,0,0
0:1:8.661,132.49,16.8715,0,0.000885,0,0
0:1:8.858,132.61,16.8853,0,0.000885,0,0
0:1:9.057,133.255,16.968,0,0.000885,0,0
0:1:9.259,133.255,16.968,0,0.000885,0,0
0:1:9.466,133.958,17.0576,0,0.000885,0,0
0:1:9.668,134.194,17.0852,0,0.000885,0,0
0:1:9.871,134.367,17.1059,0,0.000885,0,0
0:1:10.072,134.897,17.1748,0,0.000885,0,0
0:1:10.273,135.07,17.1955,0,0.000885,0,0
0:1:10.475,135.542,17.2576,0,0.000885,0,0
0:1:10.677,136.009,17.3196,0,0.000885,0,0
0:1:10.873,136.302,17.3541,0,0.000885,0,0
0:1:11.074,136.774,17.4162,0,0.000885,0,0
0:1:11.276,137.361,17.492,0,0.000885,0,0
0:1:11.471,138.18,17.5954,0,0.000885,0,0
0:1:11.672,138.882,17.6851,0,0.000885,0,0
0:1:11.871,138.945,17.6919,0,0.000885,0,0
0:1:12.069,139.06,17.7057,0,0.000885,0,0
0:1:12.272,139.821,17.8023,0,0.000885,0,0
0:1:12.468,140.408,17.8781,0,0.000885,0,0
0:1:12.667,140.408,17.8781,0,0.000885,0,0
0:1:12.866,140.822,17.9264,0,0.000885,0,0
0:1:13.060,140.822,17.9264,0,0.000885,0,0
0:1:13.265,141.347,17.9953,0,0.000885,0,0
0:1:13.459,141.231,17.9815,0,0.000885,0,0
0:1:13.659,142.112,18.0918,0,0.000885,0,0
0:1:13.859,142.579,18.1539,0,0.000885,0,0
0:1:14.068,142.93,18.1953,0,0.000885,0,0
0:1:14.270,143.108,18.2228,0,0.000885,0,0
0:1:14.472,143.166,18.2297,0,0.000885,0,0
0:1:14.675,143.46,18.2642,0,0.000885,0,0
0:1:14.878,144.34,18.3745,0,0.000885,0,0
0:1:15.080,144.634,18.4159,0,0.000885,0,0
0:1:15.282,144.928,18.4504,0,0.000885,0,0
0:1:15.483,145.101,18.4779,0,0.000885,0,0
0:1:15.685,146.333,18.6296,0,0.000885,0,0
0:1:15.886,146.569,18.6641,0,0.000885,0,0
0:1:16.081,147.094,18.7262,0,0.000885,0,0
0:1:16.282,147.33,18.7606,0,0.000885,0,0
0:1:16.484,147.917,18.8365,0,0.000885,0,0
0:1:16.679,147.975,18.8434,0,0.000885,0,0
0:1:16.881,148.504,18.9054,0,0.000885,0,0
0:1:17.077,148.62,18.9261,0,0.000885,0,0
0:1:17.277,149.558,19.0433,0,0.000885,0,0
0:1:17.478,149.736,19.064,0,0.000885,0,0
0:1:17.675,150.555,19.1674,0,0.000885,0,0
0:1:17.876,150.497,19.1605,0,0.000885,0,0
0:1:18.073,150.612,19.1743,0,0.000885,0,0
0:1:18.271,151.729,19.3191,0,0.000885,0,0
0:1:18.473,151.377,19.2708,0,0.000885,0,0
0:1:18.669,151.965,19.3467,0,0.000885,0,0
0:1:18.869,152.022,19.3536,0,0.000885,0,0
0:1:19.068,153.019,19.4846,0,0.000885,0,0
0:1:19.273,153.019,19.4846,0,0.000885,0,0
0:1:19.475,153.312,19.5191,0,0.000885,0,0
0:1:19.678,153.428,19.5328,0,0.000885,0,0
0:1:19.882,154.309,19.6501,0,0.000885,0,0
0:1:20.083,154.309,19.6501,0,0.000885,0,0
0:1:20.285,154.954,19.7328,0,0.000885,0,0
0:1:20.488,155.305,19.7742,0,0.000885,0,0
0:1:20.689,155.719,19.8293,0,0.000885,0,0
0:1:20.890,155.95,19.8569,0,0.000885,0,0
0:1:21.092,156.947,19.981,0,0.000885,0,0
0:1:21.289,157.24,20.0224,0,0.000885,0,0
0:1:21.491,157.712,20.0775,0,0.000885,0,0
0:1:21.688,158.357,20.1603,0,0.000885,0,0
0:1:21.888,158.415,20.1672,0,0.000885,0,0
0:1:22.088,158.766,20.2154,0,0.000885,0,0
0:1:22.283,158.766,20.2154,0,0.000885,0,0
0:1:22.485,159.237,20.2775,0,0.000885,0,0
0:1:22.682,159.825,20.3464,0,0.000885,0,0
0:1:22.882,160.234,20.4016,0,0.000885,0,0
0:1:23.083,160.763,20.4705,0,0.000885,0,0
0:1:23.279,161.115,20.5119,0,0.000885,0,0
0:1:23.481,161.524,20.5671,0,0.000885,0,0
0:1:23.679,161.582,20.574,0,0.000885,0,0
0:1:23.875,162.111,20.6429,0,0.000885,0,0
0:1:24.078,162.636,20.705,0,0.000885,0,0
0:1:24.282,162.929,20.7463,0,0.000885,0,0
0:1:24.486,163.107,20.767,0,0.000885,0,0
0:1:24.688,163.695,20.8429,0,0.000885,0,0
0:1:24.889,164.162,20.9049,0,0.000885,0,0
0:1:25.091,164.633,20.9601,0,0.000885,0,0
0:1:25.292,164.927,21.0014,0,0.000885,0,0
0:1:25.495,165.336,21.0497,0,0.000885,0,0
0:1:25.693,165.63,21.0911,0,0.000885,0,0
0:1:25.892,165.865,21.1186,0,0.000885,0,0
0:1:26.094,166.39,21.1876,0,0.000885,0,0
0:1:26.290,166.804,21.2359,0,0.000885,0,0
0:1:26.492,166.92,21.2496,0,0.000885,0,0
0:1:26.691,167.507,21.3255,0,0.000885,0,0
0:1:26.888,168.325,21.4289,0,0.000885,0,0
0:1:27.089,168.209,21.4151,0,0.000885,0,0
0:1:27.287,169.206,21.5461,0,0.000885,0,0
0:1:27.487,169.557,21.5875,0,0.000885,0,0
0:1:27.687,170.38,21.6909,0,0.000885,0,0
0:1:27.883,170.438,21.6978,0,0.000885,0,0
0:1:28.084,170.38,21.6909,0,0.000885,0,0
0:1:28.282,170.616,21.7254,0,0.000885,0,0
0:1:28.482,171.377,21.8219,0,0.000885,0,0
0:1:28.681,171.612,21.8495,0,0.000885,0,0
0:1:28.877,172.022,21.9046,0,0.000885,0,0
0:1:29.079,172.373,21.946,0,0.000885,0,0
0:1:29.280,172.257,21.9322,0,0.000885,0,0
0:1:29.484,173.312,22.0701,0,0.000885,0,0
0:1:29.685,173.196,22.0494,0,0.000885,0,0
0:1:29.888,173.721,22.1184,0,0.000885,0,0
0:1:30.091,173.899,22.1391,0,0.000885,0,0
0:1:30.291,174.953,22.277,0,0.000885,0,0
0:1:30.493,175.015,22.2839,0,0.000885,0,0
0:1:30.696,175.718,22.3735,0,0.000885,0,0
0:1:30.893,176.012,22.408,0,0.000885,0,0
0:1:31.094,176.772,22.5045,0,0.000885,0,0
0:1:31.293,176.95,22.5321,0,0.000885,0,0
0:1:31.491,177.711,22.6286,0,0.000885,0,0
0:1:31.692,177.711,22.6286,0,0.000885,0,0
0:1:31.887,178.24,22.6906,0,0.000885,0,0
0:1:32.088,178.24,22.6906,0,0.000885,0,0
0:1:32.287,178.24,22.6906,0,0.000885,0,0
0:1:32.485,178.534,22.732,0,0.000885,0,0
0:1:32.686,179.001,22.7941,0,0.000885,0,0
0:1:32.881,179.352,22.8354,0,0.000885,0,0
0:1:33.083,179.704,22.8837,0,0.000885,0,0
0:1:33.282,180.175,22.9389,0,0.000885,0,0
0:1:33.480,180.936,23.0354,0,0.000885,0,0
0:1:33.682,181.407,23.0974,0,0.000885,0,0
0:1:33.878,181.995,23.1733,0,0.000885,0,0
0:1:34.077,182.404,23.2215,0,0.000885,0,0
0:1:34.279,182.577,23.2491,0,0.000885,0,0
0:1:34.483,182.755,23.2698,0,0.000885,0,0
0:1:34.686,183.285,23.3388,0,0.000885,0,0
0:1:34.888,183.578,23.3732,0,0.000885,0,0
0:1:35.089,184.281,23.4629,0,0.000885,0,0
0:1:35.291,184.748,23.5249,0,0.000885,0,0
0:1:35.493,185.277,23.587,0,0.000885,0,0
0:1:35.695,185.219,23.5801,0,0.000885,0,0
0:1:35.893,185.629,23.6352,0,0.000885,0,0
0:1:36.094,186.096,23.6973,0,0.000885,0,0
0:1:36.292,186.509,23.7455,0,0.000885,0,0
0:1:36.490,187.27,23.8421,0,0.000885,0,0
0:1:36.692,187.679,23.8972,0,0.000885,0,0
0:1:36.889,187.857,23.9179,0,0.000885,0,0
0:1:37.089,188.035,23.9386,0,0.000885,0,0
0:1:37.289,188.329,23.98,0,0.000885,0,0
0:1:37.483,188.68,24.0213,0,0.000885,0,0
0:1:37.685,189.325,24.1041,0,0.000885,0,0
0:1:37.885,189.85,24.173,0,0.000885,0,0
0:1:38.082,189.85,24.173,0,0.000885,0,0
0:1:38.284,190.557,24.2627,0,0.000885,0,0
0:1:38.478,190.495,24.2558,0,0.000885,0,0
0:1:38.680,191.612,24.3937,0,0.000885,0,0
0:1:38.880,191.554,24.3868,0,0.000885,0,0
0:1:39.076,192.021,24.4488,0,0.000885,0,0
0:1:39.278,191.963,24.4419,0,0.000885,0,0
0:1:39.478,192.959,24.566,0,0.000885,0,0
0:1:39.682,193.489,24.635,0,0.000885,0,0
0:1:39.882,193.724,24.6625,0,0.000885,0,0
0:1:40.083,193.956,24.697,0,0.000885,0,0
0:1:40.284,194.485,24.766,0,0.000885,0,0
0:1:40.484,195.014,24.828,0,0.000885,0,0
0:1:40.683,195.308,24.8694,0,0.000885,0,0
0:1:40.883,195.891,24.9452,0,0.000885,0,0
0:1:41.078,196.247,24.9866,0,0.000885,0,0
0:1:41.276,196.247,24.9866,0,0.000885,0,0
0:1:41.473,195.891,24.9452,0,0.000885,0,0
0:1:41.670,196.949,25.0762,0,0.000885,0,0
0:1:41.870,197.007,25.0831,0,0.000885,0,0
0:1:42.063,197.474,25.1452,0,0.000885,0,0
0:1:42.262,198.119,25.2279,0,0.000885,0,0
0:1:42.460,198.355,25.2555,0,0.000885,0,0
0:1:42.655,199.12,25.352,0,0.000885,0,0
0:1:42.855,199.587,25.4141,0,0.000885,0,0
0:1:43.060,200.059,25.4692,0,0.000885,0,0
0:1:43.260,200.584,25.5382,0,0.000885,0,0
0:1:43.458,200.819,25.5658,0,0.000885,0,0
0:1:43.653,201.286,25.6278,0,0.000885,0,0
0:1:43.854,201.464,25.6485,0,0.000885,0,0
0:1:44.050,201.58,25.6692,0,0.000885,0,0
0:1:44.258,202.225,25.745,0,0.000885,0,0
0:1:44.458,203.106,25.8622,0,0.000885,0,0
0:1:44.660,202.99,25.8484,0,0.000885,0,0
0:1:44.862,203.577,25.9174,0,0.000885,0,0
0:1:45.063,203.987,25.9726,0,0.000885,0,0
0:1:45.262,203.987,25.9726,0,0.000885,0,0
0:1:45.463,204.632,26.0553,0,0.000885,0,0
0:1:45.663,204.338,26.0139,0,0.000885,0,0
0:1:45.863,205.748,26.1932,0,0.000885,0,0
0:1:46.059,205.806,26.207,0,0.000885,0,0
0:1:46.257,205.864,26.2139,0,0.000885,0,0
0:1:46.458,206.273,26.2621,0,0.000885,0,0
0:1:46.651,206.624,26.3104,0,0.000885,0,0
0:1:46.851,206.918,26.3449,0,0.000885,0,0
0:1:47.049,207.914,26.4759,0,0.000885,0,0
0:1:47.246,207.914,26.4759,0,0.000885,0,0
0:1:47.446,208.444,26.5379,0,0.000885,0,0
0:1:47.650,208.679,26.5724,0,0.000885,0,0
0:1:47.851,209.089,26.6207,0,0.000885,0,0
0:1:48.057,209.498,26.6758,0,0.000885,0,0
0:1:48.253,209.969,26.731,0,0.000885,0,0
0:1:48.453,210.499,26.7999,0,0.000885,0,0
0:1:48.658,210.73,26.8344,0,0.000885,0,0
0:1:48.856,211.553,26.9378,0,0.000885,0,0
0:1:49.063,211.904,26.9792,0,0.000885,0,0
0:1:49.271,212.314,27.0343,0,0.000885,0,0
0:1:49.471,212.727,27.0826,0,0.000885,0,0
0:1:49.672,212.607,27.0688,0,0.000885,0,0
0:1:49.874,213.252,27.1516,0,0.000885,0,0
0:1:50.075,213.488,27.1791,0,0.000885,0,0
0:1:50.276,213.782,27.2205,0,0.000885,0,0
0:1:50.477,214.311,27.2894,0,0.000885,0,0
0:1:50.677,214.662,27.3308,0,0.000885,0,0
0:1:50.878,215.014,27.3791,0,0.000885,0,0
0:1:51.076,214.894,27.3584,0,0.000885,0,0
0:1:51.270,215.894,27.4894,0,0.000885,0,0
0:1:51.470,215.717,27.4687,0,0.000885,0,0
0:1:51.666,216.713,27.5928,0,0.000885,0,0
0:1:51.860,216.949,27.6204,0,0.000885,0,0
0:1:52.062,217.709,27.7169,0,0.000885,0,0
0:1:52.256,218.123,27.7721,0,0.000885,0,0
0:1:52.455,218.354,27.7997,0,0.000885,0,0
0:1:52.654,218.826,27.8617,0,0.000885,0,0
0:1:52.848,218.941,27.8755,0,0.000885,0,0
0:1:53.049,219.471,27.9445,0,0.000885,0,0
0:1:53.244,219.938,28.0065,0,0.000885,0,0
0:1:53.441,219.938,28.0065,0,0.000885,0,0
0:1:53.642,220.467,28.0686,0,0.000885,0,0
0:1:53.836,220.876,28.1237,0,0.000885,0,0
0:1:54.035,221.406,28.1927,0,0.000885,0,0
0:1:54.238,222.051,28.2754,0,0.000885,0,0
0:1:54.440,222.344,28.3099,0,0.000885,0,0
0:1:54.643,223.283,28.4271,0,0.000885,0,0
0:1:54.843,223.225,28.4202,0,0.000885,0,0
0:1:55.044,224.044,28.5236,0,0.000885,0,0
0:1:55.242,223.986,28.5167,0,0.000885,0,0
0:1:55.442,224.457,28.5788,0,0.000885,0,0
0:1:55.642,224.573,28.5926,0,0.000885,0,0
0:1:55.839,225.16,28.6684,0,0.000885,0,0
0:1:56.036,225.16,28.6684,0,0.000885,0,0
0:1:56.234,225.396,28.696,0,0.000885,0,0
0:1:56.430,225.979,28.7718,0,0.000885,0,0
0:1:56.630,226.272,28.8132,0,0.000885,0,0
0:1:56.827,226.744,28.8683,0,0.000885,0,0
0:1:57.024,226.744,28.8683,0,0.000885,0,0
0:1:57.222,227.446,28.958,0,0.000885,0,0
0:1:57.417,227.624,28.9787,0,0.000885,0,0
0:1:57.618,228.149,29.0476,0,0.000885,0,0
0:1:57.815,228.443,29.089,0,0.000885,0,0
0:1:58.011,229.088,29.1717,0,0.000885,0,0
0:1:58.212,229.733,29.2476,0,0.000885,0,0
0:1:58.406,230.556,29.3579,0,0.000885,0,0
0:1:58.605,230.556,29.3579,0,0.000885,0,0
0:1:58.802,231.316,29.4544,0,0.000885,0,0
0:1:58.997,231.316,29.4544,0,0.000885,0,0
0:1:59.198,231.437,29.4682,0,0.000885,0,0
0:1:59.399,232.139,29.5578,0,0.000885,0,0
0:1:59.601,232.606,29.6199,0,0.000885,0,0
0:1:59.803,232.784,29.6406,0,0.000885,0,0
0:2:0.005,233.314,29.7095,0,0.000885,0,0
0:2:0.204,233.136,29.6819,0,0.000885,0,0
0:2:0.404,233.603,29.744,0,0.000885,0,0
0:2:0.604,233.896,29.7785,0,0.000885,0,0
0:2:0.805,234.484,29.8543,0,0.000885,0,0
0:2:0.999,235.129,29.937,0,0.000885,0,0
0:2:1.200,235.306,29.9577,0,0.000885,0,0
0:2:1.399,236.187,30.0749,0,0.000885,0,0
0:2:1.593,236.125,30.068,0,0.000885,0,0
0:2:1.794,236.361,30.0956,0,0.000885,0,0
0:2:1.990,236.89,30.1646,0,0.000885,0,0
0:2:2.186,237.593,30.2542,0,0.000885,0,0
0:2:2.387,237.771,30.2749,0,0.000885,0,0
0:2:2.582,238.238,30.33,0,0.000885,0,0
0:2:2.781,238.18,30.3231,0,0.000885,0,0
0:2:2.979,238.883,30.4128,0,0.000885,0,0
0:2:3.174,239.176,30.4541,0,0.000885,0,0
0:2:3.374,239.764,30.53,0,0.000885,0,0
0:2:3.570,240.293,30.592,0,0.000885,0,0
0:2:3.767,240.644,30.6403,0,0.000885,0,0
0:2:3.965,241.169,30.7092,0,0.000885,0,0
0:2:4.160,241.232,30.7161,0,0.000885,0,0
0:2:4.360,241.699,30.7713,0,0.000885,0,0
0:2:4.561,242.17,30.8334,0,0.000885,0,0
0:2:4.763,242.637,30.8954,0,0.000885,0,0
0:2:4.963,243.104,30.9506,0,0.000885,0,0
0:2:5.163,243.104,30.9506,0,0.000885,0,0
0:2:5.363,242.989,30.9368,0,0.000885,0,0
0:2:5.562,243.691,31.0264,0,0.000885,0,0
0:2:5.763,244.221,31.0954,0,0.000885,0,0
0:2:5.962,244.221,31.0954,0,0.000885,0,0
0:2:6.157,244.399,31.116,0,0.000885,0,0
0:2:6.356,244.163,31.0885,0,0.000885,0,0
0:2:6.555,245.453,31.2539,0,0.000885,0,0
0:2:6.750,245.511,31.2608,0,0.000885,0,0
0:2:6.951,246.565,31.3918,0,0.000885,0,0
0:2:7.155,247.036,31.4539,0,0.000885,0,0
0:2:7.353,247.624,31.5297,0,0.000885,0,0
0:2:7.553,247.797,31.5504,0,0.000885,0,0
0:2:7.757,248.856,31.6883,0,0.000885,0,0
0:2:7.957,248.562,31.6469,0,0.000885,0,0
0:2:8.162,249.265,31.7366,0,0.000885,0,0
0:2:8.359,249.323,31.7435,0,0.000885,0,0
0:2:8.560,250.026,31.8331,0,0.000885,0,0
0:2:8.755,250.377,31.8814,0,0.000885,0,0
0:2:8.956,250.849,31.9365,0,0.000885,0,0
0:2:9.155,251.022,31.9641,0,0.000885,0,0
0:2:9.359,252.139,32.102,0,0.000885,0,0
0:2:9.560,252.139,32.102,0,0.000885,0,0
0:2:9.761,252.841,32.1916,0,0.000885,0,0
0:2:9.960,252.784,32.1847,0,0.000885,0,0
0:2:10.161,253.606,32.2881,0,0.000885,0,0
0:2:10.361,253.9,32.3295,0,0.000885,0,0
0:2:10.561,253.958,32.3364,0,0.000885,0,0
0:2:10.777,254.483,32.4054,0,0.000885,0,0
0:2:10.977,255.07,32.4743,0,0.000885,0,0
0:2:11.173,254.896,32.4536,0,0.000885,0,0
0:2:11.367,255.657,32.5501,0,0.000885,0,0
0:2:11.567,255.715,32.557,0,0.000885,0,0
0:2:11.764,256.186,32.6191,0,0.000885,0,0
0:2:11.962,256.653,32.6811,0,0.000885,0,0
0:2:12.161,256.596,32.6743,0,0.000885,0,0
0:2:12.364,257.125,32.7363,0,0.000885,0,0
0:2:12.564,257.828,32.8259,0,0.000885,0,0
0:2:12.760,257.886,32.8328,0,0.000885,0,0
0:2:12.966,258.064,32.8604,0,0.000885,0,0
0:2:13.170,258.709,32.9363,0,0.000885,0,0
0:2:13.373,259.176,32.9983,0,0.000885,0,0
0:2:13.572,259.763,33.0742,0,0.000885,0,0
0:2:13.770,259.941,33.0948,0,0.000885,0,0
0:2:13.963,260.35,33.15,0,0.000885,0,0
0:2:14.164,261.053,33.2396,0,0.000885,0,0
0:2:14.364,261.346,33.2741,0,0.000885,0,0
0:2:14.566,261.64,33.3155,0,0.000885,0,0
0:2:14.766,262.227,33.3844,0,0.000885,0,0
0:2:14.967,262.169,33.3775,0,0.000885,0,0
0:2:15.168,262.872,33.4672,0,0.000885,0,0
0:2:15.367,262.93,33.474,0,0.000885,0,0
0:2:15.568,263.281,33.5223,0,0.000885,0,0
0:2:15.766,264.104,33.6257,0,0.000885,0,0
0:2:15.973,264.278,33.6464,0,0.000885,0,0
0:2:16.173,265.101,33.7567,0,0.000885,0,0
0:2:16.371,265.158,33.7636,0,0.000885,0,0
0:2:16.575,265.568,33.8119,0,0.000885,0,0
0:2:16.775,265.568,33.8119,0,0.000885,0,0
0:2:16.968,266.039,33.8739,0,0.000885,0,0
0:2:17.168,266.448,33.9222,0,0.000885,0,0
0:2:17.367,267.151,34.0118,0,0.000885,0,0
0:2:17.572,267.214,34.0256,0,0.000885,0,0
0:2:17.774,268.268,34.1566,0,0.000885,0,0
0:2:17.967,268.619,34.2049,0,0.000885,0,0
0:2:18.166,269.149,34.2669,0,0.000885,0,0
0:2:18.364,269.673,34.3359,0,0.000885,0,0
0:2:18.558,269.967,34.3704,0,0.000885,0,0
0:2:18.758,269.851,34.3566,0,0.000885,0,0
0:2:18.955,270.318,34.4186,0,0.000885,0,0
0:2:19.152,270.67,34.46,0,0.000885,0,0
0:2:19.353,270.906,34.4945,0,0.000885,0,0
0:2:19.554,271.608,34.5841,0,0.000885,0,0
0:2:19.754,271.435,34.5634,0,0.000885,0,0
0:2:19.956,272.253,34.6668,0,0.000885,0,0
0:2:20.156,271.786,34.6048,0,0.000885,0,0
0:2:20.355,272.903,34.7496,0,0.000885,0,0
0:2:20.555,272.961,34.7565,0,0.000885,0,0
0:2:20.756,273.606,34.8392,0,0.000885,0,0
0:2:20.963,274.193,34.9082,0,0.000885,0,0
0:2:21.168,274.366,34.9357,0,0.000885,0,0
0:2:21.369,274.953,35.0116,0,0.000885,0,0
0:2:21.565,275.305,35.0529,0,0.000885,0,0
0:2:21.764,275.714,35.1081,0,0.000885,0,0
0:2:21.962,276.243,35.1702,0,0.000885,0,0
0:2:22.164,276.301,35.1771,0,0.000885,0,0
0:2:22.366,277.124,35.2874,0,0.000885,0,0
0:2:22.574,276.888,35.2529,0,0.000885,0,0
0:2:22.768,277.654,35.3494,0,0.000885,0,0
0:2:22.968,277.943,35.3908,0,0.000885,0,0
0:2:23.173,278.472,35.4528,0,0.000885,0,0
0:2:23.373,278.65,35.4804,0,0.000885,0,0
0:2:23.571,279.237,35.5563,0,0.000885,0,0
0:2:23.765,279.468,35.5838,0,0.000885,0,0
0:2:23.965,279.82,35.6252,0,0.000885,0,0
0:2:24.166,280.171,35.6735,0,0.000885,0,0
0:2:24.369,280.585,35.7217,0,0.000885,0,0
0:2:24.569,281.346,35.8252,0,0.000885,0,0
0:2:24.772,281.466,35.8389,0,0.000885,0,0
0:2:24.973,282.226,35.9355,0,0.000885,0,0
0:2:25.173,282.578,35.9768,0,0.000885,0,0
0:2:25.373,282.813,36.0113,0,0.000885,0,0
0:2:25.573,283.223,36.0596,0,0.000885,0,0
0:2:25.778,283.868,36.1423,0,0.000885,0,0
0:2:25.978,284.513,36.2251,0,0.000885,0,0
0:2:26.172,284.455,36.2182,0,0.000885,0,0
0:2:26.368,285.042,36.294,0,0.000885,0,0
0:2:26.568,285.629,36.3698,0,0.000885,0,0
0:2:26.763,285.923,36.4043,0,0.000885,0,0
0:2:26.963,286.216,36.4388,0,0.000885,0,0
0:2:27.170,286.332,36.4595,0,0.000885,0,0
0:2:27.365,287.035,36.5491,0,0.000885,0,0
0:2:27.565,286.919,36.5284,0,0.000885,0,0
0:2:27.772,287.738,36.6387,0,0.000885,0,0
0:2:27.968,287.738,36.6387,0,0.000885,0,0
0:2:28.167,288.503,36.7353,0,0.000885,0,0
0:2:28.360,288.676,36.756,0,0.000885,0,0
0:2:28.561,289.028,36.7973,0,0.000885,0,0
0:2:28.759,289.557,36.8663,0,0.000885,0,0
0:2:28.955,289.966,36.9214,0,0.000885,0,0
0:2:29.156,290.731,37.018,0,0.000885,0,0
0:2:29.358,290.611,37.0042,0,0.000885,0,0
0:2:29.560,291.256,37.0869,0,0.000885,0,0
0:2:29.761,291.141,37.0662,0,0.000885,0,0
0:2:29.962,291.906,37.1696,0,0.000885,0,0
0:2:30.162,292.195,37.2041,0,0.000885,0,0
0:2:30.363,293.196,37.3282,0,0.000885,0,0
0:2:30.564,293.369,37.3558,0,0.000885,0,0
0:2:30.760,293.778,37.4041,0,0.000885,0,0
0:2:30.956,293.898,37.4178,0,0.000885,0,0
0:2:31.158,294.366,37.4799,0,0.000885,0,0
0:2:31.361,294.601,37.5075,0,0.000885,0,0
0:2:31.560,295.073,37.5695,0,0.000885,0,0
0:2:31.758,295.362,37.604,0,0.000885,0,0
0:2:31.963,295.718,37.6523,0,0.000885,0,0
0:2:32.164,295.949,37.6798,0,0.000885,0,0
0:2:32.360,296.656,37.7695,0,0.000885,0,0
0:2:32.557,296.772,37.7833,0,0.000885,0,0
0:2:32.756,296.83,37.7902,0,0.000885,0,0
0:2:32.961,297.066,37.8246,0,0.000885,0,0
0:2:33.160,297.768,37.9143,0,0.000885,0,0
0:2:33.367,298.178,37.9625,0,0.000885,0,0
0:2:33.574,298.649,38.0246,0,0.000885,0,0
0:2:33.774,299.001,38.0728,0,0.000885,0,0
0:2:33.966,299.881,38.1832,0,0.000885,0,0
0:2:34.166,299.703,38.1625,0,0.000885,0,0
0:2:34.367,300.526,38.2659,0,0.000885,0,0
0:2:34.570,300.642,38.2797,0,0.000885,0,0
0:2:34.773,301.345,38.3693,0,0.000885,0,0
0:2:34.974,301.696,38.4107,0,0.000885,0,0
0:2:35.174,301.816,38.4314,0,0.000885,0,0
0:2:35.374,302.341,38.4934,0,0.000885,0,0
0:2:35.573,303.106,38.59,0,0.000885,0,0
0:2:35.774,303.28,38.6175,0,0.000885,0,0
0:2:35.978,304.103,38.721,0,0.000885,0,0
0:2:36.176,304.103,38.721,0,0.000885,0,0
0:2:36.376,304.805,38.8106,0,0.000885,0,0
0:2:36.578,304.805,38.8106,0,0.000885,0,0
0:2:36.779,305.686,38.9209,0,0.000885,0,0
0:2:36.975,305.744,38.9278,0,0.000885,0,0
0:2:37.181,305.744,38.9278,0,0.000885,0,0
0:2:37.382,306.447,39.0174,0,0.000885,0,0
0:2:37.576,306.447,39.0174,0,0.000885,0,0
0:2:37.775,306.918,39.0795,0,0.000885,0,0
0:2:37.981,306.976,39.0864,0,0.000885,0,0
0:2:38.178,307.563,39.1622,0,0.000885,0,0
0:2:38.379,308.208,39.245,0,0.000885,0,0
0:2:38.574,308.444,39.2725,0,0.000885,0,0
0:2:38.773,309.263,39.376,0,0.000885,0,0
0:2:38.968,309.614,39.4242,0,0.000885,0,0
0:2:39.174,309.85,39.4518,0,0.000885,0,0
0:2:39.376,310.731,39.5621,0,0.000885,0,0
0:2:39.575,310.673,39.5552,0,0.000885,0,0
0:2:39.778,311.727,39.6931,0,0.000885,0,0
0:2:39.979,311.611,39.6724,0,0.000885,0,0
0:2:40.178,311.843,39.7069,0,0.000885,0,0
0:2:40.379,312.43,39.7827,0,0.000885,0,0
0:2:40.579,312.492,39.7896,0,0.000885,0,0
0:2:40.778,313.253,39.8862,0,0.000885,0,0
0:2:40.979,313.488,39.9137,0,0.000885,0,0
0:2:41.173,314.076,39.9896,0,0.000885,0,0
0:2:41.374,314.191,40.0034,0,0.000885,0,0
0:2:41.571,314.778,40.0792,0,0.000885,0,0
0:2:41.767,315.13,40.1206,0,0.000885,0,0
0:2:41.967,315.775,40.2033,0,0.000885,0,0
0:2:42.162,315.481,40.1689,0,0.000885,0,0
0:2:42.360,316.362,40.2792,0,0.000885,0,0
0:2:42.558,316.42,40.2861,0,0.000885,0,0
0:2:42.754,317.532,40.4309,0,0.000885,0,0
0:2:42.954,317.416,40.4171,0,0.000885,0,0
0:2:43.150,317.594,40.4378,0,0.000885,0,0
0:2:43.346,317.888,40.4722,0,0.000885,0,0
0:2:43.546,317.888,40.4722,0,0.000885,0,0
0:2:43.742,318.764,40.5894,0,0.000885,0,0
0:2:43.941,318.826,40.5963,0,0.000885,0,0
0:2:44.142,319.703,40.7066,0,0.000885,0,0
0:2:44.345,319.938,40.7342,0,0.000885,0,0
0:2:44.546,320.935,40.8652,0,0.000885,0,0
0:2:44.746,321.286,40.9066,0,0.000885,0,0
0:2:44.947,321.344,40.9135,0,0.000885,0,0
0:2:45.146,321.464,40.9273,0,0.000885,0,0
0:2:45.347,322.109,41.01,0,0.000885,0,0
0:2:45.547,322.518,41.0652,0,0.000885,0,0
0:2:45.742,322.928,41.1134,0,0.000885,0,0
0:2:45.940,323.283,41.1617,0,0.000885,0,0
0:2:46.141,323.693,41.2169,0,0.000885,0,0
0:2:46.335,324.044,41.2582,0,0.000885,0,0
0:2:46.534,324.222,41.2789,0,0.000885,0,0
0:2:46.731,324.689,41.341,0,0.000885,0,0
0:2:46.928,325.276,41.4168,0,0.000885,0,0
0:2:47.129,325.334,41.4237,0,0.000885,0,0
0:2:47.323,325.628,41.4582,0,0.000885,0,0
0:2:47.522,326.157,41.5271,0,0.000885,0,0
0:2:47.720,326.508,41.5754,0,0.000885,0,0
0:2:47.916,327.447,41.6926,0,0.000885,0,0
0:2:48.116,327.389,41.6857,0,0.000885,0,0
0:2:48.312,327.914,41.7547,0,0.000885,0,0
0:2:48.509,327.914,41.7547,0,0.000885,0,0
0:2:48.710,328.617,41.8443,0,0.000885,0,0
0:2:48.904,329.088,41.8994,0,0.000885,0,0
0:2:49.103,329.204,41.9132,0,0.000885,0,0
0:2:49.305,329.791,41.9891,0,0.000885,0,0
0:2:49.506,330.027,42.0235,0,0.000885,0,0
0:2:49.708,330.672,42.0994,0,0.000885,0,0
0:2:49.910,330.965,42.1408,0,0.000885,0,0
0:2:50.109,331.081,42.1545,0,0.000885,0,0
0:2:50.309,331.081,42.1545,0,0.000885,0,0
0:2:50.509,332.02,42.2718,0,0.000885,0,0
0:2:50.710,332.429,42.3269,0,0.000885,0,0
0:2:50.905,332.843,42.3821,0,0.000885,0,0
0:2:51.103,333.194,42.4234,0,0.000885,0,0
0:2:51.304,333.488,42.4579,0,0.000885,0,0
0:2:51.498,333.897,42.5131,0,0.000885,0,0
0:2:51.698,334.6,42.6027,0,0.000885,0,0
0:2:51.893,334.893,42.6372,0,0.000885,0,0
0:2:52.090,335.423,42.7061,0,0.000885,0,0
0:2:52.291,335.596,42.7268,0,0.000885,0,0
0:2:52.487,335.716,42.7475,0,0.000885,0,0
0:2:52.685,336.597,42.8578,0,0.000885,0,0
0:2:52.883,337.006,42.9061,0,0.000885,0,0
0:2:53.076,337.006,42.9061,0,0.000885,0,0
0:2:53.276,337.593,42.9819,0,0.000885,0,0
0:2:53.483,337.825,43.0164,0,0.000885,0,0
0:2:53.679,338.18,43.0578,0,0.000885,0,0
0:2:53.880,338.941,43.1543,0,0.000885,0,0
0:2:54.082,339.177,43.1819,0,0.000885,0,0
0:2:54.285,339.702,43.2508,0,0.000885,0,0
0:2:54.485,340.058,43.2991,0,0.000885,0,0
0:2:54.685,340.703,43.3818,0,0.000885,0,0
0:2:54.885,341.285,43.4508,0,0.000885,0,0
0:2:55.083,341.228,43.4439,0,0.000885,0,0
0:2:55.284,341.641,43.499,0,0.000885,0,0
0:2:55.483,342.108,43.5611,0,0.000885,0,0
0:2:55.679,342.46,43.6024,0,0.000885,0,0
0:2:55.879,342.753,43.6438,0,0.000885,0,0
0:2:56.071,343.225,43.699,0,0.000885,0,0
0:2:56.271,343.75,43.7679,0,0.000885,0,0
0:2:56.470,344.101,43.8093,0,0.000885,0,0
0:2:56.675,344.279,43.8369,0,0.000885,0,0
0:2:56.876,344.452,43.8576,0,0.000885,0,0
0:2:57.068,344.866,43.9127,0,0.000885,0,0
0:2:57.266,345.391,43.9748,0,0.000885,0,0
0:2:57.467,345.805,44.0299,0,0.000885,0,0
0:2:57.661,346.214,44.0782,0,0.000885,0,0
0:2:57.862,346.33,44.0989,0,0.000885,0,0
0:2:58.059,346.743,44.1471,0,0.000885,0,0
0:2:58.264,347.153,44.2023,0,0.000885,0,0
0:2:58.464,347.682,44.2712,0,0.000885,0,0
0:2:58.668,347.62,44.2574,0,0.000885,0,0
0:2:58.868,347.682,44.2712,0,0.000885,0,0
0:2:59.068,348.149,44.3264,0,0.000885,0,0
0:2:59.272,348.794,44.4091,0,0.000885,0,0
0:2:59.473,349.088,44.4505,0,0.000885,0,0
0:2:59.673,349.559,44.5057,0,0.000885,0,0
0:2:59.876,349.617,44.5126,0,0.000885,0,0
0:3:0.076,350.142,44.5815,0,0.000885,0,0
0:3:0.272,350.671,44.6504,0,0.000885,0,0
0:3:0.475,351.61,44.7677,0,0.000885,0,0
0:3:0.669,351.903,44.809,0,0.000885,0,0
0:3:0.867,352.37,44.8642,0,0.000885,0,0
0:3:1.068,353.015,44.9469,0,0.000885,0,0
0:3:1.261,353.66,45.0297,0,0.000885,0,0
0:3:1.462,353.838,45.0503,0,0.000885,0,0
0:3:1.667,354.074,45.0848,0,0.000885,0,0
0:3:1.877,354.425,45.1262,0,0.000885,0,0
0:3:2.076,354.835,45.1813,0,0.000885,0,0
0:3:2.280,355.422,45.2503,0,0.000885,0,0
0:3:2.478,355.773,45.2986,0,0.000885,0,0
0:3:2.676,356.009,45.3261,0,0.000885,0,0
0:3:2.869,356.36,45.3744,0,0.000885,0,0
0:3:3.070,356.476,45.3882,0,0.000885,0,0
0:3:3.266,356.827,45.4296,0,0.000885,0,0
0:3:3.463,357.65,45.5399,0,0.000885,0,0
0:3:3.663,357.65,45.5399,0,0.000885,0,0
0:3:3.856,357.828,45.5606,0,0.000885,0,0
0:3:4.057,358.767,45.6778,0,0.000885,0,0
0:3:4.258,358.94,45.6985,0,0.000885,0,0
0:3:4.460,359.176,45.7329,0,0.000885,0,0
0:3:4.662,359.585,45.7812,0,0.000885,0,0
0:3:4.863,359.995,45.8363,0,0.000885,0,0
0:3:5.063,360.23,45.8639,0,0.000885,0,0
0:3:5.264,360.995,45.9605,0,0.000885,0,0
0:3:5.462,360.995,45.9605,0,0.000885,0,0
0:3:5.663,361.52,46.0294,0,0.000885,0,0
0:3:5.867,361.64,46.0432,0,0.000885,0,0
0:3:6.067,362.459,46.1466,0,0.000885,0,0
0:3:6.265,362.517,46.1604,0,0.000885,0,0
0:3:6.459,363.162,46.2362,0,0.000885,0,0
0:3:6.659,363.282,46.2569,0,0.000885,0,0
0:3:6.864,364.22,46.3741,0,0.000885,0,0
0:3:7.062,364.336,46.3879,0,0.000885,0,0
0:3:7.263,364.981,46.4707,0,0.000885,0,0
0:3:7.478,365.159,46.4913,0,0.000885,0,0
0:3:7.679,366.155,46.6223,0,0.000885,0,0
0:3:7.873,366.449,46.6568,0,0.000885,0,0
0:3:8.069,367.21,46.7533,0,0.000885,0,0
0:3:8.270,367.036,46.7327,0,0.000885,0,0
0:3:8.474,367.681,46.8154,0,0.000885,0,0
0:3:8.672,368.326,46.8981,0,0.000885,0,0
0:3:8.870,368.735,46.9464,0,0.000885,0,0
0:3:9.065,368.971,46.9809,0,0.000885,0,0
0:3:9.265,369.145,47.0016,0,0.000885,0,0
0:3:9.466,369.558,47.0567,0,0.000885,0,0
0:3:9.667,370.203,47.1326,0,0.000885,0,0
0:3:9.869,370.261,47.1464,0,0.000885,0,0
0:3:10.069,370.728,47.2015,0,0.000885,0,0
0:3:10.271,370.555,47.1808,0,0.000885,0,0
0:3:10.471,371.315,47.2774,0,0.000885,0,0
0:3:10.671,371.667,47.3256,0,0.000885,0,0
0:3:10.871,371.845,47.3463,0,0.000885,0,0
0:3:11.078,372.312,47.4015,0,0.000885,0,0
0:3:11.279,372.783,47.4635,0,0.000885,0,0
0:3:11.483,373.313,47.5325,0,0.000885,0,0
0:3:11.681,373.486,47.5531,0,0.000885,0,0
0:3:11.881,373.544,47.56,0,0.000885,0,0
0:3:12.083,374.189,47.6428,0,0.000885,0,0
0:3:12.283,374.189,47.6428,0,0.000885,0,0
0:3:12.481,374.66,47.7048,0,0.000885,0,0
0:3:12.674,375.012,47.7462,0,0.000885,0,0
0:3:12.876,375.599,47.822,0,0.000885,0,0
0:3:13.080,375.599,47.822,0,0.000885,0,0
0:3:13.279,376.124,47.891,0,0.000885,0,0
0:3:13.479,376.947,47.9944,0,0.000885,0,0
0:3:13.681,376.947,47.9944,0,0.000885,0,0
0:3:13.882,377.707,48.0909,0,0.000885,0,0
0:3:14.083,377.77,48.0978,0,0.000885,0,0
0:3:14.285,378.179,48.153,0,0.000885,0,0
0:3:14.486,378.708,48.215,0,0.000885,0,0
0:3:14.687,379.233,48.284,0,0.000885,0,0
0:3:14.886,379.527,48.3254,0,0.000885,0,0
0:3:15.086,380.35,48.4288,0,0.000885,0,0
0:3:15.286,380.581,48.4564,0,0.000885,0,0
0:3:15.487,381.052,48.5184,0,0.000885,0,0
0:3:15.681,381.462,48.5667,0,0.000885,0,0
0:3:15.882,381.813,48.6149,0,0.000885,0,0
0:3:16.078,382.342,48.6839,0,0.000885,0,0
0:3:16.284,382.814,48.739,0,0.000885,0,0
0:3:16.485,383.165,48.7873,0,0.000885,0,0
0:3:16.680,382.987,48.7666,0,0.000885,0,0
0:3:16.878,383.868,48.8769,0,0.000885,0,0
0:3:17.075,384.22,48.9183,0,0.000885,0,0
0:3:17.280,384.335,48.9321,0,0.000885,0,0
0:3:17.481,384.571,48.9666,0,0.000885,0,0
0:3:17.678,384.807,48.9941,0,0.000885,0,0
0:3:17.873,385.158,49.0424,0,0.000885,0,0
0:3:18.073,386.155,49.1665,0,0.000885,0,0
0:3:18.266,386.564,49.2217,0,0.000885,0,0
0:3:18.466,387.035,49.2768,0,0.000885,0,0
0:3:18.663,387.445,49.332,0,0.000885,0,0
0:3:18.859,387.329,49.3182,0,0.000885,0,0
0:3:19.061,388.499,49.463,0,0.000885,0,0
0:3:19.262,388.855,49.5113,0,0.000885,0,0
0:3:19.464,388.912,49.5181,0,0.000885,0,0
0:3:19.665,389.028,49.5319,0,0.000885,0,0
0:3:19.865,389.264,49.5595,0,0.000885,0,0
0:3:20.064,389.615,49.6078,0,0.000885,0,0
0:3:20.265,390.145,49.6767,0,0.000885,0,0
0:3:20.463,390.082,49.6698,0,0.000885,0,0
0:3:20.663,391.199,49.8077,0,0.000885,0,0
0:3:20.878,391.257,49.8146,0,0.000885,0,0
0:3:21.079,391.435,49.8422,0,0.000885,0,0
0:3:21.284,391.666,49.8698,0,0.000885,0,0
0:3:21.481,390.318,49.6974,0,0.000885,0,0
0:3:21.680,390.438,49.7112,0,0.000885,0,0
0:3:21.881,390.963,49.7801,0,0.000885,0,0
0:3:22.081,391.377,49.8284,0,0.000885,0,0
0:3:22.279,391.377,49.8284,0,0.000885,0,0
0:3:22.484,391.666,49.8698,0,0.000885,0,0
0:3:22.684,392.431,49.9663,0,0.000885,0,0
0:3:22.878,392.96,50.0353,0,0.000885,0,0
0:3:23.075,393.957,50.1594,0,0.000885,0,0
0:3:23.274,393.957,50.1594,0,0.000885,0,0
0:3:23.469,394.775,50.2628,0,0.000885,0,0
0:3:23.670,395.127,50.311,0,0.000885,0,0
0:3:23.874,395.772,50.3938,0,0.000885,0,0
0:3:24.072,396.065,50.4283,0,0.000885,0,0
0:3:24.273,396.243,50.4489,0,0.000885,0,0
0:3:24.475,396.83,50.5248,0,0.000885,0,0
0:3:24.675,397.004,50.5455,0,0.000885,0,0
0:3:24.879,397.475,50.6075,0,0.000885,0,0
0:3:25.080,397.827,50.6558,0,0.000885,0,0
0:3:25.281,398.881,50.7868,0,0.000885,0,0
0:3:25.480,398.881,50.7868,0,0.000885,0,0
0:3:25.681,399.526,50.8695,0,0.000885,0,0
0:3:25.878,399.704,50.8902,0,0.000885,0,0
0:3:26.071,400.349,50.9729,0,0.000885,0,0
0:3:26.272,400.349,50.9729,0,0.000885,0,0
0:3:26.479,400.816,51.035,0,0.000885,0,0
0:3:26.676,400.816,51.035,0,0.000885,0,0
0:3:26.884,401.287,51.0902,0,0.000885,0,0
0:3:27.080,401.754,51.1522,0,0.000885,0,0
0:3:27.280,401.875,51.166,0,0.000885,0,0
0:3:27.474,402.168,51.2074,0,0.000885,0,0
0:3:27.672,402.577,51.2556,0,0.000885,0,0
0:3:27.870,402.577,51.2556,0,0.000885,0,0
0:3:28.073,402.929,51.3039,0,0.000885,0,0
0:3:28.273,402.813,51.2901,0,0.000885,0,0
0:3:28.470,402.987,51.3108,0,0.000885,0,0
0:3:28.675,402.399,51.2349,0,0.000885,0,0
0:3:28.875,402.577,51.2556,0,0.000885,0,0
0:3:29.076,402.342,51.228,0,0.000885,0,0
0:3:29.280,402.048,51.1936,0,0.000885,0,0
0:3:29.480,401.697,51.1453,0,0.000885,0,0
0:3:29.680,402.048,51.1936,0,0.000885,0,0
0:3:29.879,401.23,51.0833,0,0.000885,0,0
0:3:30.079,400.936,51.0488,0,0.000885,0,0
0:3:30.275,400.407,50.9798,0,0.000885,0,0
0:3:30.472,399.997,50.9316,0,0.000885,0,0
0:3:30.668,400.055,50.9385,0,0.000885,0,0
0:3:30.868,399.94,50.9247,0,0.000885,0,0
0:3:31.064,399.352,50.8488,0,0.000885,0,0
0:3:31.261,398.823,50.7799,0,0.000885,0,0
0:3:31.460,398.414,50.7247,0,0.000885,0,0
0:3:31.655,398.178,50.6972,0,0.000885,0,0
0:3:31.854,398.414,50.7247,0,0.000885,0,0
0:3:32.049,398.587,50.7523,0,0.000885,0,0
0:3:32.245,398.356,50.7178,0,0.000885,0,0
0:3:32.444,398.414,50.7247,0,0.000885,0,0
0:3:32.639,398,50.6765,0,0.000885,0,0
0:3:32.836,397.827,50.6558,0,0.000885,0,0
0:3:33.034,397.649,50.6282,0,0.000885,0,0
0:3:33.228,397.591,50.6213,0,0.000885,0,0
0:3:33.428,397.591,50.6213,0,0.000885,0,0
0:3:33.623,397.649,50.6282,0,0.000885,0,0
0:3:33.821,397.475,50.6075,0,0.000885,0,0
0:3:34.021,397.124,50.5661,0,0.000885,0,0
0:3:34.222,397.066,50.5524,0,0.000885,0,0
0:3:34.424,396.652,50.5041,0,0.000885,0,0
0:3:34.624,396.652,50.5041,0,0.000885,0,0
0:3:34.824,396.595,50.4972,0,0.000885,0,0
0:3:35.023,396.479,50.4834,0,0.000885,0,0
0:3:35.224,396.595,50.4972,0,0.000885,0,0
0:3:35.423,396.83,50.5248,0,0.000885,0,0
0:3:35.621,396.301,50.4558,0,0.000885,0,0
0:3:35.815,396.065,50.4283,0,0.000885,0,0
0:3:36.015,396.185,50.442,0,0.000885,0,0
0:3:36.210,395.892,50.4076,0,0.000885,0,0
0:3:36.408,396.359,50.4627,0,0.000885,0,0
0:3:36.607,396.652,50.5041,0,0.000885,0,0
0:3:36.800,396.537,50.4903,0,0.000885,0,0
0:3:37.000,396.83,50.5248,0,0.000885,0,0
0:3:37.196,397.066,50.5524,0,0.000885,0,0
0:3:37.393,397.533,50.6144,0,0.000885,0,0
0:3:37.592,397.942,50.6696,0,0.000885,0,0
0:3:37.786,398.236,50.704,0,0.000885,0,0
0:3:37.985,397.827,50.6558,0,0.000885,0,0
0:3:38.184,398,50.6765,0,0.000885,0,0
0:3:38.376,397.769,50.642,0,0.000885,0,0
0:3:38.576,398.236,50.704,0,0.000885,0,0
0:3:38.772,398.472,50.7316,0,0.000885,0,0
0:3:38.968,398.472,50.7316,0,0.000885,0,0
0:3:39.168,399.175,50.8213,0,0.000885,0,0
0:3:39.369,399.232,50.835,0,0.000885,0,0
0:3:39.569,399.584,50.8764,0,0.000885,0,0
0:3:39.770,400.113,50.9454,0,0.000885,0,0
0:3:39.970,400.291,50.966,0,0.000885,0,0
0:3:40.171,395.482,50.3524,0,0.000885,0,0
0:3:40.370,394.544,50.2352,0,0.000885,0,0
0:3:40.571,394.544,50.2352,0,0.000885,0,0
0:3:40.769,394.544,50.2352,0,0.000885,0,0
0:3:40.972,395.189,50.3179,0,0.000885,0,0
0:3:41.173,395.362,50.3386,0,0.000885,0,0
0:3:41.377,396.127,50.4351,0,0.000885,0,0
0:3:41.585,396.595,50.4972,0,0.000885,0,0
0:3:41.783,397.124,50.5661,0,0.000885,0,0
0:3:41.976,397.355,50.5937,0,0.000885,0,0
0:3:42.175,397.769,50.642,0,0.000885,0,0
0:3:42.372,398.294,50.7109,0,0.000885,0,0
0:3:42.568,399.117,50.8144,0,0.000885,0,0
0:3:42.768,399.584,50.8764,0,0.000885,0,0
0:3:42.961,400.349,50.9729,0,0.000885,0,0
0:3:43.160,400.994,51.0557,0,0.000885,0,0
0:3:43.367,401.523,51.1246,0,0.000885,0,0
0:3:43.573,401.875,51.166,0,0.000885,0,0
0:3:43.774,400.055,50.9385,0,0.000885,0,0
0:3:43.975,400.055,50.9385,0,0.000885,0,0
0:3:44.175,400.994,51.0557,0,0.000885,0,0
0:3:44.375,400.758,51.0281,0,0.000885,0,0
0:3:44.574,400.994,51.0557,0,0.000885,0,0
0:3:44.774,401.052,51.0626,0,0.000885,0,0
0:3:44.973,401.523,51.1246,0,0.000885,0,0
0:3:45.173,402.226,51.2143,0,0.000885,0,0
0:3:45.370,402.751,51.2832,0,0.000885,0,0
0:3:45.566,403.925,51.428,0,0.000885,0,0
0:3:45.766,403.925,51.428,0,0.000885,0,0
0:3:45.970,341.579,43.4921,0,0.000885,0,0
0:3:46.058,341.579,43.4921,0,0.000885,0,0