File: DataFile2021-06-08_044524.csv
Test ID:,Date Tested:,Time:,Test Type:,Diameter Avg. (mm):,Cyl. Corr. Factor:,Height (mm):,Age (days):,Weight (kN):,Break Type:,Ramp Rate (MPa/s):,Load at Break (kN):,Stress at Break (MPa):
12,6/8/2021,04:45,Cylinder,100,1,200,0,3.6,3,0.24,349.27,44.47
Sample Time,Load (kN),Stress (MPa),Long. Strain,Trans. Strain,Chan1 Deflection (mm),Chan2 Deflection (mm)
0:0:15.384,5.10211,0.648107,0,0.000885,0,0
0:0:15.586,14.7814,1.88227,0,0.000885,0,0
0:0:15.783,16.0714,2.04774,0,0.000885,0,0
0:0:15.981,15.9513,2.03395,0,0.000885,0,0
0:0:16.182,15.1907,1.93743,0,0.000885,0,0
0:0:16.379,15.1328,1.92364,0,0.000885,0,0
0:0:16.579,14.5457,1.85469,0,0.000885,0,0
0:0:16.776,14.3099,1.82022,0,0.000885,0,0
0:0:16.973,13.9585,1.77885,0,0.000885,0,0
0:0:17.174,14.0742,1.79264,0,0.000885,0,0
0:0:17.370,14.0163,1.78574,0,0.000885,0,0
0:0:17.570,13.8429,1.76506,0,0.000885,0,0
0:0:17.768,13.6649,1.73748,0,0.000885,0,0
0:0:17.964,13.6071,1.73058,0,0.000885,0,0
0:0:18.166,13.4292,1.7099,0,0.000885,0,0
0:0:18.362,13.8429,1.76506,0,0.000885,0,0
0:0:18.563,13.8429,1.76506,0,0.000885,0,0
0:0:18.761,13.4292,1.7099,0,0.000885,0,0
0:0:18.957,13.0778,1.66853,0,0.000885,0,0
0:0:19.158,13.1356,1.67543,0,0.000885,0,0
0:0:19.353,12.9621,1.64785,0,0.000885,0,0
0:0:19.553,14.0742,1.79264,0,0.000885,0,0
0:0:19.752,14.1943,1.80643,0,0.000885,0,0
0:0:19.957,14.0742,1.79264,0,0.000885,0,0
0:0:20.157,14.1364,1.79953,0,0.000885,0,0
0:0:20.354,14.8971,1.89606,0,0.000885,0,0
0:0:20.555,15.075,1.91674,0,0.000885,0,0
0:0:20.756,14.7814,1.88227,0,0.000885,0,0
0:0:20.958,15.0127,1.90985,0,0.000885,0,0
0:0:21.160,15.2485,1.94432,0,0.000885,0,0
0:0:21.361,15.8935,2.02706,0,0.000885,0,0
0:0:21.563,16.4228,2.08911,0,0.000885,0,0
0:0:21.764,16.7742,2.13737,0,0.000885,0,0
0:0:21.964,17.3036,2.20632,0,0.000885,0,0
0:0:22.165,18.2422,2.32353,0,0.000885,0,0
0:0:22.365,18.8249,2.39938,0,0.000885,0,0
0:0:22.564,19.0606,2.42695,0,0.000885,0,0
0:0:22.765,19.7056,2.50969,0,0.000885,0,0
0:0:22.961,20.5285,2.61311,0,0.000885,0,0
0:0:23.163,21.0534,2.68206,0,0.000885,0,0
0:0:23.359,21.1157,2.68896,0,0.000885,0,0
0:0:23.558,21.2314,2.70274,0,0.000885,0,0
0:0:23.760,21.992,2.79927,0,0.000885,0,0
0:0:23.956,22.2278,2.82685,0,0.000885,0,0
0:0:24.158,22.8728,2.90959,0,0.000885,0,0
0:0:24.356,23.2864,2.96475,0,0.000885,0,0
0:0:24.553,23.4021,2.97854,0,0.000885,0,0
0:0:24.755,23.6957,3.0199,0,0.000885,0,0
0:0:24.952,23.6957,3.0199,0,0.000885,0,0
0:0:25.153,24.1049,3.06817,0,0.000885,0,0
0:0:25.351,24.4563,3.11643,0,0.000885,0,0
0:0:25.557,24.7499,3.1509,0,0.000885,0,0
0:0:25.760,25.1591,3.20606,0,0.000885,0,0
0:0:25.962,25.5728,3.25433,0,0.000885,0,0
0:0:26.166,25.9821,3.30948,0,0.000885,0,0
0:0:26.367,26.3335,3.35085,0,0.000885,0,0
0:0:26.570,26.9785,3.43359,0,0.000885,0,0
0:0:26.772,27.272,3.47496,0,0.000885,0,0
0:0:26.974,27.9749,3.56459,0,0.000885,0,0
0:0:27.175,28.3263,3.60596,0,0.000885,0,0
0:0:27.376,29.0914,3.70248,0,0.000885,0,0
0:0:27.574,29.5006,3.75764,0,0.000885,0,0
0:0:27.777,29.7942,3.79212,0,0.000885,0,0
0:0:27.973,30.0878,3.83349,0,0.000885,0,0
0:0:28.173,30.2657,3.85417,0,0.000885,0,0
0:0:28.372,30.5548,3.88864,0,0.000885,0,0
0:0:28.569,31.0263,3.9507,0,0.000885,0,0
0:0:28.771,31.3199,3.98517,0,0.000885,0,0
0:0:28.968,31.787,4.04722,0,0.000885,0,0
0:0:29.167,31.9071,4.06101,0,0.000885,0,0
0:0:29.368,32.2585,4.10928,0,0.000885,0,0
0:0:29.564,32.7256,4.16443,0,0.000885,0,0
0:0:29.766,33.2549,4.23338,0,0.000885,0,0
0:0:29.965,33.6641,4.28854,0,0.000885,0,0
0:0:30.163,34.1357,4.3437,0,0.000885,0,0
0:0:30.365,34.6027,4.40575,0,0.000885,0,0
0:0:30.561,34.8385,4.43333,0,0.000885,0,0
0:0:30.762,35.4256,4.50917,0,0.000885,0,0
0:0:30.964,36.0128,4.58501,0,0.000885,0,0
0:0:31.167,36.4799,4.64707,0,0.000885,0,0
0:0:31.369,36.7156,4.67465,0,0.000885,0,0
0:0:31.572,37.067,4.72291,0,0.000885,0,0
0:0:31.774,37.6542,4.79186,0,0.000885,0,0
0:0:31.973,37.6542,4.79186,0,0.000885,0,0
0:0:32.174,37.8277,4.81944,0,0.000885,0,0
0:0:32.376,38.2992,4.87459,0,0.000885,0,0
0:0:32.573,38.7663,4.93665,0,0.000885,0,0
0:0:32.773,39.1177,4.97801,0,0.000885,0,0
0:0:32.972,39.1799,4.9918,0,0.000885,0,0
0:0:33.169,39.8828,5.07454,0,0.000885,0,0
0:0:33.371,40.4121,5.14349,0,0.000885,0,0
0:0:33.568,40.5277,5.15728,0,0.000885,0,0
0:0:33.767,41.4085,5.27449,0,0.000885,0,0
0:0:33.968,41.8177,5.32275,0,0.000885,0,0
0:0:34.164,42.8141,5.45375,0,0.000885,0,0
0:0:34.365,43.1077,5.48823,0,0.000885,0,0
0:0:34.564,43.1077,5.48823,0,0.000885,0,0
0:0:34.761,43.517,5.54338,0,0.000885,0,0
0:0:34.962,43.4591,5.53649,0,0.000885,0,0
0:0:35.158,43.6949,5.56407,0,0.000885,0,0
0:0:35.359,44.0463,5.60544,0,0.000885,0,0
0:0:35.558,44.6335,5.68128,0,0.000885,0,0
0:0:35.755,45.0427,5.73644,0,0.000885,0,0
0:0:35.957,45.1005,5.74333,0,0.000885,0,0
0:0:36.159,45.572,5.80539,0,0.000885,0,0
0:0:36.363,46.1014,5.86744,0,0.000885,0,0
0:0:36.564,46.8042,5.95707,0,0.000885,0,0
0:0:36.767,47.0355,5.99154,0,0.000885,0,0
0:0:36.969,47.3914,6.03291,0,0.000885,0,0
0:0:37.169,47.7428,6.08118,0,0.000885,0,0
0:0:37.371,47.8584,6.09497,0,0.000885,0,0
0:0:37.572,48.5612,6.1846,0,0.000885,0,0
0:0:37.769,49.6777,6.32249,0,0.000885,0,0
0:0:37.971,49.7934,6.34318,0,0.000885,0,0
0:0:38.167,49.9713,6.36386,0,0.000885,0,0
0:0:38.367,50.3806,6.41212,0,0.000885,0,0
0:0:38.567,50.9677,6.48797,0,0.000885,0,0
0:0:38.763,51.1412,6.50865,0,0.000885,0,0
0:0:38.965,51.3191,6.53623,0,0.000885,0,0
0:0:39.162,51.7284,6.58449,0,0.000885,0,0
0:0:39.361,51.9063,6.61207,0,0.000885,0,0
0:0:39.563,52.3155,6.66034,0,0.000885,0,0
0:0:39.759,53.1963,6.77065,0,0.000885,0,0
0:0:39.960,52.8449,6.72928,0,0.000885,0,0
0:0:40.158,52.787,6.72239,0,0.000885,0,0
0:0:40.354,54.4284,6.92923,0,0.000885,0,0
0:0:40.556,54.1349,6.89476,0,0.000885,0,0
0:0:40.758,55.0156,7.00507,0,0.000885,0,0
0:0:40.962,55.4827,7.06713,0,0.000885,0,0
0:0:41.165,56.012,7.12918,0,0.000885,0,0
0:0:41.366,56.2478,7.16365,0,0.000885,0,0
0:0:41.568,56.7148,7.21881,0,0.000885,0,0
0:0:41.770,56.8928,7.24639,0,0.000885,0,0
0:0:41.971,56.9506,7.25328,0,0.000885,0,0
0:0:42.172,57.2442,7.28776,0,0.000885,0,0
0:0:42.368,57.8892,7.3705,0,0.000885,0,0
0:0:42.569,58.3562,7.43255,0,0.000885,0,0
0:0:42.767,58.592,7.46013,0,0.000885,0,0
0:0:42.965,59.9398,7.6325,0,0.000885,0,0
0:0:43.167,59.9976,7.63939,0,0.000885,0,0
0:0:43.362,60.1177,7.65318,0,0.000885,0,0
0:0:43.563,60.6426,7.72213,0,0.000885,0,0
0:0:43.762,61.0563,7.77039,0,0.000885,0,0
0:0:43.958,60.8784,7.74971,0,0.000885,0,0
0:0:44.161,61.6435,7.84623,0,0.000885,0,0
0:0:44.357,62.0527,7.90139,0,0.000885,0,0
0:0:44.557,62.6977,7.98413,0,0.000885,0,0
0:0:44.756,62.6399,7.97723,0,0.000885,0,0
0:0:44.953,63.1647,8.03929,0,0.000885,0,0
0:0:45.155,63.6363,8.10134,0,0.000885,0,0
0:0:45.353,64.4547,8.20476,0,0.000885,0,0
0:0:45.548,64.2234,8.17718,0,0.000885,0,0
0:0:45.752,64.4547,8.20476,0,0.000885,0,0
0:0:45.954,64.5748,8.21855,0,0.000885,0,0
0:0:46.157,65.0419,8.2806,0,0.000885,0,0
0:0:46.359,65.9226,8.39092,0,0.000885,0,0
0:0:46.560,66.6255,8.48055,0,0.000885,0,0
0:0:46.762,66.452,8.45987,0,0.000885,0,0
0:0:46.962,66.919,8.52192,0,0.000885,0,0
0:0:47.165,67.1548,8.5495,0,0.000885,0,0
0:0:47.363,67.6841,8.61845,0,0.000885,0,0
0:0:47.561,68.3291,8.70118,0,0.000885,0,0
0:0:47.763,68.9163,8.77703,0,0.000885,0,0
0:0:47.959,69.2054,8.8115,0,0.000885,0,0
0:0:48.159,69.1476,8.80461,0,0.000885,0,0
0:0:48.358,70.0284,8.91492,0,0.000885,0,0
0:0:48.555,70.3219,8.95629,0,0.000885,0,0
0:0:48.757,70.8513,9.01834,0,0.000885,0,0
0:0:48.952,71.4384,9.09418,0,0.000885,0,0
0:0:49.153,71.7276,9.13555,0,0.000885,0,0
0:0:49.353,71.5541,9.10797,0,0.000885,0,0
0:0:49.558,72.0834,9.17692,0,0.000885,0,0
0:0:49.761,72.8441,9.27345,0,0.000885,0,0
0:0:49.957,72.9597,9.28724,0,0.000885,0,0
0:0:50.157,73.022,9.29413,0,0.000885,0,0
0:0:50.359,73.6047,9.36998,0,0.000885,0,0
0:0:50.554,74.0762,9.43203,0,0.000885,0,0
0:0:50.755,74.7791,9.52166,0,0.000885,0,0
0:0:50.956,75.0148,9.54924,0,0.000885,0,0
0:0:51.160,75.3662,9.5975,0,0.000885,0,0
0:0:51.363,76.069,9.68713,0,0.000885,0,0
0:0:51.563,76.0112,9.68024,0,0.000885,0,0
0:0:51.766,76.714,9.76987,0,0.000885,0,0
0:0:51.968,77.0076,9.80434,0,0.000885,0,0
0:0:52.169,77.5948,9.88019,0,0.000885,0,0
0:0:52.370,77.4791,9.8664,0,0.000885,0,0
0:0:52.567,77.5948,9.88019,0,0.000885,0,0
0:0:52.767,78.1241,9.94913,0,0.000885,0,0
0:0:52.966,78.9426,10.0526,0,0.000885,0,0
0:0:53.162,79.5876,10.1353,0,0.000885,0,0
0:0:53.363,79.5298,10.1284,0,0.000885,0,0
0:0:53.561,80.0591,10.1905,0,0.000885,0,0
0:0:53.760,80.3527,10.2318,0,0.000885,0,0
0:0:53.961,80.5262,10.2525,0,0.000885,0,0
0:0:54.156,81.229,10.3421,0,0.000885,0,0
0:0:54.358,81.5226,10.3766,0,0.000885,0,0
0:0:54.557,82.3455,10.4869,0,0.000885,0,0
0:0:54.754,83.1684,10.5903,0,0.000885,0,0
0:0:54.955,82.3455,10.4869,0,0.000885,0,0
0:0:55.159,82.9326,10.5559,0,0.000885,0,0
0:0:55.360,83.6355,10.6455,0,0.000885,0,0
0:0:55.560,83.6355,10.6455,0,0.000885,0,0
0:0:55.755,84.0447,10.7007,0,0.000885,0,0
0:0:55.957,84.574,10.7696,0,0.000885,0,0
0:0:56.158,84.9254,10.811,0,0.000885,0,0
0:0:56.362,85.8062,10.9282,0,0.000885,0,0
0:0:56.565,85.864,10.9351,0,0.000885,0,0
0:0:56.766,86.2733,10.9833,0,0.000885,0,0
0:0:56.967,86.7448,11.0454,0,0.000885,0,0
0:0:57.169,86.9805,11.073,0,0.000885,0,0
0:0:57.370,87.6255,11.1557,0,0.000885,0,0
0:0:57.572,88.0926,11.2178,0,0.000885,0,0
0:0:57.767,88.2082,11.2316,0,0.000885,0,0
0:0:57.969,89.0312,11.335,0,0.000885,0,0
0:0:58.168,89.5605,11.4039,0,0.000885,0,0
0:0:58.363,89.8541,11.4384,0,0.000885,0,0
0:0:58.565,90.5569,11.528,0,0.000885,0,0
0:0:58.761,90.2055,11.4867,0,0.000885,0,0
0:0:58.962,90.379,11.5073,0,0.000885,0,0
0:0:59.162,90.7304,11.5556,0,0.000885,0,0
0:0:59.357,90.8505,11.5694,0,0.000885,0,0
0:0:59.559,91.669,11.6728,0,0.000885,0,0
0:0:59.758,92.1983,11.7418,0,0.000885,0,0
0:0:59.957,92.7276,11.8038,0,0.000885,0,0
0:1:0.158,93.1947,11.8659,0,0.000885,0,0
0:1:0.352,93.2525,11.8728,0,0.000885,0,0
0:1:0.555,93.8975,11.9555,0,0.000885,0,0
0:1:0.757,94.1333,11.9831,0,0.000885,0,0
0:1:0.960,94.4268,12.0245,0,0.000885,0,0
0:1:1.162,95.0718,12.1072,0,0.000885,0,0
0:1:1.365,95.8948,12.2106,0,0.000885,0,0
0:1:1.566,96.304,12.2589,0,0.000885,0,0
0:1:1.768,96.5976,12.3002,0,0.000885,0,0
0:1:1.968,95.8948,12.2106,0,0.000885,0,0
0:1:2.169,96.6554,12.3071,0,0.000885,0,0
0:1:2.365,97.3582,12.3968,0,0.000885,0,0
0:1:2.565,96.8912,12.3347,0,0.000885,0,0
0:1:2.763,97.2426,12.383,0,0.000885,0,0
0:1:2.961,98.4169,12.5278,0,0.000885,0,0
0:1:3.164,99.0041,12.6036,0,0.000885,0,0
0:1:3.360,99.7069,12.6932,0,0.000885,0,0
0:1:3.559,100.174,12.7553,0,0.000885,0,0
0:1:3.760,100.939,12.8518,0,0.000885,0,0
0:1:3.955,100.294,12.7691,0,0.000885,0,0
0:1:4.158,101.29,12.8932,0,0.000885,0,0
0:1:4.353,102.051,12.9966,0,0.000885,0,0
0:1:4.561,101.17,12.8794,0,0.000885,0,0
0:1:4.762,101.815,12.9621,0,0.000885,0,0
0:1:4.958,102.051,12.9966,0,0.000885,0,0
0:1:5.160,102.874,13.1,0,0.000885,0,0
0:1:5.358,102.754,13.0862,0,0.000885,0,0
0:1:5.555,103.225,13.1414,0,0.000885,0,0
0:1:5.757,103.928,13.231,0,0.000885,0,0
0:1:5.960,104.28,13.2793,0,0.000885,0,0
0:1:6.162,104.631,13.3207,0,0.000885,0,0
0:1:6.365,105.276,13.4034,0,0.000885,0,0
0:1:6.567,105.512,13.431,0,0.000885,0,0
0:1:6.767,105.805,13.4724,0,0.000885,0,0
0:1:6.969,106.099,13.5068,0,0.000885,0,0
0:1:7.171,107.038,13.6309,0,0.000885,0,0
0:1:7.372,107.273,13.6585,0,0.000885,0,0
0:1:7.568,108.034,13.755,0,0.000885,0,0
0:1:7.769,108.034,13.755,0,0.000885,0,0
0:1:7.966,108.034,13.755,0,0.000885,0,0
0:1:8.166,109.03,13.8791,0,0.000885,0,0
0:1:8.367,109.56,13.9481,0,0.000885,0,0
0:1:8.561,109.324,13.9205,0,0.000885,0,0
0:1:8.762,109.675,13.9619,0,0.000885,0,0
0:1:8.960,110.089,14.017,0,0.000885,0,0
0:1:9.158,110.44,14.0584,0,0.000885,0,0
0:1:9.361,111.201,14.1618,0,0.000885,0,0
0:1:9.556,111.437,14.1894,0,0.000885,0,0
0:1:9.757,111.259,14.1687,0,0.000885,0,0
0:1:9.955,111.379,14.1825,0,0.000885,0,0
0:1:10.161,112.491,14.3204,0,0.000885,0,0
0:1:10.363,113.02,14.3894,0,0.000885,0,0
0:1:10.562,113.372,14.4376,0,0.000885,0,0
0:1:10.760,113.781,14.4859,0,0.000885,0,0
0:1:10.962,114.604,14.5893,0,0.000885,0,0
0:1:11.165,114.84,14.6238,0,0.000885,0,0
0:1:11.368,115.013,14.6445,0,0.000885,0,0
0:1:11.570,115.6,14.7203,0,0.000885,0,0
0:1:11.772,116.188,14.7961,0,0.000885,0,0
0:1:11.972,116.067,14.7755,0,0.000885,0,0
0:1:12.173,116.245,14.803,0,0.000885,0,0
0:1:12.374,116.361,14.8168,0,0.000885,0,0
0:1:12.575,117.126,14.9134,0,0.000885,0,0
0:1:12.774,117.651,14.9823,0,0.000885,0,0
0:1:12.976,118.238,15.0581,0,0.000885,0,0
0:1:13.170,118.59,15.0995,0,0.000885,0,0
0:1:13.373,119.355,15.196,0,0.000885,0,0
0:1:13.571,119.59,15.2236,0,0.000885,0,0
0:1:13.770,120.702,15.3684,0,0.000885,0,0
0:1:13.970,119.764,15.2512,0,0.000885,0,0
0:1:14.165,120.996,15.4029,0,0.000885,0,0
0:1:14.365,120.293,15.3133,0,0.000885,0,0
0:1:14.565,121.463,15.4649,0,0.000885,0,0
0:1:14.761,120.818,15.3822,0,0.000885,0,0
0:1:14.963,120.938,15.396,0,0.000885,0,0
0:1:15.158,122.286,15.5684,0,0.000885,0,0
0:1:15.359,122.58,15.6097,0,0.000885,0,0
0:1:15.560,123.576,15.7338,0,0.000885,0,0
0:1:15.755,123.634,15.7407,0,0.000885,0,0
0:1:15.958,123.985,15.789,0,0.000885,0,0
0:1:16.159,124.105,15.8028,0,0.000885,0,0
0:1:16.363,125.338,15.9614,0,0.000885,0,0
0:1:16.566,125.983,16.0372,0,0.000885,0,0
0:1:16.767,125.338,15.9614,0,0.000885,0,0
0:1:16.967,125.044,15.92,0,0.000885,0,0
0:1:17.168,125.925,16.0303,0,0.000885,0,0
0:1:17.370,126.098,16.0579,0,0.000885,0,0
0:1:17.572,126.863,16.1544,0,0.000885,0,0
0:1:17.769,127.797,16.2716,0,0.000885,0,0
0:1:17.971,128.091,16.3061,0,0.000885,0,0
0:1:18.168,128.033,16.2992,0,0.000885,0,0
0:1:18.367,129.03,16.4302,0,0.000885,0,0
0:1:18.567,129.443,16.4785,0,0.000885,0,0
0:1:18.763,129.852,16.5336,0,0.000885,0,0
0:1:18.965,129.968,16.5474,0,0.000885,0,0
0:1:19.162,130.32,16.5957,0,0.000885,0,0
0:1:19.361,131.2,16.706,0,0.000885,0,0
0:1:19.561,131.142,16.6991,0,0.000885,0,0
0:1:19.757,132.023,16.8094,0,0.000885,0,0
0:1:19.959,130.907,16.6646,0,0.000885,0,0
0:1:20.158,132.49,16.8715,0,0.000885,0,0
0:1:20.355,132.784,16.9059,0,0.000885,0,0
0:1:20.557,132.962,16.9266,0,0.000885,0,0
0:1:20.760,133.843,17.0438,0,0.000885,0,0
0:1:20.962,133.487,16.9956,0,0.000885,0,0
0:1:21.165,133.9,17.0507,0,0.000885,0,0
0:1:21.367,134.488,17.1266,0,0.000885,0,0
0:1:21.567,134.661,17.1473,0,0.000885,0,0
0:1:21.769,135.133,17.2024,0,0.000885,0,0
0:1:21.971,135.893,17.3058,0,0.000885,0,0
0:1:22.170,136.129,17.3334,0,0.000885,0,0
0:1:22.367,136.774,17.4162,0,0.000885,0,0
0:1:22.568,138.064,17.5816,0,0.000885,0,0
0:1:22.763,137.125,17.4575,0,0.000885,0,0
0:1:22.964,138.3,17.6092,0,0.000885,0,0
0:1:23.163,138.122,17.5885,0,0.000885,0,0
0:1:23.360,138.237,17.6023,0,0.000885,0,0
0:1:23.562,138.3,17.6092,0,0.000885,0,0
0:1:23.758,139.354,17.7402,0,0.000885,0,0
0:1:23.958,139.59,17.7747,0,0.000885,0,0
0:1:24.158,139.705,17.7885,0,0.000885,0,0
0:1:24.352,140.702,17.9126,0,0.000885,0,0
0:1:24.557,140.822,17.9264,0,0.000885,0,0
0:1:24.761,141.582,18.0298,0,0.000885,0,0
0:1:24.962,142.227,18.1056,0,0.000885,0,0
0:1:25.163,141.934,18.0712,0,0.000885,0,0
0:1:25.358,142.405,18.1332,0,0.000885,0,0
0:1:25.560,143.575,18.278,0,0.000885,0,0
0:1:25.761,143.282,18.2435,0,0.000885,0,0
0:1:25.964,143.753,18.3056,0,0.000885,0,0
0:1:26.167,143.166,18.2297,0,0.000885,0,0
0:1:26.369,144.456,18.3952,0,0.000885,0,0
0:1:26.570,144.985,18.4573,0,0.000885,0,0
0:1:26.771,145.217,18.4917,0,0.000885,0,0
0:1:26.972,145.159,18.4848,0,0.000885,0,0
0:1:27.173,146.155,18.6089,0,0.000885,0,0
0:1:27.371,146.92,18.7055,0,0.000885,0,0
0:1:27.572,147.387,18.7675,0,0.000885,0,0
0:1:27.770,147.33,18.7606,0,0.000885,0,0
0:1:27.968,148.446,18.8985,0,0.000885,0,0
0:1:28.169,147.681,18.802,0,0.000885,0,0
0:1:28.365,148.855,18.9537,0,0.000885,0,0
0:1:28.566,147.975,18.8434,0,0.000885,0,0
0:1:28.765,149.322,19.0157,0,0.000885,0,0
0:1:28.961,149.091,18.9813,0,0.000885,0,0
0:1:29.162,149.678,19.0571,0,0.000885,0,0
0:1:29.359,150.381,19.1467,0,0.000885,0,0
0:1:29.561,150.439,19.1536,0,0.000885,0,0
0:1:29.760,150.612,19.1743,0,0.000885,0,0
0:1:29.958,151.142,19.2433,0,0.000885,0,0
0:1:30.159,151.435,19.2846,0,0.000885,0,0
0:1:30.364,151.613,19.3053,0,0.000885,0,0
0:1:30.564,152.61,19.4294,0,0.000885,0,0
0:1:30.766,152.725,19.4432,0,0.000885,0,0
0:1:30.969,153.606,19.5604,0,0.000885,0,0
0:1:31.171,154.015,19.6087,0,0.000885,0,0
0:1:31.374,154.78,19.7052,0,0.000885,0,0
0:1:31.575,154.954,19.7328,0,0.000885,0,0
0:1:31.777,155.074,19.7466,0,0.000885,0,0
0:1:31.977,155.892,19.85,0,0.000885,0,0
0:1:32.180,157.24,20.0224,0,0.000885,0,0
0:1:32.378,156.831,19.9672,0,0.000885,0,0
0:1:32.577,157.182,20.0155,0,0.000885,0,0
0:1:32.777,156.48,19.9258,0,0.000885,0,0
0:1:32.971,157.596,20.0637,0,0.000885,0,0
0:1:33.173,157.009,19.9879,0,0.000885,0,0
0:1:33.371,158.179,20.1396,0,0.000885,0,0
0:1:33.568,157.885,20.1051,0,0.000885,0,0
0:1:33.771,158.886,20.2292,0,0.000885,0,0
0:1:33.965,159.117,20.2568,0,0.000885,0,0
0:1:34.168,159.469,20.3051,0,0.000885,0,0
0:1:34.365,159.705,20.3326,0,0.000885,0,0
0:1:34.563,160.056,20.3809,0,0.000885,0,0
0:1:34.765,161.052,20.505,0,0.000885,0,0
0:1:34.961,161.115,20.5119,0,0.000885,0,0
0:1:35.163,161.582,20.574,0,0.000885,0,0
0:1:35.361,162.169,20.6498,0,0.000885,0,0
0:1:35.558,162.756,20.7256,0,0.000885,0,0
0:1:35.760,162.756,20.7256,0,0.000885,0,0
0:1:35.962,163.574,20.8291,0,0.000885,0,0
0:1:36.165,163.695,20.8429,0,0.000885,0,0
0:1:36.368,164.397,20.9325,0,0.000885,0,0
0:1:36.570,164.633,20.9601,0,0.000885,0,0
0:1:36.773,165.981,21.1324,0,0.000885,0,0
0:1:36.972,165.63,21.0911,0,0.000885,0,0
0:1:37.174,165.745,21.1049,0,0.000885,0,0
0:1:37.375,166.217,21.16,0,0.000885,0,0
0:1:37.572,165.572,21.0842,0,0.000885,0,0
0:1:37.773,166.39,21.1876,0,0.000885,0,0
0:1:37.970,167.271,21.2979,0,0.000885,0,0
0:1:38.171,167.507,21.3255,0,0.000885,0,0
0:1:38.370,168.152,21.4082,0,0.000885,0,0
0:1:38.566,168.032,21.3944,0,0.000885,0,0
0:1:38.768,168.445,21.4496,0,0.000885,0,0
0:1:38.964,169.148,21.5392,0,0.000885,0,0
0:1:39.165,169.557,21.5875,0,0.000885,0,0
0:1:39.365,169.793,21.622,0,0.000885,0,0
0:1:39.560,170.202,21.6702,0,0.000885,0,0
0:1:39.763,171.141,21.7874,0,0.000885,0,0
0:1:39.959,171.612,21.8495,0,0.000885,0,0
0:1:40.159,171.492,21.8357,0,0.000885,0,0
0:1:40.360,172.373,21.946,0,0.000885,0,0
0:1:40.564,172.902,22.015,0,0.000885,0,0
0:1:40.766,172.782,22.0012,0,0.000885,0,0
0:1:40.968,173.957,22.146,0,0.000885,0,0
0:1:41.170,173.841,22.1322,0,0.000885,0,0
0:1:41.374,174.428,22.208,0,0.000885,0,0
0:1:41.575,174.25,22.1873,0,0.000885,0,0
0:1:41.777,174.192,22.1804,0,0.000885,0,0
0:1:41.978,174.953,22.277,0,0.000885,0,0
0:1:42.180,175.834,22.3873,0,0.000885,0,0
0:1:42.381,175.834,22.3873,0,0.000885,0,0
0:1:42.577,176.127,22.4286,0,0.000885,0,0
0:1:42.777,175.892,22.3942,0,0.000885,0,0
0:1:42.975,176.83,22.5183,0,0.000885,0,0
0:1:43.172,177.475,22.5941,0,0.000885,0,0
0:1:43.374,177.711,22.6286,0,0.000885,0,0
0:1:43.573,178.24,22.6906,0,0.000885,0,0
0:1:43.772,178.298,22.7044,0,0.000885,0,0
0:1:43.972,178.827,22.7665,0,0.000885,0,0
0:1:44.167,179.41,22.8423,0,0.000885,0,0
0:1:44.369,179.41,22.8423,0,0.000885,0,0
0:1:44.568,180.055,22.9251,0,0.000885,0,0
0:1:44.765,180.349,22.9595,0,0.000885,0,0
0:1:44.967,180.936,23.0354,0,0.000885,0,0
0:1:45.161,181.465,23.1043,0,0.000885,0,0
0:1:45.363,181.639,23.125,0,0.000885,0,0
0:1:45.562,182.226,23.2009,0,0.000885,0,0
0:1:45.759,182.519,23.2422,0,0.000885,0,0
0:1:45.962,183.107,23.3112,0,0.000885,0,0
0:1:46.163,183.636,23.3801,0,0.000885,0,0
0:1:46.367,184.161,23.4491,0,0.000885,0,0
0:1:46.569,183.636,23.3801,0,0.000885,0,0
0:1:46.771,184.632,23.5111,0,0.000885,0,0
0:1:46.972,185.335,23.6008,0,0.000885,0,0
0:1:47.174,185.744,23.649,0,0.000885,0,0
0:1:47.375,185.571,23.6283,0,0.000885,0,0
0:1:47.576,186.452,23.7386,0,0.000885,0,0
0:1:47.772,186.567,23.7524,0,0.000885,0,0
0:1:47.974,187.154,23.8283,0,0.000885,0,0
0:1:48.171,187.679,23.8972,0,0.000885,0,0
0:1:48.369,187.742,23.9041,0,0.000885,0,0
0:1:48.570,187.564,23.8834,0,0.000885,0,0
0:1:48.765,187.915,23.9248,0,0.000885,0,0
0:1:48.967,188.68,24.0213,0,0.000885,0,0
0:1:49.165,189.205,24.0903,0,0.000885,0,0
0:1:49.362,189.557,24.1385,0,0.000885,0,0
0:1:49.564,190.202,24.2144,0,0.000885,0,0
0:1:49.761,190.322,24.2351,0,0.000885,0,0
0:1:49.961,190.437,24.2489,0,0.000885,0,0
0:1:50.161,191.024,24.3247,0,0.000885,0,0
0:1:50.354,191.434,24.373,0,0.000885,0,0
0:1:50.559,191.847,24.4281,0,0.000885,0,0
0:1:50.761,192.314,24.4833,0,0.000885,0,0
0:1:50.964,192.786,24.5453,0,0.000885,0,0
0:1:51.165,192.844,24.5522,0,0.000885,0,0
0:1:51.366,193.369,24.6212,0,0.000885,0,0
0:1:51.566,194.369,24.7453,0,0.000885,0,0
0:1:51.767,194.601,24.7798,0,0.000885,0,0
0:1:51.964,194.894,24.8142,0,0.000885,0,0
0:1:52.165,195.424,24.8832,0,0.000885,0,0
0:1:52.361,195.953,24.9521,0,0.000885,0,0
0:1:52.560,195.833,24.9314,0,0.000885,0,0
0:1:52.766,196.362,25.0004,0,0.000885,0,0
0:1:52.963,196.127,24.9728,0,0.000885,0,0
0:1:53.164,197.474,25.1452,0,0.000885,0,0
0:1:53.358,197.768,25.1797,0,0.000885,0,0
0:1:53.567,198.707,25.2969,0,0.000885,0,0
0:1:53.764,198.764,25.3107,0,0.000885,0,0
0:1:53.959,198.355,25.2555,0,0.000885,0,0
0:1:54.160,198.533,25.2762,0,0.000885,0,0
0:1:54.353,199.236,25.3658,0,0.000885,0,0
0:1:54.550,200.059,25.4692,0,0.000885,0,0
0:1:54.750,200.704,25.552,0,0.000885,0,0
0:1:54.955,200.468,25.5244,0,0.000885,0,0
0:1:55.154,201.055,25.6002,0,0.000885,0,0
0:1:55.351,200.704,25.552,0,0.000885,0,0
0:1:55.545,201.522,25.6554,0,0.000885,0,0
0:1:55.745,201.931,25.7105,0,0.000885,0,0
0:1:55.948,202.287,25.7588,0,0.000885,0,0
0:1:56.149,202.99,25.8484,0,0.000885,0,0
0:1:56.351,203.342,25.8898,0,0.000885,0,0
0:1:56.551,203.693,25.9381,0,0.000885,0,0
0:1:56.751,204.164,25.9932,0,0.000885,0,0
0:1:56.952,204.983,26.0967,0,0.000885,0,0
0:1:57.152,204.338,26.0139,0,0.000885,0,0
0:1:57.351,204.689,26.0622,0,0.000885,0,0
0:1:57.555,205.454,26.1587,0,0.000885,0,0
0:1:57.755,206.099,26.2414,0,0.000885,0,0
0:1:57.962,206.037,26.2346,0,0.000885,0,0
0:1:58.159,206.509,26.2966,0,0.000885,0,0
0:1:58.360,208.15,26.5034,0,0.000885,0,0
0:1:58.562,208.328,26.5241,0,0.000885,0,0
0:1:58.764,208.208,26.5103,0,0.000885,0,0
0:1:58.961,208.737,26.5793,0,0.000885,0,0
0:1:59.165,208.559,26.5517,0,0.000885,0,0
0:1:59.365,209.146,26.6276,0,0.000885,0,0
0:1:59.559,210.027,26.7448,0,0.000885,0,0
0:1:59.758,209.44,26.6689,0,0.000885,0,0
0:1:59.953,209.849,26.7172,0,0.000885,0,0
0:2:0.160,210.614,26.8137,0,0.000885,0,0
0:2:0.361,210.672,26.8206,0,0.000885,0,0
0:2:0.555,211.317,26.9033,0,0.000885,0,0
0:2:0.753,211.847,26.9723,0,0.000885,0,0
0:2:0.953,212.256,27.0274,0,0.000885,0,0
0:2:1.156,213.252,27.1516,0,0.000885,0,0
0:2:1.356,213.604,27.1998,0,0.000885,0,0
0:2:1.559,213.839,27.2274,0,0.000885,0,0
0:2:1.760,213.839,27.2274,0,0.000885,0,0
0:2:1.959,214.369,27.2963,0,0.000885,0,0
0:2:2.160,215.129,27.3929,0,0.000885,0,0
0:2:2.361,215.481,27.4342,0,0.000885,0,0
0:2:2.566,215.659,27.4618,0,0.000885,0,0
0:2:2.762,215.894,27.4894,0,0.000885,0,0
0:2:2.963,215.894,27.4894,0,0.000885,0,0
0:2:3.165,216.304,27.5377,0,0.000885,0,0
0:2:3.365,216.891,27.6135,0,0.000885,0,0
0:2:3.564,217.478,27.6893,0,0.000885,0,0
0:2:3.756,217.829,27.7376,0,0.000885,0,0
0:2:3.960,218.417,27.8066,0,0.000885,0,0
0:2:4.152,218.354,27.7997,0,0.000885,0,0
0:2:4.350,219.235,27.9169,0,0.000885,0,0
0:2:4.550,219.88,27.9927,0,0.000885,0,0
0:2:4.753,220.116,28.0272,0,0.000885,0,0
0:2:4.953,220.231,28.041,0,0.000885,0,0
0:2:5.149,220.934,28.1306,0,0.000885,0,0
0:2:5.356,221.228,28.1651,0,0.000885,0,0
0:2:5.555,221.17,28.1582,0,0.000885,0,0
0:2:5.759,221.815,28.2409,0,0.000885,0,0
0:2:5.961,221.935,28.2547,0,0.000885,0,0
0:2:6.163,222.46,28.3237,0,0.000885,0,0
0:2:6.363,222.754,28.365,0,0.000885,0,0
0:2:6.564,223.577,28.4685,0,0.000885,0,0
0:2:6.763,223.399,28.4409,0,0.000885,0,0
0:2:6.964,224.101,28.5305,0,0.000885,0,0
0:2:7.162,224.924,28.6408,0,0.000885,0,0
0:2:7.367,225.04,28.6546,0,0.000885,0,0
0:2:7.566,224.982,28.6477,0,0.000885,0,0
0:2:7.762,225.685,28.7373,0,0.000885,0,0
0:2:7.960,226.334,28.8201,0,0.000885,0,0
0:2:8.159,226.859,28.8821,0,0.000885,0,0
0:2:8.352,226.917,28.889,0,0.000885,0,0
0:2:8.552,227.446,28.958,0,0.000885,0,0
0:2:8.748,227.918,29.02,0,0.000885,0,0
0:2:8.945,228.679,29.1166,0,0.000885,0,0
0:2:9.154,228.679,29.1166,0,0.000885,0,0
0:2:9.360,229.733,29.2476,0,0.000885,0,0
0:2:9.560,229.266,29.1924,0,0.000885,0,0
0:2:9.766,229.439,29.2131,0,0.000885,0,0
0:2:9.962,229.617,29.2338,0,0.000885,0,0
0:2:10.164,230.498,29.351,0,0.000885,0,0
0:2:10.367,231.201,29.4406,0,0.000885,0,0
0:2:10.565,230.907,29.3992,0,0.000885,0,0
0:2:10.766,231.494,29.4751,0,0.000885,0,0
0:2:10.968,232.313,29.5785,0,0.000885,0,0
0:2:11.169,231.904,29.5302,0,0.000885,0,0
0:2:11.370,232.491,29.5992,0,0.000885,0,0
0:2:11.571,232.842,29.6475,0,0.000885,0,0
0:2:11.771,233.136,29.6819,0,0.000885,0,0
0:2:11.973,233.781,29.7647,0,0.000885,0,0
0:2:12.172,234.132,29.8129,0,0.000885,0,0
0:2:12.370,234.604,29.8681,0,0.000885,0,0
0:2:12.565,235.071,29.9301,0,0.000885,0,0
0:2:12.766,235.658,30.006,0,0.000885,0,0
0:2:12.960,235.658,30.006,0,0.000885,0,0
0:2:13.156,236.125,30.068,0,0.000885,0,0
0:2:13.355,236.89,30.1646,0,0.000885,0,0
0:2:13.550,237.593,30.2542,0,0.000885,0,0
0:2:13.751,237.299,30.2128,0,0.000885,0,0
0:2:13.955,237.944,30.2956,0,0.000885,0,0
0:2:14.152,238.416,30.3576,0,0.000885,0,0
0:2:14.352,238.296,30.3438,0,0.000885,0,0
0:2:14.556,238.647,30.3852,0,0.000885,0,0
0:2:14.754,239.528,30.4955,0,0.000885,0,0
0:2:14.962,240.173,30.5782,0,0.000885,0,0
0:2:15.169,240.702,30.6472,0,0.000885,0,0
0:2:15.369,240.293,30.592,0,0.000885,0,0
0:2:15.563,240.818,30.661,0,0.000885,0,0
0:2:15.764,241.699,30.7713,0,0.000885,0,0
0:2:15.965,241.583,30.7575,0,0.000885,0,0
0:2:16.167,241.814,30.792,0,0.000885,0,0
0:2:16.368,242.815,30.9161,0,0.000885,0,0
0:2:16.568,243.634,31.0195,0,0.000885,0,0
0:2:16.768,243.104,30.9506,0,0.000885,0,0
0:2:16.968,243.576,31.0126,0,0.000885,0,0
0:2:17.166,244.336,31.1091,0,0.000885,0,0
0:2:17.367,244.808,31.1712,0,0.000885,0,0
0:2:17.563,245.044,31.1988,0,0.000885,0,0
0:2:17.761,245.569,31.2677,0,0.000885,0,0
0:2:17.958,245.804,31.2953,0,0.000885,0,0
0:2:18.151,245.92,31.3091,0,0.000885,0,0
0:2:18.352,246.685,31.4056,0,0.000885,0,0
0:2:18.548,246.685,31.4056,0,0.000885,0,0
0:2:18.754,247.33,31.4884,0,0.000885,0,0
0:2:18.954,247.681,31.5366,0,0.000885,0,0
0:2:19.148,248.091,31.5849,0,0.000885,0,0
0:2:19.348,248.148,31.5987,0,0.000885,0,0
0:2:19.555,248.678,31.6607,0,0.000885,0,0
0:2:19.764,249.323,31.7435,0,0.000885,0,0
0:2:19.965,250.146,31.8469,0,0.000885,0,0
0:2:20.166,249.674,31.7917,0,0.000885,0,0
0:2:20.366,249.968,31.8262,0,0.000885,0,0
0:2:20.564,250.555,31.902,0,0.000885,0,0
0:2:20.760,251.667,32.0468,0,0.000885,0,0
0:2:20.961,251.494,32.0193,0,0.000885,0,0
0:2:21.162,251.961,32.0813,0,0.000885,0,0
0:2:21.364,253.135,32.233,0,0.000885,0,0
0:2:21.565,253.019,32.2123,0,0.000885,0,0
0:2:21.766,253.313,32.2537,0,0.000885,0,0
0:2:21.966,253.78,32.3157,0,0.000885,0,0
0:2:22.165,253.606,32.2881,0,0.000885,0,0
0:2:22.365,254.425,32.3916,0,0.000885,0,0
0:2:22.565,254.834,32.4467,0,0.000885,0,0
0:2:22.757,255.599,32.5433,0,0.000885,0,0
0:2:22.957,255.364,32.5157,0,0.000885,0,0
0:2:23.165,256.066,32.6053,0,0.000885,0,0
0:2:23.361,256.48,32.6536,0,0.000885,0,0
0:2:23.562,257.067,32.7294,0,0.000885,0,0
0:2:23.765,256.947,32.7156,0,0.000885,0,0
0:2:23.965,257.419,32.7777,0,0.000885,0,0
0:2:24.162,257.77,32.819,0,0.000885,0,0
0:2:24.355,258.064,32.8604,0,0.000885,0,0
0:2:24.556,258.357,32.8949,0,0.000885,0,0
0:2:24.751,258.651,32.9294,0,0.000885,0,0
0:2:24.950,259.06,32.9845,0,0.000885,0,0
0:2:25.149,259.176,32.9983,0,0.000885,0,0
0:2:25.353,260.056,33.1086,0,0.000885,0,0
0:2:25.553,260.937,33.2258,0,0.000885,0,0
0:2:25.754,261.289,33.2672,0,0.000885,0,0
0:2:25.956,261.053,33.2396,0,0.000885,0,0
0:2:26.157,261.934,33.3499,0,0.000885,0,0
0:2:26.357,262.227,33.3844,0,0.000885,0,0
0:2:26.558,262.463,33.4189,0,0.000885,0,0
0:2:26.757,263.166,33.5085,0,0.000885,0,0
0:2:26.958,263.984,33.6119,0,0.000885,0,0
0:2:27.158,263.926,33.605,0,0.000885,0,0
0:2:27.362,264.398,33.6671,0,0.000885,0,0
0:2:27.563,264.985,33.736,0,0.000885,0,0
0:2:27.758,265.274,33.7774,0,0.000885,0,0
0:2:27.967,265.158,33.7636,0,0.000885,0,0
0:2:28.166,265.63,33.8188,0,0.000885,0,0
0:2:28.361,266.275,33.9015,0,0.000885,0,0
0:2:28.558,266.626,33.9498,0,0.000885,0,0
0:2:28.755,266.92,33.9843,0,0.000885,0,0
0:2:28.962,266.8,33.9705,0,0.000885,0,0
0:2:29.163,267.503,34.0601,0,0.000885,0,0
0:2:29.367,268.21,34.1497,0,0.000885,0,0
0:2:29.565,268.913,34.2394,0,0.000885,0,0
0:2:29.764,269.38,34.3014,0,0.000885,0,0
0:2:29.968,269.5,34.3152,0,0.000885,0,0
0:2:30.168,269.967,34.3704,0,0.000885,0,0
0:2:30.364,270.612,34.4531,0,0.000885,0,0
0:2:30.559,270.261,34.4117,0,0.000885,0,0
0:2:30.762,270.554,34.4462,0,0.000885,0,0
0:2:30.962,271.199,34.5289,0,0.000885,0,0
0:2:31.164,271.729,34.5979,0,0.000885,0,0
0:2:31.366,271.608,34.5841,0,0.000885,0,0
0:2:31.566,272.374,34.6806,0,0.000885,0,0
0:2:31.766,273.076,34.7703,0,0.000885,0,0
0:2:31.966,273.37,34.8047,0,0.000885,0,0
0:2:32.166,273.312,34.7978,0,0.000885,0,0
0:2:32.366,273.779,34.8599,0,0.000885,0,0
0:2:32.558,274.073,34.8944,0,0.000885,0,0
0:2:32.759,274.424,34.9426,0,0.000885,0,0
0:2:32.955,275.305,35.0529,0,0.000885,0,0
0:2:33.152,275.189,35.0392,0,0.000885,0,0
0:2:33.352,276.07,35.1495,0,0.000885,0,0
0:2:33.556,276.715,35.2322,0,0.000885,0,0
0:2:33.755,276.831,35.246,0,0.000885,0,0
0:2:33.963,277.124,35.2874,0,0.000885,0,0
0:2:34.170,277.711,35.3563,0,0.000885,0,0
0:2:34.370,277.711,35.3563,0,0.000885,0,0
0:2:34.564,278.356,35.4391,0,0.000885,0,0
0:2:34.764,279.117,35.5356,0,0.000885,0,0
0:2:34.969,279.82,35.6252,0,0.000885,0,0
0:2:35.165,279.468,35.5838,0,0.000885,0,0
0:2:35.366,279.762,35.6183,0,0.000885,0,0
0:2:35.559,280.527,35.7148,0,0.000885,0,0
0:2:35.758,280.585,35.7217,0,0.000885,0,0
0:2:35.957,280.821,35.7562,0,0.000885,0,0
0:2:36.162,281.639,35.8596,0,0.000885,0,0
0:2:36.364,281.933,35.8941,0,0.000885,0,0
0:2:36.565,282.462,35.9631,0,0.000885,0,0
0:2:36.765,282.929,36.0251,0,0.000885,0,0
0:2:36.965,283.107,36.0458,0,0.000885,0,0
0:2:37.164,282.813,36.0113,0,0.000885,0,0
0:2:37.365,283.574,36.1078,0,0.000885,0,0
0:2:37.563,284.046,36.163,0,0.000885,0,0
0:2:37.768,284.339,36.2044,0,0.000885,0,0
0:2:37.969,285.216,36.3147,0,0.000885,0,0
0:2:38.162,285.042,36.294,0,0.000885,0,0
0:2:38.362,285.923,36.4043,0,0.000885,0,0
0:2:38.559,286.448,36.4733,0,0.000885,0,0
0:2:38.755,286.799,36.5146,0,0.000885,0,0
0:2:38.956,286.977,36.5422,0,0.000885,0,0
0:2:39.159,287.444,36.5974,0,0.000885,0,0
0:2:39.356,287.155,36.5629,0,0.000885,0,0
0:2:39.557,288.031,36.6732,0,0.000885,0,0
0:2:39.762,288.383,36.7215,0,0.000885,0,0
0:2:39.964,288.503,36.7353,0,0.000885,0,0
0:2:40.157,289.321,36.8387,0,0.000885,0,0
0:2:40.364,289.966,36.9214,0,0.000885,0,0
0:2:40.565,290.26,36.9559,0,0.000885,0,0
0:2:40.767,290.731,37.018,0,0.000885,0,0
0:2:40.969,290.673,37.0111,0,0.000885,0,0
0:2:41.170,291.083,37.0593,0,0.000885,0,0
0:2:41.370,292.021,37.1834,0,0.000885,0,0
0:2:41.570,292.257,37.211,0,0.000885,0,0
0:2:41.769,292.488,37.2386,0,0.000885,0,0
0:2:41.971,293.196,37.3282,0,0.000885,0,0
0:2:42.169,292.902,37.2937,0,0.000885,0,0
0:2:42.363,293.721,37.3972,0,0.000885,0,0
0:2:42.564,294.308,37.473,0,0.000885,0,0
0:2:42.758,294.072,37.4454,0,0.000885,0,0
0:2:42.956,294.659,37.5144,0,0.000885,0,0
0:2:43.155,294.366,37.4799,0,0.000885,0,0
0:2:43.369,295.131,37.5764,0,0.000885,0,0
0:2:43.569,295.833,37.6661,0,0.000885,0,0
0:2:43.765,296.536,37.7557,0,0.000885,0,0
0:2:43.963,297.123,37.8315,0,0.000885,0,0
0:2:44.164,297.475,37.8729,0,0.000885,0,0
0:2:44.356,297.533,37.8798,0,0.000885,0,0
0:2:44.555,298.356,37.9901,0,0.000885,0,0
0:2:44.764,297.946,37.935,0,0.000885,0,0
0:2:44.960,299.116,38.0866,0,0.000885,0,0
0:2:45.159,299.174,38.0935,0,0.000885,0,0
0:2:45.365,299.352,38.1142,0,0.000885,0,0
0:2:45.564,300.291,38.2314,0,0.000885,0,0
0:2:45.765,300.7,38.2866,0,0.000885,0,0
0:2:45.967,300.878,38.3073,0,0.000885,0,0
0:2:46.168,301.581,38.3969,0,0.000885,0,0
0:2:46.368,300.936,38.3142,0,0.000885,0,0
0:2:46.569,301.287,38.3624,0,0.000885,0,0
0:2:46.768,301.874,38.4383,0,0.000885,0,0
0:2:46.968,302.341,38.4934,0,0.000885,0,0
0:2:47.168,302.813,38.5555,0,0.000885,0,0
0:2:47.364,303.342,38.6244,0,0.000885,0,0
0:2:47.560,303.573,38.652,0,0.000885,0,0
0:2:47.758,303.925,38.7003,0,0.000885,0,0
0:2:47.964,303.987,38.7072,0,0.000885,0,0
0:2:48.164,304.805,38.8106,0,0.000885,0,0
0:2:48.360,305.393,38.8864,0,0.000885,0,0
0:2:48.568,305.686,38.9209,0,0.000885,0,0
0:2:48.768,306.158,38.983,0,0.000885,0,0
0:2:48.959,306.803,39.0657,0,0.000885,0,0
0:2:49.159,306.918,39.0795,0,0.000885,0,0
0:2:49.356,307.621,39.1691,0,0.000885,0,0
0:2:49.564,308.03,39.2174,0,0.000885,0,0
0:2:49.764,308.386,39.2656,0,0.000885,0,0
0:2:49.956,308.796,39.3139,0,0.000885,0,0
0:2:50.155,309.089,39.3553,0,0.000885,0,0
0:2:50.353,309.441,39.3966,0,0.000885,0,0
0:2:50.549,309.556,39.4173,0,0.000885,0,0
0:2:50.749,309.85,39.4518,0,0.000885,0,0
0:2:50.950,310.086,39.4794,0,0.000885,0,0
0:2:51.153,310.788,39.569,0,0.000885,0,0
0:2:51.355,310.846,39.5759,0,0.000885,0,0
0:2:51.556,311.553,39.6655,0,0.000885,0,0
0:2:51.756,311.553,39.6655,0,0.000885,0,0
0:2:51.956,312.372,39.7759,0,0.000885,0,0
0:2:52.157,312.781,39.8241,0,0.000885,0,0
0:2:52.356,313.253,39.8862,0,0.000885,0,0
0:2:52.560,313.31,39.8931,0,0.000885,0,0
0:2:52.761,314.249,40.0103,0,0.000885,0,0
0:2:52.967,314.307,40.0172,0,0.000885,0,0
0:2:53.165,315.188,40.1344,0,0.000885,0,0
0:2:53.365,315.423,40.162,0,0.000885,0,0
0:2:53.557,315.659,40.1895,0,0.000885,0,0
0:2:53.759,316.184,40.2585,0,0.000885,0,0
0:2:53.955,316.478,40.293,0,0.000885,0,0
0:2:54.160,316.771,40.3343,0,0.000885,0,0
0:2:54.360,316.713,40.3274,0,0.000885,0,0
0:2:54.566,317.301,40.3964,0,0.000885,0,0
0:2:54.768,317.768,40.4584,0,0.000885,0,0
0:2:54.972,318.239,40.5205,0,0.000885,0,0
0:2:55.170,319.115,40.6308,0,0.000885,0,0
0:2:55.370,319.76,40.7135,0,0.000885,0,0
0:2:55.564,319.823,40.7204,0,0.000885,0,0
0:2:55.765,320.468,40.8032,0,0.000885,0,0
0:2:55.965,320.526,40.8101,0,0.000885,0,0
0:2:56.168,320.583,40.817,0,0.000885,0,0
0:2:56.370,320.819,40.8445,0,0.000885,0,0
0:2:56.570,321.113,40.8859,0,0.000885,0,0
0:2:56.770,321.758,40.9686,0,0.000885,0,0
0:2:56.969,322.225,41.0238,0,0.000885,0,0
0:2:57.168,322.051,41.0031,0,0.000885,0,0
0:2:57.369,322.638,41.079,0,0.000885,0,0
0:2:57.562,323.283,41.1617,0,0.000885,0,0
0:2:57.761,323.399,41.1755,0,0.000885,0,0
0:2:57.962,323.928,41.2444,0,0.000885,0,0
0:2:58.166,324.16,41.272,0,0.000885,0,0
0:2:58.368,325.156,41.403,0,0.000885,0,0
0:2:58.572,325.04,41.3823,0,0.000885,0,0
0:2:58.771,325.863,41.4926,0,0.000885,0,0
0:2:58.971,325.979,41.5064,0,0.000885,0,0
0:2:59.165,326.215,41.534,0,0.000885,0,0
0:2:59.366,326.802,41.6099,0,0.000885,0,0
0:2:59.560,327.389,41.6857,0,0.000885,0,0
0:2:59.767,327.327,41.6788,0,0.000885,0,0
0:2:59.968,328.15,41.7822,0,0.000885,0,0
0:3:0.161,328.208,41.7891,0,0.000885,0,0
0:3:0.361,328.737,41.8581,0,0.000885,0,0
0:3:0.558,329.498,41.9546,0,0.000885,0,0
0:3:0.755,329.849,41.996,0,0.000885,0,0
0:3:0.954,330.143,42.0373,0,0.000885,0,0
0:3:1.154,330.556,42.0856,0,0.000885,0,0
0:3:1.356,331.259,42.1752,0,0.000885,0,0
0:3:1.557,331.375,42.189,0,0.000885,0,0
0:3:1.758,331.726,42.2373,0,0.000885,0,0
0:3:1.959,332.198,42.2993,0,0.000885,0,0
0:3:2.160,332.429,42.3269,0,0.000885,0,0
0:3:2.359,332.491,42.3338,0,0.000885,0,0
0:3:2.559,333.488,42.4579,0,0.000885,0,0
0:3:2.753,333.723,42.4924,0,0.000885,0,0
0:3:2.954,333.955,42.52,0,0.000885,0,0
0:3:3.150,334.426,42.582,0,0.000885,0,0
0:3:3.349,334.778,42.6234,0,0.000885,0,0
0:3:3.556,335.187,42.6785,0,0.000885,0,0
0:3:3.762,335.423,42.7061,0,0.000885,0,0
0:3:3.965,335.596,42.7268,0,0.000885,0,0
0:3:4.158,336.655,42.8647,0,0.000885,0,0
0:3:4.356,336.419,42.8371,0,0.000885,0,0
0:3:4.553,337.006,42.9061,0,0.000885,0,0
0:3:4.758,337.415,42.9612,0,0.000885,0,0
0:3:4.958,337.825,43.0164,0,0.000885,0,0
0:3:5.166,338.238,43.0647,0,0.000885,0,0
0:3:5.365,338.474,43.0922,0,0.000885,0,0
0:3:5.566,338.59,43.1129,0,0.000885,0,0
0:3:5.769,338.883,43.1474,0,0.000885,0,0
0:3:5.970,339.47,43.2232,0,0.000885,0,0
0:3:6.171,340.409,43.3404,0,0.000885,0,0
0:3:6.371,340.934,43.4094,0,0.000885,0,0
0:3:6.572,341.112,43.4301,0,0.000885,0,0
0:3:6.772,341.348,43.4645,0,0.000885,0,0
0:3:6.973,341.757,43.5128,0,0.000885,0,0
0:3:7.168,341.579,43.4921,0,0.000885,0,0
0:3:7.366,341.815,43.5197,0,0.000885,0,0
0:3:7.566,342.575,43.6162,0,0.000885,0,0
0:3:7.758,343.163,43.6921,0,0.000885,0,0
0:3:7.958,343.576,43.7472,0,0.000885,0,0
0:3:8.166,343.634,43.7541,0,0.000885,0,0
0:3:8.362,344.043,43.8024,0,0.000885,0,0
0:3:8.563,344.573,43.8713,0,0.000885,0,0
0:3:8.768,344.688,43.8851,0,0.000885,0,0
0:3:8.967,344.924,43.9196,0,0.000885,0,0
0:3:9.163,345.218,43.9541,0,0.000885,0,0
0:3:9.372,345.391,43.9748,0,0.000885,0,0
0:3:9.572,346.156,44.0713,0,0.000885,0,0
0:3:9.766,346.508,44.1196,0,0.000885,0,0
0:3:9.966,346.801,44.154,0,0.000885,0,0
0:3:10.161,347.095,44.1954,0,0.000885,0,0
0:3:10.357,347.388,44.2299,0,0.000885,0,0
0:3:10.556,347.446,44.2368,0,0.000885,0,0
0:3:10.756,347.798,44.285,0,0.000885,0,0
0:3:10.960,348.149,44.3264,0,0.000885,0,0
0:3:11.160,348.033,44.3126,0,0.000885,0,0
0:3:11.361,348.5,44.3747,0,0.000885,0,0
0:3:11.561,348.794,44.4091,0,0.000885,0,0
0:3:11.761,348.852,44.416,0,0.000885,0,0
0:3:11.962,349.265,44.4712,0,0.000885,0,0
0:3:12.161,349.265,44.4712,0,0.000885,0,0
0:3:12.366,349.265,44.4712,0,0.000885,0,0
0:3:12.567,349.265,44.4712,0,0.000885,0,0
0:3:12.761,349.439,44.4919,0,0.000885,0,0
0:3:12.959,348.327,44.3471,0,0.000885,0,0
0:3:13.158,348.207,44.3333,0,0.000885,0,0
0:3:13.360,346.975,44.1816,0,0.000885,0,0
0:3:13.561,346.214,44.0782,0,0.000885,0,0
0:3:13.758,342.753,43.6438,0,0.000885,0,0
0:3:13.963,340.289,43.3267,0,0.000885,0,0
0:3:14.162,332.958,42.3959,0,0.000885,0,0
0:3:14.368,327.269,41.6719,0,0.000885,0,0
0:3:14.567,288.618,36.7491,0,0.000885,0,0
0:3:14.686,288.618,36.7491,0,0.000885,0,0