File: DataFile2021-06-07_044139.csv
Test ID:,Date Tested:,Time:,Test Type:,Diameter Avg. (mm):,Cyl. Corr. Factor:,Height (mm):,Age (days):,Weight (kN):,Break Type:,Ramp Rate (MPa/s):,Load at Break (kN):,Stress at Break (MPa):
12,6/7/2021,04:41,Cylinder,100,1,200,0,3.6,3,0.24,480.29,61.15
Sample Time,Load (kN),Stress (MPa),Long. Strain,Trans. Strain,Chan1 Deflection (mm),Chan2 Deflection (mm)
0:0:19.537,6.57002,0.834266,0,0.000885,0,0
0:0:19.848,11.6721,1.48927,0,0.000885,0,0
0:0:20.143,11.9079,1.51685,0,0.000885,0,0
0:0:20.440,11.3786,1.4479,0,0.000885,0,0
0:0:20.740,11.2006,1.42721,0,0.000885,0,0
0:0:21.043,11.4364,1.45479,0,0.000885,0,0
0:0:21.353,11.1428,1.42032,0,0.000885,0,0
0:0:21.653,10.6179,1.35137,0,0.000885,0,0
0:0:21.956,10.7336,1.36516,0,0.000885,0,0
0:0:22.257,10.7914,1.37206,0,0.000885,0,0
0:0:22.551,10.6757,1.35827,0,0.000885,0,0
0:0:22.851,10.7914,1.37206,0,0.000885,0,0
0:0:23.144,11.4942,1.46169,0,0.000885,0,0
0:0:23.442,12.0814,1.53753,0,0.000885,0,0
0:0:23.741,11.9657,1.52374,0,0.000885,0,0
0:0:24.037,12.6685,1.61337,0,0.000885,0,0
0:0:24.338,13.4292,1.7099,0,0.000885,0,0
0:0:24.633,14.0742,1.79264,0,0.000885,0,0
0:0:24.936,14.7814,1.88227,0,0.000885,0,0
0:0:25.241,16.0136,2.04085,0,0.000885,0,0
0:0:25.545,16.2449,2.06843,0,0.000885,0,0
0:0:25.850,17.1835,2.18564,0,0.000885,0,0
0:0:26.152,17.9486,2.28216,0,0.000885,0,0
0:0:26.454,18.2422,2.32353,0,0.000885,0,0
0:0:26.750,19.1185,2.43385,0,0.000885,0,0
0:0:27.049,19.3542,2.46143,0,0.000885,0,0
0:0:27.359,20.2928,2.58553,0,0.000885,0,0
0:0:27.653,21.1157,2.68896,0,0.000885,0,0
0:0:27.954,21.6406,2.7579,0,0.000885,0,0
0:0:28.251,22.2856,2.84064,0,0.000885,0,0
0:0:28.551,23.2242,2.95785,0,0.000885,0,0
0:0:28.860,23.7535,3.0268,0,0.000885,0,0
0:0:29.156,24.0471,3.06127,0,0.000885,0,0
0:0:29.458,25.3371,3.22675,0,0.000885,0,0
0:0:29.752,25.4527,3.24054,0,0.000885,0,0
0:0:30.055,26.2178,3.33706,0,0.000885,0,0
0:0:30.358,26.6849,3.39912,0,0.000885,0,0
0:0:30.662,27.1564,3.45427,0,0.000885,0,0
0:0:30.963,27.3299,3.48185,0,0.000885,0,0
0:0:31.267,28.6199,3.64733,0,0.000885,0,0
0:0:31.570,29.1492,3.70938,0,0.000885,0,0
0:0:31.866,29.5006,3.75764,0,0.000885,0,0
0:0:32.167,30.0299,3.82659,0,0.000885,0,0
0:0:32.466,30.9107,3.93691,0,0.000885,0,0
0:0:32.761,31.0263,3.9507,0,0.000885,0,0
0:0:33.063,31.9649,4.06791,0,0.000885,0,0
0:0:33.358,32.7878,4.17133,0,0.000885,0,0
0:0:33.659,33.3706,4.24717,0,0.000885,0,0
0:0:33.956,34.0156,4.32991,0,0.000885,0,0
0:0:34.255,34.1935,4.35059,0,0.000885,0,0
0:0:34.555,34.9541,4.45401,0,0.000885,0,0
0:0:34.850,35.6614,4.54365,0,0.000885,0,0
0:0:35.152,35.8927,4.57122,0,0.000885,0,0
0:0:35.457,36.6,4.66086,0,0.000885,0,0
0:0:35.761,37.245,4.74359,0,0.000885,0,0
0:0:36.065,37.9478,4.83322,0,0.000885,0,0
0:0:36.367,38.357,4.88149,0,0.000885,0,0
0:0:36.671,39.0598,4.97112,0,0.000885,0,0
0:0:36.966,39.1177,4.97801,0,0.000885,0,0
0:0:37.268,39.9984,5.09523,0,0.000885,0,0
0:0:37.565,40.7012,5.18486,0,0.000885,0,0
0:0:37.862,40.8213,5.19865,0,0.000885,0,0
0:0:38.163,41.582,5.29517,0,0.000885,0,0
0:0:38.460,42.4049,5.39859,0,0.000885,0,0
0:0:38.762,43.1077,5.48823,0,0.000885,0,0
0:0:39.058,43.3435,5.51581,0,0.000885,0,0
0:0:39.358,44.3399,5.64681,0,0.000885,0,0
0:0:39.657,44.6913,5.68817,0,0.000885,0,0
0:0:39.961,44.927,5.72265,0,0.000885,0,0
0:0:40.267,45.6877,5.81918,0,0.000885,0,0
0:0:40.569,46.3905,5.90881,0,0.000885,0,0
0:0:40.872,46.9198,5.97086,0,0.000885,0,0
0:0:41.175,47.5648,6.0536,0,0.000885,0,0
0:0:41.472,48.5034,6.1777,0,0.000885,0,0
0:0:41.771,48.797,6.21218,0,0.000885,0,0
0:0:42.067,49.2062,6.26733,0,0.000885,0,0
0:0:42.370,50.2649,6.39833,0,0.000885,0,0
0:0:42.666,51.0834,6.50176,0,0.000885,0,0
0:0:42.967,51.4348,6.55002,0,0.000885,0,0
0:0:43.265,51.7862,6.59139,0,0.000885,0,0
0:0:43.561,52.4935,6.68102,0,0.000885,0,0
0:0:43.862,52.787,6.72239,0,0.000885,0,0
0:0:44.158,53.1963,6.77065,0,0.000885,0,0
0:0:44.461,53.6633,6.8327,0,0.000885,0,0
0:0:44.757,55.0156,7.00507,0,0.000885,0,0
0:0:45.060,55.4248,7.06023,0,0.000885,0,0
0:0:45.366,56.0698,7.13607,0,0.000885,0,0
0:0:45.670,56.4212,7.18434,0,0.000885,0,0
0:0:45.972,57.2442,7.28776,0,0.000885,0,0
0:0:46.275,57.7691,7.35671,0,0.000885,0,0
0:0:46.575,58.5341,7.45323,0,0.000885,0,0
0:0:46.871,59.1791,7.53597,0,0.000885,0,0
0:0:47.169,59.6462,7.59113,0,0.000885,0,0
0:0:47.469,59.704,7.60492,0,0.000885,0,0
0:0:47.766,60.9362,7.7566,0,0.000885,0,0
0:0:48.069,61.5812,7.83934,0,0.000885,0,0
0:0:48.366,62.2262,7.92208,0,0.000885,0,0
0:0:48.665,61.8748,7.88071,0,0.000885,0,0
0:0:48.963,62.4619,7.94966,0,0.000885,0,0
0:0:49.260,63.6941,8.10823,0,0.000885,0,0
0:0:49.562,64.1656,8.17029,0,0.000885,0,0
0:0:49.858,64.6905,8.23923,0,0.000885,0,0
0:0:50.160,65.3355,8.32197,0,0.000885,0,0
0:0:50.466,66.1006,8.4185,0,0.000885,0,0
0:0:50.769,66.6877,8.48745,0,0.000885,0,0
0:0:51.073,67.097,8.5426,0,0.000885,0,0
0:0:51.374,67.3906,8.57708,0,0.000885,0,0
0:0:51.677,68.0934,8.66671,0,0.000885,0,0
0:0:51.974,68.6805,8.74255,0,0.000885,0,0
0:0:52.273,69.5613,8.85976,0,0.000885,0,0
0:0:52.573,69.7926,8.88734,0,0.000885,0,0
0:0:52.868,70.5577,8.98387,0,0.000885,0,0
0:0:53.170,71.2027,9.06661,0,0.000885,0,0
0:0:53.466,72.0212,9.17003,0,0.000885,0,0
0:0:53.767,72.1413,9.18382,0,0.000885,0,0
0:0:54.064,72.7863,9.26655,0,0.000885,0,0
0:0:54.362,73.6047,9.36998,0,0.000885,0,0
0:0:54.664,74.312,9.45961,0,0.000885,0,0
0:0:54.959,74.8947,9.53545,0,0.000885,0,0
0:0:55.261,75.5397,9.61819,0,0.000885,0,0
0:0:55.566,76.3626,9.72161,0,0.000885,0,0
0:0:55.871,77.1855,9.82503,0,0.000885,0,0
0:0:56.174,77.7104,9.89398,0,0.000885,0,0
0:0:56.476,78.1819,9.95603,0,0.000885,0,0
0:0:56.779,78.5912,10.0043,0,0.000885,0,0
0:0:57.075,79.3563,10.1008,0,0.000885,0,0
0:0:57.375,79.4719,10.1215,0,0.000885,0,0
0:0:57.671,79.8812,10.1698,0,0.000885,0,0
0:0:57.968,80.2326,10.218,0,0.000885,0,0
0:0:58.270,80.8776,10.3008,0,0.000885,0,0
0:0:58.564,81.7005,10.4042,0,0.000885,0,0
0:0:58.867,82.4611,10.5007,0,0.000885,0,0
0:0:59.163,82.9326,10.5559,0,0.000885,0,0
0:0:59.462,83.2262,10.5972,0,0.000885,0,0
0:0:59.760,84.107,10.7076,0,0.000885,0,0
0:1:0.062,84.9833,10.8179,0,0.000885,0,0
0:1:0.368,85.6283,10.9006,0,0.000885,0,0
0:1:0.671,86.3934,10.9971,0,0.000885,0,0
0:1:0.972,86.6247,11.0316,0,0.000885,0,0
0:1:1.275,87.3319,11.1212,0,0.000885,0,0
0:1:1.574,87.7412,11.1695,0,0.000885,0,0
0:1:1.874,87.799,11.1764,0,0.000885,0,0
0:1:2.169,88.5641,11.2729,0,0.000885,0,0
0:1:2.471,89.089,11.3419,0,0.000885,0,0
0:1:2.767,89.6761,11.4177,0,0.000885,0,0
0:1:3.068,90.9083,11.5763,0,0.000885,0,0
0:1:3.366,91.669,11.6728,0,0.000885,0,0
0:1:3.661,91.7312,11.6797,0,0.000885,0,0
0:1:3.963,92.2561,11.7487,0,0.000885,0,0
0:1:4.259,93.1369,11.859,0,0.000885,0,0
0:1:4.560,93.8975,11.9555,0,0.000885,0,0
0:1:4.857,93.7819,11.9417,0,0.000885,0,0
0:1:5.160,94.4847,12.0314,0,0.000885,0,0
0:1:5.466,95.3654,12.1417,0,0.000885,0,0
0:1:5.769,96.3618,12.2727,0,0.000885,0,0
0:1:6.071,96.2462,12.252,0,0.000885,0,0
0:1:6.373,97.4783,12.4106,0,0.000885,0,0
0:1:6.672,97.4783,12.4106,0,0.000885,0,0
0:1:6.972,98.884,12.5898,0,0.000885,0,0
0:1:7.268,98.8261,12.5829,0,0.000885,0,0
0:1:7.571,99.529,12.6726,0,0.000885,0,0
0:1:7.865,100.058,12.7415,0,0.000885,0,0
0:1:8.164,100.703,12.8242,0,0.000885,0,0
0:1:8.464,101.584,12.9346,0,0.000885,0,0
0:1:8.760,101.878,12.969,0,0.000885,0,0
0:1:9.061,102.816,13.0931,0,0.000885,0,0
0:1:9.356,102.816,13.0931,0,0.000885,0,0
0:1:9.658,103.399,13.1621,0,0.000885,0,0
0:1:9.954,104.106,13.2517,0,0.000885,0,0
0:1:10.257,104.867,13.3551,0,0.000885,0,0
0:1:10.562,105.16,13.3896,0,0.000885,0,0
0:1:10.866,105.57,13.4448,0,0.000885,0,0
0:1:11.169,106.393,13.5482,0,0.000885,0,0
0:1:11.472,106.98,13.624,0,0.000885,0,0
0:1:11.773,107.86,13.7344,0,0.000885,0,0
0:1:12.071,108.385,13.8033,0,0.000885,0,0
0:1:12.368,108.679,13.8378,0,0.000885,0,0
0:1:12.670,109.969,14.0033,0,0.000885,0,0
0:1:12.965,110.44,14.0584,0,0.000885,0,0
0:1:13.268,110.734,14.0998,0,0.000885,0,0
0:1:13.562,110.85,14.1136,0,0.000885,0,0
0:1:13.862,111.379,14.1825,0,0.000885,0,0
0:1:14.161,112.785,14.3618,0,0.000885,0,0
0:1:14.457,113.194,14.41,0,0.000885,0,0
0:1:14.758,113.43,14.4445,0,0.000885,0,0
0:1:15.063,114.662,14.5962,0,0.000885,0,0
0:1:15.368,114.662,14.5962,0,0.000885,0,0
0:1:15.670,115.6,14.7203,0,0.000885,0,0
0:1:15.972,115.894,14.7548,0,0.000885,0,0
0:1:16.274,116.597,14.8444,0,0.000885,0,0
0:1:16.569,117.006,14.8996,0,0.000885,0,0
0:1:16.873,117.945,15.0168,0,0.000885,0,0
0:1:17.169,118.532,15.0926,0,0.000885,0,0
0:1:17.466,118.238,15.0581,0,0.000885,0,0
0:1:17.766,119.003,15.1547,0,0.000885,0,0
0:1:18.063,120.058,15.2857,0,0.000885,0,0
0:1:18.365,120.525,15.3477,0,0.000885,0,0
0:1:18.659,121.29,15.4443,0,0.000885,0,0
0:1:18.962,122.05,15.5408,0,0.000885,0,0
0:1:19.259,122.637,15.6166,0,0.000885,0,0
0:1:19.556,122.989,15.658,0,0.000885,0,0
0:1:19.856,123.634,15.7407,0,0.000885,0,0
0:1:20.160,124.279,15.8235,0,0.000885,0,0
0:1:20.464,124.221,15.8166,0,0.000885,0,0
0:1:20.768,125.453,15.9752,0,0.000885,0,0
0:1:21.069,126.214,16.0717,0,0.000885,0,0
0:1:21.373,126.57,16.113,0,0.000885,0,0
0:1:21.671,127.446,16.2303,0,0.000885,0,0
0:1:21.972,127.797,16.2716,0,0.000885,0,0
0:1:22.268,128.211,16.3268,0,0.000885,0,0
0:1:22.570,128.972,16.4233,0,0.000885,0,0
0:1:22.866,129.737,16.5198,0,0.000885,0,0
0:1:23.166,129.852,16.5336,0,0.000885,0,0
0:1:23.465,130.675,16.637,0,0.000885,0,0
0:1:23.761,131.494,16.7405,0,0.000885,0,0
0:1:24.063,132.081,16.8163,0,0.000885,0,0
0:1:24.360,132.61,16.8853,0,0.000885,0,0
0:1:24.660,133.193,16.9611,0,0.000885,0,0
0:1:24.958,133.255,16.968,0,0.000885,0,0
0:1:25.260,134.194,17.0852,0,0.000885,0,0
0:1:25.566,134.719,17.1542,0,0.000885,0,0
0:1:25.870,135.6,17.2645,0,0.000885,0,0
0:1:26.172,135.951,17.3127,0,0.000885,0,0
0:1:26.474,136.538,17.3817,0,0.000885,0,0
0:1:26.772,136.947,17.4368,0,0.000885,0,0
0:1:27.073,137.299,17.4851,0,0.000885,0,0
0:1:27.368,138.006,17.5747,0,0.000885,0,0
0:1:27.672,139.118,17.7126,0,0.000885,0,0
0:1:27.967,139.647,17.7816,0,0.000885,0,0
0:1:28.267,140.586,17.8988,0,0.000885,0,0
0:1:28.566,140.76,17.9195,0,0.000885,0,0
0:1:28.863,141.698,18.0436,0,0.000885,0,0
0:1:29.163,142.343,18.1263,0,0.000885,0,0
0:1:29.459,142.695,18.1677,0,0.000885,0,0
0:1:29.762,143.05,18.2159,0,0.000885,0,0
0:1:30.068,143.869,18.3194,0,0.000885,0,0
0:1:30.372,144.105,18.3469,0,0.000885,0,0
0:1:30.673,144.692,18.4228,0,0.000885,0,0
0:1:30.975,145.862,18.5745,0,0.000885,0,0
0:1:31.278,146.391,18.6365,0,0.000885,0,0
0:1:31.572,146.097,18.6021,0,0.000885,0,0
0:1:31.873,147.33,18.7606,0,0.000885,0,0
0:1:32.171,148.095,18.8572,0,0.000885,0,0
0:1:32.467,148.504,18.9054,0,0.000885,0,0
0:1:32.769,148.855,18.9537,0,0.000885,0,0
0:1:33.064,149.558,19.0433,0,0.000885,0,0
0:1:33.367,149.967,19.0916,0,0.000885,0,0
0:1:33.662,150.555,19.1674,0,0.000885,0,0
0:1:33.962,151.026,19.2295,0,0.000885,0,0
0:1:34.261,151.787,19.326,0,0.000885,0,0
0:1:34.557,151.965,19.3467,0,0.000885,0,0
0:1:34.858,153.428,19.5328,0,0.000885,0,0
0:1:35.163,153.9,19.5949,0,0.000885,0,0
0:1:35.468,154.367,19.657,0,0.000885,0,0
0:1:35.771,154.954,19.7328,0,0.000885,0,0
0:1:36.073,155.95,19.8569,0,0.000885,0,0
0:1:36.377,156.186,19.8845,0,0.000885,0,0
0:1:36.672,156.831,19.9672,0,0.000885,0,0
0:1:36.974,157.36,20.0362,0,0.000885,0,0
0:1:37.271,158.179,20.1396,0,0.000885,0,0
0:1:37.570,158.886,20.2292,0,0.000885,0,0
0:1:37.868,158.824,20.2223,0,0.000885,0,0
0:1:38.165,159.589,20.3188,0,0.000885,0,0
0:1:38.468,159.998,20.374,0,0.000885,0,0
0:1:38.763,161.052,20.505,0,0.000885,0,0
0:1:39.062,160.879,20.4843,0,0.000885,0,0
0:1:39.361,161.76,20.5946,0,0.000885,0,0
0:1:39.658,161.991,20.6222,0,0.000885,0,0
0:1:39.958,162.462,20.6843,0,0.000885,0,0
0:1:40.263,163.81,20.8566,0,0.000885,0,0
0:1:40.568,164.397,20.9325,0,0.000885,0,0
0:1:40.871,165.158,21.029,0,0.000885,0,0
0:1:41.173,165.336,21.0497,0,0.000885,0,0
0:1:41.476,166.448,21.1945,0,0.000885,0,0
0:1:41.772,167.271,21.2979,0,0.000885,0,0
0:1:42.073,167.449,21.3186,0,0.000885,0,0
0:1:42.369,168.152,21.4082,0,0.000885,0,0
0:1:42.670,168.797,21.491,0,0.000885,0,0
0:1:42.968,169.032,21.5185,0,0.000885,0,0
0:1:43.264,169.909,21.6357,0,0.000885,0,0
0:1:43.565,170.265,21.6771,0,0.000885,0,0
0:1:43.860,171.025,21.7736,0,0.000885,0,0
0:1:44.161,171.261,21.8081,0,0.000885,0,0
0:1:44.458,172.079,21.9115,0,0.000885,0,0
0:1:44.758,172.079,21.9115,0,0.000885,0,0
0:1:45.056,172.724,21.9943,0,0.000885,0,0
0:1:45.360,173.605,22.1046,0,0.000885,0,0
0:1:45.666,174.602,22.2287,0,0.000885,0,0
0:1:45.968,175.189,22.3045,0,0.000885,0,0
0:1:46.271,175.834,22.3873,0,0.000885,0,0
0:1:46.574,176.07,22.4149,0,0.000885,0,0
0:1:46.872,176.714,22.4976,0,0.000885,0,0
0:1:47.172,177.533,22.601,0,0.000885,0,0
0:1:47.467,177.475,22.5941,0,0.000885,0,0
0:1:47.769,178.592,22.7389,0,0.000885,0,0
0:1:48.065,178.534,22.732,0,0.000885,0,0
0:1:48.365,179.824,22.8975,0,0.000885,0,0
0:1:48.664,180.233,22.9458,0,0.000885,0,0
0:1:48.962,180.994,23.0423,0,0.000885,0,0
0:1:49.263,181.287,23.0836,0,0.000885,0,0
0:1:49.557,181.932,23.1664,0,0.000885,0,0
0:1:49.861,182.755,23.2698,0,0.000885,0,0
0:1:50.165,183.107,23.3112,0,0.000885,0,0
0:1:50.470,183.694,23.387,0,0.000885,0,0
0:1:50.773,183.809,23.4008,0,0.000885,0,0
0:1:51.075,185.042,23.5594,0,0.000885,0,0
0:1:51.378,185.629,23.6352,0,0.000885,0,0
0:1:51.673,186.158,23.7042,0,0.000885,0,0
0:1:51.974,186.745,23.78,0,0.000885,0,0
0:1:52.272,187.684,23.8972,0,0.000885,0,0
0:1:52.568,188.267,23.9731,0,0.000885,0,0
0:1:52.870,188.502,24.0007,0,0.000885,0,0
0:1:53.166,188.912,24.0558,0,0.000885,0,0
0:1:53.467,189.677,24.1523,0,0.000885,0,0
0:1:53.764,190.437,24.2489,0,0.000885,0,0
0:1:54.062,190.909,24.304,0,0.000885,0,0
0:1:54.364,191.669,24.4074,0,0.000885,0,0
0:1:54.658,192.314,24.4833,0,0.000885,0,0
0:1:54.960,192.844,24.5522,0,0.000885,0,0
0:1:55.263,193.369,24.6212,0,0.000885,0,0
0:1:55.566,193.956,24.697,0,0.000885,0,0
0:1:55.864,193.956,24.697,0,0.000885,0,0
0:1:56.165,194.427,24.7522,0,0.000885,0,0
0:1:56.466,195.366,24.8763,0,0.000885,0,0
0:1:56.760,196.184,24.9797,0,0.000885,0,0
0:1:57.059,196.714,25.0487,0,0.000885,0,0
0:1:57.353,196.949,25.0762,0,0.000885,0,0
0:1:57.661,197.594,25.159,0,0.000885,0,0
0:1:57.959,198.649,25.29,0,0.000885,0,0
0:1:58.250,199,25.3382,0,0.000885,0,0
0:1:58.551,199.529,25.4072,0,0.000885,0,0
0:1:58.852,200.41,25.5175,0,0.000885,0,0
0:1:59.150,201.055,25.6002,0,0.000885,0,0
0:1:59.448,201.7,25.683,0,0.000885,0,0
0:1:59.742,202.225,25.745,0,0.000885,0,0
0:2:0.040,202.639,25.8002,0,0.000885,0,0
0:2:0.343,203.164,25.8691,0,0.000885,0,0
0:2:0.644,203.635,25.9243,0,0.000885,0,0
0:2:0.946,204.809,26.076,0,0.000885,0,0
0:2:1.244,205.099,26.1173,0,0.000885,0,0
0:2:1.546,205.628,26.1794,0,0.000885,0,0
0:2:1.859,205.979,26.2277,0,0.000885,0,0
0:2:2.161,207.096,26.3656,0,0.000885,0,0
0:2:2.451,207.683,26.4414,0,0.000885,0,0
0:2:2.750,208.208,26.5103,0,0.000885,0,0
0:2:3.055,208.328,26.5241,0,0.000885,0,0
0:2:3.360,208.853,26.5931,0,0.000885,0,0
0:2:3.660,209.618,26.6896,0,0.000885,0,0
0:2:3.962,209.849,26.7172,0,0.000885,0,0
0:2:4.260,210.499,26.7999,0,0.000885,0,0
0:2:4.553,210.788,26.8413,0,0.000885,0,0
0:2:4.852,211.904,26.9792,0,0.000885,0,0
0:2:5.155,212.492,27.055,0,0.000885,0,0
0:2:5.458,213.666,27.2067,0,0.000885,0,0
0:2:5.758,213.724,27.2136,0,0.000885,0,0
0:2:6.060,214.133,27.2619,0,0.000885,0,0
0:2:6.359,215.072,27.386,0,0.000885,0,0
0:2:6.664,215.423,27.4273,0,0.000885,0,0
0:2:6.960,216.419,27.5583,0,0.000885,0,0
0:2:7.258,216.713,27.5928,0,0.000885,0,0
0:2:7.549,217.416,27.6825,0,0.000885,0,0
0:2:7.850,218.181,27.779,0,0.000885,0,0
0:2:8.144,218.239,27.7859,0,0.000885,0,0
0:2:8.451,219.119,27.8962,0,0.000885,0,0
0:2:8.748,219.822,27.9858,0,0.000885,0,0
0:2:9.051,220.409,28.0617,0,0.000885,0,0
0:2:9.351,220.761,28.1099,0,0.000885,0,0
0:2:9.653,221.521,28.2065,0,0.000885,0,0
0:2:9.954,222.518,28.3306,0,0.000885,0,0
0:2:10.260,222.518,28.3306,0,0.000885,0,0
0:2:10.562,223.225,28.4202,0,0.000885,0,0
0:2:10.862,223.928,28.5098,0,0.000885,0,0
0:2:11.162,224.164,28.5443,0,0.000885,0,0
0:2:11.462,224.982,28.6477,0,0.000885,0,0
0:2:11.766,226.041,28.7787,0,0.000885,0,0
0:2:12.063,226.041,28.7787,0,0.000885,0,0
0:2:12.361,226.686,28.8615,0,0.000885,0,0
0:2:12.652,227.037,28.9097,0,0.000885,0,0
0:2:12.951,227.74,28.9993,0,0.000885,0,0
0:2:13.245,228.269,29.0614,0,0.000885,0,0
0:2:13.553,229.208,29.1855,0,0.000885,0,0
0:2:13.861,229.969,29.282,0,0.000885,0,0
0:2:14.154,230.084,29.2958,0,0.000885,0,0
0:2:14.453,231.023,29.413,0,0.000885,0,0
0:2:14.746,231.494,29.4751,0,0.000885,0,0
0:2:15.046,231.961,29.5371,0,0.000885,0,0
0:2:15.349,232.313,29.5785,0,0.000885,0,0
0:2:15.651,232.842,29.6475,0,0.000885,0,0
0:2:15.951,233.429,29.7233,0,0.000885,0,0
0:2:16.250,234.541,29.8612,0,0.000885,0,0
0:2:16.551,235.071,29.9301,0,0.000885,0,0
0:2:16.854,235.48,29.9853,0,0.000885,0,0
0:2:17.163,236.419,30.1025,0,0.000885,0,0
0:2:17.461,236.832,30.1508,0,0.000885,0,0
0:2:17.754,237.419,30.2266,0,0.000885,0,0
0:2:18.053,237.709,30.268,0,0.000885,0,0
0:2:18.346,238.416,30.3576,0,0.000885,0,0
0:2:18.645,238.883,30.4128,0,0.000885,0,0
0:2:18.940,239.528,30.4955,0,0.000885,0,0
0:2:19.244,240.115,30.5714,0,0.000885,0,0
0:2:19.544,241.054,30.6886,0,0.000885,0,0
0:2:19.837,241.289,30.723,0,0.000885,0,0
0:2:20.138,242.286,30.8471,0,0.000885,0,0
0:2:20.443,242.579,30.8885,0,0.000885,0,0
0:2:20.742,243.224,30.9712,0,0.000885,0,0
0:2:21.044,243.691,31.0264,0,0.000885,0,0
0:2:21.342,244.456,31.1229,0,0.000885,0,0
0:2:21.642,245.159,31.2126,0,0.000885,0,0
0:2:21.937,245.395,31.247,0,0.000885,0,0
0:2:22.234,246.098,31.3367,0,0.000885,0,0
0:2:22.530,246.743,31.4194,0,0.000885,0,0
0:2:22.825,246.916,31.4401,0,0.000885,0,0
0:2:23.126,247.624,31.5297,0,0.000885,0,0
0:2:23.417,248.326,31.6194,0,0.000885,0,0
0:2:23.717,248.856,31.6883,0,0.000885,0,0
0:2:24.013,249.794,31.8055,0,0.000885,0,0
0:2:24.307,250.497,31.8951,0,0.000885,0,0
0:2:24.606,250.555,31.902,0,0.000885,0,0
0:2:24.900,251.316,31.9986,0,0.000885,0,0
0:2:25.201,252.081,32.0951,0,0.000885,0,0
0:2:25.503,252.841,32.1916,0,0.000885,0,0
0:2:25.805,252.784,32.1847,0,0.000885,0,0
0:2:26.106,253.606,32.2881,0,0.000885,0,0
0:2:26.405,254.251,32.3709,0,0.000885,0,0
0:2:26.706,254.834,32.4467,0,0.000885,0,0
0:2:27.001,255.306,32.5088,0,0.000885,0,0
0:2:27.299,256.008,32.5984,0,0.000885,0,0
0:2:27.595,256.889,32.7087,0,0.000885,0,0
0:2:27.890,257.419,32.7777,0,0.000885,0,0
0:2:28.191,258.064,32.8604,0,0.000885,0,0
0:2:28.482,258.179,32.8742,0,0.000885,0,0
0:2:28.780,259.002,32.9776,0,0.000885,0,0
0:2:29.076,259.941,33.0948,0,0.000885,0,0
0:2:29.371,260.523,33.1707,0,0.000885,0,0
0:2:29.670,260.817,33.2052,0,0.000885,0,0
0:2:29.974,260.937,33.2258,0,0.000885,0,0
0:2:30.274,262.107,33.3706,0,0.000885,0,0
0:2:30.575,262.401,33.412,0,0.000885,0,0
0:2:30.874,263.224,33.5154,0,0.000885,0,0
0:2:31.175,263.575,33.5568,0,0.000885,0,0
0:2:31.469,264.22,33.6395,0,0.000885,0,0
0:2:31.769,264.691,33.7016,0,0.000885,0,0
0:2:32.064,265.158,33.7636,0,0.000885,0,0
0:2:32.361,265.919,33.8602,0,0.000885,0,0
0:2:32.656,266.391,33.9153,0,0.000885,0,0
0:2:32.961,267.093,34.0049,0,0.000885,0,0
0:2:33.258,267.859,34.1015,0,0.000885,0,0
0:2:33.564,268.561,34.1911,0,0.000885,0,0
0:2:33.861,268.913,34.2394,0,0.000885,0,0
0:2:34.156,269.5,34.3152,0,0.000885,0,0
0:2:34.452,270.087,34.391,0,0.000885,0,0
0:2:34.751,270.79,34.4807,0,0.000885,0,0
0:2:35.054,271.608,34.5841,0,0.000885,0,0
0:2:35.356,272.431,34.6875,0,0.000885,0,0
0:2:35.657,272.547,34.7013,0,0.000885,0,0
0:2:35.956,273.018,34.7634,0,0.000885,0,0
0:2:36.257,273.837,34.8668,0,0.000885,0,0
0:2:36.552,274.131,34.9013,0,0.000885,0,0
0:2:36.852,274.718,34.9771,0,0.000885,0,0
0:2:37.146,275.421,35.0667,0,0.000885,0,0
0:2:37.443,275.892,35.1288,0,0.000885,0,0
0:2:37.740,276.421,35.1977,0,0.000885,0,0
0:2:38.035,277.004,35.2667,0,0.000885,0,0
0:2:38.336,277.827,35.377,0,0.000885,0,0
0:2:38.630,278.121,35.4115,0,0.000885,0,0
0:2:38.928,278.944,35.5149,0,0.000885,0,0
0:2:39.226,279.411,35.5769,0,0.000885,0,0
0:2:39.519,280.056,35.6597,0,0.000885,0,0
0:2:39.818,280.585,35.7217,0,0.000885,0,0
0:2:40.120,281.11,35.7907,0,0.000885,0,0
0:2:40.423,281.817,35.8803,0,0.000885,0,0
0:2:40.725,282.987,36.032,0,0.000885,0,0
0:2:41.024,283.223,36.0596,0,0.000885,0,0
0:2:41.324,283.81,36.1354,0,0.000885,0,0
0:2:41.620,284.277,36.1975,0,0.000885,0,0
0:2:41.920,284.633,36.2388,0,0.000885,0,0
0:2:42.215,285.451,36.3423,0,0.000885,0,0
0:2:42.511,286.332,36.4595,0,0.000885,0,0
0:2:42.808,286.626,36.494,0,0.000885,0,0
0:2:43.103,287.035,36.5491,0,0.000885,0,0
0:2:43.402,287.506,36.6043,0,0.000885,0,0
0:2:43.694,288.325,36.7077,0,0.000885,0,0
0:2:43.994,288.854,36.7766,0,0.000885,0,0
0:2:44.290,288.97,36.7904,0,0.000885,0,0
0:2:44.584,289.851,36.9076,0,0.000885,0,0
0:2:44.882,290.847,37.0317,0,0.000885,0,0
0:2:45.184,290.905,37.0386,0,0.000885,0,0
0:2:45.488,291.55,37.1214,0,0.000885,0,0
0:2:45.789,292.195,37.2041,0,0.000885,0,0
0:2:46.089,292.315,37.2179,0,0.000885,0,0
0:2:46.390,293.076,37.3144,0,0.000885,0,0
0:2:46.684,294.423,37.4868,0,0.000885,0,0
0:2:46.983,294.953,37.5557,0,0.000885,0,0
0:2:47.278,295.655,37.6454,0,0.000885,0,0
0:2:47.574,295.949,37.6798,0,0.000885,0,0
0:2:47.872,296.363,37.735,0,0.000885,0,0
0:2:48.167,297.123,37.8315,0,0.000885,0,0
0:2:48.467,297.768,37.9143,0,0.000885,0,0
0:2:48.768,298.24,37.9694,0,0.000885,0,0
0:2:49.066,298.823,38.0453,0,0.000885,0,0
0:2:49.363,299.236,38.1004,0,0.000885,0,0
0:2:49.662,299.41,38.1211,0,0.000885,0,0
0:2:49.966,300.175,38.2176,0,0.000885,0,0
0:2:50.267,300.878,38.3073,0,0.000885,0,0
0:2:50.567,301.581,38.3969,0,0.000885,0,0
0:2:50.868,302.11,38.4659,0,0.000885,0,0
0:2:51.165,302.928,38.5693,0,0.000885,0,0
0:2:51.463,303.636,38.6589,0,0.000885,0,0
0:2:51.767,304.218,38.7347,0,0.000885,0,0
0:2:52.066,304.805,38.8106,0,0.000885,0,0
0:2:52.368,305.571,38.9071,0,0.000885,0,0
0:2:52.667,305.628,38.914,0,0.000885,0,0
0:2:52.960,306.567,39.0312,0,0.000885,0,0
0:2:53.256,307.27,39.1209,0,0.000885,0,0
0:2:53.553,307.328,39.1277,0,0.000885,0,0
0:2:53.848,308.324,39.2587,0,0.000885,0,0
0:2:54.148,308.796,39.3139,0,0.000885,0,0
0:2:54.443,309.205,39.3691,0,0.000885,0,0
0:2:54.743,309.908,39.4587,0,0.000885,0,0
0:2:55.046,310.028,39.4725,0,0.000885,0,0
0:2:55.348,310.966,39.5966,0,0.000885,0,0
0:2:55.649,311.905,39.7138,0,0.000885,0,0
0:2:55.948,312.078,39.7345,0,0.000885,0,0
0:2:56.249,313.017,39.8517,0,0.000885,0,0
0:2:56.543,313.546,39.9206,0,0.000885,0,0
0:2:56.841,313.955,39.9758,0,0.000885,0,0
0:2:57.137,314.952,40.0999,0,0.000885,0,0
0:2:57.431,315.188,40.1344,0,0.000885,0,0
0:2:57.731,315.948,40.2309,0,0.000885,0,0
0:2:58.025,316.771,40.3343,0,0.000885,0,0
0:2:58.325,316.949,40.355,0,0.000885,0,0
0:2:58.619,317.652,40.4446,0,0.000885,0,0
0:2:58.918,317.946,40.4791,0,0.000885,0,0
0:2:59.214,318.884,40.6032,0,0.000885,0,0
0:2:59.508,319.115,40.6308,0,0.000885,0,0
0:2:59.807,319.587,40.6929,0,0.000885,0,0
0:3:0.109,320.761,40.8376,0,0.000885,0,0
0:3:0.411,320.641,40.8239,0,0.000885,0,0
0:3:0.711,321.406,40.9204,0,0.000885,0,0
0:3:1.011,322.696,41.0859,0,0.000885,0,0
0:3:1.312,322.87,41.1065,0,0.000885,0,0
0:3:1.605,323.693,41.2169,0,0.000885,0,0
0:3:1.906,323.928,41.2444,0,0.000885,0,0
0:3:2.200,324.338,41.2927,0,0.000885,0,0
0:3:2.499,325.218,41.4099,0,0.000885,0,0
0:3:2.794,325.863,41.4926,0,0.000885,0,0
0:3:3.088,326.037,41.5133,0,0.000885,0,0
0:3:3.388,326.682,41.5961,0,0.000885,0,0
0:3:3.680,327.389,41.6857,0,0.000885,0,0
0:3:3.981,328.092,41.7753,0,0.000885,0,0
0:3:4.276,328.679,41.8512,0,0.000885,0,0
0:3:4.576,329.324,41.9339,0,0.000885,0,0
0:3:4.881,329.911,42.0029,0,0.000885,0,0
0:3:5.181,330.494,42.0787,0,0.000885,0,0
0:3:5.482,331.259,42.1752,0,0.000885,0,0
0:3:5.782,331.726,42.2373,0,0.000885,0,0
0:3:6.080,332.14,42.2924,0,0.000885,0,0
0:3:6.377,332.958,42.3959,0,0.000885,0,0
0:3:6.672,333.368,42.4441,0,0.000885,0,0
0:3:6.972,334.133,42.5407,0,0.000885,0,0
0:3:7.266,334.835,42.6303,0,0.000885,0,0
0:3:7.567,335.245,42.6854,0,0.000885,0,0
0:3:7.869,335.596,42.7268,0,0.000885,0,0
0:3:8.167,335.952,42.7751,0,0.000885,0,0
0:3:8.465,336.948,42.8992,0,0.000885,0,0
0:3:8.758,337.358,42.9543,0,0.000885,0,0
0:3:9.056,338.06,43.044,0,0.000885,0,0
0:3:9.350,338.648,43.1198,0,0.000885,0,0
0:3:9.651,338.883,43.1474,0,0.000885,0,0
0:3:9.952,339.644,43.2439,0,0.000885,0,0
0:3:10.255,340.347,43.3335,0,0.000885,0,0
0:3:10.554,341.112,43.4301,0,0.000885,0,0
0:3:10.853,341.463,43.4783,0,0.000885,0,0
0:3:11.152,342.695,43.63,0,0.000885,0,0
0:3:11.455,342.869,43.6576,0,0.000885,0,0
0:3:11.754,343.34,43.7128,0,0.000885,0,0
0:3:12.061,344.043,43.8024,0,0.000885,0,0
0:3:12.356,344.63,43.8782,0,0.000885,0,0
0:3:12.654,345.097,43.9403,0,0.000885,0,0
0:3:12.948,345.685,44.0161,0,0.000885,0,0
0:3:13.247,345.92,44.0437,0,0.000885,0,0
0:3:13.541,346.801,44.154,0,0.000885,0,0
0:3:13.839,347.095,44.1954,0,0.000885,0,0
0:3:14.134,348.033,44.3126,0,0.000885,0,0
0:3:14.430,348.678,44.3953,0,0.000885,0,0
0:3:14.729,349.203,44.4643,0,0.000885,0,0
0:3:15.033,349.675,44.5194,0,0.000885,0,0
0:3:15.333,350.026,44.5677,0,0.000885,0,0
0:3:15.635,351.08,44.6987,0,0.000885,0,0
0:3:15.936,351.668,44.7746,0,0.000885,0,0
0:3:16.237,352.077,44.8297,0,0.000885,0,0
0:3:16.530,352.548,44.8849,0,0.000885,0,0
0:3:16.830,353.429,45.0021,0,0.000885,0,0
0:3:17.123,353.545,45.0159,0,0.000885,0,0
0:3:17.421,354.483,45.1331,0,0.000885,0,0
0:3:17.717,355.186,45.2227,0,0.000885,0,0
0:3:18.013,355.07,45.2089,0,0.000885,0,0
0:3:18.310,356.067,45.333,0,0.000885,0,0
0:3:18.605,356.89,45.4433,0,0.000885,0,0
0:3:18.904,357.828,45.5606,0,0.000885,0,0
0:3:19.198,357.766,45.5537,0,0.000885,0,0
0:3:19.499,358.589,45.6571,0,0.000885,0,0
0:3:19.802,358.767,45.6778,0,0.000885,0,0
0:3:20.102,360.057,45.8432,0,0.000885,0,0
0:3:20.404,360.408,45.8915,0,0.000885,0,0
0:3:20.702,360.817,45.9398,0,0.000885,0,0
0:3:21.002,361.462,46.0225,0,0.000885,0,0
0:3:21.299,362.107,46.1052,0,0.000885,0,0
0:3:21.593,362.343,46.1328,0,0.000885,0,0
0:3:21.893,363.104,46.2293,0,0.000885,0,0
0:3:22.187,363.749,46.3121,0,0.000885,0,0
0:3:22.488,364.394,46.3948,0,0.000885,0,0
0:3:22.779,364.63,46.4293,0,0.000885,0,0
0:3:23.078,365.453,46.5327,0,0.000885,0,0
0:3:23.375,366.04,46.6086,0,0.000885,0,0
0:3:23.670,367.094,46.7396,0,0.000885,0,0
0:3:23.969,367.561,46.8016,0,0.000885,0,0
0:3:24.272,367.739,46.8223,0,0.000885,0,0
0:3:24.574,368.735,46.9464,0,0.000885,0,0
0:3:24.878,369.265,47.0153,0,0.000885,0,0
0:3:25.179,369.674,47.0705,0,0.000885,0,0
0:3:25.480,370.261,47.1464,0,0.000885,0,0
0:3:25.781,371.2,47.2636,0,0.000885,0,0
0:3:26.080,370.964,47.236,0,0.000885,0,0
0:3:26.374,371.493,47.298,0,0.000885,0,0
0:3:26.671,372.196,47.3877,0,0.000885,0,0
0:3:26.968,372.783,47.4635,0,0.000885,0,0
0:3:27.272,373.664,47.5738,0,0.000885,0,0
0:3:27.571,374.425,47.6704,0,0.000885,0,0
0:3:27.873,375.305,47.7876,0,0.000885,0,0
0:3:28.172,375.715,47.8358,0,0.000885,0,0
0:3:28.467,376.653,47.9599,0,0.000885,0,0
0:3:28.773,376.595,47.9461,0,0.000885,0,0
0:3:29.070,377.183,48.022,0,0.000885,0,0
0:3:29.373,377.77,48.0978,0,0.000885,0,0
0:3:29.673,378.53,48.1944,0,0.000885,0,0
0:3:29.975,379.353,48.2978,0,0.000885,0,0
0:3:30.277,379.936,48.3736,0,0.000885,0,0
0:3:30.577,380.23,48.415,0,0.000885,0,0
0:3:30.877,380.292,48.4219,0,0.000885,0,0
0:3:31.179,381.11,48.5253,0,0.000885,0,0
0:3:31.472,381.64,48.5942,0,0.000885,0,0
0:3:31.773,382.52,48.7046,0,0.000885,0,0
0:3:32.068,383.339,48.808,0,0.000885,0,0
0:3:32.374,383.81,48.87,0,0.000885,0,0
0:3:32.671,384.629,48.9735,0,0.000885,0,0
0:3:32.976,385.216,49.0493,0,0.000885,0,0
0:3:33.277,385.861,49.132,0,0.000885,0,0
0:3:33.567,385.803,49.1251,0,0.000885,0,0
0:3:33.867,386.564,49.2217,0,0.000885,0,0
0:3:34.173,387.209,49.3044,0,0.000885,0,0
0:3:34.473,387.796,49.3734,0,0.000885,0,0
0:3:34.777,388.499,49.463,0,0.000885,0,0
0:3:35.078,389.264,49.5595,0,0.000885,0,0
0:3:35.380,389.793,49.6285,0,0.000885,0,0
0:3:35.680,390.612,49.7319,0,0.000885,0,0
0:3:35.977,390.847,49.7664,0,0.000885,0,0
0:3:36.275,391.492,49.8491,0,0.000885,0,0
0:3:36.568,391.666,49.8698,0,0.000885,0,0
0:3:36.869,392.725,50.0008,0,0.000885,0,0
0:3:37.180,393.192,50.0628,0,0.000885,0,0
0:3:37.479,393.779,50.1387,0,0.000885,0,0
0:3:37.774,394.775,50.2628,0,0.000885,0,0
0:3:38.070,395.247,50.3248,0,0.000885,0,0
0:3:38.369,395.834,50.4007,0,0.000885,0,0
0:3:38.670,396.185,50.442,0,0.000885,0,0
0:3:38.970,396.479,50.4834,0,0.000885,0,0
0:3:39.275,397.591,50.6213,0,0.000885,0,0
0:3:39.576,398,50.6765,0,0.000885,0,0
0:3:39.880,398.472,50.7316,0,0.000885,0,0
0:3:40.180,399.117,50.8144,0,0.000885,0,0
0:3:40.481,399.175,50.8213,0,0.000885,0,0
0:3:40.781,399.526,50.8695,0,0.000885,0,0
0:3:41.079,400.7,51.0212,0,0.000885,0,0
0:3:41.377,401.167,51.0764,0,0.000885,0,0
0:3:41.672,402.342,51.228,0,0.000885,0,0
0:3:41.971,402.813,51.2901,0,0.000885,0,0
0:3:42.274,403.165,51.3315,0,0.000885,0,0
0:3:42.575,404.103,51.4487,0,0.000885,0,0
0:3:42.865,404.334,51.4832,0,0.000885,0,0
0:3:43.175,405.1,51.5797,0,0.000885,0,0
0:3:43.473,405.98,51.69,0,0.000885,0,0
0:3:43.776,406.683,51.7796,0,0.000885,0,0
0:3:44.075,406.741,51.7865,0,0.000885,0,0
0:3:44.369,407.27,51.8555,0,0.000885,0,0
0:3:44.671,408.031,51.952,0,0.000885,0,0
0:3:44.973,408.382,52.0003,0,0.000885,0,0
0:3:45.276,408.969,52.0692,0,0.000885,0,0
0:3:45.575,409.73,52.1657,0,0.000885,0,0
0:3:45.875,410.259,52.2347,0,0.000885,0,0
0:3:46.174,410.611,52.2829,0,0.000885,0,0
0:3:46.469,411.198,52.3588,0,0.000885,0,0
0:3:46.766,412.137,52.476,0,0.000885,0,0
0:3:47.074,412.488,52.5174,0,0.000885,0,0
0:3:47.376,413.133,52.6001,0,0.000885,0,0
0:3:47.676,413.662,52.6691,0,0.000885,0,0
0:3:47.979,414.192,52.738,0,0.000885,0,0
0:3:48.278,415.54,52.9104,0,0.000885,0,0
0:3:48.573,415.304,52.8759,0,0.000885,0,0
0:3:48.869,416.185,52.9931,0,0.000885,0,0
0:3:49.177,416.945,53.0896,0,0.000885,0,0
0:3:49.469,417.884,53.2068,0,0.000885,0,0
0:3:49.770,418.004,53.2206,0,0.000885,0,0
0:3:50.071,418.529,53.2896,0,0.000885,0,0
0:3:50.374,419,53.3516,0,0.000885,0,0
0:3:50.675,419.467,53.4068,0,0.000885,0,0
0:3:50.975,420.406,53.5309,0,0.000885,0,0
0:3:51.276,420.757,53.5723,0,0.000885,0,0
0:3:51.570,421.874,53.7171,0,0.000885,0,0
0:3:51.870,422.11,53.7446,0,0.000885,0,0
0:3:52.176,422.461,53.786,0,0.000885,0,0
0:3:52.470,423.222,53.8894,0,0.000885,0,0
0:3:52.778,423.867,53.9653,0,0.000885,0,0
0:3:53.072,424.218,54.0135,0,0.000885,0,0
0:3:53.373,425.45,54.1721,0,0.000885,0,0
0:3:53.674,425.45,54.1721,0,0.000885,0,0
0:3:53.971,425.802,54.2135,0,0.000885,0,0
0:3:54.278,426.447,54.2962,0,0.000885,0,0
0:3:54.579,426.86,54.3514,0,0.000885,0,0
0:3:54.882,427.621,54.4479,0,0.000885,0,0
0:3:55.182,428.208,54.5237,0,0.000885,0,0
0:3:55.483,428.617,54.572,0,0.000885,0,0
0:3:55.782,429.262,54.6547,0,0.000885,0,0
0:3:56.079,429.907,54.7375,0,0.000885,0,0
0:3:56.378,430.966,54.8754,0,0.000885,0,0
0:3:56.670,431.611,54.9512,0,0.000885,0,0
0:3:56.971,432.256,55.034,0,0.000885,0,0
0:3:57.274,432.372,55.0546,0,0.000885,0,0
0:3:57.573,433.132,55.1512,0,0.000885,0,0
0:3:57.877,433.719,55.2201,0,0.000885,0,0
0:3:58.172,434.307,55.296,0,0.000885,0,0
0:3:58.472,435.187,55.4063,0,0.000885,0,0
0:3:58.773,435.361,55.4338,0,0.000885,0,0
0:3:59.073,436.362,55.558,0,0.000885,0,0
0:3:59.367,436.887,55.6269,0,0.000885,0,0
0:3:59.671,437.416,55.6958,0,0.000885,0,0
0:3:59.974,437.709,55.7303,0,0.000885,0,0
0:4:0.276,438.47,55.8268,0,0.000885,0,0
0:4:0.575,438.822,55.8751,0,0.000885,0,0
0:4:0.877,439.293,55.9303,0,0.000885,0,0
0:4:1.175,440.347,56.0682,0,0.000885,0,0
0:4:1.470,440.756,56.1164,0,0.000885,0,0
0:4:1.777,441.522,56.213,0,0.000885,0,0
0:4:2.075,442.224,56.3026,0,0.000885,0,0
0:4:2.377,442.518,56.344,0,0.000885,0,0
0:4:2.678,443.047,56.4129,0,0.000885,0,0
0:4:2.972,443.924,56.5232,0,0.000885,0,0
0:4:3.278,444.569,56.606,0,0.000885,0,0
0:4:3.575,444.924,56.6473,0,0.000885,0,0
0:4:3.879,445.627,56.737,0,0.000885,0,0
0:4:4.180,445.801,56.7645,0,0.000885,0,0
0:4:4.471,446.739,56.8817,0,0.000885,0,0
0:4:4.772,447.62,56.9921,0,0.000885,0,0
0:4:5.075,447.678,56.999,0,0.000885,0,0
0:4:5.377,448.207,57.0679,0,0.000885,0,0
0:4:5.677,448.559,57.1093,0,0.000885,0,0
0:4:5.977,449.319,57.2127,0,0.000885,0,0
0:4:6.277,449.497,57.2334,0,0.000885,0,0
0:4:6.572,450.551,57.3644,0,0.000885,0,0
0:4:6.878,451.081,57.4333,0,0.000885,0,0
0:4:7.176,451.784,57.523,0,0.000885,0,0
0:4:7.477,452.486,57.6126,0,0.000885,0,0
0:4:7.778,452.958,57.6746,0,0.000885,0,0
0:4:8.071,453.661,57.7643,0,0.000885,0,0
0:4:8.378,454.132,57.8194,0,0.000885,0,0
0:4:8.674,455.009,57.9366,0,0.000885,0,0
0:4:8.979,455.596,58.0056,0,0.000885,0,0
0:4:9.279,456.303,58.0952,0,0.000885,0,0
0:4:9.581,456.654,58.1435,0,0.000885,0,0
0:4:9.883,457.531,58.2538,0,0.000885,0,0
0:4:10.185,458.002,58.3159,0,0.000885,0,0
0:4:10.484,458.06,58.3228,0,0.000885,0,0
0:4:10.785,459.234,58.4744,0,0.000885,0,0
0:4:11.078,459.35,58.4882,0,0.000885,0,0
0:4:11.379,459.995,58.571,0,0.000885,0,0
0:4:11.672,460.404,58.6192,0,0.000885,0,0
0:4:11.967,460.991,58.6951,0,0.000885,0,0
0:4:12.265,461.463,58.7571,0,0.000885,0,0
0:4:12.568,461.757,58.7916,0,0.000885,0,0
0:4:12.879,462.926,58.9433,0,0.000885,0,0
0:4:13.172,463.749,59.0467,0,0.000885,0,0
0:4:13.472,463.865,59.0605,0,0.000885,0,0
0:4:13.775,464.982,59.2053,0,0.000885,0,0
0:4:14.072,465.275,59.2398,0,0.000885,0,0
0:4:14.368,466.387,59.3845,0,0.000885,0,0
0:4:14.671,466.623,59.4121,0,0.000885,0,0
0:4:14.974,467.094,59.4742,0,0.000885,0,0
0:4:15.274,467.797,59.5638,0,0.000885,0,0
0:4:15.575,468.909,59.7017,0,0.000885,0,0
0:4:15.875,468.909,59.7017,0,0.000885,0,0
0:4:16.178,469.323,59.7569,0,0.000885,0,0
0:4:16.476,470.026,59.8465,0,0.000885,0,0
0:4:16.780,470.844,59.9499,0,0.000885,0,0
0:4:17.079,471.08,59.9775,0,0.000885,0,0
0:4:17.373,471.316,60.012,0,0.000885,0,0
0:4:17.679,472.076,60.1085,0,0.000885,0,0
0:4:17.976,472.37,60.143,0,0.000885,0,0
0:4:18.279,473.193,60.2464,0,0.000885,0,0
0:4:18.579,473.486,60.2878,0,0.000885,0,0
0:4:18.873,473.896,60.336,0,0.000885,0,0
0:4:19.179,474.483,60.4119,0,0.000885,0,0
0:4:19.476,474.367,60.3981,0,0.000885,0,0
0:4:19.776,475.479,60.5429,0,0.000885,0,0
0:4:20.079,476.124,60.6187,0,0.000885,0,0
0:4:20.380,476.36,60.6532,0,0.000885,0,0
0:4:20.681,477.063,60.7428,0,0.000885,0,0
0:4:20.982,477.886,60.8462,0,0.000885,0,0
0:4:21.278,478.473,60.9221,0,0.000885,0,0
0:4:21.575,478.882,60.9703,0,0.000885,0,0
0:4:21.879,479.176,61.0117,0,0.000885,0,0
0:4:22.179,479.585,61.06,0,0.000885,0,0
0:4:22.472,479.936,61.1082,0,0.000885,0,0
0:4:22.770,480.346,61.1565,0,0.000885,0,0
0:4:23.076,479.994,61.1151,0,0.000885,0,0
0:4:23.369,479.469,61.0462,0,0.000885,0,0
0:4:23.677,476.534,60.6739,0,0.000885,0,0
0:4:23.969,474.776,60.4532,0,0.000885,0,0
0:4:24.268,467.21,59.488,0,0.000885,0,0
0:4:24.572,464.279,59.1156,0,0.000885,0,0
0:4:24.872,459.114,58.4538,0,0.000885,0,0
0:4:25.175,451.962,57.5436,0,0.000885,0,0
0:4:25.476,444.862,56.6404,0,0.000885,0,0
0:4:25.774,439.818,55.9992,0,0.000885,0,0
0:4:26.075,437.358,55.689,0,0.000885,0,0
0:4:26.373,437.007,55.6407,0,0.000885,0,0
0:4:26.677,431.9,54.9926,0,0.000885,0,0
0:4:26.981,431.727,54.9719,0,0.000885,0,0
0:4:27.280,432.256,55.034,0,0.000885,0,0
0:4:27.573,432.901,55.1167,0,0.000885,0,0
0:4:27.868,430.73,54.8409,0,0.000885,0,0
0:4:28.174,427.972,54.4893,0,0.000885,0,0
0:4:28.479,427.972,54.4893,0,0.000885,0,0
0:4:28.776,428.444,54.5513,0,0.000885,0,0
0:4:29.079,429.027,54.6272,0,0.000885,0,0
0:4:29.379,430.494,54.8133,0,0.000885,0,0
0:4:29.681,423.867,53.9653,0,0.000885,0,0
0:4:29.981,420.232,53.5033,0,0.000885,0,0
0:4:30.281,419.645,53.4275,0,0.000885,0,0
0:4:30.580,420.17,53.4964,0,0.000885,0,0
0:4:30.880,421.051,53.6067,0,0.000885,0,0
0:4:31.181,421.696,53.6895,0,0.000885,0,0
0:4:31.481,422.047,53.7377,0,0.000885,0,0
0:4:31.774,422.399,53.7791,0,0.000885,0,0
0:4:32.080,422.928,53.8481,0,0.000885,0,0
0:4:32.375,423.048,53.8618,0,0.000885,0,0
0:4:32.679,423.573,53.9308,0,0.000885,0,0
0:4:32.978,423.048,53.8618,0,0.000885,0,0
0:4:33.268,422.634,53.8136,0,0.000885,0,0
0:4:33.567,421.932,53.7239,0,0.000885,0,0
0:4:33.861,421.522,53.6688,0,0.000885,0,0
0:4:34.156,420.757,53.5723,0,0.000885,0,0
0:4:34.453,420.348,53.5171,0,0.000885,0,0
0:4:34.754,419.819,53.4551,0,0.000885,0,0
0:4:35.056,418.119,53.2344,0,0.000885,0,0
0:4:35.355,417.417,53.1448,0,0.000885,0,0
0:4:35.655,416.127,52.9793,0,0.000885,0,0
0:4:35.957,414.895,52.8276,0,0.000885,0,0
0:4:36.250,413.369,52.6346,0,0.000885,0,0
0:4:36.548,411.376,52.3795,0,0.000885,0,0
0:4:36.841,396.185,50.442,0,0.000885,0,0
0:4:37.139,388.383,49.4492,0,0.000885,0,0
0:4:37.433,384.513,48.9597,0,0.000885,0,0
0:4:37.730,381.64,48.5942,0,0.000885,0,0
0:4:38.025,377.65,48.084,0,0.000885,0,0
0:4:38.320,375.772,47.8427,0,0.000885,0,0
0:4:38.618,373.722,47.5807,0,0.000885,0,0
0:4:38.912,371.845,47.3463,0,0.000885,0,0
0:4:39.211,369.852,47.0912,0,0.000885,0,0
0:4:39.504,366.507,46.6637,0,0.000885,0,0
0:4:39.804,363.985,46.3466,0,0.000885,0,0
0:4:40.106,360.933,45.9536,0,0.000885,0,0
0:4:40.407,357.886,45.5675,0,0.000885,0,0
0:4:40.707,355.186,45.2227,0,0.000885,0,0
0:4:41.007,350.729,44.6573,0,0.000885,0,0
0:4:41.305,347.562,44.2506,0,0.000885,0,0
0:4:41.601,343.87,43.7817,0,0.000885,0,0
0:4:41.895,340.467,43.3473,0,0.000885,0,0
0:4:42.195,336.361,42.8233,0,0.000885,0,0
0:4:42.205,336.361,42.8233,0,0.000885,0,0