File: DataFile2021-06-30_053558.csv
Test ID:,Date Tested:,Time:,Test Type:,Diameter Avg. (mm):,Cyl. Corr. Factor:,Height (mm):,Age (days):,Weight (kN):,Break Type:,Ramp Rate (MPa/s):,Load at Break (kN):,Stress at Break (MPa):
12,6/30/2021,05:35,Cylinder,150,1,300,0,3.6,3,0.25,1783.33,100.92
Sample Time,Load (kN),Stress (MPa),Long. Strain,Trans. Strain,Chan1 Deflection (mm),Chan2 Deflection (mm)
0:0:16.823,5.57362,0.317159,0,0.000885,0,0
0:0:17.223,12.6107,0.71016,0,0.000885,0,0
0:0:17.622,13.1356,0.744634,0,0.000885,0,0
0:0:18.017,13.0199,0.737739,0,0.000885,0,0
0:0:18.413,12.8465,0.72395,0,0.000885,0,0
0:0:18.807,12.7264,0.717055,0,0.000885,0,0
0:0:19.208,14.4879,0.820476,0,0.000885,0,0
0:0:19.607,16.1871,0.917003,0,0.000885,0,0
0:0:20.002,18.6514,1.0549,0,0.000885,0,0
0:0:20.400,19.8257,1.12385,0,0.000885,0,0
0:0:20.797,21.5828,1.22037,0,0.000885,0,0
0:0:21.198,23.9314,1.35137,0,0.000885,0,0
0:0:21.597,26.5114,1.50306,0,0.000885,0,0
0:0:21.994,28.9134,1.63406,0,0.000885,0,0
0:0:22.398,31.0263,1.75816,0,0.000885,0,0
0:0:22.804,33.3127,1.88227,0,0.000885,0,0
0:0:23.210,34.5449,1.95811,0,0.000885,0,0
0:0:23.612,35.8927,2.03395,0,0.000885,0,0
0:0:24.012,37.6542,2.13048,0,0.000885,0,0
0:0:24.408,39.2956,2.22701,0,0.000885,0,0
0:0:24.810,40.5277,2.29595,0,0.000885,0,0
0:0:25.209,42.5206,2.40627,0,0.000885,0,0
0:0:25.606,43.8684,2.48211,0,0.000885,0,0
0:0:26.004,45.572,2.57864,0,0.000885,0,0
0:0:26.401,47.3291,2.67517,0,0.000885,0,0
0:0:26.802,49.442,2.79927,0,0.000885,0,0
0:0:27.201,51.4348,2.90959,0,0.000885,0,0
0:0:27.608,53.4899,3.0268,0,0.000885,0,0
0:0:28.012,54.8955,3.10954,0,0.000885,0,0
0:0:28.416,56.657,3.20606,0,0.000885,0,0
0:0:28.819,58.8856,3.33017,0,0.000885,0,0
0:0:29.219,60.6426,3.43359,0,0.000885,0,0
0:0:29.615,62.2884,3.52322,0,0.000885,0,0
0:0:30.013,64.3391,3.64043,0,0.000885,0,0
0:0:30.411,65.4556,3.70248,0,0.000885,0,0
0:0:30.812,67.2126,3.80591,0,0.000885,0,0
0:0:31.209,69.2054,3.91622,0,0.000885,0,0
0:0:31.606,70.2063,3.97138,0,0.000885,0,0
0:0:32.004,72.9597,4.12996,0,0.000885,0,0
0:0:32.407,74.4276,4.2127,0,0.000885,0,0
0:0:32.814,75.8956,4.29543,0,0.000885,0,0
0:0:33.218,77.6526,4.39196,0,0.000885,0,0
0:0:33.621,79.7077,4.50917,0,0.000885,0,0
0:0:34.020,81.4647,4.61259,0,0.000885,0,0
0:0:34.419,83.2262,4.70912,0,0.000885,0,0
0:0:34.819,85.2769,4.82633,0,0.000885,0,0
0:0:35.216,87.2741,4.93665,0,0.000885,0,0
0:0:35.613,89.089,5.04007,0,0.000885,0,0
0:0:36.011,90.9661,5.15038,0,0.000885,0,0
0:0:36.413,92.3139,5.22623,0,0.000885,0,0
0:0:36.812,94.3112,5.33654,0,0.000885,0,0
0:0:37.207,95.8369,5.42617,0,0.000885,0,0
0:0:37.612,97.4783,5.51581,0,0.000885,0,0
0:0:38.017,100.058,5.6606,0,0.000885,0,0
0:0:38.421,101.406,5.73644,0,0.000885,0,0
0:0:38.824,103.813,5.87433,0,0.000885,0,0
0:0:39.223,104.982,5.94328,0,0.000885,0,0
0:0:39.621,106.45,6.02602,0,0.000885,0,0
0:0:40.020,108.15,6.12254,0,0.000885,0,0
0:0:40.422,110.498,6.25354,0,0.000885,0,0
0:0:40.818,112.024,6.33628,0,0.000885,0,0
0:0:41.214,113.194,6.40523,0,0.000885,0,0
0:0:41.613,115.129,6.51555,0,0.000885,0,0
0:0:42.013,116.948,6.61897,0,0.000885,0,0
0:0:42.412,118.71,6.71549,0,0.000885,0,0
0:0:42.818,120.818,6.8396,0,0.000885,0,0
0:0:43.223,122.17,6.91544,0,0.000885,0,0
0:0:43.628,123.518,6.99128,0,0.000885,0,0
0:0:44.030,125.511,7.1016,0,0.000885,0,0
0:0:44.428,127.566,7.21881,0,0.000885,0,0
0:0:44.824,129.323,7.31534,0,0.000885,0,0
0:0:45.221,131.2,7.42565,0,0.000885,0,0
0:0:45.621,132.784,7.51529,0,0.000885,0,0
0:0:46.022,135.133,7.64629,0,0.000885,0,0
0:0:46.418,136.36,7.71523,0,0.000885,0,0
0:0:46.815,138.064,7.81176,0,0.000885,0,0
0:0:47.219,139.941,7.92208,0,0.000885,0,0
0:0:47.627,142.17,8.04618,0,0.000885,0,0
0:0:48.029,143.633,8.12892,0,0.000885,0,0
0:0:48.431,145.573,8.23923,0,0.000885,0,0
0:0:48.830,147.507,8.34955,0,0.000885,0,0
0:0:49.230,148.797,8.4185,0,0.000885,0,0
0:0:49.629,150.261,8.50124,0,0.000885,0,0
0:0:50.027,152.138,8.61155,0,0.000885,0,0
0:0:50.422,154.135,8.72187,0,0.000885,0,0
0:0:50.821,155.363,8.79082,0,0.000885,0,0
0:0:51.221,157.302,8.90113,0,0.000885,0,0
0:0:51.619,159.18,9.00455,0,0.000885,0,0
0:0:52.015,160.994,9.10797,0,0.000885,0,0
0:0:52.418,162.872,9.21829,0,0.000885,0,0
0:0:52.825,164.633,9.31482,0,0.000885,0,0
0:0:53.229,166.159,9.40445,0,0.000885,0,0
0:0:53.633,167.858,9.50098,0,0.000885,0,0
0:0:54.029,170.144,9.62508,0,0.000885,0,0
0:0:54.430,171.786,9.72161,0,0.000885,0,0
0:0:54.829,173.605,9.82503,0,0.000885,0,0
0:0:55.227,175.482,9.92845,0,0.000885,0,0
0:0:55.624,177.475,10.0457,0,0.000885,0,0
0:0:56.021,178.827,10.1215,0,0.000885,0,0
0:0:56.420,180.584,10.218,0,0.000885,0,0
0:0:56.820,181.701,10.2801,0,0.000885,0,0
0:0:57.215,184.161,10.4249,0,0.000885,0,0
0:0:57.622,185.98,10.5214,0,0.000885,0,0
0:0:58.026,187.564,10.611,0,0.000885,0,0
0:0:58.430,189.383,10.7145,0,0.000885,0,0
0:0:58.833,190.909,10.8041,0,0.000885,0,0
0:0:59.230,192.786,10.9075,0,0.000885,0,0
0:0:59.626,194.837,11.0247,0,0.000885,0,0
0:1:0.023,195.775,11.0799,0,0.000885,0,0
0:1:0.420,197.71,11.1902,0,0.000885,0,0
0:1:0.814,199.881,11.3143,0,0.000885,0,0
0:1:1.207,201.7,11.4108,0,0.000885,0,0
0:1:1.604,203.577,11.5211,0,0.000885,0,0
0:1:2.002,205.161,11.6108,0,0.000885,0,0
0:1:2.406,206.86,11.7073,0,0.000885,0,0
0:1:2.809,208.559,11.8038,0,0.000885,0,0
0:1:3.209,210.027,11.8866,0,0.000885,0,0
0:1:3.607,212.082,12.0038,0,0.000885,0,0
0:1:4.003,213.955,12.1072,0,0.000885,0,0
0:1:4.395,215.717,12.2037,0,0.000885,0,0
0:1:4.790,217.242,12.2934,0,0.000885,0,0
0:1:5.188,218.941,12.3899,0,0.000885,0,0
0:1:5.582,220.997,12.5071,0,0.000885,0,0
0:1:5.976,222.58,12.5967,0,0.000885,0,0
0:1:6.378,224.222,12.6864,0,0.000885,0,0
0:1:6.774,226.156,12.7967,0,0.000885,0,0
0:1:7.175,227.918,12.9001,0,0.000885,0,0
0:1:7.579,229.439,12.9828,0,0.000885,0,0
0:1:7.982,231.374,13.0931,0,0.000885,0,0
0:1:8.385,232.842,13.1759,0,0.000885,0,0
0:1:8.781,235.542,13.3276,0,0.000885,0,0
0:1:9.177,237.126,13.4172,0,0.000885,0,0
0:1:9.582,238.767,13.5137,0,0.000885,0,0
0:1:9.974,240.293,13.5965,0,0.000885,0,0
0:1:10.373,241.756,13.6792,0,0.000885,0,0
0:1:10.778,243.576,13.7826,0,0.000885,0,0
0:1:11.172,245.626,13.8998,0,0.000885,0,0
0:1:11.574,247.681,14.017,0,0.000885,0,0
0:1:11.969,249.616,14.1274,0,0.000885,0,0
0:1:12.367,251.316,14.2239,0,0.000885,0,0
0:1:12.772,252.726,14.2997,0,0.000885,0,0
0:1:13.175,254.954,14.4307,0,0.000885,0,0
0:1:13.575,256.711,14.5273,0,0.000885,0,0
0:1:13.974,258.651,14.6376,0,0.000885,0,0
0:1:14.380,260.586,14.7479,0,0.000885,0,0
0:1:14.774,261.289,14.7893,0,0.000885,0,0
0:1:15.176,263.108,14.8858,0,0.000885,0,0
0:1:15.573,265.158,15.003,0,0.000885,0,0
0:1:15.967,266.626,15.0857,0,0.000885,0,0
0:1:16.362,268.383,15.1892,0,0.000885,0,0
0:1:16.766,270.318,15.2995,0,0.000885,0,0
0:1:17.168,271.786,15.3822,0,0.000885,0,0
0:1:17.573,273.837,15.4994,0,0.000885,0,0
0:1:17.974,275.363,15.5822,0,0.000885,0,0
0:1:18.374,277.298,15.6925,0,0.000885,0,0
0:1:18.766,278.881,15.7821,0,0.000885,0,0
0:1:19.162,280.821,15.8924,0,0.000885,0,0
0:1:19.559,282.756,16.0027,0,0.000885,0,0
0:1:19.955,284.397,16.0924,0,0.000885,0,0
0:1:20.348,286.448,16.2096,0,0.000885,0,0
0:1:20.744,287.973,16.2992,0,0.000885,0,0
0:1:21.140,290.202,16.4233,0,0.000885,0,0
0:1:21.536,291.198,16.4785,0,0.000885,0,0
0:1:21.931,293.018,16.5819,0,0.000885,0,0
0:1:22.335,295.011,16.6922,0,0.000885,0,0
0:1:22.737,296.478,16.7749,0,0.000885,0,0
0:1:23.137,298.413,16.8853,0,0.000885,0,0
0:1:23.538,299.823,16.968,0,0.000885,0,0
0:1:23.930,301.696,17.0714,0,0.000885,0,0
0:1:24.327,303.28,17.1611,0,0.000885,0,0
0:1:24.724,305.277,17.2783,0,0.000885,0,0
0:1:25.120,307.328,17.3886,0,0.000885,0,0
0:1:25.515,309.441,17.5127,0,0.000885,0,0
0:1:25.909,311.024,17.6023,0,0.000885,0,0
0:1:26.306,312.843,17.7057,0,0.000885,0,0
0:1:26.703,314.191,17.7816,0,0.000885,0,0
0:1:27.097,316.535,17.9126,0,0.000885,0,0
0:1:27.499,317.474,17.9677,0,0.000885,0,0
0:1:27.902,319.115,18.0574,0,0.000885,0,0
0:1:28.302,320.877,18.1608,0,0.000885,0,0
0:1:28.702,322.87,18.2711,0,0.000885,0,0
0:1:29.096,324.338,18.3538,0,0.000885,0,0
0:1:29.492,326.744,18.4917,0,0.000885,0,0
0:1:29.888,328.559,18.5952,0,0.000885,0,0
0:1:30.285,330.494,18.7055,0,0.000885,0,0
0:1:30.678,332.313,18.802,0,0.000885,0,0
0:1:31.080,333.839,18.8916,0,0.000885,0,0
0:1:31.478,335.538,18.9882,0,0.000885,0,0
0:1:31.876,337.767,19.1123,0,0.000885,0,0
0:1:32.280,338.883,19.1743,0,0.000885,0,0
0:1:32.682,340.583,19.2708,0,0.000885,0,0
0:1:33.084,342.224,19.3674,0,0.000885,0,0
0:1:33.481,343.87,19.457,0,0.000885,0,0
0:1:33.880,345.978,19.5811,0,0.000885,0,0
0:1:34.282,347.798,19.6845,0,0.000885,0,0
0:1:34.675,349.79,19.7948,0,0.000885,0,0
0:1:35.082,351.725,19.9052,0,0.000885,0,0
0:1:35.478,352.664,19.9534,0,0.000885,0,0
0:1:35.874,354.541,20.0637,0,0.000885,0,0
0:1:36.276,356.712,20.1878,0,0.000885,0,0
0:1:36.680,358.705,20.2982,0,0.000885,0,0
0:1:37.080,359.995,20.374,0,0.000885,0,0
0:1:37.486,361.872,20.4774,0,0.000885,0,0
0:1:37.888,363.34,20.5602,0,0.000885,0,0
0:1:38.288,365.453,20.6774,0,0.000885,0,0
0:1:38.686,367.388,20.7877,0,0.000885,0,0
0:1:39.083,368.442,20.8497,0,0.000885,0,0
0:1:39.478,370.435,20.9601,0,0.000885,0,0
0:1:39.881,372.432,21.0773,0,0.000885,0,0
0:1:40.276,374.425,21.1876,0,0.000885,0,0
0:1:40.683,375.893,21.2703,0,0.000885,0,0
0:1:41.078,377.005,21.3324,0,0.000885,0,0
0:1:41.482,379.291,21.4634,0,0.000885,0,0
0:1:41.875,381.697,21.6013,0,0.000885,0,0
0:1:42.276,383.339,21.6909,0,0.000885,0,0
0:1:42.681,384.98,21.7874,0,0.000885,0,0
0:1:43.081,386.977,21.8977,0,0.000885,0,0
0:1:43.481,389.38,22.0356,0,0.000885,0,0
0:1:43.876,390.554,22.0977,0,0.000885,0,0
0:1:44.272,392.489,22.208,0,0.000885,0,0
0:1:44.681,394.072,22.2976,0,0.000885,0,0
0:1:45.083,395.95,22.408,0,0.000885,0,0
0:1:45.476,397.24,22.4769,0,0.000885,0,0
0:1:45.882,398.707,22.5596,0,0.000885,0,0
0:1:46.279,400.936,22.6906,0,0.000885,0,0
0:1:46.685,402.577,22.7803,0,0.000885,0,0
0:1:47.077,404.045,22.863,0,0.000885,0,0
0:1:47.479,405.393,22.9389,0,0.000885,0,0
0:1:47.882,407.622,23.0699,0,0.000885,0,0
0:1:48.285,409.263,23.1595,0,0.000885,0,0
0:1:48.685,411.256,23.2698,0,0.000885,0,0
0:1:49.078,413.311,23.387,0,0.000885,0,0
0:1:49.473,414.837,23.4766,0,0.000885,0,0
0:1:49.882,417.181,23.6076,0,0.000885,0,0
0:1:50.276,418.649,23.6904,0,0.000885,0,0
0:1:50.681,420.584,23.8007,0,0.000885,0,0
0:1:51.085,422.167,23.8903,0,0.000885,0,0
0:1:51.480,424.218,24.0075,0,0.000885,0,0
0:1:51.880,425.392,24.0696,0,0.000885,0,0
0:1:52.283,427.149,24.173,0,0.000885,0,0
0:1:52.686,429.614,24.3109,0,0.000885,0,0
0:1:53.086,431.024,24.3937,0,0.000885,0,0
0:1:53.483,433.252,24.5178,0,0.000885,0,0
0:1:53.880,433.897,24.5522,0,0.000885,0,0
0:1:54.284,435.774,24.6625,0,0.000885,0,0
0:1:54.676,437.532,24.7591,0,0.000885,0,0
0:1:55.082,439.467,24.8694,0,0.000885,0,0
0:1:55.480,440.934,24.9521,0,0.000885,0,0
0:1:55.876,442.869,25.0624,0,0.000885,0,0
0:1:56.279,444.862,25.1728,0,0.000885,0,0
0:1:56.683,446.624,25.2762,0,0.000885,0,0
0:1:57.082,448.092,25.3589,0,0.000885,0,0
0:1:57.487,450.672,25.5037,0,0.000885,0,0
0:1:57.889,452.077,25.5795,0,0.000885,0,0
0:1:58.289,453.781,25.6761,0,0.000885,0,0
0:1:58.685,455.774,25.7933,0,0.000885,0,0
0:1:59.082,457.709,25.9036,0,0.000885,0,0
0:1:59.480,459.056,25.9794,0,0.000885,0,0
0:1:59.885,460.404,26.0553,0,0.000885,0,0
0:2:0.278,462.695,26.1863,0,0.000885,0,0
0:2:0.683,464.279,26.2759,0,0.000885,0,0
0:2:1.079,466.565,26.4,0,0.000885,0,0
0:2:1.474,468.149,26.4897,0,0.000885,0,0
0:2:1.880,469.968,26.5931,0,0.000885,0,0
0:2:2.285,471.316,26.6689,0,0.000885,0,0
0:2:2.686,473.429,26.793,0,0.000885,0,0
0:2:3.086,474.834,26.8689,0,0.000885,0,0
0:2:3.486,477.179,26.9999,0,0.000885,0,0
0:2:3.880,478.179,27.0619,0,0.000885,0,0
0:2:4.282,479.994,27.1653,0,0.000885,0,0
0:2:4.682,481.991,27.2757,0,0.000885,0,0
0:2:5.079,483.513,27.3584,0,0.000885,0,0
0:2:5.484,485.568,27.4756,0,0.000885,0,0
0:2:5.874,487.387,27.579,0,0.000885,0,0
0:2:6.280,489.029,27.6756,0,0.000885,0,0
0:2:6.679,491.141,27.7928,0,0.000885,0,0
0:2:7.086,492.725,27.8824,0,0.000885,0,0
0:2:7.489,493.953,27.9513,0,0.000885,0,0
0:2:7.891,496.123,28.0755,0,0.000885,0,0
0:2:8.292,497.765,28.1651,0,0.000885,0,0
0:2:8.690,499.233,28.2478,0,0.000885,0,0
0:2:9.089,501.519,28.3788,0,0.000885,0,0
0:2:9.482,503.632,28.5029,0,0.000885,0,0
0:2:9.886,505.273,28.5926,0,0.000885,0,0
0:2:10.282,507.151,28.696,0,0.000885,0,0
0:2:10.680,508.383,28.7718,0,0.000885,0,0
0:2:11.074,510.26,28.8752,0,0.000885,0,0
0:2:11.479,512.253,28.9856,0,0.000885,0,0
0:2:11.882,514.423,29.1097,0,0.000885,0,0
0:2:12.285,516.301,29.22,0,0.000885,0,0
0:2:12.690,517.413,29.282,0,0.000885,0,0
0:2:13.090,519.174,29.3786,0,0.000885,0,0
0:2:13.491,520.936,29.482,0,0.000885,0,0
0:2:13.886,522.341,29.5578,0,0.000885,0,0
0:2:14.285,524.218,29.6612,0,0.000885,0,0
0:2:14.681,525.744,29.7509,0,0.000885,0,0
0:2:15.072,527.15,29.8336,0,0.000885,0,0
0:2:15.475,529.966,29.9922,0,0.000885,0,0
0:2:15.882,531.727,30.0887,0,0.000885,0,0
0:2:16.282,533.368,30.1852,0,0.000885,0,0
0:2:16.675,535.01,30.2749,0,0.000885,0,0
0:2:17.080,537.238,30.399,0,0.000885,0,0
0:2:17.482,538.938,30.4955,0,0.000885,0,0
0:2:17.885,540.757,30.5989,0,0.000885,0,0
0:2:18.287,542.398,30.6955,0,0.000885,0,0
0:2:18.687,543.982,30.7851,0,0.000885,0,0
0:2:19.079,545.334,30.8609,0,0.000885,0,0
0:2:19.487,546.855,30.9437,0,0.000885,0,0
0:2:19.885,549.026,31.0678,0,0.000885,0,0
0:2:20.289,551.023,31.1781,0,0.000885,0,0
0:2:20.682,552.838,31.2815,0,0.000885,0,0
0:2:21.087,554.658,31.3849,0,0.000885,0,0
0:2:21.483,556.593,31.4953,0,0.000885,0,0
0:2:21.882,558.528,31.6056,0,0.000885,0,0
0:2:22.286,560.231,31.7021,0,0.000885,0,0
0:2:22.689,562.046,31.8055,0,0.000885,0,0
0:2:23.089,563.808,31.902,0,0.000885,0,0
0:2:23.487,565.213,31.9848,0,0.000885,0,0
0:2:23.885,566.566,32.0606,0,0.000885,0,0
0:2:24.287,568.087,32.1503,0,0.000885,0,0
0:2:24.681,570.142,32.2606,0,0.000885,0,0
0:2:25.089,571.961,32.364,0,0.000885,0,0
0:2:25.485,573.545,32.4536,0,0.000885,0,0
0:2:25.889,575.48,32.5639,0,0.000885,0,0
0:2:26.281,577.708,32.6949,0,0.000885,0,0
0:2:26.688,579.643,32.7984,0,0.000885,0,0
0:2:27.087,581.343,32.8949,0,0.000885,0,0
0:2:27.490,582.868,32.9845,0,0.000885,0,0
0:2:27.893,584.981,33.1017,0,0.000885,0,0
0:2:28.293,586.387,33.1845,0,0.000885,0,0
0:2:28.689,588.09,33.281,0,0.000885,0,0
0:2:29.086,589.674,33.3706,0,0.000885,0,0
0:2:29.482,592.138,33.5085,0,0.000885,0,0
0:2:29.887,593.838,33.605,0,0.000885,0,0
0:2:30.285,594.718,33.6533,0,0.000885,0,0
0:2:30.685,596.6,33.7636,0,0.000885,0,0
0:2:31.092,598.593,33.8739,0,0.000885,0,0
0:2:31.487,600.59,33.9843,0,0.000885,0,0
0:2:31.882,603.112,34.129,0,0.000885,0,0
0:2:32.285,604.816,34.2256,0,0.000885,0,0
0:2:32.689,606.284,34.3083,0,0.000885,0,0
0:2:33.092,607.4,34.3704,0,0.000885,0,0
0:2:33.494,608.632,34.4393,0,0.000885,0,0
0:2:33.892,610.923,34.5703,0,0.000885,0,0
0:2:34.292,612.565,34.6668,0,0.000885,0,0
0:2:34.690,614.678,34.7841,0,0.000885,0,0
0:2:35.084,616.203,34.8668,0,0.000885,0,0
0:2:35.491,617.787,34.9564,0,0.000885,0,0
0:2:35.889,619.317,35.0461,0,0.000885,0,0
0:2:36.287,621.488,35.1702,0,0.000885,0,0
0:2:36.683,623.013,35.2529,0,0.000885,0,0
0:2:37.076,625.126,35.377,0,0.000885,0,0
0:2:37.481,627.355,35.5011,0,0.000885,0,0
0:2:37.888,629.294,35.6114,0,0.000885,0,0
0:2:38.290,630.82,35.6942,0,0.000885,0,0
0:2:38.691,632.172,35.7769,0,0.000885,0,0
0:2:39.088,634.517,35.9079,0,0.000885,0,0
0:2:39.487,635.397,35.9562,0,0.000885,0,0
0:2:39.887,637.63,36.0803,0,0.000885,0,0
0:2:40.290,639.098,36.163,0,0.000885,0,0
0:2:40.686,641.091,36.2802,0,0.000885,0,0
0:2:41.083,642.443,36.3561,0,0.000885,0,0
0:2:41.483,644.498,36.4733,0,0.000885,0,0
0:2:41.890,646.847,36.6043,0,0.000885,0,0
0:2:42.295,649.547,36.756,0,0.000885,0,0
0:2:42.699,651.131,36.8456,0,0.000885,0,0
0:2:43.101,652.127,36.9007,0,0.000885,0,0
0:2:43.504,654.067,37.0111,0,0.000885,0,0
0:2:43.898,655.179,37.0731,0,0.000885,0,0
0:2:44.294,656.179,37.1352,0,0.000885,0,0
0:2:44.692,658.586,37.2662,0,0.000885,0,0
0:2:45.093,660.169,37.3558,0,0.000885,0,0
0:2:45.489,662.282,37.4799,0,0.000885,0,0
0:2:45.881,663.808,37.5626,0,0.000885,0,0
0:2:46.289,665.863,37.6798,0,0.000885,0,0
0:2:46.689,667.447,37.7695,0,0.000885,0,0
0:2:47.086,669.328,37.8729,0,0.000885,0,0
0:2:47.490,671.09,37.9763,0,0.000885,0,0
0:2:47.894,673.025,38.0866,0,0.000885,0,0
0:2:48.296,674.844,38.1901,0,0.000885,0,0
0:2:48.699,676.721,38.2935,0,0.000885,0,0
0:2:49.096,678.661,38.4038,0,0.000885,0,0
0:2:49.492,680.48,38.5072,0,0.000885,0,0
0:2:49.888,681.89,38.59,0,0.000885,0,0
0:2:50.289,683.647,38.6865,0,0.000885,0,0
0:2:50.688,685.822,38.8106,0,0.000885,0,0
0:2:51.093,687.464,38.9002,0,0.000885,0,0
0:2:51.487,688.344,38.9554,0,0.000885,0,0
0:2:51.885,690.578,39.0795,0,0.000885,0,0
0:2:52.288,692.219,39.1691,0,0.000885,0,0
0:2:52.692,693.215,39.2312,0,0.000885,0,0
0:2:53.096,695.333,39.3484,0,0.000885,0,0
0:2:53.498,697.503,39.4725,0,0.000885,0,0
0:2:53.896,699.438,39.5828,0,0.000885,0,0
0:2:54.294,701.378,39.6931,0,0.000885,0,0
0:2:54.693,703.019,39.7827,0,0.000885,0,0
0:2:55.089,705.132,39.9,0,0.000885,0,0
0:2:55.483,706.542,39.9827,0,0.000885,0,0
0:2:55.882,708.477,40.093,0,0.000885,0,0
0:2:56.292,710.239,40.1895,0,0.000885,0,0
0:2:56.689,711.413,40.2585,0,0.000885,0,0
0:2:57.083,713.526,40.3757,0,0.000885,0,0
0:2:57.488,715.287,40.4791,0,0.000885,0,0
0:2:57.892,717.4,40.5963,0,0.000885,0,0
0:2:58.296,719.22,40.6998,0,0.000885,0,0
0:2:58.698,720.572,40.7756,0,0.000885,0,0
0:2:59.093,722.627,40.8928,0,0.000885,0,0
0:2:59.492,724.446,40.9962,0,0.000885,0,0
0:2:59.892,726.266,41.0996,0,0.000885,0,0
0:3:0.288,728.263,41.21,0,0.000885,0,0
0:3:0.680,729.553,41.2858,0,0.000885,0,0
0:3:1.090,730.549,41.341,0,0.000885,0,0
0:3:1.488,732.426,41.4444,0,0.000885,0,0
0:3:1.887,734.602,41.5685,0,0.000885,0,0
0:3:2.293,736.243,41.665,0,0.000885,0,0
0:3:2.696,737.947,41.7615,0,0.000885,0,0
0:3:3.098,739.65,41.8581,0,0.000885,0,0
0:3:3.499,741.643,41.9684,0,0.000885,0,0
0:3:3.898,743.756,42.0856,0,0.000885,0,0
0:3:4.296,745.224,42.1683,0,0.000885,0,0
0:3:4.689,746.812,42.258,0,0.000885,0,0
0:3:5.087,748.569,42.3614,0,0.000885,0,0
0:3:5.486,750.918,42.4924,0,0.000885,0,0
0:3:5.893,752.506,42.582,0,0.000885,0,0
0:3:6.290,754.031,42.6717,0,0.000885,0,0
0:3:6.686,755.851,42.7751,0,0.000885,0,0
0:3:7.089,757.55,42.8716,0,0.000885,0,0
0:3:7.493,759.841,42.9957,0,0.000885,0,0
0:3:7.897,761.424,43.0853,0,0.000885,0,0
0:3:8.299,763.128,43.1819,0,0.000885,0,0
0:3:8.697,765.241,43.306,0,0.000885,0,0
0:3:9.093,767.06,43.4094,0,0.000885,0,0
0:3:9.494,767.941,43.4577,0,0.000885,0,0
0:3:9.890,770.112,43.5818,0,0.000885,0,0
0:3:10.285,772.345,43.7059,0,0.000885,0,0
0:3:10.691,774.28,43.8162,0,0.000885,0,0
0:3:11.089,775.218,43.8713,0,0.000885,0,0
0:3:11.487,777.038,43.9748,0,0.000885,0,0
0:3:11.894,778.568,44.0575,0,0.000885,0,0
0:3:12.299,780.618,44.1747,0,0.000885,0,0
0:3:12.703,782.149,44.2574,0,0.000885,0,0
0:3:13.106,784.026,44.3678,0,0.000885,0,0
0:3:13.508,785.436,44.4436,0,0.000885,0,0
0:3:13.905,787.664,44.5746,0,0.000885,0,0
0:3:14.300,789.426,44.6711,0,0.000885,0,0
0:3:14.699,791.654,44.7952,0,0.000885,0,0
0:3:15.097,793.18,44.8849,0,0.000885,0,0
0:3:15.495,795.293,45.0021,0,0.000885,0,0
0:3:15.891,796.997,45.0986,0,0.000885,0,0
0:3:16.287,798.816,45.202,0,0.000885,0,0
0:3:16.687,800.284,45.2848,0,0.000885,0,0
0:3:17.096,801.752,45.3675,0,0.000885,0,0
0:3:17.501,803.691,45.4778,0,0.000885,0,0
0:3:17.904,805.155,45.5606,0,0.000885,0,0
0:3:18.307,807.268,45.6847,0,0.000885,0,0
0:3:18.707,808.62,45.7605,0,0.000885,0,0
0:3:19.106,810.911,45.8915,0,0.000885,0,0
0:3:19.502,813.197,46.0156,0,0.000885,0,0
0:3:19.897,815.31,46.1397,0,0.000885,0,0
0:3:20.294,816.311,46.1949,0,0.000885,0,0
0:3:20.692,817.717,46.2707,0,0.000885,0,0
0:3:21.088,819.242,46.3603,0,0.000885,0,0
0:3:21.494,820.652,46.4362,0,0.000885,0,0
0:3:21.889,822.65,46.5534,0,0.000885,0,0
0:3:22.292,824.763,46.6706,0,0.000885,0,0
0:3:22.697,826.582,46.774,0,0.000885,0,0
0:3:23.100,828.81,46.8981,0,0.000885,0,0
0:3:23.502,830.163,46.9809,0,0.000885,0,0
0:3:23.899,832.098,47.0843,0,0.000885,0,0
0:3:24.300,833.566,47.167,0,0.000885,0,0
0:3:24.697,835.563,47.2842,0,0.000885,0,0
0:3:25.092,837.146,47.3739,0,0.000885,0,0
0:3:25.488,838.672,47.4566,0,0.000885,0,0
0:3:25.887,840.669,47.5738,0,0.000885,0,0
0:3:26.282,842.667,47.6841,0,0.000885,0,0
0:3:26.680,844.602,47.7945,0,0.000885,0,0
0:3:27.083,846.247,47.891,0,0.000885,0,0
0:3:27.489,847.947,47.9806,0,0.000885,0,0
0:3:27.891,849.886,48.0909,0,0.000885,0,0
0:3:28.294,851.821,48.2012,0,0.000885,0,0
0:3:28.689,853.583,48.3047,0,0.000885,0,0
0:3:29.095,855.344,48.4012,0,0.000885,0,0
0:3:29.495,856.99,48.4977,0,0.000885,0,0
0:3:29.893,858.338,48.5736,0,0.000885,0,0
0:3:30.287,859.921,48.6632,0,0.000885,0,0
0:3:30.692,861.976,48.7804,0,0.000885,0,0
0:3:31.091,863.502,48.8631,0,0.000885,0,0
0:3:31.489,865.321,48.9666,0,0.000885,0,0
0:3:31.896,866.732,49.0493,0,0.000885,0,0
0:3:32.301,868.787,49.1665,0,0.000885,0,0
0:3:32.705,870.019,49.2355,0,0.000885,0,0
0:3:33.107,872.016,49.3458,0,0.000885,0,0
0:3:33.508,874.365,49.4768,0,0.000885,0,0
0:3:33.905,876.829,49.6216,0,0.000885,0,0
0:3:34.299,879,49.7388,0,0.000885,0,0
0:3:34.697,879.765,49.787,0,0.000885,0,0
0:3:35.099,881.291,49.8698,0,0.000885,0,0
0:3:35.494,883.11,49.9732,0,0.000885,0,0
0:3:35.889,885.165,50.0904,0,0.000885,0,0
0:3:36.296,886.633,50.1731,0,0.000885,0,0
0:3:36.695,888.568,50.2835,0,0.000885,0,0
0:3:37.093,890.214,50.3731,0,0.000885,0,0
0:3:37.498,892.264,50.4903,0,0.000885,0,0
0:3:37.902,894.088,50.5937,0,0.000885,0,0
0:3:38.303,895.378,50.6696,0,0.000885,0,0
0:3:38.706,897.664,50.8006,0,0.000885,0,0
0:3:39.101,899.426,50.8971,0,0.000885,0,0
0:3:39.496,900.485,50.9592,0,0.000885,0,0
0:3:39.892,902.949,51.097,0,0.000885,0,0
0:3:40.293,904.71,51.1936,0,0.000885,0,0
0:3:40.690,905.827,51.2625,0,0.000885,0,0
0:3:41.094,907.704,51.3659,0,0.000885,0,0
0:3:41.490,909.875,51.49,0,0.000885,0,0
0:3:41.890,911.463,51.5797,0,0.000885,0,0
0:3:42.289,913.34,51.6831,0,0.000885,0,0
0:3:42.693,915.159,51.7865,0,0.000885,0,0
0:3:43.096,916.743,51.8762,0,0.000885,0,0
0:3:43.497,918.269,51.9658,0,0.000885,0,0
0:3:43.899,919.914,52.0554,0,0.000885,0,0
0:3:44.296,921.907,52.1726,0,0.000885,0,0
0:3:44.693,923.202,52.2416,0,0.000885,0,0
0:3:45.088,925.488,52.3726,0,0.000885,0,0
0:3:45.496,927.779,52.5036,0,0.000885,0,0
0:3:45.896,929.247,52.5863,0,0.000885,0,0
0:3:46.291,931.124,52.6897,0,0.000885,0,0
0:3:46.683,933.179,52.8069,0,0.000885,0,0
0:3:47.090,934.589,52.8897,0,0.000885,0,0
0:3:47.496,936.524,52.9931,0,0.000885,0,0
0:3:47.899,938.464,53.1034,0,0.000885,0,0
0:3:48.301,940.456,53.2206,0,0.000885,0,0
0:3:48.697,941.279,53.2689,0,0.000885,0,0
0:3:49.096,943.219,53.3723,0,0.000885,0,0
0:3:49.493,945.447,53.5033,0,0.000885,0,0
0:3:49.891,946.8,53.5792,0,0.000885,0,0
0:3:50.294,948.557,53.6757,0,0.000885,0,0
0:3:50.690,949.437,53.7239,0,0.000885,0,0
0:3:51.091,951.786,53.8618,0,0.000885,0,0
0:3:51.485,953.783,53.9722,0,0.000885,0,0
0:3:51.893,955.718,54.0825,0,0.000885,0,0
0:3:52.297,957.538,54.1859,0,0.000885,0,0
0:3:52.702,959.299,54.2824,0,0.000885,0,0
0:3:53.103,960.651,54.3583,0,0.000885,0,0
0:3:53.507,962.293,54.4548,0,0.000885,0,0
0:3:53.902,964.112,54.5582,0,0.000885,0,0
0:3:54.300,965.873,54.6547,0,0.000885,0,0
0:3:54.699,968.342,54.7995,0,0.000885,0,0
0:3:55.096,969.868,54.8823,0,0.000885,0,0
0:3:55.491,971.567,54.9788,0,0.000885,0,0
0:3:55.896,973.271,55.0753,0,0.000885,0,0
0:3:56.296,975.326,55.1925,0,0.000885,0,0
0:3:56.695,976.91,55.2822,0,0.000885,0,0
0:3:57.089,978.32,55.3649,0,0.000885,0,0
0:3:57.493,980.433,55.4821,0,0.000885,0,0
0:3:57.897,981.9,55.5648,0,0.000885,0,0
0:3:58.301,983.604,55.6614,0,0.000885,0,0
0:3:58.704,985.423,55.7648,0,0.000885,0,0
0:3:59.099,987.594,55.8889,0,0.000885,0,0
0:3:59.495,989.12,55.9716,0,0.000885,0,0
0:3:59.895,990.472,56.0475,0,0.000885,0,0
0:4:0.293,992.523,56.1647,0,0.000885,0,0
0:4:0.699,994.756,56.2888,0,0.000885,0,0
0:4:1.093,995.988,56.3646,0,0.000885,0,0
0:4:1.491,997.923,56.4681,0,0.000885,0,0
0:4:1.893,999.569,56.5646,0,0.000885,0,0
0:4:2.297,1001.21,56.6542,0,0.000885,0,0
0:4:2.701,1003.44,56.7852,0,0.000885,0,0
0:4:3.102,1004.44,56.8404,0,0.000885,0,0
0:4:3.501,1007.02,56.9852,0,0.000885,0,0
0:4:3.902,1008.96,57.0955,0,0.000885,0,0
0:4:4.298,1010.72,57.192,0,0.000885,0,0
0:4:4.692,1012.3,57.2816,0,0.000885,0,0
0:4:5.086,1014.01,57.3782,0,0.000885,0,0
0:4:5.497,1015.95,57.4885,0,0.000885,0,0
0:4:5.896,1018.06,57.6126,0,0.000885,0,0
0:4:6.290,1019.7,57.7022,0,0.000885,0,0
0:4:6.697,1021.46,57.8056,0,0.000885,0,0
0:4:7.098,1022.4,57.8539,0,0.000885,0,0
0:4:7.505,1024.81,57.9918,0,0.000885,0,0
0:4:7.909,1025.98,58.0608,0,0.000885,0,0
0:4:8.310,1027.69,58.1573,0,0.000885,0,0
0:4:8.707,1029.45,58.2538,0,0.000885,0,0
0:4:9.108,1031.15,58.3503,0,0.000885,0,0
0:4:9.504,1033.62,58.4882,0,0.000885,0,0
0:4:9.900,1035.43,58.5916,0,0.000885,0,0
0:4:10.295,1037.43,58.7089,0,0.000885,0,0
0:4:10.695,1038.95,58.7916,0,0.000885,0,0
0:4:11.093,1039.78,58.8399,0,0.000885,0,0
0:4:11.487,1042.12,58.9709,0,0.000885,0,0
0:4:11.881,1044,59.0812,0,0.000885,0,0
0:4:12.283,1045.71,59.1777,0,0.000885,0,0
0:4:12.693,1047.53,59.2811,0,0.000885,0,0
0:4:13.096,1049.23,59.3708,0,0.000885,0,0
0:4:13.498,1051.52,59.5018,0,0.000885,0,0
0:4:13.895,1053.34,59.6052,0,0.000885,0,0
0:4:14.294,1054.69,59.681,0,0.000885,0,0
0:4:14.694,1056.74,59.7982,0,0.000885,0,0
0:4:15.086,1057.92,59.8672,0,0.000885,0,0
0:4:15.493,1060.26,59.9982,0,0.000885,0,0
0:4:15.891,1061.44,60.0671,0,0.000885,0,0
0:4:16.288,1062.79,60.143,0,0.000885,0,0
0:4:16.697,1065.19,60.2809,0,0.000885,0,0
0:4:17.092,1066.55,60.3567,0,0.000885,0,0
0:4:17.495,1068.77,60.4808,0,0.000885,0,0
0:4:17.900,1070.48,60.5773,0,0.000885,0,0
0:4:18.303,1072.18,60.6739,0,0.000885,0,0
0:4:18.703,1074.06,60.7773,0,0.000885,0,0
0:4:19.099,1075.58,60.8669,0,0.000885,0,0
0:4:19.497,1077.64,60.9841,0,0.000885,0,0
0:4:19.897,1079.63,61.0944,0,0.000885,0,0
0:4:20.293,1081.1,61.1772,0,0.000885,0,0
0:4:20.687,1082.57,61.2599,0,0.000885,0,0
0:4:21.084,1084.39,61.3633,0,0.000885,0,0
0:4:21.483,1086.21,61.4668,0,0.000885,0,0
0:4:21.882,1088.2,61.5771,0,0.000885,0,0
0:4:22.286,1090.02,61.6805,0,0.000885,0,0
0:4:22.693,1091.14,61.7426,0,0.000885,0,0
0:4:23.096,1092.9,61.846,0,0.000885,0,0
0:4:23.496,1095.19,61.977,0,0.000885,0,0
0:4:23.894,1097.54,62.108,0,0.000885,0,0
0:4:24.287,1099.59,62.2252,0,0.000885,0,0
0:4:24.693,1100.59,62.2803,0,0.000885,0,0
0:4:25.094,1101.82,62.3493,0,0.000885,0,0
0:4:25.492,1103.82,62.4665,0,0.000885,0,0
0:4:25.898,1105.76,62.5699,0,0.000885,0,0
0:4:26.293,1107.63,62.6802,0,0.000885,0,0
0:4:26.688,1109.28,62.7699,0,0.000885,0,0
0:4:27.088,1111.16,62.8802,0,0.000885,0,0
0:4:27.497,1112.45,62.9491,0,0.000885,0,0
0:4:27.900,1114.38,63.0595,0,0.000885,0,0
0:4:28.302,1116.26,63.1698,0,0.000885,0,0
0:4:28.702,1118.38,63.287,0,0.000885,0,0
0:4:29.100,1120.2,63.3904,0,0.000885,0,0
0:4:29.498,1122.01,63.4938,0,0.000885,0,0
0:4:29.892,1123.66,63.5835,0,0.000885,0,0
0:4:30.287,1125.48,63.6869,0,0.000885,0,0
0:4:30.686,1127.12,63.7834,0,0.000885,0,0
0:4:31.096,1128.83,63.8799,0,0.000885,0,0
0:4:31.492,1131.17,64.0109,0,0.000885,0,0
0:4:31.898,1132.58,64.0937,0,0.000885,0,0
0:4:32.300,1134.63,64.204,0,0.000885,0,0
0:4:32.705,1136.16,64.2936,0,0.000885,0,0
0:4:33.107,1137.75,64.3832,0,0.000885,0,0
0:4:33.510,1139.68,64.4936,0,0.000885,0,0
0:4:33.906,1141.5,64.597,0,0.000885,0,0
0:4:34.302,1143.03,64.6797,0,0.000885,0,0
0:4:34.704,1145.2,64.8038,0,0.000885,0,0
0:4:35.100,1146.14,64.859,0,0.000885,0,0
0:4:35.495,1147.84,64.9555,0,0.000885,0,0
0:4:35.889,1149.37,65.0382,0,0.000885,0,0
0:4:36.288,1151.42,65.1555,0,0.000885,0,0
0:4:36.698,1153.66,65.2865,0,0.000885,0,0
0:4:37.096,1155.35,65.383,0,0.000885,0,0
0:4:37.500,1157.24,65.4864,0,0.000885,0,0
0:4:37.903,1158.64,65.5691,0,0.000885,0,0
0:4:38.305,1160.35,65.6588,0,0.000885,0,0
0:4:38.707,1162.4,65.776,0,0.000885,0,0
0:4:39.103,1164.04,65.8725,0,0.000885,0,0
0:4:39.497,1165.69,65.9621,0,0.000885,0,0
0:4:39.896,1167.68,66.0794,0,0.000885,0,0
0:4:40.293,1169.74,66.1966,0,0.000885,0,0
0:4:40.690,1171.67,66.3,0,0.000885,0,0
0:4:41.087,1173.02,66.3827,0,0.000885,0,0
0:4:41.494,1174.78,66.4792,0,0.000885,0,0
0:4:41.890,1176.9,66.5965,0,0.000885,0,0
0:4:42.291,1178.54,66.693,0,0.000885,0,0
0:4:42.697,1180.13,66.7826,0,0.000885,0,0
0:4:43.099,1182.18,66.8998,0,0.000885,0,0
0:4:43.503,1183.82,66.9895,0,0.000885,0,0
0:4:43.901,1184.7,67.0377,0,0.000885,0,0
0:4:44.301,1186.88,67.1618,0,0.000885,0,0
0:4:44.699,1188.58,67.2584,0,0.000885,0,0
0:4:45.091,1190.4,67.3618,0,0.000885,0,0
0:4:45.498,1192.22,67.4652,0,0.000885,0,0
0:4:45.898,1193.86,67.5617,0,0.000885,0,0
0:4:46.296,1196.03,67.6789,0,0.000885,0,0
0:4:46.691,1197.5,67.7617,0,0.000885,0,0
0:4:47.097,1199.32,67.8651,0,0.000885,0,0
0:4:47.500,1201.02,67.9616,0,0.000885,0,0
0:4:47.905,1203.55,68.1064,0,0.000885,0,0
0:4:48.307,1204.61,68.1685,0,0.000885,0,0
0:4:48.710,1206.78,68.2926,0,0.000885,0,0
0:4:49.106,1208.19,68.3684,0,0.000885,0,0
0:4:49.504,1209.89,68.4649,0,0.000885,0,0
0:4:49.902,1211.59,68.5615,0,0.000885,0,0
0:4:50.300,1214.12,68.7063,0,0.000885,0,0
0:4:50.697,1215.41,68.7752,0,0.000885,0,0
0:4:51.090,1217.75,68.9131,0,0.000885,0,0
0:4:51.488,1218.63,68.9614,0,0.000885,0,0
0:4:51.900,1220.98,69.0924,0,0.000885,0,0
0:4:52.305,1223.15,69.2165,0,0.000885,0,0
0:4:52.709,1224.44,69.2923,0,0.000885,0,0
0:4:53.111,1226.68,69.4164,0,0.000885,0,0
0:4:53.511,1227.85,69.4854,0,0.000885,0,0
0:4:53.910,1229.02,69.5474,0,0.000885,0,0
0:4:54.305,1231.55,69.6922,0,0.000885,0,0
0:4:54.701,1232.9,69.768,0,0.000885,0,0
0:4:55.098,1234.66,69.8646,0,0.000885,0,0
0:4:55.498,1236.77,69.9887,0,0.000885,0,0
0:4:55.892,1237.65,70.0369,0,0.000885,0,0
0:4:56.287,1240.24,70.1817,0,0.000885,0,0
0:4:56.692,1242.11,70.2921,0,0.000885,0,0
0:4:57.098,1243.82,70.3886,0,0.000885,0,0
0:4:57.503,1245.52,70.4851,0,0.000885,0,0
0:4:57.906,1247.34,70.5816,0,0.000885,0,0
0:4:58.308,1248.92,70.6713,0,0.000885,0,0
0:4:58.707,1250.45,70.7609,0,0.000885,0,0
0:4:59.106,1252.03,70.8505,0,0.000885,0,0
0:4:59.502,1254.09,70.9677,0,0.000885,0,0
0:4:59.897,1256.49,71.1056,0,0.000885,0,0
0:5:0.296,1258.08,71.1953,0,0.000885,0,0
0:5:0.692,1259.96,71.2987,0,0.000885,0,0
0:5:1.089,1261.72,71.4021,0,0.000885,0,0
0:5:1.484,1262.83,71.4642,0,0.000885,0,0
0:5:1.880,1264.54,71.5607,0,0.000885,0,0
0:5:2.282,1266.18,71.6503,0,0.000885,0,0
0:5:2.689,1268.29,71.7675,0,0.000885,0,0
0:5:3.091,1270.23,71.8778,0,0.000885,0,0
0:5:3.497,1271.88,71.9744,0,0.000885,0,0
0:5:3.892,1274.05,72.0985,0,0.000885,0,0
0:5:4.291,1275.46,72.1743,0,0.000885,0,0
0:5:4.688,1276.8,72.2502,0,0.000885,0,0
0:5:5.093,1278.51,72.3467,0,0.000885,0,0
0:5:5.489,1280.5,72.4639,0,0.000885,0,0
0:5:5.900,1281.97,72.5466,0,0.000885,0,0
0:5:6.298,1284.26,72.6776,0,0.000885,0,0
0:5:6.693,1286.31,72.788,0,0.000885,0,0
0:5:7.087,1288.08,72.8914,0,0.000885,0,0
0:5:7.491,1290.19,73.0086,0,0.000885,0,0
0:5:7.898,1291.66,73.0913,0,0.000885,0,0
0:5:8.302,1293.83,73.2154,0,0.000885,0,0
0:5:8.704,1294.59,73.2568,0,0.000885,0,0
0:5:9.098,1296.88,73.3878,0,0.000885,0,0
0:5:9.497,1298.52,73.4843,0,0.000885,0,0
0:5:9.898,1300.22,73.5808,0,0.000885,0,0
0:5:10.302,1302.4,73.6981,0,0.000885,0,0
0:5:10.698,1304.22,73.8015,0,0.000885,0,0
0:5:11.104,1305.57,73.8773,0,0.000885,0,0
0:5:11.503,1307.39,73.9807,0,0.000885,0,0
0:5:11.901,1309.15,74.0842,0,0.000885,0,0
0:5:12.307,1311.32,74.2083,0,0.000885,0,0
0:5:12.710,1313.14,74.3117,0,0.000885,0,0
0:5:13.113,1314.73,74.4013,0,0.000885,0,0
0:5:13.516,1316.25,74.4841,0,0.000885,0,0
0:5:13.911,1317.31,74.5461,0,0.000885,0,0
0:5:14.307,1319.19,74.6495,0,0.000885,0,0
0:5:14.702,1321.24,74.7667,0,0.000885,0,0
0:5:15.103,1323.12,74.8702,0,0.000885,0,0
0:5:15.499,1324.88,74.9736,0,0.000885,0,0
0:5:15.892,1326.58,75.0701,0,0.000885,0,0
0:5:16.289,1328.17,75.1597,0,0.000885,0,0
0:5:16.699,1330.57,75.2976,0,0.000885,0,0
0:5:17.108,1332.22,75.3873,0,0.000885,0,0
0:5:17.513,1333.8,75.4769,0,0.000885,0,0
0:5:17.917,1335.8,75.5872,0,0.000885,0,0
0:5:18.319,1337.97,75.7113,0,0.000885,0,0
0:5:18.721,1339.56,75.801,0,0.000885,0,0
0:5:19.117,1341.02,75.8837,0,0.000885,0,0
0:5:19.516,1342.08,75.9458,0,0.000885,0,0
0:5:19.909,1344.48,76.0836,0,0.000885,0,0
0:5:20.309,1346.13,76.1733,0,0.000885,0,0
0:5:20.708,1347.6,76.256,0,0.000885,0,0
0:5:21.103,1350.36,76.4146,0,0.000885,0,0
0:5:21.499,1351.82,76.4973,0,0.000885,0,0
0:5:21.906,1353.58,76.5939,0,0.000885,0,0
0:5:22.307,1355.7,76.718,0,0.000885,0,0
0:5:22.711,1356.81,76.78,0,0.000885,0,0
0:5:23.114,1358.16,76.8559,0,0.000885,0,0
0:5:23.516,1360.16,76.9662,0,0.000885,0,0
0:5:23.916,1361.8,77.0627,0,0.000885,0,0
0:5:24.314,1363.56,77.1592,0,0.000885,0,0
0:5:24.712,1365.62,77.2764,0,0.000885,0,0
0:5:25.106,1367.49,77.3868,0,0.000885,0,0
0:5:25.503,1369.26,77.4833,0,0.000885,0,0
0:5:25.903,1370.78,77.5729,0,0.000885,0,0
0:5:26.302,1372.31,77.6557,0,0.000885,0,0
0:5:26.708,1374.18,77.766,0,0.000885,0,0
0:5:27.103,1376.12,77.8694,0,0.000885,0,0
0:5:27.507,1378.29,77.9935,0,0.000885,0,0
0:5:27.912,1380.11,78.0969,0,0.000885,0,0
0:5:28.314,1381.93,78.2003,0,0.000885,0,0
0:5:28.717,1383.52,78.29,0,0.000885,0,0
0:5:29.114,1384.93,78.3727,0,0.000885,0,0
0:5:29.512,1387.1,78.4968,0,0.000885,0,0
0:5:29.911,1388.57,78.5795,0,0.000885,0,0
0:5:30.307,1390.56,78.6899,0,0.000885,0,0
0:5:30.701,1392.32,78.7864,0,0.000885,0,0
0:5:31.101,1394.14,78.8898,0,0.000885,0,0
0:5:31.496,1395.67,78.9794,0,0.000885,0,0
0:5:31.894,1397.37,79.076,0,0.000885,0,0
0:5:32.301,1399.25,79.1794,0,0.000885,0,0
0:5:32.704,1400.9,79.2759,0,0.000885,0,0
0:5:33.107,1402.36,79.3587,0,0.000885,0,0
0:5:33.509,1404.06,79.4552,0,0.000885,0,0
0:5:33.906,1405.77,79.5517,0,0.000885,0,0
0:5:34.303,1407.82,79.6689,0,0.000885,0,0
0:5:34.696,1409.7,79.7723,0,0.000885,0,0
0:5:35.096,1411.58,79.8758,0,0.000885,0,0
0:5:35.507,1413.57,79.993,0,0.000885,0,0
0:5:35.902,1415.51,80.1033,0,0.000885,0,0
0:5:36.296,1416.68,80.1653,0,0.000885,0,0
0:5:36.692,1418.92,80.2963,0,0.000885,0,0
0:5:37.095,1420.56,80.386,0,0.000885,0,0
0:5:37.502,1422.73,80.5101,0,0.000885,0,0
0:5:37.905,1424.26,80.5997,0,0.000885,0,0
0:5:38.307,1425.78,80.6824,0,0.000885,0,0
0:5:38.705,1427.25,80.7652,0,0.000885,0,0
0:5:39.104,1428.95,80.8617,0,0.000885,0,0
0:5:39.501,1431.42,80.9996,0,0.000885,0,0
0:5:39.896,1433.12,81.0961,0,0.000885,0,0
0:5:40.289,1433.76,81.1375,0,0.000885,0,0
0:5:40.690,1435.88,81.2547,0,0.000885,0,0
0:5:41.100,1438.05,81.3788,0,0.000885,0,0
0:5:41.495,1439.93,81.4822,0,0.000885,0,0
0:5:41.891,1441.46,81.5719,0,0.000885,0,0
0:5:42.296,1443.04,81.6615,0,0.000885,0,0
0:5:42.703,1445.04,81.7718,0,0.000885,0,0
0:5:43.104,1446.91,81.8752,0,0.000885,0,0
0:5:43.508,1448.91,81.9925,0,0.000885,0,0
0:5:43.904,1450.61,82.089,0,0.000885,0,0
0:5:44.309,1452.55,82.1993,0,0.000885,0,0
0:5:44.709,1453.67,82.2613,0,0.000885,0,0
0:5:45.107,1455.37,82.3579,0,0.000885,0,0
0:5:45.502,1457.25,82.4613,0,0.000885,0,0
0:5:45.896,1459.3,82.5785,0,0.000885,0,0
0:5:46.306,1461,82.675,0,0.000885,0,0
0:5:46.704,1463.06,82.7922,0,0.000885,0,0
0:5:47.103,1465,82.9026,0,0.000885,0,0
0:5:47.508,1466.93,83.0129,0,0.000885,0,0
0:5:47.912,1468.46,83.0956,0,0.000885,0,0
0:5:48.314,1469.98,83.1852,0,0.000885,0,0
0:5:48.716,1472.33,83.3162,0,0.000885,0,0
0:5:49.114,1473.74,83.399,0,0.000885,0,0
0:5:49.509,1475.44,83.4955,0,0.000885,0,0
0:5:49.904,1476.26,83.5369,0,0.000885,0,0
0:5:50.304,1478.44,83.661,0,0.000885,0,0
0:5:50.703,1480.2,83.7644,0,0.000885,0,0
0:5:51.096,1482.44,83.8885,0,0.000885,0,0
0:5:51.493,1484.14,83.985,0,0.000885,0,0
0:5:51.898,1485.79,84.0816,0,0.000885,0,0
0:5:52.302,1487.56,84.1781,0,0.000885,0,0
0:5:52.708,1489.44,84.2884,0,0.000885,0,0
0:5:53.110,1491.39,84.3987,0,0.000885,0,0
0:5:53.512,1493.33,84.5021,0,0.000885,0,0
0:5:53.911,1494.57,84.578,0,0.000885,0,0
0:5:54.311,1499.04,84.8262,0,0.000885,0,0
0:5:54.708,1499.75,84.8676,0,0.000885,0,0
0:5:55.102,1500.46,84.9089,0,0.000885,0,0
0:5:55.496,1501.28,84.9572,0,0.000885,0,0
0:5:55.907,1503.34,85.0744,0,0.000885,0,0
0:5:56.305,1504.64,85.1434,0,0.000885,0,0
0:5:56.702,1506.93,85.2744,0,0.000885,0,0
0:5:57.094,1508.7,85.3778,0,0.000885,0,0
0:5:57.497,1510.64,85.4881,0,0.000885,0,0
0:5:57.905,1512.88,85.6122,0,0.000885,0,0
0:5:58.308,1514.53,85.7018,0,0.000885,0,0
0:5:58.710,1516.35,85.8053,0,0.000885,0,0
0:5:59.104,1518.36,85.9225,0,0.000885,0,0
0:5:59.503,1518.89,85.95,0,0.000885,0,0
0:5:59.903,1520.59,86.0466,0,0.000885,0,0
0:6:0.296,1522.89,86.1776,0,0.000885,0,0
0:6:0.692,1524.54,86.2741,0,0.000885,0,0
0:6:1.089,1526.36,86.3775,0,0.000885,0,0
0:6:1.488,1528.19,86.4809,0,0.000885,0,0
0:6:1.906,1529.78,86.5706,0,0.000885,0,0
0:6:2.312,1531.54,86.6671,0,0.000885,0,0
0:6:2.715,1533.37,86.7705,0,0.000885,0,0
0:6:3.117,1535.2,86.8739,0,0.000885,0,0
0:6:3.518,1537.02,86.9774,0,0.000885,0,0
0:6:3.914,1538.85,87.0808,0,0.000885,0,0
0:6:4.311,1540.67,87.1842,0,0.000885,0,0
0:6:4.708,1542.44,87.2876,0,0.000885,0,0
0:6:5.108,1543.91,87.3704,0,0.000885,0,0
0:6:5.504,1545.8,87.4738,0,0.000885,0,0
0:6:5.897,1547.51,87.5703,0,0.000885,0,0
0:6:6.305,1549.8,87.7013,0,0.000885,0,0
0:6:6.704,1551.51,87.7978,0,0.000885,0,0
0:6:7.103,1552.98,87.8806,0,0.000885,0,0
0:6:7.509,1554.75,87.984,0,0.000885,0,0
0:6:7.913,1556.81,88.0943,0,0.000885,0,0
0:6:8.315,1558.75,88.2046,0,0.000885,0,0
0:6:8.717,1560.16,88.2874,0,0.000885,0,0
0:6:9.114,1562.22,88.4046,0,0.000885,0,0
0:6:9.509,1563.17,88.4597,0,0.000885,0,0
0:6:9.904,1565.05,88.5632,0,0.000885,0,0
0:6:10.304,1566.7,88.6597,0,0.000885,0,0
0:6:10.703,1568.59,88.7631,0,0.000885,0,0
0:6:11.096,1570.52,88.8734,0,0.000885,0,0
0:6:11.500,1572.82,89.0044,0,0.000885,0,0
0:6:11.899,1573.94,89.0665,0,0.000885,0,0
0:6:12.297,1575.3,89.1423,0,0.000885,0,0
0:6:12.705,1577.77,89.2802,0,0.000885,0,0
0:6:13.108,1579.48,89.3767,0,0.000885,0,0
0:6:13.510,1580.77,89.4526,0,0.000885,0,0
0:6:13.912,1583.18,89.5905,0,0.000885,0,0
0:6:14.311,1584.66,89.6732,0,0.000885,0,0
0:6:14.707,1587.19,89.818,0,0.000885,0,0
0:6:15.099,1588.66,89.9007,0,0.000885,0,0
0:6:15.499,1589.96,89.9766,0,0.000885,0,0
0:6:15.898,1591.9,90.08,0,0.000885,0,0
0:6:16.294,1593.9,90.1972,0,0.000885,0,0
0:6:16.690,1595.96,90.3144,0,0.000885,0,0
0:6:17.094,1597.67,90.411,0,0.000885,0,0
0:6:17.498,1599.14,90.4937,0,0.000885,0,0
0:6:17.900,1600.73,90.5833,0,0.000885,0,0
0:6:18.305,1601.62,90.6316,0,0.000885,0,0
0:6:18.698,1603.56,90.7419,0,0.000885,0,0
0:6:19.107,1605.56,90.8591,0,0.000885,0,0
0:6:19.506,1607.51,90.9694,0,0.000885,0,0
0:6:19.912,1609.04,91.0522,0,0.000885,0,0
0:6:20.308,1610.8,91.1556,0,0.000885,0,0
0:6:20.704,1612.75,91.2659,0,0.000885,0,0
0:6:21.105,1614.51,91.3624,0,0.000885,0,0
0:6:21.501,1616.75,91.4865,0,0.000885,0,0
0:6:21.905,1618.81,91.6037,0,0.000885,0,0
0:6:22.310,1620.4,91.6934,0,0.000885,0,0
0:6:22.714,1622.4,91.8106,0,0.000885,0,0
0:6:23.116,1623.7,91.8795,0,0.000885,0,0
0:6:23.518,1625.41,91.9761,0,0.000885,0,0
0:6:23.915,1626.99,92.0657,0,0.000885,0,0
0:6:24.311,1628.7,92.1691,0,0.000885,0,0
0:6:24.709,1630.47,92.2656,0,0.000885,0,0
0:6:25.108,1632.41,92.376,0,0.000885,0,0
0:6:25.513,1634.24,92.4794,0,0.000885,0,0
0:6:25.907,1635.59,92.5552,0,0.000885,0,0
0:6:26.307,1637.95,92.6862,0,0.000885,0,0
0:6:26.705,1639.71,92.7896,0,0.000885,0,0
0:6:27.097,1641.54,92.8931,0,0.000885,0,0
0:6:27.501,1642.95,92.9689,0,0.000885,0,0
0:6:27.906,1644.49,93.0585,0,0.000885,0,0
0:6:28.309,1645.84,93.1344,0,0.000885,0,0
0:6:28.711,1646.78,93.1895,0,0.000885,0,0
0:6:29.107,1648.43,93.2792,0,0.000885,0,0
0:6:29.501,1650.84,93.4171,0,0.000885,0,0
0:6:29.899,1653.08,93.5481,0,0.000885,0,0
0:6:30.298,1655.08,93.6584,0,0.000885,0,0
0:6:30.707,1657.02,93.7687,0,0.000885,0,0
0:6:31.099,1659.09,93.8859,0,0.000885,0,0
0:6:31.496,1661.03,93.9962,0,0.000885,0,0
0:6:31.896,1663.27,94.1203,0,0.000885,0,0
0:6:32.292,1664.68,94.2031,0,0.000885,0,0
0:6:32.697,1665.97,94.272,0,0.000885,0,0
0:6:33.100,1667.74,94.3754,0,0.000885,0,0
0:6:33.502,1669.51,94.472,0,0.000885,0,0
0:6:33.908,1671.1,94.5616,0,0.000885,0,0
0:6:34.301,1672.57,94.6512,0,0.000885,0,0
0:6:34.695,1673.39,94.6926,0,0.000885,0,0
0:6:35.102,1674.99,94.7822,0,0.000885,0,0
0:6:35.501,1677.16,94.9063,0,0.000885,0,0
0:6:35.898,1679.76,95.058,0,0.000885,0,0
0:6:36.294,1681.87,95.1752,0,0.000885,0,0
0:6:36.688,1683.7,95.2787,0,0.000885,0,0
0:6:37.090,1686.12,95.4165,0,0.000885,0,0
0:6:37.496,1687.35,95.4855,0,0.000885,0,0
0:6:37.900,1689.12,95.582,0,0.000885,0,0
0:6:38.302,1691.12,95.6992,0,0.000885,0,0
0:6:38.700,1692.71,95.7889,0,0.000885,0,0
0:6:39.098,1695,95.9199,0,0.000885,0,0
0:6:39.496,1696.48,96.0026,0,0.000885,0,0
0:6:39.890,1697.42,96.0509,0,0.000885,0,0
0:6:40.287,1699.54,96.175,0,0.000885,0,0
0:6:40.695,1700.95,96.2508,0,0.000885,0,0
0:6:41.093,1702.95,96.368,0,0.000885,0,0
0:6:41.499,1704.78,96.4714,0,0.000885,0,0
0:6:41.894,1706.78,96.5818,0,0.000885,0,0
0:6:42.297,1708.84,96.699,0,0.000885,0,0
0:6:42.704,1710.43,96.7886,0,0.000885,0,0
0:6:43.107,1712.49,96.9058,0,0.000885,0,0
0:6:43.508,1714.26,97.0092,0,0.000885,0,0
0:6:43.902,1716.44,97.1333,0,0.000885,0,0
0:6:44.301,1718.26,97.2368,0,0.000885,0,0
0:6:44.713,1720.03,97.3333,0,0.000885,0,0
0:6:45.117,1721.5,97.416,0,0.000885,0,0
0:6:45.512,1722.97,97.4988,0,0.000885,0,0
0:6:45.908,1724.8,97.6022,0,0.000885,0,0
0:6:46.308,1726.92,97.7263,0,0.000885,0,0
0:6:46.703,1728.1,97.7883,0,0.000885,0,0
0:6:47.097,1730.22,97.9124,0,0.000885,0,0
0:6:47.500,1731.39,97.9745,0,0.000885,0,0
0:6:47.907,1733.16,98.0779,0,0.000885,0,0
0:6:48.310,1734.69,98.1607,0,0.000885,0,0
0:6:48.712,1735.75,98.2227,0,0.000885,0,0
0:6:49.108,1737.81,98.3399,0,0.000885,0,0
0:6:49.503,1739.76,98.4502,0,0.000885,0,0
0:6:49.903,1741.58,98.5537,0,0.000885,0,0
0:6:50.301,1743.29,98.6502,0,0.000885,0,0
0:6:50.704,1745.53,98.7743,0,0.000885,0,0
0:6:51.111,1747.53,98.8915,0,0.000885,0,0
0:6:51.511,1749.65,99.0087,0,0.000885,0,0
0:6:51.908,1751.18,99.0983,0,0.000885,0,0
0:6:52.314,1752.71,99.1811,0,0.000885,0,0
0:6:52.718,1754.48,99.2845,0,0.000885,0,0
0:6:53.119,1753.83,99.2431,0,0.000885,0,0
0:6:53.520,1754.13,99.2638,0,0.000885,0,0
0:6:53.916,1756.83,99.4155,0,0.000885,0,0
0:6:54.312,1759.95,99.5948,0,0.000885,0,0
0:6:54.708,1762.66,99.7465,0,0.000885,0,0
0:6:55.105,1765.84,99.9257,0,0.000885,0,0
0:6:55.504,1768.37,100.071,0,0.000885,0,0
0:6:55.897,1769.14,100.112,0,0.000885,0,0
0:6:56.294,1770.97,100.215,0,0.000885,0,0
0:6:56.699,1773.08,100.339,0,0.000885,0,0
0:6:57.097,1774.5,100.415,0,0.000885,0,0
0:6:57.503,1776.09,100.505,0,0.000885,0,0
0:6:57.905,1777.74,100.601,0,0.000885,0,0
0:6:58.310,1779.32,100.691,0,0.000885,0,0
0:6:58.710,1781.03,100.788,0,0.000885,0,0
0:6:59.110,1781.86,100.836,0,0.000885,0,0
0:6:59.503,1783.92,100.946,0,0.000885,0,0
0:6:59.905,1704.19,96.437,0,0.000885,0,0
0:7:0.303,1660.97,93.9893,0,0.000885,0,0
0:7:0.701,1449.15,82.0062,0,0.000885,0,0
0:7:1.097,1269.23,71.8227,0,0.000885,0,0
0:7:1.491,1250.86,70.7816,0,0.000885,0,0
0:7:1.582,1250.86,70.7816,0,0.000885,0,0