File: DataFile2021-06-08_033311.csv
Test ID:,Date Tested:,Time:,Test Type:,Diameter Avg. (mm):,Cyl. Corr. Factor:,Height (mm):,Age (days):,Weight (kN):,Break Type:,Ramp Rate (MPa/s):,Load at Break (kN):,Stress at Break (MPa):
12,6/8/2021,03:33,Cylinder,100,1,200,0,3.6,3,0.24,674.9,85.93
Sample Time,Load (kN),Stress (MPa),Long. Strain,Trans. Strain,Chan1 Deflection (mm),Chan2 Deflection (mm)
0:0:12.146,6.80133,0.868739,0,0.000885,0,0
0:0:12.440,6.15634,0.786002,0,0.000885,0,0
0:0:12.737,8.44717,1.07558,0,0.000885,0,0
0:0:13.036,10.1464,1.28932,0,0.000885,0,0
0:0:13.332,9.5014,1.20658,0,0.000885,0,0
0:0:13.631,9.67933,1.23416,0,0.000885,0,0
0:0:13.937,9.44357,1.19969,0,0.000885,0,0
0:0:14.234,9.20782,1.17211,0,0.000885,0,0
0:0:14.546,9.91064,1.26174,0,0.000885,0,0
0:0:14.836,9.79498,1.24795,0,0.000885,0,0
0:0:15.138,9.55923,1.22037,0,0.000885,0,0
0:0:15.446,10.6757,1.35827,0,0.000885,0,0
0:0:15.745,11.9079,1.51685,0,0.000885,0,0
0:0:16.053,12.0814,1.53753,0,0.000885,0,0
0:0:16.349,12.6107,1.60648,0,0.000885,0,0
0:0:16.651,13.3714,1.70301,0,0.000885,0,0
0:0:16.941,13.9007,1.77195,0,0.000885,0,0
0:0:17.241,14.7192,1.87537,0,0.000885,0,0
0:0:17.539,15.1328,1.92364,0,0.000885,0,0
0:0:17.842,16.3027,2.07532,0,0.000885,0,0
0:0:18.148,15.8935,2.02706,0,0.000885,0,0
0:0:18.452,17.8285,2.26838,0,0.000885,0,0
0:0:18.753,18.3578,2.33732,0,0.000885,0,0
0:0:19.055,18.7092,2.38559,0,0.000885,0,0
0:0:19.353,19.412,2.47522,0,0.000885,0,0
0:0:19.653,19.9992,2.54417,0,0.000885,0,0
0:0:19.949,20.9378,2.66827,0,0.000885,0,0
0:0:20.252,21.5828,2.75101,0,0.000885,0,0
0:0:20.546,22.2278,2.82685,0,0.000885,0,0
0:0:20.849,22.6993,2.8889,0,0.000885,0,0
0:0:21.146,23.7535,3.0268,0,0.000885,0,0
0:0:21.440,23.5177,2.99232,0,0.000885,0,0
0:0:21.740,24.3407,3.09575,0,0.000885,0,0
0:0:22.037,24.6343,3.13711,0,0.000885,0,0
0:0:22.339,25.3371,3.22675,0,0.000885,0,0
0:0:22.647,26.0977,3.32327,0,0.000885,0,0
0:0:22.950,26.6849,3.39912,0,0.000885,0,0
0:0:23.253,27.272,3.47496,0,0.000885,0,0
0:0:23.556,27.7436,3.53012,0,0.000885,0,0
0:0:23.857,28.3263,3.60596,0,0.000885,0,0
0:0:24.153,28.9713,3.6887,0,0.000885,0,0
0:0:24.453,29.207,3.71627,0,0.000885,0,0
0:0:24.751,29.7364,3.78522,0,0.000885,0,0
0:0:25.050,30.4392,3.87485,0,0.000885,0,0
0:0:25.351,31.4356,4.00585,0,0.000885,0,0
0:0:25.643,31.9649,4.06791,0,0.000885,0,0
0:0:25.949,32.2007,4.10238,0,0.000885,0,0
0:0:26.253,32.6099,4.15064,0,0.000885,0,0
0:0:26.552,33.3127,4.24028,0,0.000885,0,0
0:0:26.851,34.0778,4.3368,0,0.000885,0,0
0:0:27.149,34.9541,4.45401,0,0.000885,0,0
0:0:27.449,35.2477,4.48849,0,0.000885,0,0
0:0:27.754,35.8927,4.57122,0,0.000885,0,0
0:0:28.060,36.8891,4.69533,0,0.000885,0,0
0:0:28.362,37.4184,4.76428,0,0.000885,0,0
0:0:28.666,38.2414,4.8677,0,0.000885,0,0
0:0:28.968,38.2414,4.8677,0,0.000885,0,0
0:0:29.264,38.8864,4.95044,0,0.000885,0,0
0:0:29.565,39.3534,5.01249,0,0.000885,0,0
0:0:29.860,40.2342,5.1228,0,0.000885,0,0
0:0:30.160,40.5277,5.15728,0,0.000885,0,0
0:0:30.460,40.9948,5.21933,0,0.000885,0,0
0:0:30.756,41.8177,5.32275,0,0.000885,0,0
0:0:31.058,42.3471,5.3917,0,0.000885,0,0
0:0:31.354,42.7563,5.44686,0,0.000885,0,0
0:0:31.655,43.3435,5.51581,0,0.000885,0,0
0:0:31.951,44.1619,5.62612,0,0.000885,0,0
0:0:32.250,45.0427,5.73644,0,0.000885,0,0
0:0:32.551,45.1005,5.74333,0,0.000885,0,0
0:0:32.857,45.8078,5.83296,0,0.000885,0,0
0:0:33.160,46.1014,5.86744,0,0.000885,0,0
0:0:33.464,47.0978,5.99844,0,0.000885,0,0
0:0:33.766,47.507,6.0467,0,0.000885,0,0
0:0:34.069,48.152,6.12944,0,0.000885,0,0
0:0:34.364,48.797,6.21218,0,0.000885,0,0
0:0:34.667,49.3842,6.28802,0,0.000885,0,0
0:0:34.962,50.1448,6.38455,0,0.000885,0,0
0:0:35.262,50.9677,6.48797,0,0.000885,0,0
0:0:35.560,51.6127,6.5707,0,0.000885,0,0
0:0:35.858,52.1999,6.64655,0,0.000885,0,0
0:0:36.158,52.1999,6.64655,0,0.000885,0,0
0:0:36.452,52.4356,6.67413,0,0.000885,0,0
0:0:36.755,53.7834,6.84649,0,0.000885,0,0
0:0:37.051,54.3706,6.92234,0,0.000885,0,0
0:0:37.349,54.9533,6.99818,0,0.000885,0,0
0:0:37.658,55.6606,7.08781,0,0.000885,0,0
0:0:37.959,55.7184,7.09471,0,0.000885,0,0
0:0:38.264,56.3056,7.17055,0,0.000885,0,0
0:0:38.567,57.0662,7.26707,0,0.000885,0,0
0:0:38.871,57.7112,7.34981,0,0.000885,0,0
0:0:39.174,58.8856,7.4946,0,0.000885,0,0
0:0:39.471,58.7699,7.48081,0,0.000885,0,0
0:0:39.772,59.1791,7.53597,0,0.000885,0,0
0:0:40.069,59.6462,7.59113,0,0.000885,0,0
0:0:40.371,60.7627,7.73592,0,0.000885,0,0
0:0:40.668,61.5812,7.83934,0,0.000885,0,0
0:0:40.969,61.9949,7.8945,0,0.000885,0,0
0:0:41.268,62.4041,7.94276,0,0.000885,0,0
0:0:41.564,63.3427,8.06687,0,0.000885,0,0
0:0:41.865,63.872,8.12892,0,0.000885,0,0
0:0:42.160,63.8097,8.12202,0,0.000885,0,0
0:0:42.462,64.8684,8.25992,0,0.000885,0,0
0:0:42.768,65.3355,8.32197,0,0.000885,0,0
0:0:43.071,65.6291,8.35645,0,0.000885,0,0
0:0:43.375,66.8612,8.51503,0,0.000885,0,0
0:0:43.678,67.4484,8.59087,0,0.000885,0,0
0:0:43.979,67.6841,8.61845,0,0.000885,0,0
0:0:44.278,68.5604,8.72876,0,0.000885,0,0
0:0:44.576,68.9741,8.78392,0,0.000885,0,0
0:0:44.874,69.3255,8.82529,0,0.000885,0,0
0:0:45.170,69.3834,8.83218,0,0.000885,0,0
0:0:45.473,70.3219,8.95629,0,0.000885,0,0
0:0:45.766,70.4999,8.97697,0,0.000885,0,0
0:0:46.067,71.9055,9.15624,0,0.000885,0,0
0:0:46.365,72.4927,9.23208,0,0.000885,0,0
0:0:46.662,73.4312,9.34929,0,0.000885,0,0
0:0:46.963,73.5469,9.36308,0,0.000885,0,0
0:0:47.258,74.2497,9.45271,0,0.000885,0,0
0:0:47.561,75.1305,9.56303,0,0.000885,0,0
0:0:47.865,74.7791,9.52166,0,0.000885,0,0
0:0:48.170,75.8956,9.66645,0,0.000885,0,0
0:0:48.472,76.1891,9.70092,0,0.000885,0,0
0:0:48.775,76.4204,9.7285,0,0.000885,0,0
0:0:49.079,77.8884,9.91466,0,0.000885,0,0
0:0:49.372,78.1819,9.95603,0,0.000885,0,0
0:0:49.674,78.8848,10.0457,0,0.000885,0,0
0:0:49.971,79.7077,10.1491,0,0.000885,0,0
0:0:50.269,79.939,10.1767,0,0.000885,0,0
0:0:50.568,80.9398,10.3077,0,0.000885,0,0
0:0:50.863,81.1133,10.3283,0,0.000885,0,0
0:0:51.164,81.7583,10.4111,0,0.000885,0,0
0:0:51.461,82.1097,10.4525,0,0.000885,0,0
0:0:51.761,83.3997,10.6179,0,0.000885,0,0
0:0:52.059,83.6933,10.6593,0,0.000885,0,0
0:0:52.354,83.8134,10.6731,0,0.000885,0,0
0:0:52.656,84.9254,10.811,0,0.000885,0,0
0:0:52.961,85.4548,10.8799,0,0.000885,0,0
0:0:53.265,86.3934,10.9971,0,0.000885,0,0
0:0:53.568,86.2733,10.9833,0,0.000885,0,0
0:0:53.871,87.2118,11.1075,0,0.000885,0,0
0:0:54.174,87.9191,11.1971,0,0.000885,0,0
0:0:54.469,88.0926,11.2178,0,0.000885,0,0
0:0:54.772,88.7954,11.3074,0,0.000885,0,0
0:0:55.069,89.9119,11.4453,0,0.000885,0,0
0:0:55.368,89.9697,11.4522,0,0.000885,0,0
0:0:55.666,90.9661,11.5832,0,0.000885,0,0
0:0:55.962,91.1441,11.6039,0,0.000885,0,0
0:0:56.264,91.7312,11.6797,0,0.000885,0,0
0:0:56.557,92.2561,11.7487,0,0.000885,0,0
0:0:56.860,92.9011,11.8314,0,0.000885,0,0
0:0:57.156,93.8975,11.9555,0,0.000885,0,0
0:0:57.460,94.4847,12.0314,0,0.000885,0,0
0:0:57.765,94.7204,12.0589,0,0.000885,0,0
0:0:58.068,95.014,12.1003,0,0.000885,0,0
0:0:58.371,95.9526,12.2175,0,0.000885,0,0
0:0:58.674,97.0068,12.3485,0,0.000885,0,0
0:0:58.971,97.5362,12.4175,0,0.000885,0,0
0:0:59.272,98.1811,12.5002,0,0.000885,0,0
0:0:59.566,98.1811,12.5002,0,0.000885,0,0
0:0:59.869,99.0041,12.6036,0,0.000885,0,0
0:1:0.164,100.116,12.7484,0,0.000885,0,0
0:1:0.465,100.294,12.7691,0,0.000885,0,0
0:1:0.762,100.819,12.838,0,0.000885,0,0
0:1:1.060,101.113,12.8725,0,0.000885,0,0
0:1:1.361,101.642,12.9415,0,0.000885,0,0
0:1:1.654,102.403,13.038,0,0.000885,0,0
0:1:1.957,102.754,13.0862,0,0.000885,0,0
0:1:2.252,102.874,13.1,0,0.000885,0,0
0:1:2.556,104.044,13.2448,0,0.000885,0,0
0:1:2.862,105.218,13.3965,0,0.000885,0,0
0:1:3.166,105.627,13.4517,0,0.000885,0,0
0:1:3.468,106.393,13.5482,0,0.000885,0,0
0:1:3.769,106.566,13.5689,0,0.000885,0,0
0:1:4.070,107.038,13.6309,0,0.000885,0,0
0:1:4.368,107.447,13.6792,0,0.000885,0,0
0:1:4.664,108.795,13.8516,0,0.000885,0,0
0:1:4.965,109.088,13.8929,0,0.000885,0,0
0:1:5.259,109.502,13.9412,0,0.000885,0,0
0:1:5.561,109.56,13.9481,0,0.000885,0,0
0:1:5.858,110.44,14.0584,0,0.000885,0,0
0:1:6.154,110.734,14.0998,0,0.000885,0,0
0:1:6.454,111.317,14.1756,0,0.000885,0,0
0:1:6.751,112.549,14.3273,0,0.000885,0,0
0:1:7.053,113.314,14.4307,0,0.000885,0,0
0:1:7.357,113.545,14.4583,0,0.000885,0,0
0:1:7.660,114.955,14.6376,0,0.000885,0,0
0:1:7.965,114.604,14.5893,0,0.000885,0,0
0:1:8.267,115.071,14.6514,0,0.000885,0,0
0:1:8.571,115.6,14.7203,0,0.000885,0,0
0:1:8.872,116.067,14.7755,0,0.000885,0,0
0:1:9.173,117.42,14.9478,0,0.000885,0,0
0:1:9.472,117.478,14.9547,0,0.000885,0,0
0:1:9.769,118.296,15.065,0,0.000885,0,0
0:1:10.070,119.119,15.1685,0,0.000885,0,0
0:1:10.365,119.297,15.1892,0,0.000885,0,0
0:1:10.665,120.058,15.2857,0,0.000885,0,0
0:1:10.965,120.409,15.3339,0,0.000885,0,0
0:1:11.261,120.818,15.3822,0,0.000885,0,0
0:1:11.562,121.463,15.4649,0,0.000885,0,0
0:1:11.858,121.819,15.5132,0,0.000885,0,0
0:1:12.158,122.931,15.6511,0,0.000885,0,0
0:1:12.456,123.754,15.7545,0,0.000885,0,0
0:1:12.759,124.221,15.8166,0,0.000885,0,0
0:1:13.064,124.341,15.8304,0,0.000885,0,0
0:1:13.368,126.04,16.051,0,0.000885,0,0
0:1:13.669,126.392,16.0924,0,0.000885,0,0
0:1:13.972,126.859,16.1544,0,0.000885,0,0
0:1:14.270,127.273,16.2027,0,0.000885,0,0
0:1:14.571,128.091,16.3061,0,0.000885,0,0
0:1:14.865,127.86,16.2785,0,0.000885,0,0
0:1:15.167,128.678,16.3819,0,0.000885,0,0
0:1:15.462,129.265,16.4578,0,0.000885,0,0
0:1:15.761,130.088,16.5612,0,0.000885,0,0
0:1:16.060,130.849,16.6577,0,0.000885,0,0
0:1:16.357,131.378,16.7267,0,0.000885,0,0
0:1:16.660,132.081,16.8163,0,0.000885,0,0
0:1:16.954,132.726,16.8991,0,0.000885,0,0
0:1:17.255,133.255,16.968,0,0.000885,0,0
0:1:17.553,133.371,16.9818,0,0.000885,0,0
0:1:17.856,133.371,16.9818,0,0.000885,0,0
0:1:18.163,135.248,17.2231,0,0.000885,0,0
0:1:18.464,135.484,17.2507,0,0.000885,0,0
0:1:18.766,136.071,17.3265,0,0.000885,0,0
0:1:19.070,136.832,17.4231,0,0.000885,0,0
0:1:19.368,137.01,17.4437,0,0.000885,0,0
0:1:19.670,137.655,17.5265,0,0.000885,0,0
0:1:19.965,138.415,17.623,0,0.000885,0,0
0:1:20.266,139.296,17.7333,0,0.000885,0,0
0:1:20.564,139.527,17.7678,0,0.000885,0,0
0:1:20.859,140.35,17.8712,0,0.000885,0,0
0:1:21.160,140.528,17.8919,0,0.000885,0,0
0:1:21.455,141.111,17.9677,0,0.000885,0,0
0:1:21.758,142.112,18.0918,0,0.000885,0,0
0:1:22.054,142.637,18.1608,0,0.000885,0,0
0:1:22.353,142.521,18.147,0,0.000885,0,0
0:1:22.654,143.633,18.2849,0,0.000885,0,0
0:1:22.956,143.811,18.3125,0,0.000885,0,0
0:1:23.262,145.746,18.5538,0,0.000885,0,0
0:1:23.563,146.04,18.5952,0,0.000885,0,0
0:1:23.866,145.452,18.5193,0,0.000885,0,0
0:1:24.168,145.924,18.5814,0,0.000885,0,0
0:1:24.462,146.511,18.6572,0,0.000885,0,0
0:1:24.766,147.272,18.7537,0,0.000885,0,0
0:1:25.061,147.801,18.8158,0,0.000885,0,0
0:1:25.361,148.384,18.8916,0,0.000885,0,0
0:1:25.660,149.5,19.0364,0,0.000885,0,0
0:1:25.957,149.967,19.0916,0,0.000885,0,0
0:1:26.259,150.323,19.1398,0,0.000885,0,0
0:1:26.549,150.968,19.2226,0,0.000885,0,0
0:1:26.854,151.2,19.2502,0,0.000885,0,0
0:1:27.146,151.551,19.2984,0,0.000885,0,0
0:1:27.453,152.961,19.4777,0,0.000885,0,0
0:1:27.759,153.722,19.5742,0,0.000885,0,0
0:1:28.061,154.251,19.6432,0,0.000885,0,0
0:1:28.362,154.896,19.719,0,0.000885,0,0
0:1:28.665,155.599,19.8086,0,0.000885,0,0
0:1:28.964,155.892,19.85,0,0.000885,0,0
0:1:29.263,156.302,19.8983,0,0.000885,0,0
0:1:29.558,156.657,19.9465,0,0.000885,0,0
0:1:29.860,157.418,20.0431,0,0.000885,0,0
0:1:30.155,159.117,20.2568,0,0.000885,0,0
0:1:30.455,157.476,20.05,0,0.000885,0,0
0:1:30.760,159.06,20.2499,0,0.000885,0,0
0:1:31.059,159.237,20.2775,0,0.000885,0,0
0:1:31.358,160.292,20.4085,0,0.000885,0,0
0:1:31.653,161.697,20.5877,0,0.000885,0,0
0:1:31.955,162.227,20.6567,0,0.000885,0,0
0:1:32.261,162.929,20.7463,0,0.000885,0,0
0:1:32.563,163.459,20.8153,0,0.000885,0,0
0:1:32.869,163.223,20.7808,0,0.000885,0,0
0:1:33.171,164.046,20.8842,0,0.000885,0,0
0:1:33.475,164.575,20.9532,0,0.000885,0,0
0:1:33.777,165.336,21.0497,0,0.000885,0,0
0:1:34.080,166.275,21.1738,0,0.000885,0,0
0:1:34.376,166.92,21.2496,0,0.000885,0,0
0:1:34.675,167.329,21.3048,0,0.000885,0,0
0:1:34.975,167.387,21.3117,0,0.000885,0,0
0:1:35.270,168.387,21.4427,0,0.000885,0,0
0:1:35.573,169.032,21.5185,0,0.000885,0,0
0:1:35.868,169.851,21.6289,0,0.000885,0,0
0:1:36.167,170.029,21.6495,0,0.000885,0,0
0:1:36.466,170.789,21.7461,0,0.000885,0,0
0:1:36.762,171.728,21.8633,0,0.000885,0,0
0:1:37.063,171.492,21.8357,0,0.000885,0,0
0:1:37.358,172.431,21.9529,0,0.000885,0,0
0:1:37.662,173.018,22.0287,0,0.000885,0,0
0:1:37.965,173.369,22.077,0,0.000885,0,0
0:1:38.269,175.011,22.2839,0,0.000885,0,0
0:1:38.571,175.834,22.3873,0,0.000885,0,0
0:1:38.874,174.659,22.2356,0,0.000885,0,0
0:1:39.175,176.537,22.4769,0,0.000885,0,0
0:1:39.472,176.772,22.5045,0,0.000885,0,0
0:1:39.772,176.888,22.5252,0,0.000885,0,0
0:1:40.071,177.475,22.5941,0,0.000885,0,0
0:1:40.366,177.769,22.6355,0,0.000885,0,0
0:1:40.668,178.534,22.732,0,0.000885,0,0
0:1:40.964,179.824,22.8975,0,0.000885,0,0
0:1:41.265,180.411,22.9733,0,0.000885,0,0
0:1:41.561,180.642,23.0009,0,0.000885,0,0
0:1:41.861,182.11,23.1871,0,0.000885,0,0
0:1:42.159,183.164,23.3181,0,0.000885,0,0
0:1:42.455,183.164,23.3181,0,0.000885,0,0
0:1:42.756,183.867,23.4077,0,0.000885,0,0
0:1:43.060,184.806,23.5318,0,0.000885,0,0
0:1:43.364,184.512,23.4904,0,0.000885,0,0
0:1:43.666,185.629,23.6352,0,0.000885,0,0
0:1:43.967,185.513,23.6214,0,0.000885,0,0
0:1:44.268,184.984,23.5525,0,0.000885,0,0
0:1:44.563,186.216,23.7111,0,0.000885,0,0
0:1:44.866,186.977,23.8076,0,0.000885,0,0
0:1:45.163,186.567,23.7524,0,0.000885,0,0
0:1:45.460,187.448,23.8696,0,0.000885,0,0
0:1:45.760,188.56,24.0075,0,0.000885,0,0
0:1:46.056,189.325,24.1041,0,0.000885,0,0
0:1:46.358,189.97,24.1868,0,0.000885,0,0
0:1:46.651,191.14,24.3385,0,0.000885,0,0
0:1:46.955,191.727,24.4143,0,0.000885,0,0
0:1:47.262,192.141,24.4626,0,0.000885,0,0
0:1:47.563,192.902,24.5591,0,0.000885,0,0
0:1:47.866,193.311,24.6143,0,0.000885,0,0
0:1:48.165,193.431,24.6281,0,0.000885,0,0
0:1:48.466,194.779,24.8004,0,0.000885,0,0
0:1:48.767,194.721,24.7935,0,0.000885,0,0
0:1:49.063,195.891,24.9452,0,0.000885,0,0
0:1:49.362,195.659,24.9108,0,0.000885,0,0
0:1:49.655,196.478,25.0142,0,0.000885,0,0
0:1:49.952,197.359,25.1314,0,0.000885,0,0
0:1:50.256,197.83,25.1865,0,0.000885,0,0
0:1:50.555,198.004,25.2072,0,0.000885,0,0
0:1:50.847,199,25.3382,0,0.000885,0,0
0:1:51.144,199.414,25.3865,0,0.000885,0,0
0:1:51.442,199.351,25.3796,0,0.000885,0,0
0:1:51.745,200.41,25.5175,0,0.000885,0,0
0:1:52.043,200.997,25.5933,0,0.000885,0,0
0:1:52.337,202.225,25.745,0,0.000885,0,0
0:1:52.638,203.048,25.8553,0,0.000885,0,0
0:1:52.941,204.102,25.9863,0,0.000885,0,0
0:1:53.244,204.747,26.0691,0,0.000885,0,0
0:1:53.543,204.222,26.0001,0,0.000885,0,0
0:1:53.842,205.334,26.1449,0,0.000885,0,0
0:1:54.140,206.157,26.2483,0,0.000885,0,0
0:1:54.445,206.682,26.3173,0,0.000885,0,0
0:1:54.750,205.922,26.2208,0,0.000885,0,0
0:1:55.049,207.389,26.4069,0,0.000885,0,0
0:1:55.362,208.386,26.531,0,0.000885,0,0
0:1:55.662,208.915,26.6,0,0.000885,0,0
0:1:55.956,209.382,26.662,0,0.000885,0,0
0:1:56.250,209.498,26.6758,0,0.000885,0,0
0:1:56.546,210.205,26.7654,0,0.000885,0,0
0:1:56.842,210.85,26.8482,0,0.000885,0,0
0:1:57.139,212.02,26.993,0,0.000885,0,0
0:1:57.430,211.726,26.9585,0,0.000885,0,0
0:1:57.731,212.665,27.0757,0,0.000885,0,0
0:1:58.034,212.959,27.1171,0,0.000885,0,0
0:1:58.334,213.666,27.2067,0,0.000885,0,0
0:1:58.635,214.191,27.2688,0,0.000885,0,0
0:1:58.935,214.894,27.3584,0,0.000885,0,0
0:1:59.236,215.129,27.3929,0,0.000885,0,0
0:1:59.529,215.659,27.4618,0,0.000885,0,0
0:1:59.828,216.419,27.5583,0,0.000885,0,0
0:2:0.124,216.771,27.5997,0,0.000885,0,0
0:2:0.419,217.887,27.7445,0,0.000885,0,0
0:2:0.718,217.829,27.7376,0,0.000885,0,0
0:2:1.010,218.474,27.8135,0,0.000885,0,0
0:2:1.309,218.768,27.8548,0,0.000885,0,0
0:2:1.605,219.413,27.9376,0,0.000885,0,0
0:2:1.901,220.352,28.0548,0,0.000885,0,0
0:2:2.199,221.17,28.1582,0,0.000885,0,0
0:2:2.501,222.166,28.2892,0,0.000885,0,0
0:2:2.803,222.166,28.2892,0,0.000885,0,0
0:2:3.103,222.696,28.3512,0,0.000885,0,0
0:2:3.403,223.225,28.4202,0,0.000885,0,0
0:2:3.704,224.689,28.6063,0,0.000885,0,0
0:2:3.998,225.511,28.7098,0,0.000885,0,0
0:2:4.298,225.569,28.7236,0,0.000885,0,0
0:2:4.592,226.334,28.8201,0,0.000885,0,0
0:2:4.889,227.153,28.9235,0,0.000885,0,0
0:2:5.183,227.269,28.9373,0,0.000885,0,0
0:2:5.479,228.269,29.0614,0,0.000885,0,0
0:2:5.779,229.03,29.1579,0,0.000885,0,0
0:2:6.070,229.088,29.1717,0,0.000885,0,0
0:2:6.370,229.381,29.2062,0,0.000885,0,0
0:2:6.665,230.026,29.2889,0,0.000885,0,0
0:2:6.959,231.143,29.4268,0,0.000885,0,0
0:2:7.258,231.788,29.5096,0,0.000885,0,0
0:2:7.559,232.255,29.5716,0,0.000885,0,0
0:2:7.861,231.668,29.4958,0,0.000885,0,0
0:2:8.161,232.606,29.6199,0,0.000885,0,0
0:2:8.462,233.487,29.7302,0,0.000885,0,0
0:2:8.762,234.074,29.806,0,0.000885,0,0
0:2:9.058,234.484,29.8543,0,0.000885,0,0
0:2:9.353,235.249,29.9508,0,0.000885,0,0
0:2:9.650,235.774,30.0198,0,0.000885,0,0
0:2:9.958,235.951,30.0405,0,0.000885,0,0
0:2:10.264,236.89,30.1646,0,0.000885,0,0
0:2:10.559,236.77,30.1439,0,0.000885,0,0
0:2:10.859,239.119,30.4472,0,0.000885,0,0
0:2:11.161,239.528,30.4955,0,0.000885,0,0
0:2:11.458,240.115,30.5714,0,0.000885,0,0
0:2:11.764,240.524,30.6265,0,0.000885,0,0
0:2:12.058,240.466,30.6196,0,0.000885,0,0
0:2:12.358,241.814,30.792,0,0.000885,0,0
0:2:12.659,241.756,30.7782,0,0.000885,0,0
0:2:12.961,241.876,30.7989,0,0.000885,0,0
0:2:13.261,242.228,30.8402,0,0.000885,0,0
0:2:13.562,243.869,31.0471,0,0.000885,0,0
0:2:13.864,244.105,31.0816,0,0.000885,0,0
0:2:14.158,244.688,31.1574,0,0.000885,0,0
0:2:14.466,245.159,31.2126,0,0.000885,0,0
0:2:14.759,245.453,31.2539,0,0.000885,0,0
0:2:15.057,247.094,31.4608,0,0.000885,0,0
0:2:15.364,247.855,31.5573,0,0.000885,0,0
0:2:15.658,247.624,31.5297,0,0.000885,0,0
0:2:15.957,248.033,31.578,0,0.000885,0,0
0:2:16.249,249.087,31.7159,0,0.000885,0,0
0:2:16.547,249.968,31.8262,0,0.000885,0,0
0:2:16.843,250.733,31.9227,0,0.000885,0,0
0:2:17.139,250.849,31.9365,0,0.000885,0,0
0:2:17.437,251.667,32.0468,0,0.000885,0,0
0:2:17.740,251.961,32.0813,0,0.000885,0,0
0:2:18.042,252.784,32.1847,0,0.000885,0,0
0:2:18.343,253.486,32.2744,0,0.000885,0,0
0:2:18.643,253.958,32.3364,0,0.000885,0,0
0:2:18.943,254.074,32.3502,0,0.000885,0,0
0:2:19.245,254.074,32.3502,0,0.000885,0,0
0:2:19.544,254.603,32.4191,0,0.000885,0,0
0:2:19.839,255.541,32.5364,0,0.000885,0,0
0:2:20.136,256.36,32.6398,0,0.000885,0,0
0:2:20.434,257.356,32.7708,0,0.000885,0,0
0:2:20.728,257.828,32.8259,0,0.000885,0,0
0:2:21.027,258.357,32.8949,0,0.000885,0,0
0:2:21.320,258.766,32.95,0,0.000885,0,0
0:2:21.619,259.763,33.0742,0,0.000885,0,0
0:2:21.915,259.941,33.0948,0,0.000885,0,0
0:2:22.211,260.35,33.15,0,0.000885,0,0
0:2:22.509,260.937,33.2258,0,0.000885,0,0
0:2:22.812,261.462,33.2879,0,0.000885,0,0
0:2:23.114,262.463,33.4189,0,0.000885,0,0
0:2:23.413,262.694,33.4465,0,0.000885,0,0
0:2:23.715,264.22,33.6395,0,0.000885,0,0
0:2:24.015,264.865,33.7223,0,0.000885,0,0
0:2:24.309,264.985,33.736,0,0.000885,0,0
0:2:24.608,265.803,33.8464,0,0.000885,0,0
0:2:24.904,265.981,33.867,0,0.000885,0,0
0:2:25.199,266.275,33.9015,0,0.000885,0,0
0:2:25.496,267.036,33.998,0,0.000885,0,0
0:2:25.791,267.681,34.0808,0,0.000885,0,0
0:2:26.090,267.974,34.1222,0,0.000885,0,0
0:2:26.382,268.797,34.2256,0,0.000885,0,0
0:2:26.682,269.028,34.2532,0,0.000885,0,0
0:2:26.977,269.736,34.3428,0,0.000885,0,0
0:2:27.271,270.381,34.4255,0,0.000885,0,0
0:2:27.571,271.551,34.5772,0,0.000885,0,0
0:2:27.873,272.316,34.6737,0,0.000885,0,0
0:2:28.176,272.374,34.6806,0,0.000885,0,0
0:2:28.475,272.903,34.7496,0,0.000885,0,0
0:2:28.775,273.606,34.8392,0,0.000885,0,0
0:2:29.076,274.073,34.8944,0,0.000885,0,0
0:2:29.369,274.776,34.984,0,0.000885,0,0
0:2:29.670,274.66,34.9702,0,0.000885,0,0
0:2:29.964,275.363,35.0598,0,0.000885,0,0
0:2:30.259,276.359,35.1839,0,0.000885,0,0
0:2:30.565,276.537,35.2115,0,0.000885,0,0
0:2:30.860,277.066,35.2736,0,0.000885,0,0
0:2:31.160,278.766,35.4942,0,0.000885,0,0
0:2:31.462,279.059,35.5287,0,0.000885,0,0
0:2:31.761,279.589,35.5976,0,0.000885,0,0
0:2:32.055,280.171,35.6735,0,0.000885,0,0
0:2:32.355,280.291,35.6873,0,0.000885,0,0
0:2:32.660,281.288,35.8114,0,0.000885,0,0
0:2:32.960,282.048,35.9148,0,0.000885,0,0
0:2:33.261,282.578,35.9768,0,0.000885,0,0
0:2:33.561,283.107,36.0458,0,0.000885,0,0
0:2:33.866,283.401,36.0803,0,0.000885,0,0
0:2:34.166,284.103,36.1699,0,0.000885,0,0
0:2:34.459,284.922,36.2802,0,0.000885,0,0
0:2:34.756,285.451,36.3423,0,0.000885,0,0
0:2:35.061,285.571,36.3629,0,0.000885,0,0
0:2:35.359,286.274,36.4526,0,0.000885,0,0
0:2:35.663,286.861,36.5215,0,0.000885,0,0
0:2:35.968,286.799,36.5146,0,0.000885,0,0
0:2:36.267,287.564,36.6112,0,0.000885,0,0
0:2:36.559,289.384,36.8456,0,0.000885,0,0
0:2:36.856,289.735,36.887,0,0.000885,0,0
0:2:37.162,290.086,36.9352,0,0.000885,0,0
0:2:37.464,290.322,36.9628,0,0.000885,0,0
0:2:37.766,291.492,37.1145,0,0.000885,0,0
0:2:38.069,292.551,37.2455,0,0.000885,0,0
0:2:38.368,292.902,37.2937,0,0.000885,0,0
0:2:38.667,293.076,37.3144,0,0.000885,0,0
0:2:38.965,293.253,37.3351,0,0.000885,0,0
0:2:39.260,293.369,37.3558,0,0.000885,0,0
0:2:39.566,293.956,37.4247,0,0.000885,0,0
0:2:39.864,294.895,37.5488,0,0.000885,0,0
0:2:40.166,295.598,37.6385,0,0.000885,0,0
0:2:40.466,296.594,37.7626,0,0.000885,0,0
0:2:40.757,296.594,37.7626,0,0.000885,0,0
0:2:41.066,297.066,37.8246,0,0.000885,0,0
0:2:41.362,297.475,37.8729,0,0.000885,0,0
0:2:41.665,298.649,38.0246,0,0.000885,0,0
0:2:41.965,299.001,38.0728,0,0.000885,0,0
0:2:42.265,299.703,38.1625,0,0.000885,0,0
0:2:42.566,300.526,38.2659,0,0.000885,0,0
0:2:42.867,301.229,38.3555,0,0.000885,0,0
0:2:43.169,301.758,38.4176,0,0.000885,0,0
0:2:43.470,302.461,38.5072,0,0.000885,0,0
0:2:43.770,303.222,38.6106,0,0.000885,0,0
0:2:44.071,303.516,38.6451,0,0.000885,0,0
0:2:44.364,303.867,38.6865,0,0.000885,0,0
0:2:44.663,305.508,38.9002,0,0.000885,0,0
0:2:44.968,305.922,38.9485,0,0.000885,0,0
0:2:45.262,305.98,38.9554,0,0.000885,0,0
0:2:45.557,306.331,39.0036,0,0.000885,0,0
0:2:45.864,306.625,39.0381,0,0.000885,0,0
0:2:46.163,308.151,39.2381,0,0.000885,0,0
0:2:46.467,308.675,39.3001,0,0.000885,0,0
0:2:46.765,308.738,39.307,0,0.000885,0,0
0:2:47.061,309.031,39.3484,0,0.000885,0,0
0:2:47.363,310.495,39.5345,0,0.000885,0,0
0:2:47.666,310.673,39.5552,0,0.000885,0,0
0:2:47.965,310.908,39.5828,0,0.000885,0,0
0:2:48.265,311.376,39.6449,0,0.000885,0,0
0:2:48.565,311.611,39.6724,0,0.000885,0,0
0:2:48.862,313.137,39.8724,0,0.000885,0,0
0:2:49.160,313.253,39.8862,0,0.000885,0,0
0:2:49.463,313.72,39.9413,0,0.000885,0,0
0:2:49.762,314.658,40.0654,0,0.000885,0,0
0:2:50.067,315.072,40.1137,0,0.000885,0,0
0:2:50.362,315.597,40.1826,0,0.000885,0,0
0:2:50.669,316.126,40.2516,0,0.000885,0,0
0:2:50.963,316.656,40.3205,0,0.000885,0,0
0:2:51.263,317.238,40.3895,0,0.000885,0,0
0:2:51.565,318.003,40.486,0,0.000885,0,0
0:2:51.863,319.293,40.6515,0,0.000885,0,0
0:2:52.170,319.529,40.686,0,0.000885,0,0
0:2:52.471,319.703,40.7066,0,0.000885,0,0
0:2:52.776,320.993,40.8721,0,0.000885,0,0
0:2:53.075,321.055,40.879,0,0.000885,0,0
0:2:53.375,321.7,40.9618,0,0.000885,0,0
0:2:53.676,322.167,41.0169,0,0.000885,0,0
0:2:53.970,322.87,41.1065,0,0.000885,0,0
0:2:54.268,323.399,41.1755,0,0.000885,0,0
0:2:54.562,324.395,41.3065,0,0.000885,0,0
0:2:54.861,324.338,41.2927,0,0.000885,0,0
0:2:55.163,324.747,41.3479,0,0.000885,0,0
0:2:55.463,325.334,41.4237,0,0.000885,0,0
0:2:55.767,326.037,41.5133,0,0.000885,0,0
0:2:56.062,327.211,41.665,0,0.000885,0,0
0:2:56.369,327.327,41.6788,0,0.000885,0,0
0:2:56.663,327.856,41.7409,0,0.000885,0,0
0:2:56.963,328.91,41.8788,0,0.000885,0,0
0:2:57.266,329.555,41.9615,0,0.000885,0,0
0:2:57.566,330.378,42.0649,0,0.000885,0,0
0:2:57.869,330.085,42.0304,0,0.000885,0,0
0:2:58.170,331.49,42.2097,0,0.000885,0,0
0:2:58.472,331.726,42.2373,0,0.000885,0,0
0:2:58.772,332.313,42.3131,0,0.000885,0,0
0:2:59.070,333.136,42.4165,0,0.000885,0,0
0:2:59.365,333.368,42.4441,0,0.000885,0,0
0:2:59.670,334.426,42.582,0,0.000885,0,0
0:2:59.969,334.368,42.5751,0,0.000885,0,0
0:3:0.270,335.245,42.6854,0,0.000885,0,0
0:3:0.570,336.246,42.8095,0,0.000885,0,0
0:3:0.865,335.774,42.7544,0,0.000885,0,0
0:3:1.170,336.77,42.8785,0,0.000885,0,0
0:3:1.467,337.945,43.0302,0,0.000885,0,0
0:3:1.762,338.354,43.0784,0,0.000885,0,0
0:3:2.059,338.532,43.106,0,0.000885,0,0
0:3:2.363,339.528,43.2301,0,0.000885,0,0
0:3:2.663,340.409,43.3404,0,0.000885,0,0
0:3:2.967,340.76,43.3887,0,0.000885,0,0
0:3:3.267,340.703,43.3818,0,0.000885,0,0
0:3:3.569,341.757,43.5128,0,0.000885,0,0
0:3:3.868,342.575,43.6162,0,0.000885,0,0
0:3:4.169,343.398,43.7197,0,0.000885,0,0
0:3:4.463,343.283,43.7059,0,0.000885,0,0
0:3:4.767,343.928,43.7886,0,0.000885,0,0
0:3:5.066,344.808,43.8989,0,0.000885,0,0
0:3:5.368,344.982,43.9265,0,0.000885,0,0
0:3:5.668,345.805,44.0299,0,0.000885,0,0
0:3:5.959,345.92,44.0437,0,0.000885,0,0
0:3:6.258,346.392,44.1058,0,0.000885,0,0
0:3:6.564,347.562,44.2506,0,0.000885,0,0
0:3:6.869,347.682,44.2712,0,0.000885,0,0
0:3:7.169,348.62,44.3884,0,0.000885,0,0
0:3:7.471,349.203,44.4643,0,0.000885,0,0
0:3:7.772,349.79,44.5401,0,0.000885,0,0
0:3:8.075,351.023,44.6918,0,0.000885,0,0
0:3:8.374,351.023,44.6918,0,0.000885,0,0
0:3:8.675,352.019,44.8228,0,0.000885,0,0
0:3:8.968,352.139,44.8366,0,0.000885,0,0
0:3:9.269,352.842,44.9262,0,0.000885,0,0
0:3:9.560,353.954,45.0641,0,0.000885,0,0
0:3:9.869,353.78,45.0434,0,0.000885,0,0
0:3:10.164,354.425,45.1262,0,0.000885,0,0
0:3:10.469,355.186,45.2227,0,0.000885,0,0
0:3:10.769,356.182,45.3537,0,0.000885,0,0
0:3:11.072,356.827,45.4296,0,0.000885,0,0
0:3:11.372,356.596,45.402,0,0.000885,0,0
0:3:11.666,357.828,45.5606,0,0.000885,0,0
0:3:11.970,357.766,45.5537,0,0.000885,0,0
0:3:12.268,358.705,45.6709,0,0.000885,0,0
0:3:12.570,359.234,45.7398,0,0.000885,0,0
0:3:12.872,360.057,45.8432,0,0.000885,0,0
0:3:13.174,360.23,45.8639,0,0.000885,0,0
0:3:13.473,361.347,46.0087,0,0.000885,0,0
0:3:13.775,362.107,46.1052,0,0.000885,0,0
0:3:14.070,362.228,46.119,0,0.000885,0,0
0:3:14.369,362.752,46.188,0,0.000885,0,0
0:3:14.671,363.397,46.2707,0,0.000885,0,0
0:3:14.971,364.163,46.3672,0,0.000885,0,0
0:3:15.264,364.514,46.4086,0,0.000885,0,0
0:3:15.560,364.981,46.4707,0,0.000885,0,0
0:3:15.868,366.155,46.6223,0,0.000885,0,0
0:3:16.160,366.04,46.6086,0,0.000885,0,0
0:3:16.459,367.388,46.774,0,0.000885,0,0
0:3:16.753,367.797,46.8292,0,0.000885,0,0
0:3:17.061,367.561,46.8016,0,0.000885,0,0
0:3:17.368,368.793,46.9533,0,0.000885,0,0
0:3:17.667,369.322,47.0222,0,0.000885,0,0
0:3:17.971,369.91,47.0981,0,0.000885,0,0
0:3:18.272,370.612,47.1877,0,0.000885,0,0
0:3:18.573,370.612,47.1877,0,0.000885,0,0
0:3:18.873,371.787,47.3394,0,0.000885,0,0
0:3:19.172,372.49,47.429,0,0.000885,0,0
0:3:19.468,372.605,47.4428,0,0.000885,0,0
0:3:19.761,373.25,47.5256,0,0.000885,0,0
0:3:20.059,374.189,47.6428,0,0.000885,0,0
0:3:20.361,374.482,47.6841,0,0.000885,0,0
0:3:20.660,374.954,47.7393,0,0.000885,0,0
0:3:20.968,375.893,47.8565,0,0.000885,0,0
0:3:21.264,376.36,47.9186,0,0.000885,0,0
0:3:21.572,376.831,47.9806,0,0.000885,0,0
0:3:21.866,377.476,48.0634,0,0.000885,0,0
0:3:22.167,377.943,48.1185,0,0.000885,0,0
0:3:22.470,378.766,48.2288,0,0.000885,0,0
0:3:22.772,379.705,48.346,0,0.000885,0,0
0:3:23.071,379.705,48.346,0,0.000885,0,0
0:3:23.371,380.465,48.4426,0,0.000885,0,0
0:3:23.671,381.288,48.546,0,0.000885,0,0
0:3:23.965,381.991,48.6356,0,0.000885,0,0
0:3:24.264,382.52,48.7046,0,0.000885,0,0
0:3:24.570,382.814,48.739,0,0.000885,0,0
0:3:24.865,383.339,48.808,0,0.000885,0,0
0:3:25.173,383.868,48.8769,0,0.000885,0,0
0:3:25.465,384.398,48.9459,0,0.000885,0,0
0:3:25.765,384.629,48.9735,0,0.000885,0,0
0:3:26.068,385.861,49.132,0,0.000885,0,0
0:3:26.367,386.212,49.1734,0,0.000885,0,0
0:3:26.671,386.626,49.2286,0,0.000885,0,0
0:3:26.965,387.502,49.3389,0,0.000885,0,0
0:3:27.262,388.383,49.4492,0,0.000885,0,0
0:3:27.566,388.677,49.4906,0,0.000885,0,0
0:3:27.868,389.5,49.594,0,0.000885,0,0
0:3:28.169,389.673,49.6147,0,0.000885,0,0
0:3:28.468,390.145,49.6767,0,0.000885,0,0
0:3:28.770,391.021,49.787,0,0.000885,0,0
0:3:29.073,391.377,49.8284,0,0.000885,0,0
0:3:29.374,391.728,49.8767,0,0.000885,0,0
0:3:29.667,392.489,49.9732,0,0.000885,0,0
0:3:29.965,393.312,50.0766,0,0.000885,0,0
0:3:30.271,394.13,50.18,0,0.000885,0,0
0:3:30.565,394.544,50.2352,0,0.000885,0,0
0:3:30.875,395.362,50.3386,0,0.000885,0,0
0:3:31.166,395.598,50.3662,0,0.000885,0,0
0:3:31.466,396.417,50.4765,0,0.000885,0,0
0:3:31.770,396.888,50.5317,0,0.000885,0,0
0:3:32.065,397.24,50.5799,0,0.000885,0,0
0:3:32.373,398.356,50.7178,0,0.000885,0,0
0:3:32.672,399.059,50.8075,0,0.000885,0,0
0:3:32.977,399.646,50.8833,0,0.000885,0,0
0:3:33.279,399.82,50.904,0,0.000885,0,0
0:3:33.581,400.642,51.0143,0,0.000885,0,0
0:3:33.882,400.994,51.0557,0,0.000885,0,0
0:3:34.176,401.697,51.1453,0,0.000885,0,0
0:3:34.475,401.99,51.1798,0,0.000885,0,0
0:3:34.768,402.751,51.2832,0,0.000885,0,0
0:3:35.066,403.516,51.3797,0,0.000885,0,0
0:3:35.370,404.161,51.4625,0,0.000885,0,0
0:3:35.667,404.922,51.559,0,0.000885,0,0
0:3:35.975,405.509,51.6279,0,0.000885,0,0
0:3:36.268,406.038,51.6969,0,0.000885,0,0
0:3:36.568,405.98,51.69,0,0.000885,0,0
0:3:36.860,407.092,51.8348,0,0.000885,0,0
0:3:37.159,407.444,51.8762,0,0.000885,0,0
0:3:37.453,408.147,51.9658,0,0.000885,0,0
0:3:37.756,408.56,52.0209,0,0.000885,0,0
0:3:38.056,409.027,52.0761,0,0.000885,0,0
0:3:38.357,410.144,52.2209,0,0.000885,0,0
0:3:38.657,410.38,52.2485,0,0.000885,0,0
0:3:38.958,410.847,52.3105,0,0.000885,0,0
0:3:39.267,411.607,52.4071,0,0.000885,0,0
0:3:39.574,412.608,52.5381,0,0.000885,0,0
0:3:39.867,413.017,52.5863,0,0.000885,0,0
0:3:40.168,413.369,52.6346,0,0.000885,0,0
0:3:40.471,413.898,52.6966,0,0.000885,0,0
0:3:40.767,414.601,52.7863,0,0.000885,0,0
0:3:41.075,415.713,52.9311,0,0.000885,0,0
0:3:41.370,416.185,52.9931,0,0.000885,0,0
0:3:41.670,417.003,53.0965,0,0.000885,0,0
0:3:41.962,417.239,53.1241,0,0.000885,0,0
0:3:42.262,418.177,53.2413,0,0.000885,0,0
0:3:42.567,418.649,53.3034,0,0.000885,0,0
0:3:42.869,419.467,53.4068,0,0.000885,0,0
0:3:43.171,419.703,53.4413,0,0.000885,0,0
0:3:43.470,419.703,53.4413,0,0.000885,0,0
0:3:43.769,420.877,53.5861,0,0.000885,0,0
0:3:44.063,421.171,53.6274,0,0.000885,0,0
0:3:44.371,421.874,53.7171,0,0.000885,0,0
0:3:44.670,422.399,53.7791,0,0.000885,0,0
0:3:44.959,422.634,53.8136,0,0.000885,0,0
0:3:45.260,423.457,53.917,0,0.000885,0,0
0:3:45.563,423.693,53.9446,0,0.000885,0,0
0:3:45.870,424.512,54.048,0,0.000885,0,0
0:3:46.168,424.983,54.1101,0,0.000885,0,0
0:3:46.472,425.979,54.2342,0,0.000885,0,0
0:3:46.772,426.273,54.2755,0,0.000885,0,0
0:3:47.075,426.74,54.3376,0,0.000885,0,0
0:3:47.375,427.563,54.441,0,0.000885,0,0
0:3:47.680,427.972,54.4893,0,0.000885,0,0
0:3:47.983,428.733,54.5858,0,0.000885,0,0
0:3:48.282,428.853,54.6065,0,0.000885,0,0
0:3:48.583,429.672,54.7099,0,0.000885,0,0
0:3:48.881,430.61,54.8271,0,0.000885,0,0
0:3:49.177,431.549,54.9443,0,0.000885,0,0
0:3:49.472,432.078,55.0133,0,0.000885,0,0
0:3:49.772,432.723,55.096,0,0.000885,0,0
0:3:50.075,433.074,55.1443,0,0.000885,0,0
0:3:50.371,433.604,55.2063,0,0.000885,0,0
0:3:50.670,434.542,55.3304,0,0.000885,0,0
0:3:50.973,434.836,55.3649,0,0.000885,0,0
0:3:51.272,435.067,55.3925,0,0.000885,0,0
0:3:51.563,435.717,55.4752,0,0.000885,0,0
0:3:51.874,436.651,55.5993,0,0.000885,0,0
0:3:52.170,437.122,55.6545,0,0.000885,0,0
0:3:52.473,437.767,55.7372,0,0.000885,0,0
0:3:52.774,438.412,55.82,0,0.000885,0,0
0:3:53.077,438.884,55.882,0,0.000885,0,0
0:3:53.375,439.467,55.9579,0,0.000885,0,0
0:3:53.677,439.644,55.9785,0,0.000885,0,0
0:3:53.973,440.467,56.082,0,0.000885,0,0
0:3:54.271,440.992,56.1509,0,0.000885,0,0
0:3:54.573,441.757,56.2474,0,0.000885,0,0
0:3:54.874,442.634,56.3577,0,0.000885,0,0
0:3:55.168,443.163,56.4267,0,0.000885,0,0
0:3:55.473,443.221,56.4336,0,0.000885,0,0
0:3:55.772,444.159,56.5508,0,0.000885,0,0
0:3:56.075,445.04,56.6611,0,0.000885,0,0
0:3:56.374,445.801,56.7645,0,0.000885,0,0
0:3:56.669,445.979,56.7852,0,0.000885,0,0
0:3:56.976,446.682,56.8749,0,0.000885,0,0
0:3:57.273,447.211,56.9438,0,0.000885,0,0
0:3:57.576,447.736,57.0059,0,0.000885,0,0
0:3:57.878,448.616,57.1231,0,0.000885,0,0
0:3:58.177,448.559,57.1093,0,0.000885,0,0
0:3:58.477,449.439,57.2265,0,0.000885,0,0
0:3:58.780,450.378,57.3437,0,0.000885,0,0
0:3:59.084,450.903,57.4126,0,0.000885,0,0
0:3:59.384,451.317,57.4609,0,0.000885,0,0
0:3:59.676,451.841,57.5299,0,0.000885,0,0
0:3:59.974,452.429,57.6057,0,0.000885,0,0
0:4:0.271,453.252,57.7091,0,0.000885,0,0
0:4:0.574,454.012,57.8056,0,0.000885,0,0
0:4:0.873,454.364,57.8539,0,0.000885,0,0
0:4:1.165,454.542,57.8746,0,0.000885,0,0
0:4:1.464,455.071,57.9435,0,0.000885,0,0
0:4:1.771,455.889,58.047,0,0.000885,0,0
0:4:2.076,456.419,58.1159,0,0.000885,0,0
0:4:2.376,456.948,58.178,0,0.000885,0,0
0:4:2.677,457.882,58.3021,0,0.000885,0,0
0:4:2.981,458.411,58.3641,0,0.000885,0,0
0:4:3.281,458.821,58.4193,0,0.000885,0,0
0:4:3.582,459.292,58.4813,0,0.000885,0,0
0:4:3.883,459.879,58.5503,0,0.000885,0,0
0:4:4.175,460.698,58.6606,0,0.000885,0,0
0:4:4.475,461.169,58.7158,0,0.000885,0,0
0:4:4.777,461.343,58.7433,0,0.000885,0,0
0:4:5.076,461.814,58.7985,0,0.000885,0,0
0:4:5.371,462.753,58.9226,0,0.000885,0,0
0:4:5.668,464.221,59.1088,0,0.000885,0,0
0:4:5.976,464.572,59.1501,0,0.000885,0,0
0:4:6.277,464.924,59.1984,0,0.000885,0,0
0:4:6.578,465.155,59.226,0,0.000885,0,0
0:4:6.871,465.978,59.3294,0,0.000885,0,0
0:4:7.169,466.739,59.4259,0,0.000885,0,0
0:4:7.475,467.326,59.5018,0,0.000885,0,0
0:4:7.776,467.619,59.5362,0,0.000885,0,0
0:4:8.080,468.5,59.6534,0,0.000885,0,0
0:4:8.380,469.087,59.7293,0,0.000885,0,0
0:4:8.681,469.848,59.8258,0,0.000885,0,0
0:4:8.981,470.199,59.8672,0,0.000885,0,0
0:4:9.276,470.555,59.9154,0,0.000885,0,0
0:4:9.575,471.2,59.9982,0,0.000885,0,0
0:4:9.877,471.609,60.0464,0,0.000885,0,0
0:4:10.178,472.664,60.1843,0,0.000885,0,0
0:4:10.470,473.135,60.2395,0,0.000885,0,0
0:4:10.770,473.251,60.2533,0,0.000885,0,0
0:4:11.074,474.599,60.4257,0,0.000885,0,0
0:4:11.370,475.244,60.5084,0,0.000885,0,0
0:4:11.680,475.715,60.5704,0,0.000885,0,0
0:4:11.972,476.24,60.6394,0,0.000885,0,0
0:4:12.273,476.827,60.7083,0,0.000885,0,0
0:4:12.577,477.708,60.8255,0,0.000885,0,0
0:4:12.878,478.237,60.8876,0,0.000885,0,0
0:4:13.180,478.646,60.9428,0,0.000885,0,0
0:4:13.477,479.643,61.0669,0,0.000885,0,0
0:4:13.778,479.291,61.0255,0,0.000885,0,0
0:4:14.072,480.23,61.1427,0,0.000885,0,0
0:4:14.371,480.466,61.1772,0,0.000885,0,0
0:4:14.675,481.169,61.2668,0,0.000885,0,0
0:4:14.971,481.929,61.3633,0,0.000885,0,0
0:4:15.271,482.401,61.4185,0,0.000885,0,0
0:4:15.572,482.988,61.4943,0,0.000885,0,0
0:4:15.871,483.455,61.5564,0,0.000885,0,0
0:4:16.176,483.984,61.6253,0,0.000885,0,0
0:4:16.473,484.803,61.7288,0,0.000885,0,0
0:4:16.771,485.684,61.8391,0,0.000885,0,0
0:4:17.074,486.097,61.8942,0,0.000885,0,0
0:4:17.375,486.271,61.9149,0,0.000885,0,0
0:4:17.678,487.325,62.0459,0,0.000885,0,0
0:4:17.980,487.97,62.1287,0,0.000885,0,0
0:4:18.282,488.735,62.2252,0,0.000885,0,0
0:4:18.582,488.971,62.2597,0,0.000885,0,0
0:4:18.881,489.144,62.2803,0,0.000885,0,0
0:4:19.174,489.847,62.37,0,0.000885,0,0
0:4:19.474,490.786,62.4872,0,0.000885,0,0
0:4:19.766,491.724,62.6113,0,0.000885,0,0
0:4:20.063,492.076,62.6527,0,0.000885,0,0
0:4:20.359,492.605,62.7216,0,0.000885,0,0
0:4:20.664,492.956,62.763,0,0.000885,0,0
0:4:20.963,493.779,62.8664,0,0.000885,0,0
0:4:21.277,494.424,62.9491,0,0.000885,0,0
0:4:21.575,495.011,63.025,0,0.000885,0,0
0:4:21.872,495.479,63.087,0,0.000885,0,0
0:4:22.175,496.595,63.2249,0,0.000885,0,0
0:4:22.473,496.595,63.2249,0,0.000885,0,0
0:4:22.775,496.946,63.2732,0,0.000885,0,0
0:4:23.077,497.943,63.3973,0,0.000885,0,0
0:4:23.377,498.881,63.5214,0,0.000885,0,0
0:4:23.677,499.055,63.5421,0,0.000885,0,0
0:4:23.978,499.762,63.6317,0,0.000885,0,0
0:4:24.272,499.936,63.6524,0,0.000885,0,0
0:4:24.571,500.171,63.6869,0,0.000885,0,0
0:4:24.863,501.168,63.811,0,0.000885,0,0
0:4:25.162,501.404,63.8386,0,0.000885,0,0
0:4:25.468,502.049,63.9213,0,0.000885,0,0
0:4:25.775,503.223,64.073,0,0.000885,0,0
0:4:26.074,503.748,64.1419,0,0.000885,0,0
0:4:26.375,504.277,64.204,0,0.000885,0,0
0:4:26.676,504.98,64.2936,0,0.000885,0,0
0:4:26.980,505.331,64.3419,0,0.000885,0,0
0:4:27.281,506.328,64.466,0,0.000885,0,0
0:4:27.584,506.621,64.5073,0,0.000885,0,0
0:4:27.885,507.738,64.6452,0,0.000885,0,0
0:4:28.185,507.738,64.6452,0,0.000885,0,0
0:4:28.485,508.441,64.7349,0,0.000885,0,0
0:4:28.783,508.325,64.7211,0,0.000885,0,0
0:4:29.080,509.557,64.8797,0,0.000885,0,0
0:4:29.373,509.909,64.921,0,0.000885,0,0
0:4:29.672,510.847,65.0451,0,0.000885,0,0
0:4:29.976,511.492,65.1279,0,0.000885,0,0
0:4:30.275,511.901,65.1761,0,0.000885,0,0
0:4:30.580,513.191,65.3416,0,0.000885,0,0
0:4:30.875,513.369,65.3623,0,0.000885,0,0
0:4:31.173,513.543,65.383,0,0.000885,0,0
0:4:31.476,514.188,65.4657,0,0.000885,0,0
0:4:31.776,514.775,65.5416,0,0.000885,0,0
0:4:32.080,515.478,65.6312,0,0.000885,0,0
0:4:32.381,515.891,65.6864,0,0.000885,0,0
0:4:32.684,516.536,65.7691,0,0.000885,0,0
0:4:32.986,517.061,65.8311,0,0.000885,0,0
0:4:33.288,518,65.9552,0,0.000885,0,0
0:4:33.587,518.471,66.0104,0,0.000885,0,0
0:4:33.887,519.116,66.0931,0,0.000885,0,0
0:4:34.180,519.819,66.1828,0,0.000885,0,0
0:4:34.477,519.819,66.1828,0,0.000885,0,0
0:4:34.775,520.994,66.3345,0,0.000885,0,0
0:4:35.077,521.638,66.4172,0,0.000885,0,0
0:4:35.379,522.048,66.4724,0,0.000885,0,0
0:4:35.669,522.341,66.5068,0,0.000885,0,0
0:4:35.968,523.102,66.6034,0,0.000885,0,0
0:4:36.275,523.458,66.6516,0,0.000885,0,0
0:4:36.569,524.161,66.7413,0,0.000885,0,0
0:4:36.868,524.863,66.8309,0,0.000885,0,0
0:4:37.172,525.976,66.9688,0,0.000885,0,0
0:4:37.469,526.389,67.0239,0,0.000885,0,0
0:4:37.775,526.741,67.0653,0,0.000885,0,0
0:4:38.076,527.443,67.1549,0,0.000885,0,0
0:4:38.377,527.915,67.217,0,0.000885,0,0
0:4:38.675,528.56,67.2997,0,0.000885,0,0
0:4:38.976,528.911,67.3411,0,0.000885,0,0
0:4:39.280,529.499,67.4169,0,0.000885,0,0
0:4:39.577,529.966,67.479,0,0.000885,0,0
0:4:39.875,530.259,67.5135,0,0.000885,0,0
0:4:40.178,531.549,67.6789,0,0.000885,0,0
0:4:40.476,532.021,67.741,0,0.000885,0,0
0:4:40.773,532.781,67.8375,0,0.000885,0,0
0:4:41.077,533.191,67.8858,0,0.000885,0,0
0:4:41.375,533.956,67.9823,0,0.000885,0,0
0:4:41.678,534.601,68.065,0,0.000885,0,0
0:4:41.978,535.01,68.1202,0,0.000885,0,0
0:4:42.282,535.713,68.2098,0,0.000885,0,0
0:4:42.583,535.948,68.2374,0,0.000885,0,0
0:4:42.885,536.887,68.3615,0,0.000885,0,0
0:4:43.187,537.238,68.4029,0,0.000885,0,0
0:4:43.486,537.826,68.4787,0,0.000885,0,0
0:4:43.787,538.177,68.5201,0,0.000885,0,0
0:4:44.086,538.938,68.6166,0,0.000885,0,0
0:4:44.383,539.703,68.72,0,0.000885,0,0
0:4:44.676,540.29,68.789,0,0.000885,0,0
0:4:44.976,540.993,68.8786,0,0.000885,0,0
0:4:45.279,541.108,68.8993,0,0.000885,0,0
0:4:45.578,541.989,69.0096,0,0.000885,0,0
0:4:45.873,542.634,69.0924,0,0.000885,0,0
0:4:46.168,543.337,69.182,0,0.000885,0,0
0:4:46.476,544.044,69.2716,0,0.000885,0,0
0:4:46.780,544.569,69.3337,0,0.000885,0,0
0:4:47.080,544.689,69.3544,0,0.000885,0,0
0:4:47.373,545.686,69.4785,0,0.000885,0,0
0:4:47.675,545.979,69.5129,0,0.000885,0,0
0:4:47.978,546.504,69.5819,0,0.000885,0,0
0:4:48.281,547.091,69.6577,0,0.000885,0,0
0:4:48.579,547.856,69.7543,0,0.000885,0,0
0:4:48.882,548.439,69.8301,0,0.000885,0,0
0:4:49.178,549.084,69.9128,0,0.000885,0,0
0:4:49.476,549.204,69.9266,0,0.000885,0,0
0:4:49.780,550.316,70.0714,0,0.000885,0,0
0:4:50.081,550.961,70.1542,0,0.000885,0,0
0:4:50.373,551.375,70.2024,0,0.000885,0,0
0:4:50.682,552.02,70.2852,0,0.000885,0,0
0:4:50.977,552.958,70.4024,0,0.000885,0,0
0:4:51.270,553.252,70.4437,0,0.000885,0,0
0:4:51.568,554.128,70.5541,0,0.000885,0,0
0:4:51.874,554.128,70.5541,0,0.000885,0,0
0:4:52.183,554.715,70.6299,0,0.000885,0,0
0:4:52.479,555.596,70.7402,0,0.000885,0,0
0:4:52.782,556.063,70.8023,0,0.000885,0,0
0:4:53.085,556.593,70.8643,0,0.000885,0,0
0:4:53.387,557.295,70.9539,0,0.000885,0,0
0:4:53.686,557.825,71.0229,0,0.000885,0,0
0:4:53.988,558.648,71.1263,0,0.000885,0,0
0:4:54.282,559.351,71.2159,0,0.000885,0,0
0:4:54.581,559.644,71.2573,0,0.000885,0,0
0:4:54.874,560.111,71.3125,0,0.000885,0,0
0:4:55.174,560.876,71.4159,0,0.000885,0,0
0:4:55.478,561.815,71.5331,0,0.000885,0,0
0:4:55.774,561.815,71.5331,0,0.000885,0,0
0:4:56.082,562.046,71.5607,0,0.000885,0,0
0:4:56.383,563.278,71.7193,0,0.000885,0,0
0:4:56.684,564.275,71.8434,0,0.000885,0,0
0:4:56.977,564.453,71.8709,0,0.000885,0,0
0:4:57.278,565.04,71.9399,0,0.000885,0,0
0:4:57.582,565.276,71.9744,0,0.000885,0,0
0:4:57.883,565.978,72.064,0,0.000885,0,0
0:4:58.183,566.503,72.133,0,0.000885,0,0
0:4:58.483,567.793,72.2915,0,0.000885,0,0
0:4:58.781,568.323,72.3605,0,0.000885,0,0
0:4:59.077,568.616,72.4018,0,0.000885,0,0
0:4:59.382,569.377,72.4984,0,0.000885,0,0
0:4:59.681,570.084,72.588,0,0.000885,0,0
0:4:59.975,570.609,72.6501,0,0.000885,0,0
0:5:0.274,570.845,72.6845,0,0.000885,0,0
0:5:0.578,571.841,72.8086,0,0.000885,0,0
0:5:0.875,572.135,72.85,0,0.000885,0,0
0:5:1.183,572.606,72.9052,0,0.000885,0,0
0:5:1.475,573.073,72.9672,0,0.000885,0,0
0:5:1.775,573.954,73.0775,0,0.000885,0,0
0:5:2.080,574.248,73.112,0,0.000885,0,0
0:5:2.382,575.128,73.2292,0,0.000885,0,0
0:5:2.684,575.422,73.2637,0,0.000885,0,0
0:5:2.986,575.889,73.3257,0,0.000885,0,0
0:5:3.285,576.476,73.4016,0,0.000885,0,0
0:5:3.587,577.473,73.5257,0,0.000885,0,0
0:5:3.884,578.06,73.6015,0,0.000885,0,0
0:5:4.179,578.998,73.7187,0,0.000885,0,0
0:5:4.484,579.292,73.7601,0,0.000885,0,0
0:5:4.783,579.234,73.7532,0,0.000885,0,0
0:5:5.076,580.11,73.8635,0,0.000885,0,0
0:5:5.372,580.23,73.8773,0,0.000885,0,0
0:5:5.679,581.463,74.0359,0,0.000885,0,0
0:5:5.983,581.872,74.0842,0,0.000885,0,0
0:5:6.282,582.926,74.2221,0,0.000885,0,0
0:5:6.575,583.571,74.3048,0,0.000885,0,0
0:5:6.875,584.158,74.3806,0,0.000885,0,0
0:5:7.177,584.158,74.3806,0,0.000885,0,0
0:5:7.478,585.097,74.4979,0,0.000885,0,0
0:5:7.783,585.448,74.5392,0,0.000885,0,0
0:5:8.083,586.329,74.6564,0,0.000885,0,0
0:5:8.384,586.565,74.684,0,0.000885,0,0
0:5:8.683,587.325,74.7805,0,0.000885,0,0
0:5:8.981,587.735,74.8357,0,0.000885,0,0
0:5:9.276,588.206,74.8909,0,0.000885,0,0
0:5:9.582,588.735,74.9598,0,0.000885,0,0
0:5:9.881,589.26,75.0287,0,0.000885,0,0
0:5:10.183,590.435,75.1735,0,0.000885,0,0
0:5:10.484,591.551,75.3183,0,0.000885,0,0
0:5:10.779,591.725,75.339,0,0.000885,0,0
0:5:11.077,592.726,75.47,0,0.000885,0,0
0:5:11.384,592.783,75.4769,0,0.000885,0,0
0:5:11.681,592.957,75.4976,0,0.000885,0,0
0:5:11.981,594.251,75.6631,0,0.000885,0,0
0:5:12.271,594.545,75.6975,0,0.000885,0,0
0:5:12.576,594.425,75.6838,0,0.000885,0,0
0:5:12.881,595.363,75.801,0,0.000885,0,0
0:5:13.184,596.306,75.9251,0,0.000885,0,0
0:5:13.486,596.831,75.994,0,0.000885,0,0
0:5:13.788,597.245,76.0423,0,0.000885,0,0
0:5:14.091,598.126,76.1526,0,0.000885,0,0
0:5:14.386,598.419,76.194,0,0.000885,0,0
0:5:14.685,599.064,76.2767,0,0.000885,0,0
0:5:14.984,599.594,76.3456,0,0.000885,0,0
0:5:15.277,600.061,76.4008,0,0.000885,0,0
0:5:15.577,600.826,76.4973,0,0.000885,0,0
0:5:15.883,601.057,76.5318,0,0.000885,0,0
0:5:16.182,602.116,76.6628,0,0.000885,0,0
0:5:16.478,602.294,76.6835,0,0.000885,0,0
0:5:16.785,603.641,76.8559,0,0.000885,0,0
0:5:17.085,604.344,76.9455,0,0.000885,0,0
0:5:17.389,604.874,77.0144,0,0.000885,0,0
0:5:17.692,604.931,77.0213,0,0.000885,0,0
0:5:17.993,605.581,77.1041,0,0.000885,0,0
0:5:18.295,606.164,77.1799,0,0.000885,0,0
0:5:18.596,607.107,77.2971,0,0.000885,0,0
0:5:18.890,607.28,77.3247,0,0.000885,0,0
0:5:19.192,608.219,77.4419,0,0.000885,0,0
0:5:19.487,608.512,77.4764,0,0.000885,0,0
0:5:19.786,609.157,77.5591,0,0.000885,0,0
0:5:20.081,609.865,77.6488,0,0.000885,0,0
0:5:20.379,610.687,77.7522,0,0.000885,0,0
0:5:20.678,610.745,77.7591,0,0.000885,0,0
0:5:20.982,611.568,77.8694,0,0.000885,0,0
0:5:21.284,611.92,77.9108,0,0.000885,0,0
0:5:21.579,612.916,78.0418,0,0.000885,0,0
0:5:21.878,613.032,78.0555,0,0.000885,0,0
0:5:22.186,613.797,78.1521,0,0.000885,0,0
0:5:22.488,614.033,78.1797,0,0.000885,0,0
0:5:22.792,615.5,78.3658,0,0.000885,0,0
0:5:23.094,615.674,78.3934,0,0.000885,0,0
0:5:23.394,616.319,78.4692,0,0.000885,0,0
0:5:23.697,616.612,78.5106,0,0.000885,0,0
0:5:23.993,617.142,78.5795,0,0.000885,0,0
0:5:24.293,618.138,78.7037,0,0.000885,0,0
0:5:24.588,618.316,78.7243,0,0.000885,0,0
0:5:24.890,619.081,78.8209,0,0.000885,0,0
0:5:25.185,619.433,78.8691,0,0.000885,0,0
0:5:25.484,620.429,78.9932,0,0.000885,0,0
0:5:25.783,621.719,79.1587,0,0.000885,0,0
0:5:26.085,621.661,79.1518,0,0.000885,0,0
0:5:26.387,622.6,79.269,0,0.000885,0,0
0:5:26.682,622.778,79.2966,0,0.000885,0,0
0:5:26.982,623.543,79.3931,0,0.000885,0,0
0:5:27.277,624.361,79.4966,0,0.000885,0,0
0:5:27.579,624.948,79.5724,0,0.000885,0,0
0:5:27.883,624.948,79.5724,0,0.000885,0,0
0:5:28.186,625.478,79.6413,0,0.000885,0,0
0:5:28.488,626.181,79.731,0,0.000885,0,0
0:5:28.787,626.826,79.8068,0,0.000885,0,0
0:5:29.088,627.355,79.8758,0,0.000885,0,0
0:5:29.385,627.533,79.8964,0,0.000885,0,0
0:5:29.681,628.649,80.0412,0,0.000885,0,0
0:5:29.983,628.881,80.0688,0,0.000885,0,0
0:5:30.286,630.175,80.2343,0,0.000885,0,0
0:5:30.586,630.291,80.2481,0,0.000885,0,0
0:5:30.883,630.82,80.317,0,0.000885,0,0
0:5:31.181,631.465,80.3998,0,0.000885,0,0
0:5:31.490,632.11,80.4825,0,0.000885,0,0
0:5:31.785,632.875,80.579,0,0.000885,0,0
0:5:32.087,633.227,80.6273,0,0.000885,0,0
0:5:32.381,634.05,80.7307,0,0.000885,0,0
0:5:32.683,634.281,80.7583,0,0.000885,0,0
0:5:32.988,635.517,80.9169,0,0.000885,0,0
0:5:33.292,635.807,80.9513,0,0.000885,0,0
0:5:33.592,635.927,80.972,0,0.000885,0,0
0:5:33.894,636.807,81.0823,0,0.000885,0,0
0:5:34.195,637.101,81.1168,0,0.000885,0,0
0:5:34.491,637.982,81.2271,0,0.000885,0,0
0:5:34.787,638.04,81.2409,0,0.000885,0,0
0:5:35.086,638.275,81.2685,0,0.000885,0,0
0:5:35.382,639.387,81.4064,0,0.000885,0,0
0:5:35.684,639.743,81.4547,0,0.000885,0,0
0:5:35.988,640.74,81.5788,0,0.000885,0,0
0:5:36.287,641.442,81.6684,0,0.000885,0,0
0:5:36.585,641.972,81.7373,0,0.000885,0,0
0:5:36.878,642.323,81.7856,0,0.000885,0,0
0:5:37.181,642.853,81.8477,0,0.000885,0,0
0:5:37.483,643.44,81.9235,0,0.000885,0,0
0:5:37.787,644.614,82.0752,0,0.000885,0,0
0:5:38.088,645.201,82.151,0,0.000885,0,0
0:5:38.389,645.731,82.22,0,0.000885,0,0
0:5:38.693,646.433,82.3096,0,0.000885,0,0
0:5:38.987,646.843,82.3579,0,0.000885,0,0
0:5:39.290,648.075,82.5165,0,0.000885,0,0
0:5:39.583,648.253,82.5371,0,0.000885,0,0
0:5:39.882,648.488,82.5647,0,0.000885,0,0
0:5:40.179,648.84,82.613,0,0.000885,0,0
0:5:40.487,649.543,82.7026,0,0.000885,0,0
0:5:40.787,650.308,82.7991,0,0.000885,0,0
0:5:41.081,651.362,82.937,0,0.000885,0,0
0:5:41.382,651.54,82.9577,0,0.000885,0,0
0:5:41.687,652.363,83.0611,0,0.000885,0,0
0:5:41.985,653.123,83.1577,0,0.000885,0,0
0:5:42.285,653.479,83.2059,0,0.000885,0,0
0:5:42.586,653.359,83.1852,0,0.000885,0,0
0:5:42.891,654.24,83.3025,0,0.000885,0,0
0:5:43.191,654.827,83.3783,0,0.000885,0,0
0:5:43.494,656.117,83.5369,0,0.000885,0,0
0:5:43.796,656.411,83.5782,0,0.000885,0,0
0:5:44.092,656.94,83.6472,0,0.000885,0,0
0:5:44.393,657.643,83.7368,0,0.000885,0,0
0:5:44.688,658.057,83.7851,0,0.000885,0,0
0:5:44.989,658.644,83.8609,0,0.000885,0,0
0:5:45.283,658.995,83.9092,0,0.000885,0,0
0:5:45.583,659.524,83.9712,0,0.000885,0,0
0:5:45.890,659.818,84.0126,0,0.000885,0,0
0:5:46.186,661.459,84.2195,0,0.000885,0,0
0:5:46.486,662.104,84.3022,0,0.000885,0,0
0:5:46.783,662.692,84.378,0,0.000885,0,0
0:5:47.081,662.927,84.4056,0,0.000885,0,0
0:5:47.387,663.337,84.4608,0,0.000885,0,0
0:5:47.689,663.924,84.5366,0,0.000885,0,0
0:5:47.993,664.044,84.5504,0,0.000885,0,0
0:5:48.296,664.982,84.6676,0,0.000885,0,0
0:5:48.597,665.863,84.7779,0,0.000885,0,0
0:5:48.899,666.215,84.8262,0,0.000885,0,0
0:5:49.197,666.686,84.8883,0,0.000885,0,0
0:5:49.497,667.211,84.9503,0,0.000885,0,0
0:5:49.792,668.154,85.0744,0,0.000885,0,0
0:5:50.094,668.563,85.1227,0,0.000885,0,0
0:5:50.388,668.741,85.1434,0,0.000885,0,0
0:5:50.688,669.911,85.295,0,0.000885,0,0
0:5:50.985,670.089,85.3157,0,0.000885,0,0
0:5:51.290,670.031,85.3088,0,0.000885,0,0
0:5:51.589,670.854,85.4123,0,0.000885,0,0
0:5:51.886,671.673,85.5226,0,0.000885,0,0
0:5:52.187,672.086,85.5708,0,0.000885,0,0
0:5:52.492,672.611,85.6398,0,0.000885,0,0
0:5:52.793,673.083,85.7018,0,0.000885,0,0
0:5:53.095,674.141,85.8328,0,0.000885,0,0
0:5:53.396,674.728,85.9087,0,0.000885,0,0
0:5:53.697,675.138,85.9638,0,0.000885,0,0
0:5:53.993,670.97,85.4329,0,0.000885,0,0
0:5:54.290,670.734,85.3985,0,0.000885,0,0
0:5:54.586,496.595,63.2249,0,0.000885,0,0
0:5:54.889,481.053,61.2461,0,0.000885,0,0
0:5:54.967,481.053,61.2461,0,0.000885,0,0