File: DataFile2021-06-07_051301.csv
Test ID:,Date Tested:,Time:,Test Type:,Diameter Avg. (mm):,Cyl. Corr. Factor:,Height (mm):,Age (days):,Weight (kN):,Break Type:,Ramp Rate (MPa/s):,Load at Break (kN):,Stress at Break (MPa):
12,6/7/2021,05:13,Cylinder,100,1,200,0,3.6,3,0.25,692.57,88.18
Sample Time,Load (kN),Stress (MPa),Long. Strain,Trans. Strain,Chan1 Deflection (mm),Chan2 Deflection (mm)
0:0:13.818,5.33787,0.682581,0,0.000885,0,0
0:0:14.117,7.09491,0.903213,0,0.000885,0,0
0:0:14.413,13.0778,1.66853,0,0.000885,0,0
0:0:14.715,13.1356,1.67543,0,0.000885,0,0
0:0:15.010,12.6685,1.61337,0,0.000885,0,0
0:0:15.307,12.5529,1.59958,0,0.000885,0,0
0:0:15.605,12.4906,1.59269,0,0.000885,0,0
0:0:15.899,12.1392,1.54443,0,0.000885,0,0
0:0:16.200,12.0235,1.53064,0,0.000885,0,0
0:0:16.494,11.9079,1.51685,0,0.000885,0,0
0:0:16.793,11.9657,1.52374,0,0.000885,0,0
0:0:17.090,11.552,1.46858,0,0.000885,0,0
0:0:17.386,11.9657,1.52374,0,0.000885,0,0
0:0:17.685,12.2015,1.55132,0,0.000885,0,0
0:0:17.980,12.4328,1.58579,0,0.000885,0,0
0:0:18.281,13.0778,1.66853,0,0.000885,0,0
0:0:18.576,13.5493,1.72369,0,0.000885,0,0
0:0:18.876,13.6649,1.73748,0,0.000885,0,0
0:0:19.184,14.7192,1.87537,0,0.000885,0,0
0:0:19.487,15.0127,1.90985,0,0.000885,0,0
0:0:19.792,16.1293,2.05464,0,0.000885,0,0
0:0:20.093,17.1835,2.18564,0,0.000885,0,0
0:0:20.397,18.3578,2.33732,0,0.000885,0,0
0:0:20.701,18.5936,2.3649,0,0.000885,0,0
0:0:20.998,19.8257,2.52348,0,0.000885,0,0
0:0:21.300,20.235,2.57864,0,0.000885,0,0
0:0:21.593,20.702,2.6338,0,0.000885,0,0
0:0:21.893,21.5249,2.73722,0,0.000885,0,0
0:0:22.193,21.8764,2.78548,0,0.000885,0,0
0:0:22.490,22.2278,2.82685,0,0.000885,0,0
0:0:22.791,22.637,2.88201,0,0.000885,0,0
0:0:23.086,23.7535,3.0268,0,0.000885,0,0
0:0:23.389,24.1049,3.06817,0,0.000885,0,0
0:0:23.682,24.0471,3.06127,0,0.000885,0,0
0:0:23.983,24.9278,3.17159,0,0.000885,0,0
0:0:24.282,25.515,3.24743,0,0.000885,0,0
0:0:24.585,25.9821,3.30948,0,0.000885,0,0
0:0:24.891,26.805,3.4129,0,0.000885,0,0
0:0:25.195,27.3877,3.48875,0,0.000885,0,0
0:0:25.495,28.1528,3.58527,0,0.000885,0,0
0:0:25.798,28.4464,3.61975,0,0.000885,0,0
0:0:26.097,29.6785,3.77833,0,0.000885,0,0
0:0:26.397,29.9721,3.8128,0,0.000885,0,0
0:0:26.692,30.2657,3.85417,0,0.000885,0,0
0:0:26.993,30.6749,3.90243,0,0.000885,0,0
0:0:27.288,31.3778,3.99206,0,0.000885,0,0
0:0:27.590,32.2007,4.10238,0,0.000885,0,0
0:0:27.888,32.5521,4.14375,0,0.000885,0,0
0:0:28.185,32.9035,4.19201,0,0.000885,0,0
0:0:28.485,33.077,4.2127,0,0.000885,0,0
0:0:28.782,34.3091,4.37128,0,0.000885,0,0
0:0:29.084,34.4871,4.39196,0,0.000885,0,0
0:0:29.389,35.4256,4.50917,0,0.000885,0,0
0:0:29.693,36.1863,4.6057,0,0.000885,0,0
0:0:29.995,37.1827,4.7367,0,0.000885,0,0
0:0:30.297,37.4763,4.77117,0,0.000885,0,0
0:0:30.600,38.2414,4.8677,0,0.000885,0,0
0:0:30.895,38.6506,4.92286,0,0.000885,0,0
0:0:31.195,39.3534,5.01249,0,0.000885,0,0
0:0:31.493,40.292,5.1297,0,0.000885,0,0
0:0:31.790,40.5277,5.15728,0,0.000885,0,0
0:0:32.093,41.6398,5.30207,0,0.000885,0,0
0:0:32.387,42.1691,5.37102,0,0.000885,0,0
0:0:32.689,43.0499,5.48133,0,0.000885,0,0
0:0:32.985,43.4591,5.53649,0,0.000885,0,0
0:0:33.284,43.6371,5.55717,0,0.000885,0,0
0:0:33.583,43.9885,5.59854,0,0.000885,0,0
0:0:33.879,45.0427,5.73644,0,0.000885,0,0
0:0:34.182,45.6299,5.81228,0,0.000885,0,0
0:0:34.487,46.217,5.88123,0,0.000885,0,0
0:0:34.791,46.9198,5.97086,0,0.000885,0,0
0:0:35.094,46.9198,5.97086,0,0.000885,0,0
0:0:35.396,47.8584,6.09497,0,0.000885,0,0
0:0:35.701,48.5034,6.1777,0,0.000885,0,0
0:0:35.996,48.6813,6.19839,0,0.000885,0,0
0:0:36.298,49.3842,6.28802,0,0.000885,0,0
0:0:36.593,49.7356,6.32939,0,0.000885,0,0
0:0:36.891,50.2649,6.39833,0,0.000885,0,0
0:0:37.192,51.0255,6.49486,0,0.000885,0,0
0:0:37.487,51.7284,6.58449,0,0.000885,0,0
0:0:37.791,52.4935,6.68102,0,0.000885,0,0
0:0:38.086,53.0184,6.74997,0,0.000885,0,0
0:0:38.387,53.7256,6.8396,0,0.000885,0,0
0:0:38.685,54.1349,6.89476,0,0.000885,0,0
0:0:38.981,54.3706,6.92234,0,0.000885,0,0
0:0:39.283,55.4827,7.06713,0,0.000885,0,0
0:0:39.587,55.5405,7.07402,0,0.000885,0,0
0:0:39.892,56.5992,7.20502,0,0.000885,0,0
0:0:40.195,57.1241,7.27397,0,0.000885,0,0
0:0:40.496,57.4176,7.30844,0,0.000885,0,0
0:0:40.798,57.7691,7.35671,0,0.000885,0,0
0:0:41.093,58.8277,7.48771,0,0.000885,0,0
0:0:41.396,59.704,7.60492,0,0.000885,0,0
0:0:41.691,60.0599,7.64629,0,0.000885,0,0
0:0:41.990,60.3535,7.68076,0,0.000885,0,0
0:0:42.289,60.9362,7.7566,0,0.000885,0,0
0:0:42.589,61.3499,7.81176,0,0.000885,0,0
0:0:42.888,62.0527,7.90139,0,0.000885,0,0
0:0:43.182,63.227,8.05308,0,0.000885,0,0
0:0:43.484,63.4005,8.07376,0,0.000885,0,0
0:0:43.780,64.0455,8.1565,0,0.000885,0,0
0:0:44.083,65.162,8.29439,0,0.000885,0,0
0:0:44.390,65.3933,8.32887,0,0.000885,0,0
0:0:44.693,65.807,8.37713,0,0.000885,0,0
0:0:44.994,65.9226,8.39092,0,0.000885,0,0
0:0:45.298,67.0391,8.53571,0,0.000885,0,0
0:0:45.599,67.1548,8.5495,0,0.000885,0,0
0:0:45.897,68.0355,8.65982,0,0.000885,0,0
0:0:46.193,68.854,8.77013,0,0.000885,0,0
0:0:46.494,69.6191,8.86666,0,0.000885,0,0
0:0:46.789,70.144,8.92871,0,0.000885,0,0
0:0:47.092,70.7312,9.00455,0,0.000885,0,0
0:0:47.388,70.9669,9.03903,0,0.000885,0,0
0:0:47.687,71.7276,9.13555,0,0.000885,0,0
0:0:47.989,72.4927,9.23208,0,0.000885,0,0
0:0:48.283,72.9019,9.28034,0,0.000885,0,0
0:0:48.586,74.0184,9.42513,0,0.000885,0,0
0:0:48.882,74.1341,9.43892,0,0.000885,0,0
0:0:49.185,74.2497,9.45271,0,0.000885,0,0
0:0:49.489,75.1883,9.57682,0,0.000885,0,0
0:0:49.793,75.4819,9.61129,0,0.000885,0,0
0:0:50.094,75.7755,9.64577,0,0.000885,0,0
0:0:50.395,76.3626,9.72161,0,0.000885,0,0
0:0:50.698,77.7104,9.89398,0,0.000885,0,0
0:0:50.993,78.3554,9.97671,0,0.000885,0,0
0:0:51.292,78.8269,10.0388,0,0.000885,0,0
0:0:51.593,79.7077,10.1491,0,0.000885,0,0
0:0:51.888,79.939,10.1767,0,0.000885,0,0
0:0:52.191,80.6463,10.2663,0,0.000885,0,0
0:0:52.486,81.229,10.3421,0,0.000885,0,0
0:0:52.786,81.7583,10.4111,0,0.000885,0,0
0:0:53.084,82.2298,10.4662,0,0.000885,0,0
0:0:53.381,82.8125,10.5421,0,0.000885,0,0
0:0:53.683,82.9905,10.5697,0,0.000885,0,0
0:0:53.980,83.5776,10.6386,0,0.000885,0,0
0:0:54.281,84.574,10.7696,0,0.000885,0,0
0:0:54.587,85.2769,10.8592,0,0.000885,0,0
0:0:54.891,85.9797,10.9489,0,0.000885,0,0
0:0:55.194,86.6869,11.0385,0,0.000885,0,0
0:0:55.494,87.3898,11.1281,0,0.000885,0,0
0:0:55.797,88.2082,11.2316,0,0.000885,0,0
0:0:56.093,88.3283,11.2453,0,0.000885,0,0
0:0:56.391,88.6797,11.2936,0,0.000885,0,0
0:0:56.691,88.8577,11.3143,0,0.000885,0,0
0:0:56.985,89.4404,11.3901,0,0.000885,0,0
0:0:57.288,91.024,11.5901,0,0.000885,0,0
0:0:57.584,91.3175,11.6246,0,0.000885,0,0
0:0:57.883,91.669,11.6728,0,0.000885,0,0
0:0:58.182,92.1405,11.7349,0,0.000885,0,0
0:0:58.480,92.9589,11.8383,0,0.000885,0,0
0:0:58.781,93.5461,11.9141,0,0.000885,0,0
0:0:59.073,94.4847,12.0314,0,0.000885,0,0
0:0:59.380,94.8361,12.0727,0,0.000885,0,0
0:0:59.684,95.1919,12.121,0,0.000885,0,0
0:0:59.988,95.3654,12.1417,0,0.000885,0,0
0:1:0.291,96.304,12.2589,0,0.000885,0,0
0:1:0.594,96.3618,12.2727,0,0.000885,0,0
0:1:0.896,97.2426,12.383,0,0.000885,0,0
0:1:1.192,98.4169,12.5278,0,0.000885,0,0
0:1:1.491,99.0041,12.6036,0,0.000885,0,0
0:1:1.793,99.8225,12.707,0,0.000885,0,0
0:1:2.088,100.116,12.7484,0,0.000885,0,0
0:1:2.387,99.8804,12.7139,0,0.000885,0,0
0:1:2.687,100.761,12.8311,0,0.000885,0,0
0:1:2.982,101.758,12.9552,0,0.000885,0,0
0:1:3.283,102.58,13.0587,0,0.000885,0,0
0:1:3.576,102.932,13.1069,0,0.000885,0,0
0:1:3.881,103.168,13.1345,0,0.000885,0,0
0:1:4.185,103.692,13.2035,0,0.000885,0,0
0:1:4.489,104.809,13.3414,0,0.000885,0,0
0:1:4.793,105.454,13.4241,0,0.000885,0,0
0:1:5.098,105.921,13.4861,0,0.000885,0,0
0:1:5.398,106.45,13.5551,0,0.000885,0,0
0:1:5.702,107.331,13.6654,0,0.000885,0,0
0:1:6.001,107.976,13.7481,0,0.000885,0,0
0:1:6.300,108.328,13.7895,0,0.000885,0,0
0:1:6.594,108.621,13.8309,0,0.000885,0,0
0:1:6.897,108.857,13.8585,0,0.000885,0,0
0:1:7.193,109.853,13.9895,0,0.000885,0,0
0:1:7.492,110.147,14.0239,0,0.000885,0,0
0:1:7.791,112.024,14.2653,0,0.000885,0,0
0:1:8.089,112.669,14.348,0,0.000885,0,0
0:1:8.390,113.43,14.4445,0,0.000885,0,0
0:1:8.683,113.256,14.4169,0,0.000885,0,0
0:1:8.985,113.545,14.4583,0,0.000885,0,0
0:1:9.283,113.839,14.4928,0,0.000885,0,0
0:1:9.585,114.253,14.5479,0,0.000885,0,0
0:1:9.891,115.191,14.6651,0,0.000885,0,0
0:1:10.194,115.658,14.7272,0,0.000885,0,0
0:1:10.496,116.833,14.8789,0,0.000885,0,0
0:1:10.799,116.948,14.8927,0,0.000885,0,0
0:1:11.098,118.474,15.0857,0,0.000885,0,0
0:1:11.400,119.003,15.1547,0,0.000885,0,0
0:1:11.694,118.768,15.1202,0,0.000885,0,0
0:1:11.996,119.528,15.2167,0,0.000885,0,0
0:1:12.292,119.942,15.2719,0,0.000885,0,0
0:1:12.590,119.942,15.2719,0,0.000885,0,0
0:1:12.890,120.818,15.3822,0,0.000885,0,0
0:1:13.187,122.05,15.5408,0,0.000885,0,0
0:1:13.489,122.108,15.5477,0,0.000885,0,0
0:1:13.785,122.344,15.5753,0,0.000885,0,0
0:1:14.088,124.163,15.8097,0,0.000885,0,0
0:1:14.392,124.515,15.851,0,0.000885,0,0
0:1:14.695,125.16,15.9338,0,0.000885,0,0
0:1:14.995,125.511,15.982,0,0.000885,0,0
0:1:15.298,125.983,16.0372,0,0.000885,0,0
0:1:15.600,126.098,16.0579,0,0.000885,0,0
0:1:15.896,127.037,16.1751,0,0.000885,0,0
0:1:16.192,127.508,16.2372,0,0.000885,0,0
0:1:16.495,128.153,16.3199,0,0.000885,0,0
0:1:16.790,128.736,16.3888,0,0.000885,0,0
0:1:17.092,129.323,16.4647,0,0.000885,0,0
0:1:17.387,130.146,16.5681,0,0.000885,0,0
0:1:17.688,130.791,16.6508,0,0.000885,0,0
0:1:17.986,131.378,16.7267,0,0.000885,0,0
0:1:18.281,131.845,16.7887,0,0.000885,0,0
0:1:18.583,132.375,16.8577,0,0.000885,0,0
0:1:18.875,132.668,16.8922,0,0.000885,0,0
0:1:19.181,132.962,16.9266,0,0.000885,0,0
0:1:19.486,133.843,17.0438,0,0.000885,0,0
0:1:19.791,135.07,17.1955,0,0.000885,0,0
0:1:20.093,135.248,17.2231,0,0.000885,0,0
0:1:20.396,135.893,17.3058,0,0.000885,0,0
0:1:20.699,136.596,17.3955,0,0.000885,0,0
0:1:20.995,137.068,17.4506,0,0.000885,0,0
0:1:21.294,138.237,17.6023,0,0.000885,0,0
0:1:21.593,138.064,17.5816,0,0.000885,0,0
0:1:21.888,138.651,17.6506,0,0.000885,0,0
0:1:22.190,139.002,17.6988,0,0.000885,0,0
0:1:22.486,139.821,17.8023,0,0.000885,0,0
0:1:22.788,140.702,17.9126,0,0.000885,0,0
0:1:23.085,141.76,18.0505,0,0.000885,0,0
0:1:23.382,141.934,18.0712,0,0.000885,0,0
0:1:23.683,142.463,18.1401,0,0.000885,0,0
0:1:23.987,143.989,18.3332,0,0.000885,0,0
0:1:24.290,142.988,18.2091,0,0.000885,0,0
0:1:24.594,143.753,18.3056,0,0.000885,0,0
0:1:24.898,144.278,18.3676,0,0.000885,0,0
0:1:25.201,145.279,18.4986,0,0.000885,0,0
0:1:25.503,144.807,18.4366,0,0.000885,0,0
0:1:25.805,146.627,18.671,0,0.000885,0,0
0:1:26.101,146.978,18.7124,0,0.000885,0,0
0:1:26.402,147.859,18.8227,0,0.000885,0,0
0:1:26.699,148.562,18.9123,0,0.000885,0,0
0:1:26.998,149.091,18.9813,0,0.000885,0,0
0:1:27.298,150.03,19.1054,0,0.000885,0,0
0:1:27.593,149.558,19.0433,0,0.000885,0,0
0:1:27.896,150.555,19.1674,0,0.000885,0,0
0:1:28.192,151.026,19.2295,0,0.000885,0,0
0:1:28.490,151.844,19.3329,0,0.000885,0,0
0:1:28.789,151.551,19.2984,0,0.000885,0,0
0:1:29.085,152.374,19.4018,0,0.000885,0,0
0:1:29.387,153.957,19.6018,0,0.000885,0,0
0:1:29.691,154.073,19.6156,0,0.000885,0,0
0:1:29.996,154.66,19.6914,0,0.000885,0,0
0:1:30.298,155.425,19.788,0,0.000885,0,0
0:1:30.601,156.773,19.9603,0,0.000885,0,0
0:1:30.903,156.244,19.8914,0,0.000885,0,0
0:1:31.197,156.773,19.9603,0,0.000885,0,0
0:1:31.500,157.596,20.0637,0,0.000885,0,0
0:1:31.796,157.885,20.1051,0,0.000885,0,0
0:1:32.093,159.117,20.2568,0,0.000885,0,0
0:1:32.393,159.998,20.374,0,0.000885,0,0
0:1:32.689,159.762,20.3395,0,0.000885,0,0
0:1:32.990,159.998,20.374,0,0.000885,0,0
0:1:33.284,160.585,20.443,0,0.000885,0,0
0:1:33.588,161.817,20.6015,0,0.000885,0,0
0:1:33.886,161.933,20.6153,0,0.000885,0,0
0:1:34.187,162.872,20.7394,0,0.000885,0,0
0:1:34.494,163.343,20.7946,0,0.000885,0,0
0:1:34.796,164.575,20.9532,0,0.000885,0,0
0:1:35.099,165.278,21.0428,0,0.000885,0,0
0:1:35.400,165.63,21.0911,0,0.000885,0,0
0:1:35.701,166.159,21.1531,0,0.000885,0,0
0:1:36.000,166.977,21.2634,0,0.000885,0,0
0:1:36.294,166.92,21.2496,0,0.000885,0,0
0:1:36.596,167.387,21.3117,0,0.000885,0,0
0:1:36.893,168.032,21.3944,0,0.000885,0,0
0:1:37.193,168.445,21.4496,0,0.000885,0,0
0:1:37.490,169.851,21.6289,0,0.000885,0,0
0:1:37.789,170.265,21.6771,0,0.000885,0,0
0:1:38.089,171.025,21.7736,0,0.000885,0,0
0:1:38.391,171.555,21.8426,0,0.000885,0,0
0:1:38.694,172.137,21.9184,0,0.000885,0,0
0:1:38.991,172.493,21.9598,0,0.000885,0,0
0:1:39.294,173.312,22.0701,0,0.000885,0,0
0:1:39.600,174.077,22.1666,0,0.000885,0,0
0:1:39.903,174.192,22.1804,0,0.000885,0,0
0:1:40.205,175.015,22.2839,0,0.000885,0,0
0:1:40.508,175.189,22.3045,0,0.000885,0,0
0:1:40.808,175.598,22.3597,0,0.000885,0,0
0:1:41.107,176.185,22.4355,0,0.000885,0,0
0:1:41.404,176.772,22.5045,0,0.000885,0,0
0:1:41.704,177.359,22.5803,0,0.000885,0,0
0:1:42.000,178.707,22.7527,0,0.000885,0,0
0:1:42.302,178.534,22.732,0,0.000885,0,0
0:1:42.596,179.646,22.8699,0,0.000885,0,0
0:1:42.897,180.233,22.9458,0,0.000885,0,0
0:1:43.197,180.878,23.0285,0,0.000885,0,0
0:1:43.493,181.523,23.1112,0,0.000885,0,0
0:1:43.793,181.932,23.1664,0,0.000885,0,0
0:1:44.089,182.813,23.2767,0,0.000885,0,0
0:1:44.393,182.991,23.2974,0,0.000885,0,0
0:1:44.697,183.987,23.4284,0,0.000885,0,0
0:1:45.001,184.454,23.4835,0,0.000885,0,0
0:1:45.303,184.632,23.5111,0,0.000885,0,0
0:1:45.606,185.335,23.6008,0,0.000885,0,0
0:1:45.907,185.922,23.6697,0,0.000885,0,0
0:1:46.202,186.332,23.7249,0,0.000885,0,0
0:1:46.503,186.861,23.7938,0,0.000885,0,0
0:1:46.801,187.684,23.8972,0,0.000885,0,0
0:1:47.097,188.502,24.0007,0,0.000885,0,0
0:1:47.399,188.444,23.9938,0,0.000885,0,0
0:1:47.694,188.854,24.0489,0,0.000885,0,0
0:1:47.996,189.85,24.173,0,0.000885,0,0
0:1:48.291,190.086,24.2006,0,0.000885,0,0
0:1:48.591,191.434,24.373,0,0.000885,0,0
0:1:48.890,191.847,24.4281,0,0.000885,0,0
0:1:49.194,192.141,24.4626,0,0.000885,0,0
0:1:49.497,192.959,24.566,0,0.000885,0,0
0:1:49.799,193.489,24.635,0,0.000885,0,0
0:1:50.098,194.134,24.7177,0,0.000885,0,0
0:1:50.399,194.249,24.7315,0,0.000885,0,0
0:1:50.694,194.837,24.8073,0,0.000885,0,0
0:1:50.993,195.833,24.9314,0,0.000885,0,0
0:1:51.286,196.829,25.0624,0,0.000885,0,0
0:1:51.586,197.474,25.1452,0,0.000885,0,0
0:1:51.890,198.004,25.2072,0,0.000885,0,0
0:1:52.186,198.182,25.2348,0,0.000885,0,0
0:1:52.481,199.178,25.3589,0,0.000885,0,0
0:1:52.776,199.529,25.4072,0,0.000885,0,0
0:1:53.075,200.29,25.5037,0,0.000885,0,0
0:1:53.376,200.641,25.5451,0,0.000885,0,0
0:1:53.676,201.286,25.6278,0,0.000885,0,0
0:1:53.972,201.816,25.6968,0,0.000885,0,0
0:1:54.272,202.403,25.7726,0,0.000885,0,0
0:1:54.576,202.167,25.7381,0,0.000885,0,0
0:1:54.877,203.048,25.8553,0,0.000885,0,0
0:1:55.177,203.987,25.9726,0,0.000885,0,0
0:1:55.478,205.041,26.1036,0,0.000885,0,0
0:1:55.776,205.334,26.1449,0,0.000885,0,0
0:1:56.082,206.099,26.2414,0,0.000885,0,0
0:1:56.386,206.802,26.3311,0,0.000885,0,0
0:1:56.685,207.038,26.3587,0,0.000885,0,0
0:1:56.977,207.389,26.4069,0,0.000885,0,0
0:1:57.276,208.092,26.4966,0,0.000885,0,0
0:1:57.580,208.679,26.5724,0,0.000885,0,0
0:1:57.877,209.204,26.6344,0,0.000885,0,0
0:1:58.174,209.791,26.7103,0,0.000885,0,0
0:1:58.476,210.788,26.8413,0,0.000885,0,0
0:1:58.777,211.202,26.8896,0,0.000885,0,0
0:1:59.093,211.847,26.9723,0,0.000885,0,0
0:1:59.392,212.607,27.0688,0,0.000885,0,0
0:1:59.695,213.016,27.124,0,0.000885,0,0
0:1:59.996,213.666,27.2067,0,0.000885,0,0
0:2:0.295,214.133,27.2619,0,0.000885,0,0
0:2:0.596,214.662,27.3308,0,0.000885,0,0
0:2:0.892,215.249,27.4067,0,0.000885,0,0
0:2:1.190,216.068,27.5101,0,0.000885,0,0
0:2:1.485,216.477,27.5652,0,0.000885,0,0
0:2:1.781,216.891,27.6135,0,0.000885,0,0
0:2:2.074,217.829,27.7376,0,0.000885,0,0
0:2:2.374,218.003,27.7583,0,0.000885,0,0
0:2:2.667,218.59,27.8341,0,0.000885,0,0
0:2:2.965,219.119,27.8962,0,0.000885,0,0
0:2:3.261,219.644,27.9651,0,0.000885,0,0
0:2:3.557,220.583,28.0823,0,0.000885,0,0
0:2:3.854,221.29,28.172,0,0.000885,0,0
0:2:4.148,222.287,28.303,0,0.000885,0,0
0:2:4.448,222.811,28.3719,0,0.000885,0,0
0:2:4.751,222.638,28.3443,0,0.000885,0,0
0:2:5.053,223.577,28.4685,0,0.000885,0,0
0:2:5.352,223.986,28.5167,0,0.000885,0,0
0:2:5.652,224.457,28.5788,0,0.000885,0,0
0:2:5.952,225.396,28.696,0,0.000885,0,0
0:2:6.246,225.805,28.7511,0,0.000885,0,0
0:2:6.545,226.156,28.7925,0,0.000885,0,0
0:2:6.841,227.446,28.958,0,0.000885,0,0
0:2:7.136,227.856,29.0131,0,0.000885,0,0
0:2:7.434,228.327,29.0683,0,0.000885,0,0
0:2:7.727,229.324,29.1993,0,0.000885,0,0
0:2:8.027,229.439,29.2131,0,0.000885,0,0
0:2:8.319,230.147,29.3027,0,0.000885,0,0
0:2:8.619,230.262,29.3165,0,0.000885,0,0
0:2:8.914,231.023,29.413,0,0.000885,0,0
0:2:9.214,231.494,29.4751,0,0.000885,0,0
0:2:9.517,232.082,29.5509,0,0.000885,0,0
0:2:9.818,233.194,29.6888,0,0.000885,0,0
0:2:10.120,233.781,29.7647,0,0.000885,0,0
0:2:10.420,234.426,29.8474,0,0.000885,0,0
0:2:10.718,234.897,29.9095,0,0.000885,0,0
0:2:11.016,235.6,29.9991,0,0.000885,0,0
0:2:11.308,235.951,30.0405,0,0.000885,0,0
0:2:11.609,236.481,30.1094,0,0.000885,0,0
0:2:11.902,236.832,30.1508,0,0.000885,0,0
0:2:12.201,237.241,30.2059,0,0.000885,0,0
0:2:12.496,238.002,30.3025,0,0.000885,0,0
0:2:12.794,239.234,30.461,0,0.000885,0,0
0:2:13.091,239.586,30.5024,0,0.000885,0,0
0:2:13.383,240.231,30.5851,0,0.000885,0,0
0:2:13.681,240.293,30.592,0,0.000885,0,0
0:2:13.977,240.818,30.661,0,0.000885,0,0
0:2:14.277,241.699,30.7713,0,0.000885,0,0
0:2:14.581,242.05,30.8196,0,0.000885,0,0
0:2:14.881,242.753,30.9092,0,0.000885,0,0
0:2:15.182,243.224,30.9712,0,0.000885,0,0
0:2:15.480,243.518,31.0057,0,0.000885,0,0
0:2:15.780,244.924,31.185,0,0.000885,0,0
0:2:16.075,245.453,31.2539,0,0.000885,0,0
0:2:16.371,246.04,31.3298,0,0.000885,0,0
0:2:16.669,246.334,31.3643,0,0.000885,0,0
0:2:16.981,246.743,31.4194,0,0.000885,0,0
0:2:17.281,247.739,31.5435,0,0.000885,0,0
0:2:17.575,248.211,31.6056,0,0.000885,0,0
0:2:17.873,249.207,31.7297,0,0.000885,0,0
0:2:18.169,249.501,31.7641,0,0.000885,0,0
0:2:18.474,249.438,31.7573,0,0.000885,0,0
0:2:18.773,250.319,31.8745,0,0.000885,0,0
0:2:19.075,251.316,31.9986,0,0.000885,0,0
0:2:19.377,251.845,32.0675,0,0.000885,0,0
0:2:19.678,252.316,32.1227,0,0.000885,0,0
0:2:19.978,253.135,32.233,0,0.000885,0,0
0:2:20.280,253.722,32.3019,0,0.000885,0,0
0:2:20.596,254.309,32.3778,0,0.000885,0,0
0:2:20.893,254.839,32.4467,0,0.000885,0,0
0:2:21.188,255.128,32.4812,0,0.000885,0,0
0:2:21.484,255.541,32.5364,0,0.000885,0,0
0:2:21.779,256.008,32.5984,0,0.000885,0,0
0:2:22.094,256.422,32.6467,0,0.000885,0,0
0:2:22.395,257.241,32.7501,0,0.000885,0,0
0:2:22.690,258.179,32.8742,0,0.000885,0,0
0:2:22.987,258.651,32.9294,0,0.000885,0,0
0:2:23.281,259.647,33.0604,0,0.000885,0,0
0:2:23.577,260.466,33.1638,0,0.000885,0,0
0:2:23.875,260.995,33.2327,0,0.000885,0,0
0:2:24.178,260.879,33.2189,0,0.000885,0,0
0:2:24.481,261.524,33.2948,0,0.000885,0,0
0:2:24.780,262.169,33.3775,0,0.000885,0,0
0:2:25.081,262.463,33.4189,0,0.000885,0,0
0:2:25.382,263.575,33.5568,0,0.000885,0,0
0:2:25.676,264.104,33.6257,0,0.000885,0,0
0:2:25.976,264.571,33.6878,0,0.000885,0,0
0:2:26.270,265.158,33.7636,0,0.000885,0,0
0:2:26.567,265.394,33.7912,0,0.000885,0,0
0:2:26.875,266.92,33.9843,0,0.000885,0,0
0:2:27.177,267.036,33.998,0,0.000885,0,0
0:2:27.477,267.565,34.067,0,0.000885,0,0
0:2:27.773,268.09,34.1359,0,0.000885,0,0
0:2:28.069,268.619,34.2049,0,0.000885,0,0
0:2:28.367,269.967,34.3704,0,0.000885,0,0
0:2:28.670,270.318,34.4186,0,0.000885,0,0
0:2:28.971,270.963,34.5014,0,0.000885,0,0
0:2:29.273,271.319,34.5427,0,0.000885,0,0
0:2:29.574,271.319,34.5427,0,0.000885,0,0
0:2:29.874,271.902,34.6186,0,0.000885,0,0
0:2:30.173,272.547,34.7013,0,0.000885,0,0
0:2:30.474,273.134,34.7772,0,0.000885,0,0
0:2:30.789,273.899,34.8737,0,0.000885,0,0
0:2:31.088,274.896,34.9978,0,0.000885,0,0
0:2:31.393,275.131,35.0323,0,0.000885,0,0
0:2:31.688,275.892,35.1288,0,0.000885,0,0
0:2:31.985,276.186,35.1633,0,0.000885,0,0
0:2:32.279,276.831,35.246,0,0.000885,0,0
0:2:32.580,277.654,35.3494,0,0.000885,0,0
0:2:32.883,277.943,35.3908,0,0.000885,0,0
0:2:33.190,278.823,35.5011,0,0.000885,0,0
0:2:33.486,279.646,35.6045,0,0.000885,0,0
0:2:33.789,279.882,35.6321,0,0.000885,0,0
0:2:34.090,280.407,35.7011,0,0.000885,0,0
0:2:34.393,281.172,35.7976,0,0.000885,0,0
0:2:34.694,281.581,35.8527,0,0.000885,0,0
0:2:34.997,282.462,35.9631,0,0.000885,0,0
0:2:35.294,282.987,36.032,0,0.000885,0,0
0:2:35.596,283.458,36.0941,0,0.000885,0,0
0:2:35.890,283.81,36.1354,0,0.000885,0,0
0:2:36.185,284.633,36.2388,0,0.000885,0,0
0:2:36.494,285.158,36.3078,0,0.000885,0,0
0:2:36.785,285.923,36.4043,0,0.000885,0,0
0:2:37.086,286.274,36.4526,0,0.000885,0,0
0:2:37.379,286.274,36.4526,0,0.000885,0,0
0:2:37.679,287.564,36.6112,0,0.000885,0,0
0:2:37.983,288.089,36.6801,0,0.000885,0,0
0:2:38.290,288.561,36.7422,0,0.000885,0,0
0:2:38.589,289.499,36.8594,0,0.000885,0,0
0:2:38.880,290.202,36.949,0,0.000885,0,0
0:2:39.181,290.673,37.0111,0,0.000885,0,0
0:2:39.484,291.67,37.1352,0,0.000885,0,0
0:2:39.784,292.137,37.1972,0,0.000885,0,0
0:2:40.085,292.902,37.2937,0,0.000885,0,0
0:2:40.384,292.666,37.2662,0,0.000885,0,0
0:2:40.685,293.721,37.3972,0,0.000885,0,0
0:2:40.979,294.014,37.4385,0,0.000885,0,0
0:2:41.285,294.717,37.5282,0,0.000885,0,0
0:2:41.582,294.953,37.5557,0,0.000885,0,0
0:2:41.877,295.718,37.6523,0,0.000885,0,0
0:2:42.176,296.243,37.7212,0,0.000885,0,0
0:2:42.469,296.656,37.7695,0,0.000885,0,0
0:2:42.768,297.123,37.8315,0,0.000885,0,0
0:2:43.063,297.768,37.9143,0,0.000885,0,0
0:2:43.358,298.356,37.9901,0,0.000885,0,0
0:2:43.656,299.058,38.0797,0,0.000885,0,0
0:2:43.951,299.703,38.1625,0,0.000885,0,0
0:2:44.251,300.468,38.259,0,0.000885,0,0
0:2:44.554,301.171,38.3486,0,0.000885,0,0
0:2:44.855,301.638,38.4038,0,0.000885,0,0
0:2:45.156,302.697,38.5417,0,0.000885,0,0
0:2:45.457,303.28,38.6175,0,0.000885,0,0
0:2:45.756,303.573,38.652,0,0.000885,0,0
0:2:46.051,303.342,38.6244,0,0.000885,0,0
0:2:46.348,304.748,38.8037,0,0.000885,0,0
0:2:46.644,305.157,38.852,0,0.000885,0,0
0:2:46.938,305.393,38.8864,0,0.000885,0,0
0:2:47.238,306.038,38.9692,0,0.000885,0,0
0:2:47.530,306.861,39.0726,0,0.000885,0,0
0:2:47.828,307.621,39.1691,0,0.000885,0,0
0:2:48.123,308.56,39.2863,0,0.000885,0,0
0:2:48.418,309.089,39.3553,0,0.000885,0,0
0:2:48.716,309.383,39.3897,0,0.000885,0,0
0:2:49.011,309.97,39.4656,0,0.000885,0,0
0:2:49.313,310.495,39.5345,0,0.000885,0,0
0:2:49.615,310.788,39.569,0,0.000885,0,0
0:2:49.918,311.785,39.7,0,0.000885,0,0
0:2:50.216,312.43,39.7827,0,0.000885,0,0
0:2:50.514,312.665,39.8103,0,0.000885,0,0
0:2:50.815,313.195,39.8793,0,0.000885,0,0
0:2:51.109,313.898,39.9689,0,0.000885,0,0
0:2:51.408,314.836,40.0861,0,0.000885,0,0
0:2:51.704,314.894,40.093,0,0.000885,0,0
0:2:51.998,315.539,40.1758,0,0.000885,0,0
0:2:52.297,316.478,40.293,0,0.000885,0,0
0:2:52.590,316.713,40.3274,0,0.000885,0,0
0:2:52.886,317.825,40.4653,0,0.000885,0,0
0:2:53.180,317.888,40.4722,0,0.000885,0,0
0:2:53.479,318.47,40.5481,0,0.000885,0,0
0:2:53.776,319.645,40.6998,0,0.000885,0,0
0:2:54.077,319.645,40.6998,0,0.000885,0,0
0:2:54.379,320.232,40.7756,0,0.000885,0,0
0:2:54.680,321.17,40.8928,0,0.000885,0,0
0:2:54.980,321.993,40.9962,0,0.000885,0,0
0:2:55.279,322.225,41.0238,0,0.000885,0,0
0:2:55.585,322.812,41.0996,0,0.000885,0,0
0:2:55.893,323.048,41.1341,0,0.000885,0,0
0:2:56.194,323.75,41.2238,0,0.000885,0,0
0:2:56.494,324.395,41.3065,0,0.000885,0,0
0:2:56.786,324.805,41.3548,0,0.000885,0,0
0:2:57.082,325.57,41.4513,0,0.000885,0,0
0:2:57.379,326.037,41.5133,0,0.000885,0,0
0:2:57.682,326.624,41.5892,0,0.000885,0,0
0:2:57.981,327.447,41.6926,0,0.000885,0,0
0:2:58.295,327.678,41.7202,0,0.000885,0,0
0:2:58.595,328.795,41.865,0,0.000885,0,0
0:2:58.888,329.382,41.9408,0,0.000885,0,0
0:2:59.192,330.143,42.0373,0,0.000885,0,0
0:2:59.495,329.969,42.0098,0,0.000885,0,0
0:2:59.795,331.259,42.1752,0,0.000885,0,0
0:3:0.094,331.962,42.2649,0,0.000885,0,0
0:3:0.394,332.843,42.3821,0,0.000885,0,0
0:3:0.699,332.549,42.3407,0,0.000885,0,0
0:3:0.997,333.368,42.4441,0,0.000885,0,0
0:3:1.299,333.545,42.4717,0,0.000885,0,0
0:3:1.598,334.6,42.6027,0,0.000885,0,0
0:3:1.892,335.423,42.7061,0,0.000885,0,0
0:3:2.186,335.89,42.7682,0,0.000885,0,0
0:3:2.493,335.952,42.7751,0,0.000885,0,0
0:3:2.798,336.891,42.8923,0,0.000885,0,0
0:3:3.098,337.945,43.0302,0,0.000885,0,0
0:3:3.387,338.474,43.0922,0,0.000885,0,0
0:3:3.687,338.412,43.0853,0,0.000885,0,0
0:3:3.993,339.293,43.2025,0,0.000885,0,0
0:3:4.294,340.173,43.3129,0,0.000885,0,0
0:3:4.597,340.876,43.4025,0,0.000885,0,0
0:3:4.899,340.525,43.3542,0,0.000885,0,0
0:3:5.197,341.757,43.5128,0,0.000885,0,0
0:3:5.497,341.93,43.5335,0,0.000885,0,0
0:3:5.794,342.402,43.5956,0,0.000885,0,0
0:3:6.089,343.283,43.7059,0,0.000885,0,0
0:3:6.395,343.985,43.7955,0,0.000885,0,0
0:3:6.693,344.573,43.8713,0,0.000885,0,0
0:3:6.996,344.866,43.9127,0,0.000885,0,0
0:3:7.295,345.863,44.0368,0,0.000885,0,0
0:3:7.599,346.623,44.1333,0,0.000885,0,0
0:3:7.894,346.859,44.1609,0,0.000885,0,0
0:3:8.192,347.388,44.2299,0,0.000885,0,0
0:3:8.483,348.385,44.3609,0,0.000885,0,0
0:3:8.782,348.678,44.3953,0,0.000885,0,0
0:3:9.085,349.617,44.5126,0,0.000885,0,0
0:3:9.387,349.497,44.4988,0,0.000885,0,0
0:3:9.686,350.142,44.5815,0,0.000885,0,0
0:3:9.986,350.787,44.6642,0,0.000885,0,0
0:3:10.286,351.552,44.7608,0,0.000885,0,0
0:3:10.589,352.077,44.8297,0,0.000885,0,0
0:3:10.888,352.957,44.94,0,0.000885,0,0
0:3:11.192,353.309,44.9883,0,0.000885,0,0
0:3:11.500,353.78,45.0434,0,0.000885,0,0
0:3:11.797,354.777,45.1744,0,0.000885,0,0
0:3:12.099,354.892,45.1882,0,0.000885,0,0
0:3:12.399,355.951,45.3192,0,0.000885,0,0
0:3:12.692,356.067,45.333,0,0.000885,0,0
0:3:12.988,356.36,45.3744,0,0.000885,0,0
0:3:13.295,357.477,45.5123,0,0.000885,0,0
0:3:13.599,357.944,45.5743,0,0.000885,0,0
0:3:13.898,358.825,45.6847,0,0.000885,0,0
0:3:14.202,359.937,45.8295,0,0.000885,0,0
0:3:14.502,359.821,45.8157,0,0.000885,0,0
0:3:14.803,360.23,45.8639,0,0.000885,0,0
0:3:15.103,360.76,45.9329,0,0.000885,0,0
0:3:15.404,362.05,46.0983,0,0.000885,0,0
0:3:15.699,362.637,46.1742,0,0.000885,0,0
0:3:15.999,362.873,46.2018,0,0.000885,0,0
0:3:16.301,363.869,46.3259,0,0.000885,0,0
0:3:16.601,364.1,46.3603,0,0.000885,0,0
0:3:16.896,364.63,46.4293,0,0.000885,0,0
0:3:17.190,365.217,46.4982,0,0.000885,0,0
0:3:17.487,365.626,46.5534,0,0.000885,0,0
0:3:17.793,366.449,46.6568,0,0.000885,0,0
0:3:18.093,366.391,46.6499,0,0.000885,0,0
0:3:18.396,367.855,46.8361,0,0.000885,0,0
0:3:18.695,368.384,46.905,0,0.000885,0,0
0:3:19.000,368.678,46.9395,0,0.000885,0,0
0:3:19.301,369.145,47.0016,0,0.000885,0,0
0:3:19.605,369.732,47.0774,0,0.000885,0,0
0:3:19.903,370.497,47.1739,0,0.000885,0,0
0:3:20.203,370.79,47.2084,0,0.000885,0,0
0:3:20.504,371.667,47.3256,0,0.000885,0,0
0:3:20.800,371.902,47.3532,0,0.000885,0,0
0:3:21.100,373.192,47.5187,0,0.000885,0,0
0:3:21.390,373.313,47.5325,0,0.000885,0,0
0:3:21.690,374.073,47.629,0,0.000885,0,0
0:3:21.985,374.54,47.691,0,0.000885,0,0
0:3:22.294,375.305,47.7876,0,0.000885,0,0
0:3:22.601,376.066,47.8841,0,0.000885,0,0
0:3:22.897,376.186,47.8979,0,0.000885,0,0
0:3:23.195,376.711,47.9668,0,0.000885,0,0
0:3:23.498,377.183,48.022,0,0.000885,0,0
0:3:23.796,378.001,48.1254,0,0.000885,0,0
0:3:24.104,378.824,48.2357,0,0.000885,0,0
0:3:24.404,378.94,48.2495,0,0.000885,0,0
0:3:24.708,379.936,48.3736,0,0.000885,0,0
0:3:25.009,380.817,48.4839,0,0.000885,0,0
0:3:25.310,380.995,48.5115,0,0.000885,0,0
0:3:25.610,381.813,48.6149,0,0.000885,0,0
0:3:25.906,382.285,48.677,0,0.000885,0,0
0:3:26.203,382.93,48.7528,0,0.000885,0,0
0:3:26.499,383.575,48.8356,0,0.000885,0,0
0:3:26.798,384.042,48.8976,0,0.000885,0,0
0:3:27.090,384.571,48.9666,0,0.000885,0,0
0:3:27.401,384.922,49.0079,0,0.000885,0,0
0:3:27.700,385.452,49.0769,0,0.000885,0,0
0:3:27.991,386.448,49.201,0,0.000885,0,0
0:3:28.291,387.093,49.2837,0,0.000885,0,0
0:3:28.587,387.738,49.3665,0,0.000885,0,0
0:3:28.885,388.267,49.4354,0,0.000885,0,0
0:3:29.188,388.619,49.4837,0,0.000885,0,0
0:3:29.490,389.673,49.6147,0,0.000885,0,0
0:3:29.790,390.145,49.6767,0,0.000885,0,0
0:3:30.091,390.612,49.7319,0,0.000885,0,0
0:3:30.390,391.199,49.8077,0,0.000885,0,0
0:3:30.687,390.963,49.7801,0,0.000885,0,0
0:3:30.991,392.137,49.9318,0,0.000885,0,0
0:3:31.291,392.431,49.9663,0,0.000885,0,0
0:3:31.584,393.192,50.0628,0,0.000885,0,0
0:3:31.884,393.779,50.1387,0,0.000885,0,0
0:3:32.179,394.717,50.2559,0,0.000885,0,0
0:3:32.475,394.953,50.2835,0,0.000885,0,0
0:3:32.774,396.127,50.4351,0,0.000885,0,0
0:3:33.067,396.537,50.4903,0,0.000885,0,0
0:3:33.367,396.888,50.5317,0,0.000885,0,0
0:3:33.662,397.355,50.5937,0,0.000885,0,0
0:3:33.963,398.062,50.6834,0,0.000885,0,0
0:3:34.264,399.059,50.8075,0,0.000885,0,0
0:3:34.566,399.295,50.8419,0,0.000885,0,0
0:3:34.867,399.704,50.8902,0,0.000885,0,0
0:3:35.167,400.7,51.0212,0,0.000885,0,0
0:3:35.466,400.936,51.0488,0,0.000885,0,0
0:3:35.761,401.523,51.1246,0,0.000885,0,0
0:3:36.057,401.754,51.1522,0,0.000885,0,0
0:3:36.357,402.226,51.2143,0,0.000885,0,0
0:3:36.649,402.929,51.3039,0,0.000885,0,0
0:3:36.951,404.045,51.4418,0,0.000885,0,0
0:3:37.245,404.57,51.5107,0,0.000885,0,0
0:3:37.540,404.922,51.559,0,0.000885,0,0
0:3:37.838,405.567,51.6417,0,0.000885,0,0
0:3:38.132,406.741,51.7865,0,0.000885,0,0
0:3:38.432,407.212,51.8486,0,0.000885,0,0
0:3:38.725,407.737,51.9175,0,0.000885,0,0
0:3:39.027,408.44,52.0072,0,0.000885,0,0
0:3:39.329,408.502,52.014,0,0.000885,0,0
0:3:39.632,409.441,52.1313,0,0.000885,0,0
0:3:39.934,409.908,52.1933,0,0.000885,0,0
0:3:40.233,410.437,52.2554,0,0.000885,0,0
0:3:40.532,410.437,52.2554,0,0.000885,0,0
0:3:40.828,410.962,52.3243,0,0.000885,0,0
0:3:41.125,412.315,52.4967,0,0.000885,0,0
0:3:41.424,412.96,52.5794,0,0.000885,0,0
0:3:41.716,413.369,52.6346,0,0.000885,0,0
0:3:42.016,413.956,52.7035,0,0.000885,0,0
0:3:42.311,414.481,52.7725,0,0.000885,0,0
0:3:42.608,415.713,52.9311,0,0.000885,0,0
0:3:42.904,415.54,52.9104,0,0.000885,0,0
0:3:43.199,416.007,52.9655,0,0.000885,0,0
0:3:43.500,416.3,53.0069,0,0.000885,0,0
0:3:43.790,417.181,53.1172,0,0.000885,0,0
0:3:44.092,418.119,53.2344,0,0.000885,0,0
0:3:44.396,418.822,53.3241,0,0.000885,0,0
0:3:44.698,419.352,53.393,0,0.000885,0,0
0:3:44.999,419.997,53.4757,0,0.000885,0,0
0:3:45.299,420.699,53.5654,0,0.000885,0,0
0:3:45.598,421.171,53.6274,0,0.000885,0,0
0:3:45.904,421.402,53.655,0,0.000885,0,0
0:3:46.199,421.989,53.7308,0,0.000885,0,0
0:3:46.497,422.461,53.786,0,0.000885,0,0
0:3:46.789,423.222,53.8894,0,0.000885,0,0
0:3:47.088,423.337,53.9032,0,0.000885,0,0
0:3:47.392,424.16,54.0066,0,0.000885,0,0
0:3:47.689,424.863,54.0963,0,0.000885,0,0
0:3:47.986,425.277,54.1445,0,0.000885,0,0
0:3:48.288,426.447,54.2962,0,0.000885,0,0
0:3:48.589,426.567,54.31,0,0.000885,0,0
0:3:48.882,427.563,54.441,0,0.000885,0,0
0:3:49.184,428.03,54.4962,0,0.000885,0,0
0:3:49.485,428.502,54.5582,0,0.000885,0,0
0:3:49.787,429.32,54.6616,0,0.000885,0,0
0:3:50.087,430.027,54.7513,0,0.000885,0,0
0:3:50.388,430.494,54.8133,0,0.000885,0,0
0:3:50.697,431.139,54.8961,0,0.000885,0,0
0:3:51.004,431.611,54.9512,0,0.000885,0,0
0:3:51.297,432.078,55.0133,0,0.000885,0,0
0:3:51.598,432.607,55.0822,0,0.000885,0,0
0:3:51.890,432.901,55.1167,0,0.000885,0,0
0:3:52.189,433.662,55.2132,0,0.000885,0,0
0:3:52.494,434.422,55.3097,0,0.000885,0,0
0:3:52.789,434.778,55.358,0,0.000885,0,0
0:3:53.088,435.89,55.4959,0,0.000885,0,0
0:3:53.380,436.068,55.5235,0,0.000885,0,0
0:3:53.682,436.771,55.6131,0,0.000885,0,0
0:3:53.985,438.003,55.7648,0,0.000885,0,0
0:3:54.287,437.945,55.7579,0,0.000885,0,0
0:3:54.587,438.648,55.8475,0,0.000885,0,0
0:3:54.888,438.884,55.882,0,0.000885,0,0
0:3:55.190,439.88,56.0061,0,0.000885,0,0
0:3:55.492,440.174,56.0475,0,0.000885,0,0
0:3:55.790,440.992,56.1509,0,0.000885,0,0
0:3:56.087,441.522,56.213,0,0.000885,0,0
0:3:56.391,442.282,56.3164,0,0.000885,0,0
0:3:56.691,442.634,56.3577,0,0.000885,0,0
0:3:56.986,443.341,56.4474,0,0.000885,0,0
0:3:57.285,443.634,56.4819,0,0.000885,0,0
0:3:57.589,444.159,56.5508,0,0.000885,0,0
0:3:57.885,445.218,56.6887,0,0.000885,0,0
0:3:58.184,445.743,56.7507,0,0.000885,0,0
0:3:58.487,446.388,56.8335,0,0.000885,0,0
0:3:58.787,446.859,56.8955,0,0.000885,0,0
0:3:59.091,447.269,56.9507,0,0.000885,0,0
0:3:59.392,448.029,57.0472,0,0.000885,0,0
0:3:59.693,448.794,57.1437,0,0.000885,0,0
0:3:59.992,449.382,57.2196,0,0.000885,0,0
0:4:0.293,449.613,57.2472,0,0.000885,0,0
0:4:0.587,450.494,57.3575,0,0.000885,0,0
0:4:0.887,451.023,57.4264,0,0.000885,0,0
0:4:1.189,451.726,57.5161,0,0.000885,0,0
0:4:1.498,452.255,57.585,0,0.000885,0,0
0:4:1.804,452.9,57.6677,0,0.000885,0,0
0:4:2.098,453.074,57.6884,0,0.000885,0,0
0:4:2.398,453.839,57.785,0,0.000885,0,0
0:4:2.702,454.132,57.8194,0,0.000885,0,0
0:4:3.001,454.542,57.8746,0,0.000885,0,0
0:4:3.293,455.889,58.047,0,0.000885,0,0
0:4:3.590,456.125,58.0745,0,0.000885,0,0
0:4:3.888,457.121,58.2055,0,0.000885,0,0
0:4:4.191,457.531,58.2538,0,0.000885,0,0
0:4:4.492,458.469,58.371,0,0.000885,0,0
0:4:4.792,458.705,58.4055,0,0.000885,0,0
0:4:5.092,459.35,58.4882,0,0.000885,0,0
0:4:5.393,459.995,58.571,0,0.000885,0,0
0:4:5.688,460.524,58.633,0,0.000885,0,0
0:4:5.987,460.876,58.6813,0,0.000885,0,0
0:4:6.301,461.579,58.7709,0,0.000885,0,0
0:4:6.600,462.108,58.8399,0,0.000885,0,0
0:4:6.905,462.637,58.9019,0,0.000885,0,0
0:4:7.199,463.162,58.9709,0,0.000885,0,0
0:4:7.499,463.927,59.0674,0,0.000885,0,0
0:4:7.802,464.221,59.1088,0,0.000885,0,0
0:4:8.102,464.688,59.1639,0,0.000885,0,0
0:4:8.404,465.391,59.2535,0,0.000885,0,0
0:4:8.702,466.507,59.3983,0,0.000885,0,0
0:4:9.000,466.916,59.4466,0,0.000885,0,0
0:4:9.301,467.388,59.5087,0,0.000885,0,0
0:4:9.604,467.797,59.5638,0,0.000885,0,0
0:4:9.905,468.794,59.6879,0,0.000885,0,0
0:4:10.205,469.732,59.8051,0,0.000885,0,0
0:4:10.505,470.084,59.8534,0,0.000885,0,0
0:4:10.800,470.493,59.9085,0,0.000885,0,0
0:4:11.099,471.2,59.9982,0,0.000885,0,0
0:4:11.401,471.725,60.0602,0,0.000885,0,0
0:4:11.701,472.721,60.1912,0,0.000885,0,0
0:4:11.993,472.899,60.2119,0,0.000885,0,0
0:4:12.290,473.309,60.2671,0,0.000885,0,0
0:4:12.586,473.722,60.3153,0,0.000885,0,0
0:4:12.880,474.131,60.3705,0,0.000885,0,0
0:4:13.181,475.364,60.5222,0,0.000885,0,0
0:4:13.482,475.479,60.5429,0,0.000885,0,0
0:4:13.783,476.654,60.6877,0,0.000885,0,0
0:4:14.083,476.534,60.6739,0,0.000885,0,0
0:4:14.385,477.65,60.8187,0,0.000885,0,0
0:4:14.685,478.179,60.8807,0,0.000885,0,0
0:4:14.985,478.646,60.9428,0,0.000885,0,0
0:4:15.287,479.234,61.0186,0,0.000885,0,0
0:4:15.581,479.763,61.0875,0,0.000885,0,0
0:4:15.879,480.639,61.1979,0,0.000885,0,0
0:4:16.184,481.462,61.3013,0,0.000885,0,0
0:4:16.499,481.636,61.322,0,0.000885,0,0
0:4:16.796,482.165,61.3909,0,0.000885,0,0
0:4:17.089,482.988,61.4943,0,0.000885,0,0
0:4:17.389,483.281,61.5357,0,0.000885,0,0
0:4:17.693,483.869,61.6047,0,0.000885,0,0
0:4:17.989,484.22,61.6529,0,0.000885,0,0
0:4:18.295,484.514,61.6874,0,0.000885,0,0
0:4:18.602,485.568,61.8253,0,0.000885,0,0
0:4:18.903,486.213,61.908,0,0.000885,0,0
0:4:19.208,486.858,61.9908,0,0.000885,0,0
0:4:19.509,487.387,62.0528,0,0.000885,0,0
0:4:19.810,487.854,62.1149,0,0.000885,0,0
0:4:20.110,488.384,62.1838,0,0.000885,0,0
0:4:20.410,489.438,62.3148,0,0.000885,0,0
0:4:20.705,489.847,62.37,0,0.000885,0,0
0:4:21.003,489.789,62.3631,0,0.000885,0,0
0:4:21.296,490.786,62.4872,0,0.000885,0,0
0:4:21.604,491.493,62.5768,0,0.000885,0,0
0:4:21.903,492.431,62.7009,0,0.000885,0,0
0:4:22.205,492.721,62.7354,0,0.000885,0,0
0:4:22.505,493.486,62.8319,0,0.000885,0,0
0:4:22.801,494.131,62.9147,0,0.000885,0,0
0:4:23.106,494.891,63.0112,0,0.000885,0,0
0:4:23.404,495.305,63.0663,0,0.000885,0,0
0:4:23.707,496.008,63.156,0,0.000885,0,0
0:4:24.008,496.711,63.2456,0,0.000885,0,0
0:4:24.311,497.182,63.3008,0,0.000885,0,0
0:4:24.613,497.765,63.3766,0,0.000885,0,0
0:4:24.914,498.058,63.418,0,0.000885,0,0
0:4:25.214,498.588,63.48,0,0.000885,0,0
0:4:25.514,499.175,63.5559,0,0.000885,0,0
0:4:25.808,499.993,63.6593,0,0.000885,0,0
0:4:26.108,500.407,63.7145,0,0.000885,0,0
0:4:26.401,500.932,63.7834,0,0.000885,0,0
0:4:26.700,501.755,63.8868,0,0.000885,0,0
0:4:27.007,502.636,63.9971,0,0.000885,0,0
0:4:27.300,502.987,64.0454,0,0.000885,0,0
0:4:27.598,503.396,64.0937,0,0.000885,0,0
0:4:27.891,504.041,64.1764,0,0.000885,0,0
0:4:28.191,504.806,64.2729,0,0.000885,0,0
0:4:28.486,505.451,64.3557,0,0.000885,0,0
0:4:28.787,505.861,64.4108,0,0.000885,0,0
0:4:29.089,506.096,64.4384,0,0.000885,0,0
0:4:29.391,506.915,64.5418,0,0.000885,0,0
0:4:29.690,507.208,64.5832,0,0.000885,0,0
0:4:29.992,508.205,64.7073,0,0.000885,0,0
0:4:30.291,508.676,64.7693,0,0.000885,0,0
0:4:30.587,509.264,64.8383,0,0.000885,0,0
0:4:30.892,510.024,64.9417,0,0.000885,0,0
0:4:31.192,510.847,65.0451,0,0.000885,0,0
0:4:31.483,511.314,65.1003,0,0.000885,0,0
0:4:31.783,511.844,65.1692,0,0.000885,0,0
0:4:32.077,512.079,65.1968,0,0.000885,0,0
0:4:32.375,513.076,65.3278,0,0.000885,0,0
0:4:32.672,513.778,65.4175,0,0.000885,0,0
0:4:32.965,513.894,65.4312,0,0.000885,0,0
0:4:33.264,514.423,65.5002,0,0.000885,0,0
0:4:33.559,514.953,65.5622,0,0.000885,0,0
0:4:33.861,515.713,65.6657,0,0.000885,0,0
0:4:34.162,516.243,65.7277,0,0.000885,0,0
0:4:34.465,516.71,65.7898,0,0.000885,0,0
0:4:34.766,517.413,65.8794,0,0.000885,0,0
0:4:35.066,517.769,65.9208,0,0.000885,0,0
0:4:35.368,518.707,66.0449,0,0.000885,0,0
0:4:35.661,519.468,66.1414,0,0.000885,0,0
0:4:35.960,520.055,66.2172,0,0.000885,0,0
0:4:36.253,520.522,66.2724,0,0.000885,0,0
0:4:36.550,520.522,66.2724,0,0.000885,0,0
0:4:36.848,521.754,66.431,0,0.000885,0,0
0:4:37.141,522.163,66.4861,0,0.000885,0,0
0:4:37.441,522.399,66.5137,0,0.000885,0,0
0:4:37.744,523.222,66.6171,0,0.000885,0,0
0:4:38.041,524.103,66.7275,0,0.000885,0,0
0:4:38.339,524.979,66.8447,0,0.000885,0,0
0:4:38.633,525.331,66.886,0,0.000885,0,0
0:4:38.933,525.744,66.9412,0,0.000885,0,0
0:4:39.235,526.447,67.0308,0,0.000885,0,0
0:4:39.539,527.092,67.1136,0,0.000885,0,0
0:4:39.841,527.679,67.1894,0,0.000885,0,0
0:4:40.141,527.915,67.217,0,0.000885,0,0
0:4:40.441,528.676,67.3135,0,0.000885,0,0
0:4:40.733,529.205,67.3825,0,0.000885,0,0
0:4:41.034,529.556,67.4238,0,0.000885,0,0
0:4:41.327,530.023,67.4859,0,0.000885,0,0
0:4:41.627,530.788,67.5824,0,0.000885,0,0
0:4:41.923,531.607,67.6858,0,0.000885,0,0
0:4:42.218,532.021,67.741,0,0.000885,0,0
0:4:42.516,532.603,67.8099,0,0.000885,0,0
0:4:42.811,533.542,67.934,0,0.000885,0,0
0:4:43.110,534.249,68.0237,0,0.000885,0,0
0:4:43.405,534.481,68.0513,0,0.000885,0,0
0:4:43.705,534.716,68.0788,0,0.000885,0,0
0:4:44.009,535.655,68.2029,0,0.000885,0,0
0:4:44.310,536.3,68.2857,0,0.000885,0,0
0:4:44.611,536.771,68.3408,0,0.000885,0,0
0:4:44.911,537.238,68.4029,0,0.000885,0,0
0:4:45.209,537.826,68.4787,0,0.000885,0,0
0:4:45.505,539.058,68.6373,0,0.000885,0,0
0:4:45.798,539.351,68.6718,0,0.000885,0,0
0:4:46.098,539.583,68.6994,0,0.000885,0,0
0:4:46.399,540.348,68.7959,0,0.000885,0,0
0:4:46.702,541.108,68.8993,0,0.000885,0,0
0:4:46.995,541.402,68.9338,0,0.000885,0,0
0:4:47.291,541.753,68.9752,0,0.000885,0,0
0:4:47.596,542.341,69.051,0,0.000885,0,0
0:4:47.903,543.106,69.1475,0,0.000885,0,0
0:4:48.204,543.573,69.2096,0,0.000885,0,0
0:4:48.494,544.275,69.2992,0,0.000885,0,0
0:4:48.795,544.978,69.3888,0,0.000885,0,0
0:4:49.099,545.801,69.4923,0,0.000885,0,0
0:4:49.402,545.979,69.5129,0,0.000885,0,0
0:4:49.703,546.273,69.5543,0,0.000885,0,0
0:4:50.000,547.563,69.7198,0,0.000885,0,0
0:4:50.303,548.266,69.8094,0,0.000885,0,0
0:4:50.607,548.968,69.899,0,0.000885,0,0
0:4:50.904,549.44,69.9542,0,0.000885,0,0
0:4:51.200,550.201,70.0507,0,0.000885,0,0
0:4:51.506,550.846,70.1335,0,0.000885,0,0
0:4:51.805,551.023,70.1611,0,0.000885,0,0
0:4:52.095,550.961,70.1542,0,0.000885,0,0
0:4:52.393,552.136,70.2989,0,0.000885,0,0
0:4:52.688,552.723,70.3748,0,0.000885,0,0
0:4:52.985,553.016,70.4093,0,0.000885,0,0
0:4:53.282,553.603,70.4851,0,0.000885,0,0
0:4:53.576,554.715,70.6299,0,0.000885,0,0
0:4:53.875,555.067,70.6713,0,0.000885,0,0
0:4:54.180,556.005,70.7954,0,0.000885,0,0
0:4:54.481,556.419,70.8436,0,0.000885,0,0
0:4:54.782,556.944,70.9126,0,0.000885,0,0
0:4:55.082,557.589,70.9953,0,0.000885,0,0
0:4:55.381,558.292,71.0849,0,0.000885,0,0
0:4:55.677,558.354,71.0918,0,0.000885,0,0
0:4:55.975,558.528,71.1125,0,0.000885,0,0
0:4:56.270,559.466,71.2366,0,0.000885,0,0
0:4:56.568,560.347,71.3469,0,0.000885,0,0
0:4:56.865,561.285,71.4642,0,0.000885,0,0
0:4:57.158,561.873,71.54,0,0.000885,0,0
0:4:57.456,562.282,71.5952,0,0.000885,0,0
0:4:57.751,562.46,71.6158,0,0.000885,0,0
0:4:58.050,562.927,71.671,0,0.000885,0,0
0:4:58.343,563.572,71.7537,0,0.000885,0,0
0:4:58.645,564.217,71.8365,0,0.000885,0,0
0:4:58.948,564.568,71.8847,0,0.000885,0,0
0:4:59.249,565.391,71.9882,0,0.000885,0,0
0:4:59.550,565.858,72.0502,0,0.000885,0,0
0:4:59.852,566.917,72.1812,0,0.000885,0,0
0:5:0.151,567.211,72.2226,0,0.000885,0,0
0:5:0.445,567.442,72.2502,0,0.000885,0,0
0:5:0.742,568.501,72.3812,0,0.000885,0,0
0:5:1.041,569.088,72.457,0,0.000885,0,0
0:5:1.332,569.613,72.526,0,0.000885,0,0
0:5:1.634,570.315,72.6156,0,0.000885,0,0
0:5:1.931,571.196,72.7259,0,0.000885,0,0
0:5:2.225,571.432,72.7604,0,0.000885,0,0
0:5:2.524,571.899,72.8155,0,0.000885,0,0
0:5:2.818,572.486,72.8914,0,0.000885,0,0
0:5:3.119,573.193,72.981,0,0.000885,0,0
0:5:3.411,574.07,73.0913,0,0.000885,0,0
0:5:3.713,574.363,73.1327,0,0.000885,0,0
0:5:4.014,574.599,73.1603,0,0.000885,0,0
0:5:4.316,575.773,73.312,0,0.000885,0,0
0:5:4.615,576.534,73.4085,0,0.000885,0,0
0:5:4.915,576.828,73.443,0,0.000885,0,0
0:5:5.213,577.063,73.4705,0,0.000885,0,0
0:5:5.510,577.824,73.574,0,0.000885,0,0
0:5:5.805,578.353,73.636,0,0.000885,0,0
0:5:6.105,578.998,73.7187,0,0.000885,0,0
0:5:6.395,579.35,73.767,0,0.000885,0,0
0:5:6.694,579.995,73.8497,0,0.000885,0,0
0:5:6.989,580.23,73.8773,0,0.000885,0,0
0:5:7.287,581.169,73.9945,0,0.000885,0,0
0:5:7.592,582.108,74.1186,0,0.000885,0,0
0:5:7.888,582.695,74.1876,0,0.000885,0,0
0:5:8.187,583.278,74.2634,0,0.000885,0,0
0:5:8.491,583.985,74.3531,0,0.000885,0,0
0:5:8.791,584.567,74.4289,0,0.000885,0,0
0:5:9.094,585.097,74.4979,0,0.000885,0,0
0:5:9.393,585.506,74.5461,0,0.000885,0,0
0:5:9.693,585.333,74.5254,0,0.000885,0,0
0:5:9.994,586.507,74.6771,0,0.000885,0,0
0:5:10.292,587.383,74.7874,0,0.000885,0,0
0:5:10.587,587.325,74.7805,0,0.000885,0,0
0:5:10.892,588.558,74.9391,0,0.000885,0,0
0:5:11.191,589.087,75.0081,0,0.000885,0,0
0:5:11.485,589.674,75.077,0,0.000885,0,0
0:5:11.784,589.968,75.1184,0,0.000885,0,0
0:5:12.082,590.377,75.1666,0,0.000885,0,0
0:5:12.380,590.728,75.2149,0,0.000885,0,0
0:5:12.680,591.96,75.3735,0,0.000885,0,0
0:5:12.975,592.374,75.4217,0,0.000885,0,0
0:5:13.274,593.193,75.5252,0,0.000885,0,0
0:5:13.569,593.135,75.5183,0,0.000885,0,0
0:5:13.871,594.367,75.6769,0,0.000885,0,0
0:5:14.177,595.012,75.7596,0,0.000885,0,0
0:5:14.480,595.955,75.8768,0,0.000885,0,0
0:5:14.781,596.422,75.9389,0,0.000885,0,0
0:5:15.083,596.542,75.9526,0,0.000885,0,0
0:5:15.391,597.832,76.1181,0,0.000885,0,0
0:5:15.700,598.241,76.1733,0,0.000885,0,0
0:5:16.006,598.126,76.1526,0,0.000885,0,0
0:5:16.306,598.828,76.2422,0,0.000885,0,0
0:5:16.600,599.358,76.3112,0,0.000885,0,0
0:5:16.899,600.118,76.4077,0,0.000885,0,0
0:5:17.198,600.706,76.4835,0,0.000885,0,0
0:5:17.503,600.884,76.5042,0,0.000885,0,0
0:5:17.805,601.764,76.6214,0,0.000885,0,0
0:5:18.098,602.058,76.6559,0,0.000885,0,0
0:5:18.398,602.703,76.7386,0,0.000885,0,0
0:5:18.697,603.406,76.8283,0,0.000885,0,0
0:5:19.000,603.819,76.8834,0,0.000885,0,0
0:5:19.306,604.055,76.911,0,0.000885,0,0
0:5:19.609,604.464,76.9662,0,0.000885,0,0
0:5:19.911,605.461,77.0903,0,0.000885,0,0
0:5:20.214,606.342,77.2006,0,0.000885,0,0
0:5:20.510,606.929,77.2764,0,0.000885,0,0
0:5:20.811,607.694,77.373,0,0.000885,0,0
0:5:21.106,607.987,77.4143,0,0.000885,0,0
0:5:21.406,608.868,77.5247,0,0.000885,0,0
0:5:21.713,609.865,77.6488,0,0.000885,0,0
0:5:22.011,610.745,77.7591,0,0.000885,0,0
0:5:22.312,611.8,77.897,0,0.000885,0,0
0:5:22.604,612.449,77.9797,0,0.000885,0,0
0:5:22.906,612.565,77.9935,0,0.000885,0,0
0:5:23.200,612.8,78.0211,0,0.000885,0,0
0:5:23.508,613.036,78.0555,0,0.000885,0,0
0:5:23.807,613.503,78.1107,0,0.000885,0,0
0:5:24.110,614.504,78.2417,0,0.000885,0,0
0:5:24.414,614.798,78.2762,0,0.000885,0,0
0:5:24.715,615.265,78.3382,0,0.000885,0,0
0:5:25.018,616.439,78.4899,0,0.000885,0,0
0:5:25.321,617.026,78.5589,0,0.000885,0,0
0:5:25.617,618.143,78.7037,0,0.000885,0,0
0:5:25.918,618.08,78.6968,0,0.000885,0,0
0:5:26.213,618.668,78.7726,0,0.000885,0,0
0:5:26.513,619.611,78.8898,0,0.000885,0,0
0:5:26.809,619.842,78.9243,0,0.000885,0,0
0:5:27.108,620.198,78.9657,0,0.000885,0,0
0:5:27.407,620.665,79.0277,0,0.000885,0,0
0:5:27.700,621.488,79.1311,0,0.000885,0,0
0:5:28.001,622.133,79.2139,0,0.000885,0,0
0:5:28.297,622.484,79.2552,0,0.000885,0,0
0:5:28.600,623.249,79.3518,0,0.000885,0,0
0:5:28.904,623.952,79.4414,0,0.000885,0,0
0:5:29.209,623.191,79.3449,0,0.000885,0,0
0:5:29.509,623.601,79.4,0,0.000885,0,0
0:5:29.809,624.303,79.4897,0,0.000885,0,0
0:5:30.109,625.242,79.6069,0,0.000885,0,0
0:5:30.403,625.829,79.6827,0,0.000885,0,0
0:5:30.702,627.475,79.8896,0,0.000885,0,0
0:5:30.999,627.355,79.8758,0,0.000885,0,0
0:5:31.295,628.823,80.0619,0,0.000885,0,0
0:5:31.597,629.001,80.0895,0,0.000885,0,0
0:5:31.891,629.997,80.2136,0,0.000885,0,0
0:5:32.189,630.411,80.2688,0,0.000885,0,0
0:5:32.486,629.588,80.1584,0,0.000885,0,0
0:5:32.783,630.469,80.2757,0,0.000885,0,0
0:5:33.082,630.878,80.3239,0,0.000885,0,0
0:5:33.378,631.465,80.3998,0,0.000885,0,0
0:5:33.680,632.933,80.5859,0,0.000885,0,0
0:5:33.983,633.698,80.6824,0,0.000885,0,0
0:5:34.285,634.637,80.8066,0,0.000885,0,0
0:5:34.588,635.691,80.9376,0,0.000885,0,0
0:5:34.889,636.278,81.0134,0,0.000885,0,0
0:5:35.192,637.159,81.1237,0,0.000885,0,0
0:5:35.486,637.63,81.1858,0,0.000885,0,0
0:5:35.786,637.51,81.172,0,0.000885,0,0
0:5:36.082,638.569,81.303,0,0.000885,0,0
0:5:36.379,639.743,81.4547,0,0.000885,0,0
0:5:36.678,639.214,81.3857,0,0.000885,0,0
0:5:36.974,640.504,81.5512,0,0.000885,0,0
0:5:37.274,640.152,81.5098,0,0.000885,0,0
0:5:37.568,641.091,81.627,0,0.000885,0,0
0:5:37.868,641.62,81.696,0,0.000885,0,0
0:5:38.164,642.559,81.8132,0,0.000885,0,0
0:5:38.459,642.617,81.8201,0,0.000885,0,0
0:5:38.760,643.44,81.9235,0,0.000885,0,0
0:5:39.064,643.618,81.9511,0,0.000885,0,0
0:5:39.365,644.614,82.0752,0,0.000885,0,0
0:5:39.668,645.201,82.151,0,0.000885,0,0
0:5:39.969,645.201,82.151,0,0.000885,0,0
0:5:40.272,646.14,82.2682,0,0.000885,0,0
0:5:40.567,646.727,82.3441,0,0.000885,0,0
0:5:40.870,647.492,82.4406,0,0.000885,0,0
0:5:41.164,647.666,82.4613,0,0.000885,0,0
0:5:41.463,648.84,82.613,0,0.000885,0,0
0:5:41.759,648.666,82.5923,0,0.000885,0,0
0:5:42.058,650.308,82.7991,0,0.000885,0,0
0:5:42.356,650.072,82.7716,0,0.000885,0,0
0:5:42.651,651.131,82.9026,0,0.000885,0,0
0:5:42.951,651.482,82.9508,0,0.000885,0,0
0:5:43.249,651.66,82.9715,0,0.000885,0,0
0:5:43.550,652.834,83.1232,0,0.000885,0,0
0:5:43.855,652.714,83.1094,0,0.000885,0,0
0:5:44.157,653.946,83.2611,0,0.000885,0,0
0:5:44.459,654.476,83.33,0,0.000885,0,0
0:5:44.761,654.827,83.3783,0,0.000885,0,0
0:5:45.061,656.237,83.5576,0,0.000885,0,0
0:5:45.359,655.828,83.5024,0,0.000885,0,0
0:5:45.655,656.237,83.5576,0,0.000885,0,0
0:5:45.954,657.412,83.7024,0,0.000885,0,0
0:5:46.250,657.585,83.7299,0,0.000885,0,0
0:5:46.551,658.937,83.8954,0,0.000885,0,0
0:5:46.846,658.937,83.8954,0,0.000885,0,0
0:5:47.142,659.409,83.9575,0,0.000885,0,0
0:5:47.442,660.405,84.0885,0,0.000885,0,0
0:5:47.736,660.227,84.0609,0,0.000885,0,0
0:5:48.037,661.522,84.2264,0,0.000885,0,0
0:5:48.332,661.989,84.2884,0,0.000885,0,0
0:5:48.635,663.221,84.447,0,0.000885,0,0
0:5:48.940,663.635,84.4953,0,0.000885,0,0
0:5:49.244,664.395,84.5918,0,0.000885,0,0
0:5:49.544,663.928,84.5366,0,0.000885,0,0
0:5:49.845,664.982,84.6676,0,0.000885,0,0
0:5:50.147,665.103,84.6814,0,0.000885,0,0
0:5:50.441,666.335,84.84,0,0.000885,0,0
0:5:50.742,666.215,84.8262,0,0.000885,0,0
0:5:51.039,667.389,84.9779,0,0.000885,0,0
0:5:51.335,667.625,85.0055,0,0.000885,0,0
0:5:51.635,668.857,85.164,0,0.000885,0,0
0:5:51.931,669.266,85.2123,0,0.000885,0,0
0:5:52.231,670.267,85.3433,0,0.000885,0,0
0:5:52.527,670.44,85.364,0,0.000885,0,0
0:5:52.824,670.267,85.3433,0,0.000885,0,0
0:5:53.123,671.441,85.4881,0,0.000885,0,0
0:5:53.417,671.677,85.5226,0,0.000885,0,0
0:5:53.719,672.673,85.6467,0,0.000885,0,0
0:5:54.022,673.261,85.7225,0,0.000885,0,0
0:5:54.324,673.434,85.7432,0,0.000885,0,0
0:5:54.627,674.608,85.8949,0,0.000885,0,0
0:5:54.926,674.435,85.8742,0,0.000885,0,0
0:5:55.229,675.547,86.0121,0,0.000885,0,0
0:5:55.522,675.547,86.0121,0,0.000885,0,0
0:5:55.823,676.37,86.1155,0,0.000885,0,0
0:5:56.119,677.135,86.212,0,0.000885,0,0
0:5:56.416,678.189,86.3499,0,0.000885,0,0
0:5:56.715,678.189,86.3499,0,0.000885,0,0
0:5:57.010,678.541,86.3913,0,0.000885,0,0
0:5:57.310,679.128,86.4672,0,0.000885,0,0
0:5:57.614,680.596,86.6533,0,0.000885,0,0
0:5:57.914,679.835,86.5568,0,0.000885,0,0
0:5:58.211,681.476,86.7705,0,0.000885,0,0
0:5:58.506,681.597,86.7843,0,0.000885,0,0
0:5:58.805,681.948,86.8257,0,0.000885,0,0
0:5:59.111,682.771,86.936,0,0.000885,0,0
0:5:59.415,683.416,87.0118,0,0.000885,0,0
0:5:59.717,683.589,87.0394,0,0.000885,0,0
0:6:0.017,684.297,87.129,0,0.000885,0,0
0:6:0.321,685.351,87.26,0,0.000885,0,0
0:6:0.617,685.88,87.329,0,0.000885,0,0
0:6:0.917,686.289,87.3842,0,0.000885,0,0
0:6:1.212,685.293,87.2532,0,0.000885,0,0
0:6:1.510,683.767,87.0601,0,0.000885,0,0
0:6:1.805,685.822,87.3221,0,0.000885,0,0
0:6:2.100,686.583,87.4186,0,0.000885,0,0
0:6:2.402,686.939,87.4669,0,0.000885,0,0
0:6:2.705,688.402,87.653,0,0.000885,0,0
0:6:3.004,689.167,87.7496,0,0.000885,0,0
0:6:3.304,691.045,87.984,0,0.000885,0,0
0:6:3.607,691.516,88.0461,0,0.000885,0,0
0:6:3.914,692.57,88.1839,0,0.000885,0,0
0:6:4.215,693.215,88.2598,0,0.000885,0,0
0:6:4.516,691.81,88.0805,0,0.000885,0,0
0:6:4.817,690.342,87.8944,0,0.000885,0,0
0:6:5.113,689.403,87.7772,0,0.000885,0,0
0:6:5.413,678.247,86.3568,0,0.000885,0,0
0:6:5.705,671.499,85.495,0,0.000885,0,0
0:6:6.005,618.374,78.7312,0,0.000885,0,0
0:6:6.124,618.374,78.7312,0,0.000885,0,0