File: DataFile2021-06-30_081440.csv
Test ID:,Date Tested:,Time:,Test Type:,Diameter Avg. (mm):,Cyl. Corr. Factor:,Height (mm):,Age (days):,Weight (kN):,Break Type:,Ramp Rate (MPa/s):,Load at Break (kN):,Stress at Break (MPa):
12,6/30/2021,08:14,Cylinder,100,1,200,0,3.6,3,0.25,778.98,99.18
Sample Time,Load (kN),Stress (MPa),Long. Strain,Trans. Strain,Chan1 Deflection (mm),Chan2 Deflection (mm)
0:0:32.803,5.45352,0.69637,0,0.000885,0,0
0:0:33.203,6.80133,0.868739,0,0.000885,0,0
0:0:33.614,7.68208,0.979056,0,0.000885,0,0
0:0:34.021,7.86001,0.99974,0,0.000885,0,0
0:0:34.420,9.44357,1.19969,0,0.000885,0,0
0:0:34.813,9.44357,1.19969,0,0.000885,0,0
0:0:35.221,10.0886,1.28242,0,0.000885,0,0
0:0:35.623,11.3207,1.441,0,0.000885,0,0
0:0:36.019,11.6143,1.47548,0,0.000885,0,0
0:0:36.423,12.5529,1.59958,0,0.000885,0,0
0:0:36.820,12.9043,1.64095,0,0.000885,0,0
0:0:37.220,13.4292,1.7099,0,0.000885,0,0
0:0:37.619,14.3678,1.82711,0,0.000885,0,0
0:0:38.024,15.3686,1.95811,0,0.000885,0,0
0:0:38.430,15.7778,2.00637,0,0.000885,0,0
0:0:38.833,16.6586,2.12359,0,0.000885,0,0
0:0:39.236,18.1221,2.30974,0,0.000885,0,0
0:0:39.639,18.7092,2.38559,0,0.000885,0,0
0:0:40.038,19.8257,2.52348,0,0.000885,0,0
0:0:40.432,20.702,2.6338,0,0.000885,0,0
0:0:40.830,21.5249,2.73722,0,0.000885,0,0
0:0:41.230,22.4057,2.85443,0,0.000885,0,0
0:0:41.628,23.1085,2.94406,0,0.000885,0,0
0:0:42.024,23.9893,3.05438,0,0.000885,0,0
0:0:42.421,24.1627,3.07506,0,0.000885,0,0
0:0:42.821,24.6343,3.13711,0,0.000885,0,0
0:0:43.222,25.5728,3.25433,0,0.000885,0,0
0:0:43.628,26.0977,3.32327,0,0.000885,0,0
0:0:44.032,27.1564,3.45427,0,0.000885,0,0
0:0:44.435,27.917,3.55769,0,0.000885,0,0
0:0:44.836,28.9713,3.6887,0,0.000885,0,0
0:0:45.236,30.2657,3.85417,0,0.000885,0,0
0:0:45.633,30.5548,3.88864,0,0.000885,0,0
0:0:46.029,31.4356,4.00585,0,0.000885,0,0
0:0:46.428,32.0806,4.0817,0,0.000885,0,0
0:0:46.827,33.0191,4.2058,0,0.000885,0,0
0:0:47.227,33.6063,4.28164,0,0.000885,0,0
0:0:47.623,34.5449,4.39886,0,0.000885,0,0
0:0:48.020,35.0164,4.46091,0,0.000885,0,0
0:0:48.423,35.5991,4.52986,0,0.000885,0,0
0:0:48.830,36.7156,4.67465,0,0.000885,0,0
0:0:49.233,37.5341,4.77807,0,0.000885,0,0
0:0:49.637,38.4148,4.88838,0,0.000885,0,0
0:0:50.033,38.8864,4.95044,0,0.000885,0,0
0:0:50.433,39.7048,5.05386,0,0.000885,0,0
0:0:50.832,40.6434,5.17796,0,0.000885,0,0
0:0:51.231,41.7599,5.31586,0,0.000885,0,0
0:0:51.626,42.1113,5.36412,0,0.000885,0,0
0:0:52.022,42.8141,5.45375,0,0.000885,0,0
0:0:52.422,43.3435,5.51581,0,0.000885,0,0
0:0:52.822,44.3977,5.6537,0,0.000885,0,0
0:0:53.219,45.2784,5.76402,0,0.000885,0,0
0:0:53.622,45.3363,5.77091,0,0.000885,0,0
0:0:54.028,46.9198,5.97086,0,0.000885,0,0
0:0:54.431,47.4492,6.03981,0,0.000885,0,0
0:0:54.834,48.5612,6.1846,0,0.000885,0,0
0:0:55.231,49.5576,6.3087,0,0.000885,0,0
0:0:55.628,50.2649,6.39833,0,0.000885,0,0
0:0:56.026,50.6741,6.45349,0,0.000885,0,0
0:0:56.426,51.2035,6.52244,0,0.000885,0,0
0:0:56.824,52.3734,6.66723,0,0.000885,0,0
0:0:57.219,53.2541,6.77755,0,0.000885,0,0
0:0:57.617,54.3083,6.91544,0,0.000885,0,0
0:0:58.020,54.6019,6.94992,0,0.000885,0,0
0:0:58.425,55.6028,7.08092,0,0.000885,0,0
0:0:58.828,56.3634,7.17744,0,0.000885,0,0
0:0:59.231,57.1863,7.28086,0,0.000885,0,0
0:0:59.631,57.6534,7.34292,0,0.000885,0,0
0:1:0.031,58.8277,7.48771,0,0.000885,0,0
0:1:0.426,59.1791,7.53597,0,0.000885,0,0
0:1:0.822,59.882,7.6256,0,0.000885,0,0
0:1:1.222,60.7627,7.73592,0,0.000885,0,0
0:1:1.622,61.4655,7.82555,0,0.000885,0,0
0:1:2.028,62.1683,7.91518,0,0.000885,0,0
0:1:2.425,63.4583,8.08066,0,0.000885,0,0
0:1:2.820,63.9877,8.1496,0,0.000885,0,0
0:1:3.224,64.6327,8.23234,0,0.000885,0,0
0:1:3.629,65.6291,8.35645,0,0.000885,0,0
0:1:4.034,66.7456,8.50124,0,0.000885,0,0
0:1:4.436,67.097,8.5426,0,0.000885,0,0
0:1:4.836,68.5604,8.72876,0,0.000885,0,0
0:1:5.236,69.1476,8.80461,0,0.000885,0,0
0:1:5.634,69.6191,8.86666,0,0.000885,0,0
0:1:6.027,70.4376,8.97008,0,0.000885,0,0
0:1:6.425,71.0826,9.05282,0,0.000885,0,0
0:1:6.825,72.0834,9.17692,0,0.000885,0,0
0:1:7.224,73.1377,9.31482,0,0.000885,0,0
0:1:7.621,73.5469,9.36308,0,0.000885,0,0
0:1:8.025,74.4276,9.4734,0,0.000885,0,0
0:1:8.429,75.1305,9.56303,0,0.000885,0,0
0:1:8.834,75.8333,9.65266,0,0.000885,0,0
0:1:9.238,76.247,9.70782,0,0.000885,0,0
0:1:9.641,77.3012,9.84571,0,0.000885,0,0
0:1:10.037,77.8884,9.91466,0,0.000885,0,0
0:1:10.437,78.8848,10.0457,0,0.000885,0,0
0:1:10.838,79.6454,10.1422,0,0.000885,0,0
0:1:11.234,80.2904,10.2249,0,0.000885,0,0
0:1:11.631,81.4069,10.3628,0,0.000885,0,0
0:1:12.029,82.1097,10.4525,0,0.000885,0,0
0:1:12.429,82.9905,10.5697,0,0.000885,0,0
0:1:12.826,83.8134,10.6731,0,0.000885,0,0
0:1:13.221,84.6319,10.7765,0,0.000885,0,0
0:1:13.625,85.3347,10.8661,0,0.000885,0,0
0:1:14.032,85.9797,10.9489,0,0.000885,0,0
0:1:14.436,86.3355,10.9902,0,0.000885,0,0
0:1:14.840,87.7412,11.1695,0,0.000885,0,0
0:1:15.236,88.6219,11.2867,0,0.000885,0,0
0:1:15.635,89.1468,11.3488,0,0.000885,0,0
0:1:16.037,90.6147,11.5349,0,0.000885,0,0
0:1:16.433,91.2019,11.6108,0,0.000885,0,0
0:1:16.828,91.4376,11.6452,0,0.000885,0,0
0:1:17.225,92.434,11.7694,0,0.000885,0,0
0:1:17.625,93.1369,11.859,0,0.000885,0,0
0:1:18.025,93.7819,11.9417,0,0.000885,0,0
0:1:18.430,94.8984,12.0796,0,0.000885,0,0
0:1:18.834,95.4811,12.1555,0,0.000885,0,0
0:1:19.236,96.2462,12.252,0,0.000885,0,0
0:1:19.639,96.8333,12.3278,0,0.000885,0,0
0:1:20.035,97.7096,12.4381,0,0.000885,0,0
0:1:20.430,98.8261,12.5829,0,0.000885,0,0
0:1:20.828,99.529,12.6726,0,0.000885,0,0
0:1:21.228,100.058,12.7415,0,0.000885,0,0
0:1:21.627,100.877,12.8449,0,0.000885,0,0
0:1:22.022,101.878,12.969,0,0.000885,0,0
0:1:22.428,102.403,13.038,0,0.000885,0,0
0:1:22.828,103.577,13.1897,0,0.000885,0,0
0:1:23.229,104.222,13.2724,0,0.000885,0,0
0:1:23.634,104.982,13.3689,0,0.000885,0,0
0:1:24.038,105.863,13.4793,0,0.000885,0,0
0:1:24.441,106.566,13.5689,0,0.000885,0,0
0:1:24.843,107.331,13.6654,0,0.000885,0,0
0:1:25.242,107.918,13.7413,0,0.000885,0,0
0:1:25.638,109.088,13.8929,0,0.000885,0,0
0:1:26.033,110.089,14.017,0,0.000885,0,0
0:1:26.433,110.614,14.086,0,0.000885,0,0
0:1:26.833,111.023,14.1343,0,0.000885,0,0
0:1:27.230,111.962,14.2584,0,0.000885,0,0
0:1:27.627,112.963,14.3825,0,0.000885,0,0
0:1:28.022,113.959,14.5066,0,0.000885,0,0
0:1:28.425,114.075,14.5273,0,0.000885,0,0
0:1:28.831,114.72,14.61,0,0.000885,0,0
0:1:29.235,116.01,14.7686,0,0.000885,0,0
0:1:29.639,116.655,14.8513,0,0.000885,0,0
0:1:30.038,117.713,14.9892,0,0.000885,0,0
0:1:30.437,118.71,15.1133,0,0.000885,0,0
0:1:30.837,118.883,15.134,0,0.000885,0,0
0:1:31.234,119.528,15.2167,0,0.000885,0,0
0:1:31.630,120.173,15.2995,0,0.000885,0,0
0:1:32.028,121.819,15.5132,0,0.000885,0,0
0:1:32.428,122.108,15.5477,0,0.000885,0,0
0:1:32.826,122.873,15.6442,0,0.000885,0,0
0:1:33.223,123.692,15.7476,0,0.000885,0,0
0:1:33.627,124.866,15.8993,0,0.000885,0,0
0:1:34.033,125.338,15.9614,0,0.000885,0,0
0:1:34.435,126.334,16.0855,0,0.000885,0,0
0:1:34.840,127.215,16.1958,0,0.000885,0,0
0:1:35.238,127.918,16.2854,0,0.000885,0,0
0:1:35.633,129.03,16.4302,0,0.000885,0,0
0:1:36.032,129.323,16.4647,0,0.000885,0,0
0:1:36.432,130.262,16.5888,0,0.000885,0,0
0:1:36.828,130.791,16.6508,0,0.000885,0,0
0:1:37.223,131.494,16.7405,0,0.000885,0,0
0:1:37.631,132.259,16.837,0,0.000885,0,0
0:1:38.032,133.077,16.9473,0,0.000885,0,0
0:1:38.429,133.665,17.0163,0,0.000885,0,0
0:1:38.834,134.719,17.1542,0,0.000885,0,0
0:1:39.238,135.426,17.2438,0,0.000885,0,0
0:1:39.640,136.48,17.3748,0,0.000885,0,0
0:1:40.042,137.01,17.4437,0,0.000885,0,0
0:1:40.442,138.064,17.5816,0,0.000885,0,0
0:1:40.837,139.118,17.7126,0,0.000885,0,0
0:1:41.234,139.412,17.7471,0,0.000885,0,0
0:1:41.632,140.235,17.8574,0,0.000885,0,0
0:1:42.032,141.053,17.9608,0,0.000885,0,0
0:1:42.430,141.231,17.9815,0,0.000885,0,0
0:1:42.825,142.695,18.1677,0,0.000885,0,0
0:1:43.230,143.402,18.2573,0,0.000885,0,0
0:1:43.636,144.34,18.3745,0,0.000885,0,0
0:1:44.038,145.101,18.4779,0,0.000885,0,0
0:1:44.441,146.097,18.6021,0,0.000885,0,0
0:1:44.840,147.156,18.7331,0,0.000885,0,0
0:1:45.235,147.214,18.7468,0,0.000885,0,0
0:1:45.636,148.326,18.8847,0,0.000885,0,0
0:1:46.036,149.322,19.0157,0,0.000885,0,0
0:1:46.432,149.794,19.0709,0,0.000885,0,0
0:1:46.828,150.439,19.1536,0,0.000885,0,0
0:1:47.226,150.968,19.2226,0,0.000885,0,0
0:1:47.626,152.374,19.4018,0,0.000885,0,0
0:1:48.023,152.725,19.4432,0,0.000885,0,0
0:1:48.429,153.548,19.5535,0,0.000885,0,0
0:1:48.835,154.251,19.6432,0,0.000885,0,0
0:1:49.239,154.896,19.719,0,0.000885,0,0
0:1:49.642,155.363,19.7811,0,0.000885,0,0
0:1:50.040,156.186,19.8845,0,0.000885,0,0
0:1:50.437,157.712,20.0775,0,0.000885,0,0
0:1:50.835,158.65,20.2016,0,0.000885,0,0
0:1:51.234,159.353,20.2913,0,0.000885,0,0
0:1:51.632,160.234,20.4016,0,0.000885,0,0
0:1:52.029,161.172,20.5188,0,0.000885,0,0
0:1:52.424,161.466,20.5602,0,0.000885,0,0
0:1:52.823,162.111,20.6429,0,0.000885,0,0
0:1:53.235,163.05,20.7601,0,0.000885,0,0
0:1:53.641,164.104,20.8911,0,0.000885,0,0
0:1:54.044,164.219,20.9118,0,0.000885,0,0
0:1:54.448,165.394,21.0566,0,0.000885,0,0
0:1:54.846,166.742,21.229,0,0.000885,0,0
0:1:55.247,167.155,21.2841,0,0.000885,0,0
0:1:55.645,168.094,21.4013,0,0.000885,0,0
0:1:56.039,168.325,21.4289,0,0.000885,0,0
0:1:56.437,169.442,21.5737,0,0.000885,0,0
0:1:56.836,169.909,21.6357,0,0.000885,0,0
0:1:57.234,171.025,21.7736,0,0.000885,0,0
0:1:57.631,171.612,21.8495,0,0.000885,0,0
0:1:58.026,172.257,21.9322,0,0.000885,0,0
0:1:58.429,173.432,22.0839,0,0.000885,0,0
0:1:58.836,174.077,22.1666,0,0.000885,0,0
0:1:59.239,174.837,22.2632,0,0.000885,0,0
0:1:59.641,175.949,22.4011,0,0.000885,0,0
0:2:0.041,176.421,22.4631,0,0.000885,0,0
0:2:0.441,176.888,22.5252,0,0.000885,0,0
0:2:0.838,178.182,22.6838,0,0.000885,0,0
0:2:1.234,178.827,22.7665,0,0.000885,0,0
0:2:1.633,179.588,22.863,0,0.000885,0,0
0:2:2.032,180.349,22.9595,0,0.000885,0,0
0:2:2.431,181.114,23.063,0,0.000885,0,0
0:2:2.827,181.874,23.1595,0,0.000885,0,0
0:2:3.223,182.813,23.2767,0,0.000885,0,0
0:2:3.627,183.809,23.4008,0,0.000885,0,0
0:2:4.033,184.69,23.518,0,0.000885,0,0
0:2:4.436,185.513,23.6214,0,0.000885,0,0
0:2:4.839,185.98,23.6766,0,0.000885,0,0
0:2:5.236,186.452,23.7386,0,0.000885,0,0
0:2:5.635,187.506,23.8765,0,0.000885,0,0
0:2:6.033,187.742,23.9041,0,0.000885,0,0
0:2:6.430,188.854,24.0489,0,0.000885,0,0
0:2:6.825,189.499,24.1248,0,0.000885,0,0
0:2:7.224,190.615,24.2695,0,0.000885,0,0
0:2:7.623,191.14,24.3385,0,0.000885,0,0
0:2:8.032,192.141,24.4626,0,0.000885,0,0
0:2:8.436,192.724,24.5384,0,0.000885,0,0
0:2:8.837,193.431,24.6281,0,0.000885,0,0
0:2:9.238,194.601,24.7798,0,0.000885,0,0
0:2:9.638,195.246,24.8625,0,0.000885,0,0
0:2:10.031,196.184,24.9797,0,0.000885,0,0
0:2:10.424,196.714,25.0487,0,0.000885,0,0
0:2:10.820,197.537,25.1521,0,0.000885,0,0
0:2:11.227,198.533,25.2762,0,0.000885,0,0
0:2:11.619,199.12,25.352,0,0.000885,0,0
0:2:12.026,199.996,25.4623,0,0.000885,0,0
0:2:12.429,201.407,25.6416,0,0.000885,0,0
0:2:12.825,201.522,25.6554,0,0.000885,0,0
0:2:13.231,202.519,25.7864,0,0.000885,0,0
0:2:13.634,203.226,25.876,0,0.000885,0,0
0:2:14.036,204.164,25.9932,0,0.000885,0,0
0:2:14.435,205.454,26.1587,0,0.000885,0,0
0:2:14.834,205.748,26.1932,0,0.000885,0,0
0:2:15.229,206.037,26.2346,0,0.000885,0,0
0:2:15.620,207.154,26.3724,0,0.000885,0,0
0:2:16.024,207.741,26.4483,0,0.000885,0,0
0:2:16.420,208.795,26.5862,0,0.000885,0,0
0:2:16.828,209.734,26.7034,0,0.000885,0,0
0:2:17.229,209.618,26.6896,0,0.000885,0,0
0:2:17.620,210.908,26.8551,0,0.000885,0,0
0:2:18.028,211.553,26.9378,0,0.000885,0,0
0:2:18.425,212.434,27.0481,0,0.000885,0,0
0:2:18.827,212.843,27.1033,0,0.000885,0,0
0:2:19.229,213.546,27.1929,0,0.000885,0,0
0:2:19.629,214.956,27.3722,0,0.000885,0,0
0:2:20.027,215.774,27.4756,0,0.000885,0,0
0:2:20.423,216.713,27.5928,0,0.000885,0,0
0:2:20.828,217.358,27.6756,0,0.000885,0,0
0:2:21.230,218.061,27.7652,0,0.000885,0,0
0:2:21.625,219.413,27.9376,0,0.000885,0,0
0:2:22.021,219.586,27.9582,0,0.000885,0,0
0:2:22.426,220.525,28.0755,0,0.000885,0,0
0:2:22.818,221.348,28.1858,0,0.000885,0,0
0:2:23.221,222.58,28.3375,0,0.000885,0,0
0:2:23.625,222.518,28.3306,0,0.000885,0,0
0:2:24.021,223.341,28.434,0,0.000885,0,0
0:2:24.424,224.395,28.5719,0,0.000885,0,0
0:2:24.827,224.924,28.6408,0,0.000885,0,0
0:2:25.232,225.863,28.758,0,0.000885,0,0
0:2:25.627,225.979,28.7718,0,0.000885,0,0
0:2:26.024,227.446,28.958,0,0.000885,0,0
0:2:26.426,228.207,29.0545,0,0.000885,0,0
0:2:26.830,229.088,29.1717,0,0.000885,0,0
0:2:27.226,229.733,29.2476,0,0.000885,0,0
0:2:27.620,230.907,29.3992,0,0.000885,0,0
0:2:28.026,231.61,29.4889,0,0.000885,0,0
0:2:28.429,232.606,29.6199,0,0.000885,0,0
0:2:28.830,232.606,29.6199,0,0.000885,0,0
0:2:29.230,233.959,29.7854,0,0.000885,0,0
0:2:29.630,234.19,29.8198,0,0.000885,0,0
0:2:30.032,235.542,29.9922,0,0.000885,0,0
0:2:30.426,235.6,29.9991,0,0.000885,0,0
0:2:30.821,237.064,30.1852,0,0.000885,0,0
0:2:31.228,237.709,30.268,0,0.000885,0,0
0:2:31.632,238.767,30.399,0,0.000885,0,0
0:2:32.020,239.292,30.4679,0,0.000885,0,0
0:2:32.430,240.115,30.5714,0,0.000885,0,0
0:2:32.825,240.644,30.6403,0,0.000885,0,0
0:2:33.229,241.699,30.7713,0,0.000885,0,0
0:2:33.630,242.401,30.8609,0,0.000885,0,0
0:2:34.033,242.931,30.9299,0,0.000885,0,0
0:2:34.432,244.105,31.0816,0,0.000885,0,0
0:2:34.834,244.866,31.1781,0,0.000885,0,0
0:2:35.227,245.804,31.2953,0,0.000885,0,0
0:2:35.630,245.862,31.3022,0,0.000885,0,0
0:2:36.034,247.33,31.4884,0,0.000885,0,0
0:2:36.432,247.094,31.4608,0,0.000885,0,0
0:2:36.827,248.678,31.6607,0,0.000885,0,0
0:2:37.228,248.678,31.6607,0,0.000885,0,0
0:2:37.621,250.204,31.8538,0,0.000885,0,0
0:2:38.030,251.142,31.9779,0,0.000885,0,0
0:2:38.425,252.023,32.0882,0,0.000885,0,0
0:2:38.829,252.841,32.1916,0,0.000885,0,0
0:2:39.230,253.722,32.3019,0,0.000885,0,0
0:2:39.630,254.309,32.3778,0,0.000885,0,0
0:2:40.031,254.896,32.4536,0,0.000885,0,0
0:2:40.423,255.599,32.5433,0,0.000885,0,0
0:2:40.828,256.066,32.6053,0,0.000885,0,0
0:2:41.232,257.712,32.8121,0,0.000885,0,0
0:2:41.627,258.064,32.8604,0,0.000885,0,0
0:2:42.023,259.176,32.9983,0,0.000885,0,0
0:2:42.423,259.647,33.0604,0,0.000885,0,0
0:2:42.817,259.647,33.0604,0,0.000885,0,0
0:2:43.218,261.168,33.2534,0,0.000885,0,0
0:2:43.622,261.756,33.3293,0,0.000885,0,0
0:2:44.023,262.521,33.4258,0,0.000885,0,0
0:2:44.423,263.811,33.5913,0,0.000885,0,0
0:2:44.829,264.691,33.7016,0,0.000885,0,0
0:2:45.227,265.394,33.7912,0,0.000885,0,0
0:2:45.632,265.861,33.8533,0,0.000885,0,0
0:2:46.023,266.097,33.8808,0,0.000885,0,0
0:2:46.427,267.565,34.067,0,0.000885,0,0
0:2:46.834,267.916,34.1153,0,0.000885,0,0
0:2:47.231,269.149,34.2669,0,0.000885,0,0
0:2:47.635,269.558,34.3221,0,0.000885,0,0
0:2:48.029,270.439,34.4324,0,0.000885,0,0
0:2:48.430,271.377,34.5496,0,0.000885,0,0
0:2:48.834,271.786,34.6048,0,0.000885,0,0
0:2:49.234,272.841,34.7427,0,0.000885,0,0
0:2:49.635,274.193,34.9082,0,0.000885,0,0
0:2:50.027,274.953,35.0116,0,0.000885,0,0
0:2:50.423,276.07,35.1495,0,0.000885,0,0
0:2:50.830,276.537,35.2115,0,0.000885,0,0
0:2:51.222,276.595,35.2184,0,0.000885,0,0
0:2:51.627,277.654,35.3494,0,0.000885,0,0
0:2:52.030,278.178,35.4184,0,0.000885,0,0
0:2:52.427,278.766,35.4942,0,0.000885,0,0
0:2:52.834,280.234,35.6804,0,0.000885,0,0
0:2:53.225,280.758,35.7493,0,0.000885,0,0
0:2:53.628,281.755,35.8734,0,0.000885,0,0
0:2:54.030,281.991,35.901,0,0.000885,0,0
0:2:54.430,282.756,36.0044,0,0.000885,0,0
0:2:54.830,283.988,36.1561,0,0.000885,0,0
0:2:55.232,284.455,36.2182,0,0.000885,0,0
0:2:55.627,285.336,36.3285,0,0.000885,0,0
0:2:56.022,286.506,36.4802,0,0.000885,0,0
0:2:56.429,287.155,36.5629,0,0.000885,0,0
0:2:56.822,288.089,36.6801,0,0.000885,0,0
0:2:57.236,289.148,36.818,0,0.000885,0,0
0:2:57.631,289.966,36.9214,0,0.000885,0,0
0:2:58.029,290.967,37.0455,0,0.000885,0,0
0:2:58.432,291.198,37.08,0,0.000885,0,0
0:2:58.833,291.843,37.1558,0,0.000885,0,0
0:2:59.234,292.488,37.2386,0,0.000885,0,0
0:2:59.631,293.663,37.3903,0,0.000885,0,0
0:3:0.037,293.605,37.3834,0,0.000885,0,0
0:3:0.430,294.837,37.542,0,0.000885,0,0
0:3:0.833,295.362,37.604,0,0.000885,0,0
0:3:1.230,296.83,37.7902,0,0.000885,0,0
0:3:1.624,297.008,37.8177,0,0.000885,0,0
0:3:2.030,298.12,37.9556,0,0.000885,0,0
0:3:2.433,298.649,38.0246,0,0.000885,0,0
0:3:2.835,299.352,38.1142,0,0.000885,0,0
0:3:3.236,300.291,38.2314,0,0.000885,0,0
0:3:3.639,301.581,38.3969,0,0.000885,0,0
0:3:4.040,302.635,38.5348,0,0.000885,0,0
0:3:4.440,302.928,38.5693,0,0.000885,0,0
0:3:4.834,304.218,38.7347,0,0.000885,0,0
0:3:5.231,304.045,38.7141,0,0.000885,0,0
0:3:5.638,305.335,38.8795,0,0.000885,0,0
0:3:6.030,305.922,38.9485,0,0.000885,0,0
0:3:6.435,307.034,39.0933,0,0.000885,0,0
0:3:6.830,307.799,39.1898,0,0.000885,0,0
0:3:7.236,307.857,39.1967,0,0.000885,0,0
0:3:7.632,308.853,39.3277,0,0.000885,0,0
0:3:8.022,309.498,39.4035,0,0.000885,0,0
0:3:8.425,310.379,39.5207,0,0.000885,0,0
0:3:8.829,311.491,39.6586,0,0.000885,0,0
0:3:9.229,312.256,39.7552,0,0.000885,0,0
0:3:9.630,313.195,39.8793,0,0.000885,0,0
0:3:10.033,314.307,40.0172,0,0.000885,0,0
0:3:10.424,314.894,40.093,0,0.000885,0,0
0:3:10.834,315.833,40.2102,0,0.000885,0,0
0:3:11.230,316.478,40.293,0,0.000885,0,0
0:3:11.623,316.593,40.3068,0,0.000885,0,0
0:3:12.024,317.825,40.4653,0,0.000885,0,0
0:3:12.430,318.003,40.486,0,0.000885,0,0
0:3:12.826,319.236,40.6446,0,0.000885,0,0
0:3:13.234,319.881,40.7273,0,0.000885,0,0
0:3:13.636,320.993,40.8721,0,0.000885,0,0
0:3:14.039,322.051,41.0031,0,0.000885,0,0
0:3:14.437,322.345,41.0445,0,0.000885,0,0
0:3:14.837,323.283,41.1617,0,0.000885,0,0
0:3:15.233,323.808,41.2306,0,0.000885,0,0
0:3:15.637,324.867,41.3616,0,0.000885,0,0
0:3:16.040,325.45,41.4375,0,0.000885,0,0
0:3:16.435,326.86,41.6168,0,0.000885,0,0
0:3:16.832,327.327,41.6788,0,0.000885,0,0
0:3:17.224,328.386,41.8098,0,0.000885,0,0
0:3:17.616,328.737,41.8581,0,0.000885,0,0
0:3:18.022,329.618,41.9684,0,0.000885,0,0
0:3:18.421,330.085,42.0304,0,0.000885,0,0
0:3:18.827,331.023,42.1477,0,0.000885,0,0
0:3:19.230,331.846,42.2511,0,0.000885,0,0
0:3:19.626,332.607,42.3476,0,0.000885,0,0
0:3:20.021,333.016,42.4028,0,0.000885,0,0
0:3:20.420,334.19,42.5475,0,0.000885,0,0
0:3:20.824,334.662,42.6096,0,0.000885,0,0
0:3:21.230,335.832,42.7613,0,0.000885,0,0
0:3:21.633,336.77,42.8785,0,0.000885,0,0
0:3:22.037,337.242,42.9405,0,0.000885,0,0
0:3:22.436,337.887,43.0233,0,0.000885,0,0
0:3:22.832,339.177,43.1819,0,0.000885,0,0
0:3:23.222,339.644,43.2439,0,0.000885,0,0
0:3:23.623,340.583,43.3611,0,0.000885,0,0
0:3:24.026,341.641,43.499,0,0.000885,0,0
0:3:24.426,342.46,43.6024,0,0.000885,0,0
0:3:24.826,342.931,43.6645,0,0.000885,0,0
0:3:25.231,344.043,43.8024,0,0.000885,0,0
0:3:25.636,343.87,43.7817,0,0.000885,0,0
0:3:26.033,345.569,44.0023,0,0.000885,0,0
0:3:26.426,345.805,44.0299,0,0.000885,0,0
0:3:26.822,346.743,44.1471,0,0.000885,0,0
0:3:27.223,347.268,44.2161,0,0.000885,0,0
0:3:27.620,348.385,44.3609,0,0.000885,0,0
0:3:28.028,349.617,44.5126,0,0.000885,0,0
0:3:28.432,349.733,44.5263,0,0.000885,0,0
0:3:28.833,350.849,44.6711,0,0.000885,0,0
0:3:29.232,351.61,44.7677,0,0.000885,0,0
0:3:29.639,352.433,44.8711,0,0.000885,0,0
0:3:30.036,352.312,44.8573,0,0.000885,0,0
0:3:30.439,353.602,45.0228,0,0.000885,0,0
0:3:30.833,355.128,45.2158,0,0.000885,0,0
0:3:31.236,355.537,45.271,0,0.000885,0,0
0:3:31.635,356.125,45.3399,0,0.000885,0,0
0:3:32.032,357.535,45.5192,0,0.000885,0,0
0:3:32.432,357.766,45.5537,0,0.000885,0,0
0:3:32.825,358.589,45.6571,0,0.000885,0,0
0:3:33.225,359.35,45.7536,0,0.000885,0,0
0:3:33.628,360.173,45.857,0,0.000885,0,0
0:3:34.028,360.408,45.8915,0,0.000885,0,0
0:3:34.431,361.698,46.0501,0,0.000885,0,0
0:3:34.834,362.343,46.1328,0,0.000885,0,0
0:3:35.232,362.752,46.188,0,0.000885,0,0
0:3:35.637,364.163,46.3672,0,0.000885,0,0
0:3:36.029,364.923,46.4638,0,0.000885,0,0
0:3:36.433,365.684,46.5603,0,0.000885,0,0
0:3:36.841,366.8,46.7051,0,0.000885,0,0
0:3:37.237,367.445,46.7878,0,0.000885,0,0
0:3:37.639,368.206,46.8843,0,0.000885,0,0
0:3:38.029,369.207,47.0085,0,0.000885,0,0
0:3:38.428,369.732,47.0774,0,0.000885,0,0
0:3:38.835,370.848,47.2153,0,0.000885,0,0
0:3:39.235,371.08,47.2498,0,0.000885,0,0
0:3:39.635,371.667,47.3256,0,0.000885,0,0
0:3:40.038,372.49,47.429,0,0.000885,0,0
0:3:40.437,373.313,47.5325,0,0.000885,0,0
0:3:40.833,374.54,47.691,0,0.000885,0,0
0:3:41.224,375.248,47.7807,0,0.000885,0,0
0:3:41.627,376.244,47.9048,0,0.000885,0,0
0:3:42.035,376.302,47.9117,0,0.000885,0,0
0:3:42.432,377.005,48.0013,0,0.000885,0,0
0:3:42.836,377.943,48.1185,0,0.000885,0,0
0:3:43.226,378.94,48.2495,0,0.000885,0,0
0:3:43.627,379.527,48.3254,0,0.000885,0,0
0:3:44.030,380.643,48.4632,0,0.000885,0,0
0:3:44.433,381.288,48.546,0,0.000885,0,0
0:3:44.833,381.875,48.6218,0,0.000885,0,0
0:3:45.234,382.872,48.7459,0,0.000885,0,0
0:3:45.629,384.042,48.8976,0,0.000885,0,0
0:3:46.038,384.98,49.0148,0,0.000885,0,0
0:3:46.430,385.688,49.1045,0,0.000885,0,0
0:3:46.836,386.27,49.1803,0,0.000885,0,0
0:3:47.228,387.387,49.3251,0,0.000885,0,0
0:3:47.624,387.738,49.3665,0,0.000885,0,0
0:3:48.021,388.267,49.4354,0,0.000885,0,0
0:3:48.426,388.855,49.5113,0,0.000885,0,0
0:3:48.827,390.145,49.6767,0,0.000885,0,0
0:3:49.226,390.376,49.7043,0,0.000885,0,0
0:3:49.625,391.199,49.8077,0,0.000885,0,0
0:3:50.029,392.137,49.9318,0,0.000885,0,0
0:3:50.422,393.543,50.1111,0,0.000885,0,0
0:3:50.826,394.13,50.18,0,0.000885,0,0
0:3:51.235,394.308,50.2076,0,0.000885,0,0
0:3:51.641,395.127,50.311,0,0.000885,0,0
0:3:52.035,396.243,50.4489,0,0.000885,0,0
0:3:52.437,396.946,50.5386,0,0.000885,0,0
0:3:52.833,397.649,50.6282,0,0.000885,0,0
0:3:53.230,398.65,50.7592,0,0.000885,0,0
0:3:53.634,399.762,50.8971,0,0.000885,0,0
0:3:54.037,400.464,50.9867,0,0.000885,0,0
0:3:54.437,401.052,51.0626,0,0.000885,0,0
0:3:54.834,402.168,51.2074,0,0.000885,0,0
0:3:55.228,403.107,51.3246,0,0.000885,0,0
0:3:55.621,403.458,51.3728,0,0.000885,0,0
0:3:56.025,404.103,51.4487,0,0.000885,0,0
0:3:56.422,405.335,51.6073,0,0.000885,0,0
0:3:56.828,405.745,51.6624,0,0.000885,0,0
0:3:57.229,406.154,51.7107,0,0.000885,0,0
0:3:57.622,406.505,51.7589,0,0.000885,0,0
0:3:58.026,408.089,51.9589,0,0.000885,0,0
0:3:58.425,409.085,52.0899,0,0.000885,0,0
0:3:58.829,409.614,52.1519,0,0.000885,0,0
0:3:59.230,410.317,52.2416,0,0.000885,0,0
0:3:59.630,411.082,52.3381,0,0.000885,0,0
0:4:0.040,412.021,52.4622,0,0.000885,0,0
0:4:0.435,412.666,52.5449,0,0.000885,0,0
0:4:0.829,413.778,52.6828,0,0.000885,0,0
0:4:1.220,414.129,52.7311,0,0.000885,0,0
0:4:1.637,414.837,52.8207,0,0.000885,0,0
0:4:2.031,415.655,52.9242,0,0.000885,0,0
0:4:2.428,417.181,53.1172,0,0.000885,0,0
0:4:2.835,417.884,53.2068,0,0.000885,0,0
0:4:3.237,418.355,53.2689,0,0.000885,0,0
0:4:3.640,419.232,53.3792,0,0.000885,0,0
0:4:4.041,419.881,53.4619,0,0.000885,0,0
0:4:4.442,420.464,53.5378,0,0.000885,0,0
0:4:4.841,421.58,53.6757,0,0.000885,0,0
0:4:5.236,422.577,53.8067,0,0.000885,0,0
0:4:5.640,423.457,53.917,0,0.000885,0,0
0:4:6.038,423.337,53.9032,0,0.000885,0,0
0:4:6.431,424.747,54.0825,0,0.000885,0,0
0:4:6.836,425.859,54.2204,0,0.000885,0,0
0:4:7.228,426.037,54.248,0,0.000885,0,0
0:4:7.623,427.149,54.3858,0,0.000885,0,0
0:4:8.030,427.621,54.4479,0,0.000885,0,0
0:4:8.435,428.208,54.5237,0,0.000885,0,0
0:4:8.836,429.262,54.6547,0,0.000885,0,0
0:4:9.236,429.498,54.6823,0,0.000885,0,0
0:4:9.636,430.846,54.8547,0,0.000885,0,0
0:4:10.031,431.491,54.9374,0,0.000885,0,0
0:4:10.436,431.962,54.9995,0,0.000885,0,0
0:4:10.838,432.901,55.1167,0,0.000885,0,0
0:4:11.232,433.84,55.2408,0,0.000885,0,0
0:4:11.639,434.894,55.3718,0,0.000885,0,0
0:4:12.036,435.187,55.4063,0,0.000885,0,0
0:4:12.440,436.651,55.5993,0,0.000885,0,0
0:4:12.832,437.416,55.6958,0,0.000885,0,0
0:4:13.232,438.297,55.8062,0,0.000885,0,0
0:4:13.638,438.942,55.8889,0,0.000885,0,0
0:4:14.039,439.351,55.9372,0,0.000885,0,0
0:4:14.440,440.111,56.0337,0,0.000885,0,0
0:4:14.831,440.992,56.1509,0,0.000885,0,0
0:4:15.238,441.989,56.275,0,0.000885,0,0
0:4:15.637,442.576,56.3509,0,0.000885,0,0
0:4:16.040,443.634,56.4819,0,0.000885,0,0
0:4:16.442,444.337,56.5715,0,0.000885,0,0
0:4:16.837,444.982,56.6542,0,0.000885,0,0
0:4:17.232,445.569,56.7301,0,0.000885,0,0
0:4:17.639,446.802,56.8886,0,0.000885,0,0
0:4:18.031,447.504,56.9783,0,0.000885,0,0
0:4:18.437,448.381,57.0886,0,0.000885,0,0
0:4:18.839,449.03,57.1713,0,0.000885,0,0
0:4:19.238,449.791,57.2679,0,0.000885,0,0
0:4:19.640,450.2,57.323,0,0.000885,0,0
0:4:20.030,450.729,57.392,0,0.000885,0,0
0:4:20.433,452.135,57.5712,0,0.000885,0,0
0:4:20.831,452.486,57.6126,0,0.000885,0,0
0:4:21.227,452.958,57.6746,0,0.000885,0,0
0:4:21.642,454.306,57.847,0,0.000885,0,0
0:4:22.037,454.951,57.9229,0,0.000885,0,0
0:4:22.438,455.364,57.978,0,0.000885,0,0
0:4:22.834,456.419,58.1159,0,0.000885,0,0
0:4:23.232,457.709,58.2745,0,0.000885,0,0
0:4:23.639,458.469,58.371,0,0.000885,0,0
0:4:24.040,459.234,58.4744,0,0.000885,0,0
0:4:24.438,460.698,58.6606,0,0.000885,0,0
0:4:24.834,461.049,58.702,0,0.000885,0,0
0:4:25.244,461.93,58.8123,0,0.000885,0,0
0:4:25.637,462.869,58.9364,0,0.000885,0,0
0:4:26.027,463.282,58.9846,0,0.000885,0,0
0:4:26.433,463.571,59.026,0,0.000885,0,0
0:4:26.841,464.572,59.1501,0,0.000885,0,0
0:4:27.237,465.511,59.2673,0,0.000885,0,0
0:4:27.639,465.684,59.2949,0,0.000885,0,0
0:4:28.042,466.507,59.3983,0,0.000885,0,0
0:4:28.444,467.268,59.4949,0,0.000885,0,0
0:4:28.847,468.264,59.619,0,0.000885,0,0
0:4:29.250,469.381,59.7638,0,0.000885,0,0
0:4:29.648,470.377,59.8879,0,0.000885,0,0
0:4:30.042,471.2,59.9982,0,0.000885,0,0
0:4:30.440,471.725,60.0602,0,0.000885,0,0
0:4:30.834,472.254,60.1292,0,0.000885,0,0
0:4:31.239,473.309,60.2602,0,0.000885,0,0
0:4:31.642,473.838,60.3291,0,0.000885,0,0
0:4:32.038,474.656,60.4325,0,0.000885,0,0
0:4:32.445,475.421,60.5291,0,0.000885,0,0
0:4:32.840,476.596,60.6808,0,0.000885,0,0
0:4:33.241,477.592,60.8118,0,0.000885,0,0
0:4:33.642,478.762,60.9565,0,0.000885,0,0
0:4:34.046,479.118,61.0048,0,0.000885,0,0
0:4:34.446,479.643,61.0669,0,0.000885,0,0
0:4:34.846,480.581,61.191,0,0.000885,0,0
0:4:35.240,480.702,61.2048,0,0.000885,0,0
0:4:35.633,481.404,61.2944,0,0.000885,0,0
0:4:36.032,482.401,61.4185,0,0.000885,0,0
0:4:36.434,483.397,61.5495,0,0.000885,0,0
0:4:36.827,483.926,61.6184,0,0.000885,0,0
0:4:37.232,485.159,61.7701,0,0.000885,0,0
0:4:37.629,486.155,61.9011,0,0.000885,0,0
0:4:38.025,486.213,61.908,0,0.000885,0,0
0:4:38.429,487.325,62.0459,0,0.000885,0,0
0:4:38.831,488.557,62.2045,0,0.000885,0,0
0:4:39.230,488.908,62.2528,0,0.000885,0,0
0:4:39.631,489.674,62.3493,0,0.000885,0,0
0:4:40.034,490.612,62.4665,0,0.000885,0,0
0:4:40.427,491.257,62.5492,0,0.000885,0,0
0:4:40.822,492.018,62.6458,0,0.000885,0,0
0:4:41.219,492.547,62.7147,0,0.000885,0,0
0:4:41.623,493.25,62.8043,0,0.000885,0,0
0:4:42.027,494.189,62.9216,0,0.000885,0,0
0:4:42.421,495.305,63.0663,0,0.000885,0,0
0:4:42.826,496.008,63.156,0,0.000885,0,0
0:4:43.234,497.004,63.2801,0,0.000885,0,0
0:4:43.639,497.827,63.3835,0,0.000885,0,0
0:4:44.040,498.53,63.4731,0,0.000885,0,0
0:4:44.440,498.824,63.5145,0,0.000885,0,0
0:4:44.839,499.936,63.6524,0,0.000885,0,0
0:4:45.245,500.816,63.7627,0,0.000885,0,0
0:4:45.640,501.577,63.8661,0,0.000885,0,0
0:4:46.040,502.222,63.942,0,0.000885,0,0
0:4:46.447,503.103,64.0592,0,0.000885,0,0
0:4:46.845,504.219,64.1971,0,0.000885,0,0
0:4:47.240,504.686,64.2591,0,0.000885,0,0
0:4:47.632,505.509,64.3626,0,0.000885,0,0
0:4:48.035,505.861,64.4108,0,0.000885,0,0
0:4:48.435,506.563,64.5005,0,0.000885,0,0
0:4:48.840,507.622,64.6315,0,0.000885,0,0
0:4:49.241,508.383,64.728,0,0.000885,0,0
0:4:49.640,509.321,64.8521,0,0.000885,0,0
0:4:50.034,510.082,64.9486,0,0.000885,0,0
0:4:50.432,511.199,65.0865,0,0.000885,0,0
0:4:50.837,512.079,65.1968,0,0.000885,0,0
0:4:51.239,512.431,65.2451,0,0.000885,0,0
0:4:51.634,513.543,65.383,0,0.000885,0,0
0:4:52.032,514.246,65.4726,0,0.000885,0,0
0:4:52.436,515.126,65.5898,0,0.000885,0,0
0:4:52.829,515.42,65.6243,0,0.000885,0,0
0:4:53.233,516.474,65.7622,0,0.000885,0,0
0:4:53.635,516.768,65.7967,0,0.000885,0,0
0:4:54.034,518.12,65.969,0,0.000885,0,0
0:4:54.437,518.645,66.038,0,0.000885,0,0
0:4:54.830,519.641,66.1621,0,0.000885,0,0
0:4:55.234,520.171,66.231,0,0.000885,0,0
0:4:55.632,520.816,66.3138,0,0.000885,0,0
0:4:56.037,521.754,66.431,0,0.000885,0,0
0:4:56.441,522.693,66.5482,0,0.000885,0,0
0:4:56.834,523.453,66.6516,0,0.000885,0,0
0:4:57.232,524.276,66.755,0,0.000885,0,0
0:4:57.628,525.566,66.9205,0,0.000885,0,0
0:4:58.022,525.451,66.8998,0,0.000885,0,0
0:4:58.425,526.683,67.0584,0,0.000885,0,0
0:4:58.828,527.386,67.148,0,0.000885,0,0
0:4:59.228,528.382,67.279,0,0.000885,0,0
0:4:59.627,529.263,67.3894,0,0.000885,0,0
0:5:0.031,529.556,67.4238,0,0.000885,0,0
0:5:0.425,530.904,67.5962,0,0.000885,0,0
0:5:0.832,531.371,67.6583,0,0.000885,0,0
0:5:1.237,532.666,67.8237,0,0.000885,0,0
0:5:1.631,532.897,67.8513,0,0.000885,0,0
0:5:2.024,533.542,67.934,0,0.000885,0,0
0:5:2.421,534.307,68.0306,0,0.000885,0,0
0:5:2.827,535.361,68.1616,0,0.000885,0,0
0:5:3.232,535.77,68.2167,0,0.000885,0,0
0:5:3.634,536.709,68.3339,0,0.000885,0,0
0:5:4.035,537.416,68.4236,0,0.000885,0,0
0:5:4.436,538.471,68.5615,0,0.000885,0,0
0:5:4.836,538.822,68.6028,0,0.000885,0,0
0:5:5.229,540.112,68.7683,0,0.000885,0,0
0:5:5.632,541.108,68.8993,0,0.000885,0,0
0:5:6.036,541.344,68.9269,0,0.000885,0,0
0:5:6.435,542.576,69.0855,0,0.000885,0,0
0:5:6.838,542.75,69.1062,0,0.000885,0,0
0:5:7.231,543.808,69.2372,0,0.000885,0,0
0:5:7.647,544.805,69.3682,0,0.000885,0,0
0:5:8.044,545.334,69.4371,0,0.000885,0,0
0:5:8.437,546.446,69.575,0,0.000885,0,0
0:5:8.843,547.033,69.6508,0,0.000885,0,0
0:5:9.245,547.621,69.7267,0,0.000885,0,0
0:5:9.646,548.675,69.8577,0,0.000885,0,0
0:5:10.047,549.729,69.9956,0,0.000885,0,0
0:5:10.442,550.374,70.0783,0,0.000885,0,0
0:5:10.834,550.961,70.1542,0,0.000885,0,0
0:5:11.248,552.313,70.3196,0,0.000885,0,0
0:5:11.645,553.252,70.4437,0,0.000885,0,0
0:5:12.042,553.483,70.4713,0,0.000885,0,0
0:5:12.446,554.48,70.5954,0,0.000885,0,0
0:5:12.849,555.067,70.6713,0,0.000885,0,0
0:5:13.251,555.418,70.7195,0,0.000885,0,0
0:5:13.654,556.299,70.8298,0,0.000885,0,0
0:5:14.054,557.473,70.9815,0,0.000885,0,0
0:5:14.453,558.292,71.0849,0,0.000885,0,0
0:5:14.847,558.585,71.1194,0,0.000885,0,0
0:5:15.245,559.293,71.2091,0,0.000885,0,0
0:5:15.639,560.169,71.3263,0,0.000885,0,0
0:5:16.032,561.108,71.4435,0,0.000885,0,0
0:5:16.426,561.579,71.5055,0,0.000885,0,0
0:5:16.823,562.811,71.6572,0,0.000885,0,0
0:5:17.221,563.572,71.7537,0,0.000885,0,0
0:5:17.635,564.626,71.8916,0,0.000885,0,0
0:5:18.037,565.565,72.0088,0,0.000885,0,0
0:5:18.438,566.21,72.0916,0,0.000885,0,0
0:5:18.844,566.623,72.1467,0,0.000885,0,0
0:5:19.244,567.148,72.2088,0,0.000885,0,0
0:5:19.646,568.207,72.3467,0,0.000885,0,0
0:5:20.047,569.025,72.4501,0,0.000885,0,0
0:5:20.444,570.142,72.5949,0,0.000885,0,0
0:5:20.843,570.609,72.6501,0,0.000885,0,0
0:5:21.246,571.961,72.8224,0,0.000885,0,0
0:5:21.650,572.428,72.8845,0,0.000885,0,0
0:5:22.043,573.015,72.9603,0,0.000885,0,0
0:5:22.439,573.545,73.0224,0,0.000885,0,0
0:5:22.848,574.599,73.1603,0,0.000885,0,0
0:5:23.238,575.066,73.2223,0,0.000885,0,0
0:5:23.640,575.711,73.3051,0,0.000885,0,0
0:5:24.045,576.534,73.4085,0,0.000885,0,0
0:5:24.446,577.766,73.5602,0,0.000885,0,0
0:5:24.847,578.411,73.6429,0,0.000885,0,0
0:5:25.250,579.056,73.7256,0,0.000885,0,0
0:5:25.645,580.053,73.8566,0,0.000885,0,0
0:5:26.043,581.049,73.9807,0,0.000885,0,0
0:5:26.448,581.872,74.0842,0,0.000885,0,0
0:5:26.840,582.339,74.1462,0,0.000885,0,0
0:5:27.233,583.398,74.2772,0,0.000885,0,0
0:5:27.631,583.985,74.3531,0,0.000885,0,0
0:5:28.029,584.981,74.4841,0,0.000885,0,0
0:5:28.432,585.155,74.5047,0,0.000885,0,0
0:5:28.834,586.507,74.6771,0,0.000885,0,0
0:5:29.236,587.268,74.7736,0,0.000885,0,0
0:5:29.635,587.739,74.8357,0,0.000885,0,0
0:5:30.034,588.562,74.9391,0,0.000885,0,0
0:5:30.429,589.323,75.0356,0,0.000885,0,0
0:5:30.824,590.146,75.1391,0,0.000885,0,0
0:5:31.223,591.026,75.2494,0,0.000885,0,0
0:5:31.632,591.849,75.3597,0,0.000885,0,0
0:5:32.037,592.432,75.4286,0,0.000885,0,0
0:5:32.432,593.197,75.5252,0,0.000885,0,0
0:5:32.839,594.549,75.6975,0,0.000885,0,0
0:5:33.239,594.959,75.7527,0,0.000885,0,0
0:5:33.646,595.661,75.8423,0,0.000885,0,0
0:5:34.050,596.191,75.9113,0,0.000885,0,0
0:5:34.450,597.481,76.0768,0,0.000885,0,0
0:5:34.846,598.068,76.1457,0,0.000885,0,0
0:5:35.247,599.184,76.2905,0,0.000885,0,0
0:5:35.652,600.065,76.4008,0,0.000885,0,0
0:5:36.046,600.537,76.4629,0,0.000885,0,0
0:5:36.441,601.239,76.5525,0,0.000885,0,0
0:5:36.840,602,76.649,0,0.000885,0,0
0:5:37.237,603.001,76.7731,0,0.000885,0,0
0:5:37.635,603.646,76.8559,0,0.000885,0,0
0:5:38.029,604.584,76.98,0,0.000885,0,0
0:5:38.432,605.172,77.0558,0,0.000885,0,0
0:5:38.838,605.465,77.0903,0,0.000885,0,0
0:5:39.239,606.697,77.2489,0,0.000885,0,0
0:5:39.642,607.636,77.3661,0,0.000885,0,0
0:5:40.038,608.459,77.4695,0,0.000885,0,0
0:5:40.436,609.34,77.5867,0,0.000885,0,0
0:5:40.835,609.869,77.6488,0,0.000885,0,0
0:5:41.232,610.278,77.7039,0,0.000885,0,0
0:5:41.637,611.453,77.8556,0,0.000885,0,0
0:5:42.052,612.805,78.0211,0,0.000885,0,0
0:5:42.451,613.272,78.0831,0,0.000885,0,0
0:5:42.850,613.917,78.1659,0,0.000885,0,0
0:5:43.245,614.562,78.2486,0,0.000885,0,0
0:5:43.650,615.385,78.352,0,0.000885,0,0
0:5:44.053,615.798,78.4072,0,0.000885,0,0
0:5:44.455,616.911,78.5451,0,0.000885,0,0
0:5:44.858,617.791,78.6623,0,0.000885,0,0
0:5:45.255,618.499,78.7519,0,0.000885,0,0
0:5:45.650,619.495,78.876,0,0.000885,0,0
0:5:46.047,620.256,78.9725,0,0.000885,0,0
0:5:46.446,620.491,79.0001,0,0.000885,0,0
0:5:46.841,621.786,79.1656,0,0.000885,0,0
0:5:47.237,622.84,79.3035,0,0.000885,0,0
0:5:47.632,623.076,79.3311,0,0.000885,0,0
0:5:48.031,624.486,79.5103,0,0.000885,0,0
0:5:48.440,624.895,79.5655,0,0.000885,0,0
0:5:48.848,625.656,79.662,0,0.000885,0,0
0:5:49.250,626.305,79.7448,0,0.000885,0,0
0:5:49.652,627.417,79.8827,0,0.000885,0,0
0:5:50.053,627.947,79.9516,0,0.000885,0,0
0:5:50.451,628.298,79.9999,0,0.000885,0,0
0:5:50.848,629.766,80.186,0,0.000885,0,0
0:5:51.241,630.237,80.2412,0,0.000885,0,0
0:5:51.648,631.234,80.3722,0,0.000885,0,0
0:5:52.046,631.763,80.4411,0,0.000885,0,0
0:5:52.446,632.586,80.5446,0,0.000885,0,0
0:5:52.838,633.525,80.6618,0,0.000885,0,0
0:5:53.233,634.285,80.7583,0,0.000885,0,0
0:5:53.637,634.872,80.8341,0,0.000885,0,0
0:5:54.043,636.167,80.9996,0,0.000885,0,0
0:5:54.447,636.928,81.0961,0,0.000885,0,0
0:5:54.849,637.986,81.234,0,0.000885,0,0
0:5:55.241,638.044,81.2409,0,0.000885,0,0
0:5:55.642,639.04,81.365,0,0.000885,0,0
0:5:56.040,639.512,81.4271,0,0.000885,0,0
0:5:56.447,640.393,81.5374,0,0.000885,0,0
0:5:56.852,641.095,81.627,0,0.000885,0,0
0:5:57.247,641.861,81.7236,0,0.000885,0,0
0:5:57.646,642.621,81.8201,0,0.000885,0,0
0:5:58.044,644.147,82.0131,0,0.000885,0,0
0:5:58.452,644.854,82.1028,0,0.000885,0,0
0:5:58.856,645.441,82.1786,0,0.000885,0,0
0:5:59.257,646.38,82.3027,0,0.000885,0,0
0:5:59.658,646.38,82.3027,0,0.000885,0,0
0:6:0.057,647.67,82.4613,0,0.000885,0,0
0:6:0.452,648.257,82.5371,0,0.000885,0,0
0:6:0.848,649.667,82.7164,0,0.000885,0,0
0:6:1.242,650.134,82.7785,0,0.000885,0,0
0:6:1.642,650.664,82.8474,0,0.000885,0,0
0:6:2.039,651.66,82.9715,0,0.000885,0,0
0:6:2.444,652.189,83.0405,0,0.000885,0,0
0:6:2.839,653.128,83.1577,0,0.000885,0,0
0:6:3.242,653.479,83.2059,0,0.000885,0,0
0:6:3.650,654.538,83.3369,0,0.000885,0,0
0:6:4.052,655.534,83.4679,0,0.000885,0,0
0:6:4.453,656.357,83.5714,0,0.000885,0,0
0:6:4.852,657.416,83.7024,0,0.000885,0,0
0:6:5.250,657.883,83.7644,0,0.000885,0,0
0:6:5.647,658.879,83.8885,0,0.000885,0,0
0:6:6.040,659.76,84.0057,0,0.000885,0,0
0:6:6.436,660.525,84.1022,0,0.000885,0,0
0:6:6.834,661.17,84.185,0,0.000885,0,0
0:6:7.232,661.464,84.2195,0,0.000885,0,0
0:6:7.628,662.287,84.3229,0,0.000885,0,0
0:6:8.042,663.577,84.4884,0,0.000885,0,0
0:6:8.445,664.4,84.5918,0,0.000885,0,0
0:6:8.852,664.929,84.6607,0,0.000885,0,0
0:6:9.255,665.69,84.7573,0,0.000885,0,0
0:6:9.657,666.922,84.9158,0,0.000885,0,0
0:6:10.053,667.215,84.9503,0,0.000885,0,0
0:6:10.453,668.038,85.0606,0,0.000885,0,0
0:6:10.851,668.683,85.1365,0,0.000885,0,0
0:6:11.243,669.506,85.2468,0,0.000885,0,0
0:6:11.640,670.209,85.3364,0,0.000885,0,0
0:6:12.036,671.21,85.4605,0,0.000885,0,0
0:6:12.435,671.383,85.4812,0,0.000885,0,0
0:6:12.832,672.028,85.5639,0,0.000885,0,0
0:6:13.236,673.496,85.7501,0,0.000885,0,0
0:6:13.637,673.674,85.7777,0,0.000885,0,0
0:6:14.042,675.2,85.9707,0,0.000885,0,0
0:6:14.445,675.316,85.9845,0,0.000885,0,0
0:6:14.849,676.962,86.1914,0,0.000885,0,0
0:6:15.241,677.135,86.2189,0,0.000885,0,0
0:6:15.639,678.194,86.3499,0,0.000885,0,0
0:6:16.038,678.723,86.4189,0,0.000885,0,0
0:6:16.444,679.604,86.5292,0,0.000885,0,0
0:6:16.839,679.955,86.5775,0,0.000885,0,0
0:6:17.236,681.187,86.7292,0,0.000885,0,0
0:6:17.635,682.068,86.8464,0,0.000885,0,0
0:6:18.033,683.064,86.9705,0,0.000885,0,0
0:6:18.438,683.416,87.0187,0,0.000885,0,0
0:6:18.840,684.768,87.1842,0,0.000885,0,0
0:6:19.243,685.591,87.2945,0,0.000885,0,0
0:6:19.643,684.297,87.129,0,0.000885,0,0
0:6:20.039,685.12,87.2325,0,0.000885,0,0
0:6:20.433,686.058,87.3497,0,0.000885,0,0
0:6:20.830,687.232,87.5014,0,0.000885,0,0
0:6:21.230,688.522,87.6668,0,0.000885,0,0
0:6:21.637,689.639,87.8047,0,0.000885,0,0
0:6:22.042,690.578,87.9288,0,0.000885,0,0
0:6:22.446,691.694,88.0667,0,0.000885,0,0
0:6:22.845,692.459,88.1633,0,0.000885,0,0
0:6:23.249,693.749,88.3287,0,0.000885,0,0
0:6:23.654,694.158,88.3839,0,0.000885,0,0
0:6:24.057,694.866,88.4735,0,0.000885,0,0
0:6:24.459,695.746,88.5838,0,0.000885,0,0
0:6:24.858,697.036,88.7493,0,0.000885,0,0
0:6:25.257,697.566,88.8183,0,0.000885,0,0
0:6:25.654,698.384,88.9217,0,0.000885,0,0
0:6:26.058,699.443,89.0527,0,0.000885,0,0
0:6:26.455,700.088,89.1354,0,0.000885,0,0
0:6:26.854,700.791,89.2251,0,0.000885,0,0
0:6:27.249,701.44,89.3078,0,0.000885,0,0
0:6:27.644,701.556,89.3216,0,0.000885,0,0
0:6:28.047,701.907,89.3698,0,0.000885,0,0
0:6:28.451,702.908,89.4939,0,0.000885,0,0
0:6:28.857,703.491,89.5698,0,0.000885,0,0
0:6:29.259,705.194,89.7904,0,0.000885,0,0
0:6:29.661,705.902,89.8801,0,0.000885,0,0
0:6:30.059,706.72,89.9835,0,0.000885,0,0
0:6:30.459,707.721,90.1076,0,0.000885,0,0
0:6:30.856,708.602,90.2248,0,0.000885,0,0
0:6:31.250,709.305,90.3144,0,0.000885,0,0
0:6:31.645,710.185,90.4247,0,0.000885,0,0
0:6:32.043,711.008,90.5282,0,0.000885,0,0
0:6:32.452,711.827,90.6316,0,0.000885,0,0
0:6:32.845,712.356,90.7005,0,0.000885,0,0
0:6:33.250,712.943,90.7764,0,0.000885,0,0
0:6:33.654,714.002,90.9074,0,0.000885,0,0
0:6:34.059,715.056,91.0453,0,0.000885,0,0
0:6:34.461,715.47,91.0935,0,0.000885,0,0
0:6:34.863,716.76,91.259,0,0.000885,0,0
0:6:35.258,717.111,91.3073,0,0.000885,0,0
0:6:35.656,717.698,91.3831,0,0.000885,0,0
0:6:36.056,718.285,91.4521,0,0.000885,0,0
0:6:36.450,718.988,91.5417,0,0.000885,0,0
0:6:36.844,719.927,91.6658,0,0.000885,0,0
0:6:37.251,720.576,91.7485,0,0.000885,0,0
0:6:37.647,721.221,91.8313,0,0.000885,0,0
0:6:38.045,722.627,92.0105,0,0.000885,0,0
0:6:38.448,723.334,92.1002,0,0.000885,0,0
0:6:38.854,723.57,92.1277,0,0.000885,0,0
0:6:39.254,724.624,92.2587,0,0.000885,0,0
0:6:39.656,725.211,92.3346,0,0.000885,0,0
0:6:40.053,725.621,92.3897,0,0.000885,0,0
0:6:40.445,726.857,92.5483,0,0.000885,0,0
0:6:40.851,727.209,92.5897,0,0.000885,0,0
0:6:41.247,727.969,92.6862,0,0.000885,0,0
0:6:41.645,729.615,92.9,0,0.000885,0,0
0:6:42.040,729.851,92.9275,0,0.000885,0,0
0:6:42.436,730.669,93.031,0,0.000885,0,0
0:6:42.832,731.608,93.1482,0,0.000885,0,0
0:6:43.233,733.076,93.3412,0,0.000885,0,0
0:6:43.639,733.254,93.3619,0,0.000885,0,0
0:6:44.041,733.783,93.4309,0,0.000885,0,0
0:6:44.441,734.722,93.5481,0,0.000885,0,0
0:6:44.852,735.66,93.6653,0,0.000885,0,0
0:6:45.248,736.541,93.7825,0,0.000885,0,0
0:6:45.646,736.247,93.7411,0,0.000885,0,0
0:6:46.040,737.889,93.948,0,0.000885,0,0
0:6:46.435,738.36,94.01,0,0.000885,0,0
0:6:46.843,739.357,94.141,0,0.000885,0,0
0:6:47.240,739.708,94.1824,0,0.000885,0,0
0:6:47.637,741.47,94.4099,0,0.000885,0,0
0:6:48.032,741.763,94.4444,0,0.000885,0,0
0:6:48.436,742.88,94.5892,0,0.000885,0,0
0:6:48.839,743.467,94.6581,0,0.000885,0,0
0:6:49.242,744.17,94.7478,0,0.000885,0,0
0:6:49.645,744.935,94.8512,0,0.000885,0,0
0:6:50.052,745.931,94.9753,0,0.000885,0,0
0:6:50.444,746.696,95.0718,0,0.000885,0,0
0:6:50.844,747.399,95.1614,0,0.000885,0,0
0:6:51.242,748.516,95.3062,0,0.000885,0,0
0:6:51.645,748.395,95.2855,0,0.000885,0,0
0:6:52.041,749.69,95.451,0,0.000885,0,0
0:6:52.445,750.277,95.5269,0,0.000885,0,0
0:6:52.845,751.273,95.6579,0,0.000885,0,0
0:6:53.254,752.39,95.7958,0,0.000885,0,0
0:6:53.659,752.741,95.844,0,0.000885,0,0
0:6:54.063,753.68,95.9612,0,0.000885,0,0
0:6:54.465,755.032,96.1336,0,0.000885,0,0
0:6:54.865,755.032,96.1336,0,0.000885,0,0
0:6:55.264,756.144,96.2784,0,0.000885,0,0
0:6:55.658,756.731,96.3473,0,0.000885,0,0
0:6:56.053,756.967,96.3818,0,0.000885,0,0
0:6:56.449,757.732,96.4783,0,0.000885,0,0
0:6:56.859,758.907,96.63,0,0.000885,0,0
0:6:57.255,759.787,96.7403,0,0.000885,0,0
0:6:57.648,760.842,96.8713,0,0.000885,0,0
0:6:58.045,761.9,97.0092,0,0.000885,0,0
0:6:58.446,762.425,97.0782,0,0.000885,0,0
0:6:58.850,762.194,97.0437,0,0.000885,0,0
0:6:59.256,763.484,97.2092,0,0.000885,0,0
0:6:59.659,764.422,97.3264,0,0.000885,0,0
0:7:0.056,765.481,97.4643,0,0.000885,0,0
0:7:0.456,766.651,97.616,0,0.000885,0,0
0:7:0.850,767.065,97.6642,0,0.000885,0,0
0:7:1.257,767.888,97.7677,0,0.000885,0,0
0:7:1.653,768.648,97.8642,0,0.000885,0,0
0:7:2.050,769.645,97.9952,0,0.000885,0,0
0:7:2.448,770.174,98.0641,0,0.000885,0,0
0:7:2.845,770.881,98.1538,0,0.000885,0,0
0:7:3.239,771.468,98.2296,0,0.000885,0,0
0:7:3.643,772.113,98.3054,0,0.000885,0,0
0:7:4.047,773.052,98.4296,0,0.000885,0,0
0:7:4.450,773.519,98.4847,0,0.000885,0,0
0:7:4.855,774.52,98.6157,0,0.000885,0,0
0:7:5.249,775.694,98.7674,0,0.000885,0,0
0:7:5.649,776.219,98.8295,0,0.000885,0,0
0:7:6.048,776.984,98.926,0,0.000885,0,0
0:7:6.443,777.981,99.057,0,0.000885,0,0
0:7:6.840,778.688,99.1466,0,0.000885,0,0
0:7:7.246,778.919,99.1742,0,0.000885,0,0
0:7:7.568,767.007,97.6573,0,0.000885,0,0