File: DataFile2021-06-29_042543.csv
Test ID:,Date Tested:,Time:,Test Type:,Width (mm):,Depth (mm):,Height (mm):,Age (days):,Weight (kN):,Ramp Rate (MPa/s):,Load at Break (kN):,Stress at Break (MPa):
12,6/29/2021,04:25,Cube,150,150,150,7,8.37,0.01,74.72,3.32
Sample Time,Load (kN),Stress (MPa),Long. Strain,Trans. Strain,Chan1 Deflection (mm),Chan2 Deflection (mm)
0:0:10.105,9.32347,0.413685,0,0.000885,0,0
0:0:10.303,11.3786,0.503317,0,0.000885,0,0
0:0:10.510,11.3786,0.503317,0,0.000885,0,0
0:0:10.713,11.4942,0.510212,0,0.000885,0,0
0:0:10.910,11.6143,0.517107,0,0.000885,0,0
0:0:11.113,11.4364,0.510212,0,0.000885,0,0
0:0:11.310,11.6143,0.517107,0,0.000885,0,0
0:0:11.514,11.6143,0.517107,0,0.000885,0,0
0:0:11.705,11.9079,0.530896,0,0.000885,0,0
0:0:11.903,12.2015,0.544686,0,0.000885,0,0
0:0:12.099,12.6107,0.558475,0,0.000885,0,0
0:0:12.295,13.8429,0.613633,0,0.000885,0,0
0:0:12.493,13.9585,0.620528,0,0.000885,0,0
0:0:12.704,14.1364,0.627423,0,0.000885,0,0
0:0:12.904,15.075,0.668791,0,0.000885,0,0
0:0:13.110,16.1293,0.717055,0,0.000885,0,0
0:0:13.315,16.2449,0.72395,0,0.000885,0,0
0:0:13.513,16.3027,0.72395,0,0.000885,0,0
0:0:13.715,16.9522,0.751529,0,0.000885,0,0
0:0:13.914,17.0678,0.758423,0,0.000885,0,0
0:0:14.117,17.5349,0.779108,0,0.000885,0,0
0:0:14.313,18.0064,0.799792,0,0.000885,0,0
0:0:14.512,18.6514,0.827371,0,0.000885,0,0
0:0:14.714,19.1185,0.848055,0,0.000885,0,0
0:0:14.911,19.7634,0.875634,0,0.000885,0,0
0:0:15.116,20.4084,0.910108,0,0.000885,0,0
0:0:15.311,20.7643,0.923897,0,0.000885,0,0
0:0:15.507,21.0534,0.937687,0,0.000885,0,0
0:0:15.706,21.7607,0.965266,0,0.000885,0,0
0:0:15.907,22.2856,0.992845,0,0.000885,0,0
0:0:16.106,23.1085,1.02732,0,0.000885,0,0
0:0:16.307,23.3443,1.03421,0,0.000885,0,0
0:0:16.504,23.6378,1.048,0,0.000885,0,0
0:0:16.704,23.7535,1.0549,0,0.000885,0,0
0:0:16.903,24.5141,1.08937,0,0.000885,0,0
0:0:17.102,24.9857,1.11006,0,0.000885,0,0
0:0:17.317,26.0399,1.15832,0,0.000885,0,0
0:0:17.515,26.16,1.16521,0,0.000885,0,0
0:0:17.711,26.16,1.16521,0,0.000885,0,0
0:0:17.903,26.9785,1.19969,0,0.000885,0,0
0:0:18.102,27.8014,1.23416,0,0.000885,0,0
0:0:18.315,28.0371,1.24795,0,0.000885,0,0
0:0:18.512,28.2684,1.25485,0,0.000885,0,0
0:0:18.712,28.7978,1.28242,0,0.000885,0,0
0:0:18.914,28.9134,1.28242,0,0.000885,0,0
0:0:19.114,29.3271,1.30311,0,0.000885,0,0
0:0:19.316,29.7942,1.32379,0,0.000885,0,0
0:0:19.513,30.4392,1.35137,0,0.000885,0,0
0:0:19.712,30.6749,1.36516,0,0.000885,0,0
0:0:19.914,31.3199,1.39274,0,0.000885,0,0
0:0:20.113,31.6713,1.40653,0,0.000885,0,0
0:0:20.317,32.2585,1.43411,0,0.000885,0,0
0:0:20.514,32.5521,1.4479,0,0.000885,0,0
0:0:20.712,33.0191,1.46858,0,0.000885,0,0
0:0:20.911,33.5485,1.48927,0,0.000885,0,0
0:0:21.111,33.6641,1.49616,0,0.000885,0,0
0:0:21.312,34.4292,1.53064,0,0.000885,0,0
0:0:21.507,35.0742,1.55822,0,0.000885,0,0
0:0:21.706,35.1899,1.56511,0,0.000885,0,0
0:0:21.904,35.3678,1.572,0,0.000885,0,0
0:0:22.104,36.0706,1.60648,0,0.000885,0,0
0:0:22.302,36.422,1.62027,0,0.000885,0,0
0:0:22.505,37.0092,1.64785,0,0.000885,0,0
0:0:22.704,37.3606,1.66164,0,0.000885,0,0
0:0:22.911,38.2992,1.70301,0,0.000885,0,0
0:0:23.117,38.5928,1.71679,0,0.000885,0,0
0:0:23.315,38.9442,1.73058,0,0.000885,0,0
0:0:23.516,39.2378,1.74437,0,0.000885,0,0
0:0:23.716,40.1763,1.78574,0,0.000885,0,0
0:0:23.911,40.5856,1.80643,0,0.000885,0,0
0:0:24.117,41.1149,1.82711,0,0.000885,0,0
0:0:24.315,41.4663,1.8409,0,0.000885,0,0
0:0:24.516,41.9957,1.86848,0,0.000885,0,0
0:0:24.715,42.0535,1.86848,0,0.000885,0,0
0:0:24.912,42.6407,1.89606,0,0.000885,0,0
0:0:25.115,42.9921,1.90985,0,0.000885,0,0
0:0:25.314,42.9342,1.90985,0,0.000885,0,0
0:0:25.513,43.8684,1.95122,0,0.000885,0,0
0:0:25.714,44.1041,1.95811,0,0.000885,0,0
0:0:25.914,44.8692,1.99258,0,0.000885,0,0
0:0:26.112,45.0427,1.99948,0,0.000885,0,0
0:0:26.308,45.4519,2.02016,0,0.000885,0,0
0:0:26.506,45.8656,2.04085,0,0.000885,0,0
0:0:26.705,46.8042,2.08222,0,0.000885,0,0
0:0:26.903,46.9777,2.08911,0,0.000885,0,0
0:0:27.106,47.2713,2.1029,0,0.000885,0,0
0:0:27.306,48.0363,2.13737,0,0.000885,0,0
0:0:27.512,48.3299,2.15116,0,0.000885,0,0
0:0:27.716,48.5612,2.15806,0,0.000885,0,0
0:0:27.915,49.3263,2.19253,0,0.000885,0,0
0:0:28.107,49.6199,2.20632,0,0.000885,0,0
0:0:28.305,49.8512,2.21322,0,0.000885,0,0
0:0:28.512,50.2649,2.2339,0,0.000885,0,0
0:0:28.716,50.9677,2.26838,0,0.000885,0,0
0:0:28.915,51.0255,2.26838,0,0.000885,0,0
0:0:29.107,51.5549,2.28906,0,0.000885,0,0
0:0:29.316,52.4935,2.33043,0,0.000885,0,0
0:0:29.512,52.4935,2.33043,0,0.000885,0,0
0:0:29.716,53.3698,2.3718,0,0.000885,0,0
0:0:29.914,53.3698,2.3718,0,0.000885,0,0
0:0:30.117,54.1349,2.40627,0,0.000885,0,0
0:0:30.315,54.5441,2.42695,0,0.000885,0,0
0:0:30.513,54.9533,2.44074,0,0.000885,0,0
0:0:30.713,55.367,2.46143,0,0.000885,0,0
0:0:30.914,56.0698,2.48901,0,0.000885,0,0
0:0:31.112,56.012,2.48901,0,0.000885,0,0
0:0:31.309,56.7148,2.52348,0,0.000885,0,0
0:0:31.506,56.7148,2.52348,0,0.000885,0,0
0:0:31.705,57.947,2.57864,0,0.000885,0,0
0:0:31.905,58.0048,2.57864,0,0.000885,0,0
0:0:32.113,58.592,2.60622,0,0.000885,0,0
0:0:32.317,58.7076,2.60622,0,0.000885,0,0
0:0:32.516,59.6462,2.64759,0,0.000885,0,0
0:0:32.719,59.9398,2.66138,0,0.000885,0,0
0:0:32.917,60.5848,2.69585,0,0.000885,0,0
0:0:33.113,60.8784,2.70274,0,0.000885,0,0
0:0:33.315,60.9985,2.70964,0,0.000885,0,0
0:0:33.515,61.7591,2.74411,0,0.000885,0,0
0:0:33.708,62.2884,2.77169,0,0.000885,0,0
0:0:33.917,62.6977,2.78548,0,0.000885,0,0
0:0:34.114,62.9334,2.79927,0,0.000885,0,0
0:0:34.316,63.6363,2.82685,0,0.000885,0,0
0:0:34.515,63.9877,2.84064,0,0.000885,0,0
0:0:34.720,64.3969,2.86132,0,0.000885,0,0
0:0:34.916,64.9841,2.8889,0,0.000885,0,0
0:0:35.114,65.5134,2.90959,0,0.000885,0,0
0:0:35.315,65.6869,2.91648,0,0.000885,0,0
0:0:35.515,66.2162,2.94406,0,0.000885,0,0
0:0:35.712,66.919,2.97164,0,0.000885,0,0
0:0:35.914,66.9769,2.97854,0,0.000885,0,0
0:0:36.114,67.3906,2.99232,0,0.000885,0,0
0:0:36.314,67.6219,3.00611,0,0.000885,0,0
0:0:36.513,68.2713,3.03369,0,0.000885,0,0
0:0:36.708,68.4448,3.04059,0,0.000885,0,0
0:0:36.906,69.3834,3.08196,0,0.000885,0,0
0:0:37.106,70.0284,3.10954,0,0.000885,0,0
0:0:37.310,70.0862,3.11643,0,0.000885,0,0
0:0:37.505,70.8513,3.1509,0,0.000885,0,0
0:0:37.704,70.6733,3.14401,0,0.000885,0,0
0:0:37.907,71.2027,3.16469,0,0.000885,0,0
0:0:38.105,71.4963,3.17848,0,0.000885,0,0
0:0:38.313,72.0212,3.19917,0,0.000885,0,0
0:0:38.518,72.6661,3.22675,0,0.000885,0,0
0:0:38.715,73.1377,3.24743,0,0.000885,0,0
0:0:38.918,73.1955,3.25433,0,0.000885,0,0
0:0:39.117,73.3111,3.26122,0,0.000885,0,0
0:0:39.321,73.4891,3.26811,0,0.000885,0,0
0:0:39.516,73.9561,3.2888,0,0.000885,0,0
0:0:39.716,74.6056,3.31638,0,0.000885,0,0
0:0:39.918,74.7212,3.32327,0,0.000885,0,0
0:0:40.116,74.957,3.33017,0,0.000885,0,0
0:0:40.314,74.957,3.33017,0,0.000885,0,0
0:0:40.515,69.9127,3.10954,0,0.000885,0,0
0:0:40.713,66.452,2.95096,0,0.000885,0,0
0:0:40.920,66.6255,2.95785,0,0.000885,0,0
0:0:41.122,66.3942,2.95096,0,0.000885,0,0
0:0:41.320,66.919,2.97164,0,0.000885,0,0
0:0:41.519,66.9769,2.97854,0,0.000885,0,0
0:0:41.718,67.0391,2.97854,0,0.000885,0,0
0:0:41.916,67.2705,2.99232,0,0.000885,0,0
0:0:42.114,64.6905,2.87511,0,0.000885,0,0
0:0:42.314,61.0563,2.71653,0,0.000885,0,0
0:0:42.515,58.0048,2.57864,0,0.000885,0,0
0:0:42.710,57.4176,2.55106,0,0.000885,0,0
0:0:42.917,56.1277,2.4959,0,0.000885,0,0
0:0:43.109,55.1313,2.44764,0,0.000885,0,0
0:0:43.308,52.5513,2.33732,0,0.000885,0,0
0:0:43.509,52.022,2.30974,0,0.000885,0,0
0:0:43.718,51.2035,2.27527,0,0.000885,0,0
0:0:43.914,50.8521,2.26148,0,0.000885,0,0
0:0:44.116,50.7898,2.25459,0,0.000885,0,0
0:0:44.315,50.1448,2.22701,0,0.000885,0,0
0:0:44.519,49.9713,2.22011,0,0.000885,0,0
0:0:44.713,49.442,2.19943,0,0.000885,0,0
0:0:44.909,49.0906,2.17874,0,0.000885,0,0
0:0:45.115,48.6191,2.15806,0,0.000885,0,0
0:0:45.310,48.2098,2.14427,0,0.000885,0,0
0:0:45.509,47.3291,2.1029,0,0.000885,0,0
0:0:45.709,47.0355,2.08911,0,0.000885,0,0
0:0:45.908,46.6263,2.07532,0,0.000885,0,0
0:0:46.106,46.2748,2.05464,0,0.000885,0,0
0:0:46.304,45.4519,2.02016,0,0.000885,0,0
0:0:46.503,44.8692,1.99258,0,0.000885,0,0
0:0:46.700,44.5756,1.9788,0,0.000885,0,0
0:0:46.899,43.9306,1.95122,0,0.000885,0,0
0:0:47.101,43.6371,1.93743,0,0.000885,0,0
0:0:47.306,43.7527,1.94432,0,0.000885,0,0
0:0:47.504,44.3399,1.9719,0,0.000885,0,0
0:0:47.718,44.3977,1.9719,0,0.000885,0,0
0:0:47.916,44.5178,1.9788,0,0.000885,0,0
0:0:48.119,43.8684,1.95122,0,0.000885,0,0
0:0:48.315,43.6949,1.94432,0,0.000885,0,0
0:0:48.510,43.6949,1.94432,0,0.000885,0,0
0:0:48.715,43.9306,1.95122,0,0.000885,0,0
0:0:48.910,42.9342,1.90985,0,0.000885,0,0
0:0:49.117,43.1655,1.91674,0,0.000885,0,0
0:0:49.320,43.6371,1.93743,0,0.000885,0,0
0:0:49.518,43.8105,1.94432,0,0.000885,0,0
0:0:49.709,43.9306,1.95122,0,0.000885,0,0
0:0:49.905,43.7527,1.94432,0,0.000885,0,0
0:0:50.111,44.282,1.96501,0,0.000885,0,0
0:0:50.317,44.5178,1.9788,0,0.000885,0,0
0:0:50.515,44.3399,1.9719,0,0.000885,0,0
0:0:50.714,44.7491,1.98569,0,0.000885,0,0
0:0:50.911,45.1005,2.00637,0,0.000885,0,0
0:0:51.111,45.1628,2.00637,0,0.000885,0,0
0:0:51.310,45.2784,2.01327,0,0.000885,0,0
0:0:51.508,45.1005,2.00637,0,0.000885,0,0
0:0:51.706,45.5142,2.02016,0,0.000885,0,0
0:0:51.903,45.572,2.02706,0,0.000885,0,0
0:0:52.101,45.8078,2.03395,0,0.000885,0,0
0:0:52.311,45.9813,2.04085,0,0.000885,0,0
0:0:52.509,46.1592,2.05464,0,0.000885,0,0
0:0:52.717,46.1592,2.05464,0,0.000885,0,0
0:0:52.922,46.3327,2.06153,0,0.000885,0,0
0:0:53.119,46.3905,2.06153,0,0.000885,0,0
0:0:53.321,46.6263,2.07532,0,0.000885,0,0
0:0:53.518,46.9777,2.08911,0,0.000885,0,0
0:0:53.715,46.8042,2.08222,0,0.000885,0,0
0:0:53.919,47.0978,2.09601,0,0.000885,0,0
0:0:54.116,47.3291,2.1029,0,0.000885,0,0
0:0:54.318,47.6849,2.11669,0,0.000885,0,0
0:0:54.515,47.507,2.1098,0,0.000885,0,0
0:0:54.710,47.9162,2.13048,0,0.000885,0,0
0:0:54.915,48.152,2.13737,0,0.000885,0,0
0:0:55.111,48.0363,2.13737,0,0.000885,0,0
0:0:55.316,47.9162,2.13048,0,0.000885,0,0
0:0:55.523,48.2098,2.14427,0,0.000885,0,0
0:0:55.721,48.152,2.13737,0,0.000885,0,0
0:0:55.920,48.3878,2.15116,0,0.000885,0,0
0:0:56.120,48.5034,2.15806,0,0.000885,0,0
0:0:56.318,48.6813,2.16495,0,0.000885,0,0
0:0:56.517,48.6813,2.16495,0,0.000885,0,0
0:0:56.716,48.8548,2.17185,0,0.000885,0,0
0:0:56.911,48.9126,2.17185,0,0.000885,0,0
0:0:57.109,49.0327,2.17874,0,0.000885,0,0
0:0:57.316,49.2685,2.19253,0,0.000885,0,0
0:0:57.520,49.2062,2.18564,0,0.000885,0,0
0:0:57.718,49.6199,2.20632,0,0.000885,0,0
0:0:57.921,49.4998,2.19943,0,0.000885,0,0
0:0:58.119,49.6199,2.20632,0,0.000885,0,0
0:0:58.323,49.442,2.19943,0,0.000885,0,0
0:0:58.518,49.3263,2.19253,0,0.000885,0,0
0:0:58.715,49.4998,2.19943,0,0.000885,0,0
0:0:58.918,49.3263,2.19253,0,0.000885,0,0
0:0:59.116,49.3842,2.19253,0,0.000885,0,0
0:0:59.321,49.3842,2.19253,0,0.000885,0,0
0:0:59.511,49.4998,2.19943,0,0.000885,0,0
0:0:59.710,49.8512,2.21322,0,0.000885,0,0
0:0:59.912,49.7934,2.21322,0,0.000885,0,0
0:1:0.109,49.9135,2.22011,0,0.000885,0,0
0:1:0.307,50.3227,2.2339,0,0.000885,0,0
0:1:0.506,49.8512,2.21322,0,0.000885,0,0
0:1:0.706,50.0291,2.22011,0,0.000885,0,0
0:1:0.906,50.3227,2.2339,0,0.000885,0,0
0:1:1.104,50.3227,2.2339,0,0.000885,0,0
0:1:1.303,50.2649,2.2339,0,0.000885,0,0
0:1:1.500,50.5585,2.24769,0,0.000885,0,0
0:1:1.699,50.3806,2.2408,0,0.000885,0,0
0:1:1.903,50.3806,2.2408,0,0.000885,0,0
0:1:2.108,50.6741,2.25459,0,0.000885,0,0
0:1:2.318,50.6741,2.25459,0,0.000885,0,0
0:1:2.519,50.5585,2.24769,0,0.000885,0,0
0:1:2.718,50.7898,2.25459,0,0.000885,0,0
0:1:2.922,50.7898,2.25459,0,0.000885,0,0
0:1:3.115,50.7898,2.25459,0,0.000885,0,0
0:1:3.312,50.732,2.25459,0,0.000885,0,0
0:1:3.518,51.0834,2.26838,0,0.000885,0,0
0:1:3.711,51.0834,2.26838,0,0.000885,0,0
0:1:3.908,50.9099,2.26148,0,0.000885,0,0
0:1:4.110,51.0255,2.26838,0,0.000885,0,0
0:1:4.308,51.5549,2.28906,0,0.000885,0,0
0:1:4.512,51.4971,2.28906,0,0.000885,0,0
0:1:4.707,51.2613,2.27527,0,0.000885,0,0
0:1:4.916,51.4971,2.28906,0,0.000885,0,0
0:1:5.118,51.7862,2.30285,0,0.000885,0,0
0:1:5.316,51.7284,2.29595,0,0.000885,0,0
0:1:5.513,51.9063,2.30974,0,0.000885,0,0
0:1:5.712,51.9641,2.30974,0,0.000885,0,0
0:1:5.912,52.1421,2.31664,0,0.000885,0,0
0:1:6.110,51.7862,2.30285,0,0.000885,0,0
0:1:6.309,51.8485,2.30285,0,0.000885,0,0
0:1:6.507,52.0798,2.31664,0,0.000885,0,0
0:1:6.705,52.0798,2.31664,0,0.000885,0,0
0:1:6.904,51.6705,2.29595,0,0.000885,0,0
0:1:7.118,51.7862,2.30285,0,0.000885,0,0
0:1:7.316,52.022,2.30974,0,0.000885,0,0
0:1:7.520,51.9063,2.30974,0,0.000885,0,0
0:1:7.712,51.8485,2.30285,0,0.000885,0,0
0:1:7.910,52.022,2.30974,0,0.000885,0,0
0:1:8.124,52.2577,2.32353,0,0.000885,0,0
0:1:8.322,52.1421,2.31664,0,0.000885,0,0
0:1:8.516,51.7862,2.30285,0,0.000885,0,0
0:1:8.710,51.4971,2.28906,0,0.000885,0,0
0:1:8.908,51.0834,2.26838,0,0.000885,0,0
0:1:9.121,51.0834,2.26838,0,0.000885,0,0
0:1:9.318,50.732,2.25459,0,0.000885,0,0
0:1:9.522,50.4384,2.2408,0,0.000885,0,0
0:1:9.718,50.5585,2.24769,0,0.000885,0,0
0:1:9.917,50.4962,2.24769,0,0.000885,0,0
0:1:10.118,50.9099,2.26148,0,0.000885,0,0
0:1:10.324,50.732,2.25459,0,0.000885,0,0
0:1:10.523,50.732,2.25459,0,0.000885,0,0
0:1:10.723,51.0255,2.26838,0,0.000885,0,0
0:1:10.921,50.9099,2.26148,0,0.000885,0,0
0:1:11.121,50.9099,2.26148,0,0.000885,0,0
0:1:11.319,50.8521,2.26148,0,0.000885,0,0
0:1:11.517,50.9099,2.26148,0,0.000885,0,0
0:1:11.713,50.9099,2.26148,0,0.000885,0,0
0:1:11.910,51.1412,2.27527,0,0.000885,0,0
0:1:12.118,51.0834,2.26838,0,0.000885,0,0
0:1:12.323,51.1412,2.27527,0,0.000885,0,0
0:1:12.521,51.2613,2.27527,0,0.000885,0,0
0:1:12.721,51.2613,2.27527,0,0.000885,0,0
0:1:12.920,51.377,2.28216,0,0.000885,0,0
0:1:13.124,51.377,2.28216,0,0.000885,0,0
0:1:13.319,51.4971,2.28906,0,0.000885,0,0
0:1:13.517,51.0834,2.26838,0,0.000885,0,0
0:1:13.719,51.3191,2.28216,0,0.000885,0,0
0:1:13.917,50.9099,2.26148,0,0.000885,0,0
0:1:14.121,50.9677,2.26838,0,0.000885,0,0
0:1:14.313,51.377,2.28216,0,0.000885,0,0
0:1:14.511,51.3191,2.28216,0,0.000885,0,0
0:1:14.725,51.2613,2.27527,0,0.000885,0,0
0:1:14.924,50.9099,2.26148,0,0.000885,0,0
0:1:15.119,50.6163,2.24769,0,0.000885,0,0
0:1:15.322,50.6741,2.25459,0,0.000885,0,0
0:1:15.520,50.1448,2.22701,0,0.000885,0,0
0:1:15.719,50.3806,2.2408,0,0.000885,0,0
0:1:15.918,50.3806,2.2408,0,0.000885,0,0
0:1:16.118,50.2649,2.2339,0,0.000885,0,0
0:1:16.317,50.087,2.22701,0,0.000885,0,0
0:1:16.512,50.087,2.22701,0,0.000885,0,0
0:1:16.710,50.0291,2.22011,0,0.000885,0,0
0:1:16.909,50.0291,2.22011,0,0.000885,0,0
0:1:17.107,50.0291,2.22011,0,0.000885,0,0
0:1:17.321,50.1448,2.22701,0,0.000885,0,0
0:1:17.520,50.3806,2.2408,0,0.000885,0,0
0:1:17.722,50.5585,2.24769,0,0.000885,0,0
0:1:17.914,50.1448,2.22701,0,0.000885,0,0
0:1:18.113,50.4384,2.2408,0,0.000885,0,0
0:1:18.327,50.4962,2.24769,0,0.000885,0,0
0:1:18.525,50.732,2.25459,0,0.000885,0,0
0:1:18.720,50.7898,2.25459,0,0.000885,0,0
0:1:18.912,50.9677,2.26838,0,0.000885,0,0
0:1:19.110,51.0255,2.26838,0,0.000885,0,0
0:1:19.312,50.7898,2.25459,0,0.000885,0,0
0:1:19.510,50.9677,2.26838,0,0.000885,0,0
0:1:19.714,50.9099,2.26148,0,0.000885,0,0
0:1:19.921,51.2035,2.27527,0,0.000885,0,0
0:1:20.118,51.3191,2.28216,0,0.000885,0,0
0:1:20.321,51.3191,2.28216,0,0.000885,0,0
0:1:20.520,51.2035,2.27527,0,0.000885,0,0
0:1:20.718,51.2035,2.27527,0,0.000885,0,0
0:1:20.918,51.2035,2.27527,0,0.000885,0,0
0:1:21.114,51.377,2.28216,0,0.000885,0,0
0:1:21.313,51.5549,2.28906,0,0.000885,0,0
0:1:21.512,51.4348,2.28906,0,0.000885,0,0
0:1:21.709,51.3191,2.28216,0,0.000885,0,0
0:1:21.907,51.4971,2.28906,0,0.000885,0,0
0:1:22.108,51.6127,2.29595,0,0.000885,0,0
0:1:22.321,51.5549,2.28906,0,0.000885,0,0
0:1:22.520,51.4348,2.28906,0,0.000885,0,0
0:1:22.714,51.5549,2.28906,0,0.000885,0,0
0:1:22.919,51.9063,2.30974,0,0.000885,0,0
0:1:23.115,51.8485,2.30285,0,0.000885,0,0
0:1:23.320,51.9063,2.30974,0,0.000885,0,0
0:1:23.525,51.7862,2.30285,0,0.000885,0,0
0:1:23.723,51.5549,2.28906,0,0.000885,0,0
0:1:23.923,51.4348,2.28906,0,0.000885,0,0
0:1:24.123,51.377,2.28216,0,0.000885,0,0
0:1:24.326,51.0834,2.26838,0,0.000885,0,0
0:1:24.522,51.4348,2.28906,0,0.000885,0,0
0:1:24.721,51.2613,2.27527,0,0.000885,0,0
0:1:24.922,51.4971,2.28906,0,0.000885,0,0
0:1:25.120,51.377,2.28216,0,0.000885,0,0
0:1:25.324,51.4348,2.28906,0,0.000885,0,0
0:1:25.519,51.7284,2.29595,0,0.000885,0,0
0:1:25.715,51.9063,2.30974,0,0.000885,0,0
0:1:25.914,51.7284,2.29595,0,0.000885,0,0
0:1:26.114,51.5549,2.28906,0,0.000885,0,0
0:1:26.313,51.7284,2.29595,0,0.000885,0,0
0:1:26.513,51.7284,2.29595,0,0.000885,0,0
0:1:26.709,51.7284,2.29595,0,0.000885,0,0
0:1:26.909,51.6127,2.29595,0,0.000885,0,0
0:1:27.106,51.8485,2.30285,0,0.000885,0,0
0:1:27.312,51.4348,2.28906,0,0.000885,0,0
0:1:27.524,51.6705,2.29595,0,0.000885,0,0
0:1:27.724,51.4971,2.28906,0,0.000885,0,0
0:1:27.919,51.6705,2.29595,0,0.000885,0,0
0:1:28.124,51.8485,2.30285,0,0.000885,0,0
0:1:28.322,51.7284,2.29595,0,0.000885,0,0
0:1:28.523,51.7284,2.29595,0,0.000885,0,0
0:1:28.721,51.7862,2.30285,0,0.000885,0,0
0:1:28.914,51.8485,2.30285,0,0.000885,0,0
0:1:29.121,51.9063,2.30974,0,0.000885,0,0
0:1:29.319,51.5549,2.28906,0,0.000885,0,0
0:1:29.520,51.7862,2.30285,0,0.000885,0,0
0:1:29.726,51.8485,2.30285,0,0.000885,0,0
0:1:29.924,52.022,2.30974,0,0.000885,0,0
0:1:30.125,51.8485,2.30285,0,0.000885,0,0
0:1:30.324,51.8485,2.30285,0,0.000885,0,0
0:1:30.522,51.7284,2.29595,0,0.000885,0,0
0:1:30.723,51.5549,2.28906,0,0.000885,0,0
0:1:30.922,51.6127,2.29595,0,0.000885,0,0
0:1:31.120,51.6705,2.29595,0,0.000885,0,0
0:1:31.319,51.9063,2.30974,0,0.000885,0,0
0:1:31.514,51.6705,2.29595,0,0.000885,0,0
0:1:31.711,51.7862,2.30285,0,0.000885,0,0
0:1:31.911,51.4348,2.28906,0,0.000885,0,0
0:1:32.124,51.6127,2.29595,0,0.000885,0,0
0:1:32.322,51.0834,2.26838,0,0.000885,0,0
0:1:32.527,51.2035,2.27527,0,0.000885,0,0
0:1:32.720,51.5549,2.28906,0,0.000885,0,0
0:1:32.919,51.5549,2.28906,0,0.000885,0,0
0:1:33.122,51.4348,2.28906,0,0.000885,0,0
0:1:33.329,51.2613,2.27527,0,0.000885,0,0
0:1:33.525,51.2613,2.27527,0,0.000885,0,0
0:1:33.715,51.2035,2.27527,0,0.000885,0,0
0:1:33.913,51.3191,2.28216,0,0.000885,0,0
0:1:34.109,51.377,2.28216,0,0.000885,0,0
0:1:34.313,51.377,2.28216,0,0.000885,0,0
0:1:34.511,51.2035,2.27527,0,0.000885,0,0
0:1:34.725,50.9099,2.26148,0,0.000885,0,0
0:1:34.922,50.8521,2.26148,0,0.000885,0,0
0:1:35.127,50.6163,2.24769,0,0.000885,0,0
0:1:35.322,50.4962,2.24769,0,0.000885,0,0
0:1:35.520,50.4962,2.24769,0,0.000885,0,0
0:1:35.719,50.732,2.25459,0,0.000885,0,0
0:1:35.920,50.2026,2.2339,0,0.000885,0,0
0:1:36.119,50.4384,2.2408,0,0.000885,0,0
0:1:36.315,50.6163,2.24769,0,0.000885,0,0
0:1:36.513,50.7898,2.25459,0,0.000885,0,0
0:1:36.710,50.5585,2.24769,0,0.000885,0,0
0:1:36.920,50.4962,2.24769,0,0.000885,0,0
0:1:37.114,50.4384,2.2408,0,0.000885,0,0
0:1:37.319,50.2026,2.2339,0,0.000885,0,0
0:1:37.516,50.087,2.22701,0,0.000885,0,0
0:1:37.721,50.6163,2.24769,0,0.000885,0,0
0:1:37.925,50.087,2.22701,0,0.000885,0,0
0:1:38.123,49.9713,2.22011,0,0.000885,0,0
0:1:38.324,50.2026,2.2339,0,0.000885,0,0
0:1:38.523,49.8512,2.21322,0,0.000885,0,0
0:1:38.728,49.8512,2.21322,0,0.000885,0,0
0:1:38.921,49.7934,2.21322,0,0.000885,0,0
0:1:39.120,49.9713,2.22011,0,0.000885,0,0
0:1:39.323,50.0291,2.22011,0,0.000885,0,0
0:1:39.521,50.087,2.22701,0,0.000885,0,0
0:1:39.726,49.5576,2.19943,0,0.000885,0,0
0:1:39.929,49.6199,2.20632,0,0.000885,0,0
0:1:40.127,49.7934,2.21322,0,0.000885,0,0
0:1:40.320,49.9713,2.22011,0,0.000885,0,0
0:1:40.516,49.3842,2.19253,0,0.000885,0,0
0:1:40.714,49.5576,2.19943,0,0.000885,0,0
0:1:40.915,49.4998,2.19943,0,0.000885,0,0
0:1:41.114,49.4998,2.19943,0,0.000885,0,0
0:1:41.312,49.3263,2.19253,0,0.000885,0,0
0:1:41.511,49.2685,2.19253,0,0.000885,0,0
0:1:41.707,49.3263,2.19253,0,0.000885,0,0
0:1:41.906,49.3842,2.19253,0,0.000885,0,0
0:1:42.104,49.4998,2.19943,0,0.000885,0,0
0:1:42.307,49.442,2.19943,0,0.000885,0,0
0:1:42.512,49.6777,2.20632,0,0.000885,0,0
0:1:42.710,49.7356,2.21322,0,0.000885,0,0
0:1:42.924,49.5576,2.19943,0,0.000885,0,0
0:1:43.123,49.5576,2.19943,0,0.000885,0,0
0:1:43.326,49.6777,2.20632,0,0.000885,0,0
0:1:43.521,49.7356,2.21322,0,0.000885,0,0
0:1:43.716,49.7934,2.21322,0,0.000885,0,0
0:1:43.922,49.6199,2.20632,0,0.000885,0,0
0:1:44.129,49.6777,2.20632,0,0.000885,0,0
0:1:44.325,49.7934,2.21322,0,0.000885,0,0
0:1:44.527,49.6777,2.20632,0,0.000885,0,0
0:1:44.725,49.6199,2.20632,0,0.000885,0,0
0:1:44.921,49.6777,2.20632,0,0.000885,0,0
0:1:45.125,49.4998,2.19943,0,0.000885,0,0
0:1:45.324,49.6199,2.20632,0,0.000885,0,0
0:1:45.522,49.5576,2.19943,0,0.000885,0,0
0:1:45.722,49.442,2.19943,0,0.000885,0,0
0:1:45.922,49.8512,2.21322,0,0.000885,0,0
0:1:46.120,49.6199,2.20632,0,0.000885,0,0
0:1:46.315,49.7934,2.21322,0,0.000885,0,0
0:1:46.515,49.4998,2.19943,0,0.000885,0,0
0:1:46.712,49.8512,2.21322,0,0.000885,0,0
0:1:46.909,49.3842,2.19253,0,0.000885,0,0
0:1:47.112,49.1484,2.18564,0,0.000885,0,0
0:1:47.311,49.3263,2.19253,0,0.000885,0,0
0:1:47.513,49.3263,2.19253,0,0.000885,0,0
0:1:47.720,49.2062,2.18564,0,0.000885,0,0
0:1:47.915,49.3842,2.19253,0,0.000885,0,0
0:1:48.120,49.4998,2.19943,0,0.000885,0,0
0:1:48.316,49.442,2.19943,0,0.000885,0,0
0:1:48.510,49.6199,2.20632,0,0.000885,0,0
0:1:48.714,49.6199,2.20632,0,0.000885,0,0
0:1:48.912,49.7934,2.21322,0,0.000885,0,0
0:1:49.126,49.8512,2.21322,0,0.000885,0,0
0:1:49.326,49.4998,2.19943,0,0.000885,0,0
0:1:49.528,49.3842,2.19253,0,0.000885,0,0
0:1:49.723,49.5576,2.19943,0,0.000885,0,0
0:1:49.922,49.5576,2.19943,0,0.000885,0,0
0:1:50.123,49.4998,2.19943,0,0.000885,0,0
0:1:50.322,49.7934,2.21322,0,0.000885,0,0
0:1:50.521,49.6777,2.20632,0,0.000885,0,0
0:1:50.717,49.8512,2.21322,0,0.000885,0,0
0:1:50.917,49.6199,2.20632,0,0.000885,0,0
0:1:51.116,49.442,2.19943,0,0.000885,0,0
0:1:51.314,49.7356,2.21322,0,0.000885,0,0
0:1:51.513,49.4998,2.19943,0,0.000885,0,0
0:1:51.721,49.3263,2.19253,0,0.000885,0,0
0:1:51.916,49.442,2.19943,0,0.000885,0,0
0:1:52.112,49.2685,2.19253,0,0.000885,0,0
0:1:52.307,49.3263,2.19253,0,0.000885,0,0
0:1:52.505,49.3842,2.19253,0,0.000885,0,0
0:1:52.715,49.5576,2.19943,0,0.000885,0,0
0:1:52.914,49.3263,2.19253,0,0.000885,0,0
0:1:53.117,49.442,2.19943,0,0.000885,0,0
0:1:53.326,49.3263,2.19253,0,0.000885,0,0
0:1:53.524,49.6199,2.20632,0,0.000885,0,0
0:1:53.725,49.442,2.19943,0,0.000885,0,0
0:1:53.923,49.1484,2.18564,0,0.000885,0,0
0:1:54.127,49.2685,2.19253,0,0.000885,0,0
0:1:54.323,49.3842,2.19253,0,0.000885,0,0
0:1:54.522,49.2062,2.18564,0,0.000885,0,0
0:1:54.723,49.3263,2.19253,0,0.000885,0,0
0:1:54.922,49.3263,2.19253,0,0.000885,0,0
0:1:55.126,48.9749,2.17874,0,0.000885,0,0
0:1:55.318,49.2685,2.19253,0,0.000885,0,0
0:1:55.517,49.0327,2.17874,0,0.000885,0,0
0:1:55.716,49.3842,2.19253,0,0.000885,0,0
0:1:55.917,49.2062,2.18564,0,0.000885,0,0
0:1:56.115,49.3263,2.19253,0,0.000885,0,0
0:1:56.314,49.3842,2.19253,0,0.000885,0,0
0:1:56.512,49.2062,2.18564,0,0.000885,0,0
0:1:56.710,49.4998,2.19943,0,0.000885,0,0
0:1:56.908,48.9126,2.17185,0,0.000885,0,0
0:1:57.104,48.7392,2.16495,0,0.000885,0,0
0:1:57.315,49.3263,2.19253,0,0.000885,0,0
0:1:57.515,49.0906,2.17874,0,0.000885,0,0
0:1:57.718,49.0906,2.17874,0,0.000885,0,0
0:1:57.926,49.0906,2.17874,0,0.000885,0,0
0:1:58.124,48.9126,2.17185,0,0.000885,0,0
0:1:58.326,49.0906,2.17874,0,0.000885,0,0
0:1:58.525,49.2062,2.18564,0,0.000885,0,0
0:1:58.729,49.3842,2.19253,0,0.000885,0,0
0:1:58.924,49.2685,2.19253,0,0.000885,0,0
0:1:59.121,49.2062,2.18564,0,0.000885,0,0
0:1:59.324,49.7356,2.21322,0,0.000885,0,0
0:1:59.518,49.6199,2.20632,0,0.000885,0,0
0:1:59.725,49.3842,2.19253,0,0.000885,0,0
0:1:59.921,49.7356,2.21322,0,0.000885,0,0
0:2:0.116,49.4998,2.19943,0,0.000885,0,0
0:2:0.329,49.3842,2.19253,0,0.000885,0,0
0:2:0.527,49.6199,2.20632,0,0.000885,0,0
0:2:0.724,49.8512,2.21322,0,0.000885,0,0
0:2:0.925,49.5576,2.19943,0,0.000885,0,0
0:2:1.125,49.442,2.19943,0,0.000885,0,0
0:2:1.323,49.3263,2.19253,0,0.000885,0,0
0:2:1.522,49.4998,2.19943,0,0.000885,0,0
0:2:1.718,49.6777,2.20632,0,0.000885,0,0
0:2:1.916,49.6777,2.20632,0,0.000885,0,0
0:2:2.115,49.1484,2.18564,0,0.000885,0,0
0:2:2.318,49.3263,2.19253,0,0.000885,0,0
0:2:2.514,49.4998,2.19943,0,0.000885,0,0
0:2:2.719,49.1484,2.18564,0,0.000885,0,0
0:2:2.914,49.0327,2.17874,0,0.000885,0,0
0:2:3.112,49.1484,2.18564,0,0.000885,0,0
0:2:3.326,49.0906,2.17874,0,0.000885,0,0
0:2:3.524,49.442,2.19943,0,0.000885,0,0
0:2:3.728,49.2685,2.19253,0,0.000885,0,0
0:2:3.924,49.3842,2.19253,0,0.000885,0,0
0:2:4.123,49.442,2.19943,0,0.000885,0,0
0:2:4.324,49.4998,2.19943,0,0.000885,0,0
0:2:4.531,49.3842,2.19253,0,0.000885,0,0
0:2:4.727,49.3842,2.19253,0,0.000885,0,0
0:2:4.930,49.1484,2.18564,0,0.000885,0,0
0:2:5.129,48.9749,2.17874,0,0.000885,0,0
0:2:5.332,49.0327,2.17874,0,0.000885,0,0
0:2:5.528,48.6191,2.15806,0,0.000885,0,0
0:2:5.727,48.3878,2.15116,0,0.000885,0,0
0:2:5.927,48.5612,2.15806,0,0.000885,0,0
0:2:6.126,48.4456,2.15116,0,0.000885,0,0
0:2:6.325,48.5034,2.15806,0,0.000885,0,0
0:2:6.524,48.5034,2.15806,0,0.000885,0,0
0:2:6.730,48.5034,2.15806,0,0.000885,0,0
0:2:6.929,48.5034,2.15806,0,0.000885,0,0
0:2:7.127,48.0942,2.13737,0,0.000885,0,0
0:2:7.323,47.9162,2.13048,0,0.000885,0,0
0:2:7.527,47.8006,2.12359,0,0.000885,0,0
0:2:7.725,48.0363,2.13737,0,0.000885,0,0
0:2:7.926,47.8006,2.12359,0,0.000885,0,0
0:2:8.124,47.9162,2.13048,0,0.000885,0,0
0:2:8.330,47.6849,2.11669,0,0.000885,0,0
0:2:8.525,47.9162,2.13048,0,0.000885,0,0
0:2:8.723,47.8006,2.12359,0,0.000885,0,0
0:2:8.924,47.6227,2.11669,0,0.000885,0,0
0:2:9.119,47.5648,2.11669,0,0.000885,0,0
0:2:9.315,47.6227,2.11669,0,0.000885,0,0
0:2:9.518,47.6849,2.11669,0,0.000885,0,0
0:2:9.728,47.7428,2.12359,0,0.000885,0,0
0:2:9.930,47.8006,2.12359,0,0.000885,0,0
0:2:10.127,47.7428,2.12359,0,0.000885,0,0
0:2:10.324,47.6227,2.11669,0,0.000885,0,0
0:2:10.527,47.8006,2.12359,0,0.000885,0,0
0:2:10.725,47.507,2.1098,0,0.000885,0,0
0:2:10.925,47.6227,2.11669,0,0.000885,0,0
0:2:11.125,47.0978,2.09601,0,0.000885,0,0
0:2:11.323,45.7455,2.03395,0,0.000885,0,0
0:2:11.523,44.0463,1.95811,0,0.000885,0,0
0:2:11.717,43.7527,1.94432,0,0.000885,0,0
0:2:11.916,43.4591,1.93053,0,0.000885,0,0
0:2:12.114,43.1655,1.91674,0,0.000885,0,0
0:2:12.311,42.9921,1.90985,0,0.000885,0,0
0:2:12.527,42.9342,1.90985,0,0.000885,0,0
0:2:12.726,42.6407,1.89606,0,0.000885,0,0
0:2:12.928,42.8141,1.90295,0,0.000885,0,0
0:2:13.123,42.5206,1.88916,0,0.000885,0,0
0:2:13.330,42.5206,1.88916,0,0.000885,0,0
0:2:13.523,42.6407,1.89606,0,0.000885,0,0
0:2:13.723,42.3471,1.88227,0,0.000885,0,0
0:2:13.926,42.5784,1.88916,0,0.000885,0,0
0:2:14.130,42.5784,1.88916,0,0.000885,0,0
0:2:14.328,42.4049,1.88227,0,0.000885,0,0
0:2:14.530,42.3471,1.88227,0,0.000885,0,0
0:2:14.730,42.4627,1.88916,0,0.000885,0,0
0:2:14.924,42.227,1.87537,0,0.000885,0,0
0:2:15.128,41.8177,1.86158,0,0.000885,0,0
0:2:15.326,42.3471,1.88227,0,0.000885,0,0
0:2:15.525,42.3471,1.88227,0,0.000885,0,0
0:2:15.726,41.9957,1.86848,0,0.000885,0,0
0:2:15.925,42.227,1.87537,0,0.000885,0,0
0:2:16.124,41.7021,1.85469,0,0.000885,0,0
0:2:16.319,41.8756,1.86158,0,0.000885,0,0
0:2:16.518,41.8756,1.86158,0,0.000885,0,0
0:2:16.716,41.7599,1.85469,0,0.000885,0,0
0:2:16.923,41.8177,1.86158,0,0.000885,0,0
0:2:17.126,41.8177,1.86158,0,0.000885,0,0
0:2:17.324,41.8756,1.86158,0,0.000885,0,0
0:2:17.526,41.7599,1.85469,0,0.000885,0,0
0:2:17.724,41.7021,1.85469,0,0.000885,0,0
0:2:17.930,41.9334,1.86158,0,0.000885,0,0
0:2:18.133,41.6398,1.84779,0,0.000885,0,0
0:2:18.331,41.2884,1.83401,0,0.000885,0,0
0:2:18.523,41.7021,1.85469,0,0.000885,0,0
0:2:18.717,41.582,1.84779,0,0.000885,0,0
0:2:18.915,41.1727,1.82711,0,0.000885,0,0
0:2:19.129,40.8213,1.81332,0,0.000885,0,0
0:2:19.327,41.2306,1.83401,0,0.000885,0,0
0:2:19.519,41.1149,1.82711,0,0.000885,0,0
0:2:19.727,41.1149,1.82711,0,0.000885,0,0
0:2:19.925,40.937,1.82022,0,0.000885,0,0
0:2:20.127,41.1149,1.82711,0,0.000885,0,0
0:2:20.326,40.8213,1.81332,0,0.000885,0,0
0:2:20.524,40.7635,1.81332,0,0.000885,0,0
0:2:20.726,40.292,1.79264,0,0.000885,0,0
0:2:20.925,40.292,1.79264,0,0.000885,0,0
0:2:21.120,40.1763,1.78574,0,0.000885,0,0
0:2:21.319,40.0562,1.77885,0,0.000885,0,0
0:2:21.518,40.1763,1.78574,0,0.000885,0,0
0:2:21.715,40.2342,1.78574,0,0.000885,0,0
0:2:21.914,40.292,1.79264,0,0.000885,0,0
0:2:22.127,40.1763,1.78574,0,0.000885,0,0
0:2:22.326,40.292,1.79264,0,0.000885,0,0
0:2:22.529,40.1185,1.78574,0,0.000885,0,0
0:2:22.725,40.1185,1.78574,0,0.000885,0,0
0:2:22.920,40.1763,1.78574,0,0.000885,0,0
0:2:23.125,40.1763,1.78574,0,0.000885,0,0
0:2:23.320,39.8828,1.77195,0,0.000885,0,0
0:2:23.527,39.9406,1.77195,0,0.000885,0,0
0:2:23.731,39.9406,1.77195,0,0.000885,0,0
0:2:23.930,39.8828,1.77195,0,0.000885,0,0
0:2:24.131,39.9984,1.77885,0,0.000885,0,0
0:2:24.329,39.9406,1.77195,0,0.000885,0,0
0:2:24.524,39.9406,1.77195,0,0.000885,0,0
0:2:24.727,39.7671,1.76506,0,0.000885,0,0
0:2:24.926,39.8249,1.77195,0,0.000885,0,0
0:2:25.130,40.1185,1.78574,0,0.000885,0,0
0:2:25.326,39.647,1.76506,0,0.000885,0,0
0:2:25.525,39.647,1.76506,0,0.000885,0,0
0:2:25.724,39.647,1.76506,0,0.000885,0,0
0:2:25.921,39.5892,1.75816,0,0.000885,0,0
0:2:26.120,39.647,1.76506,0,0.000885,0,0
0:2:26.318,39.9984,1.77885,0,0.000885,0,0
0:2:26.516,39.9406,1.77195,0,0.000885,0,0
0:2:26.713,39.8828,1.77195,0,0.000885,0,0
0:2:26.911,39.8828,1.77195,0,0.000885,0,0
0:2:27.116,40.0562,1.77885,0,0.000885,0,0
0:2:27.320,39.9984,1.77885,0,0.000885,0,0
0:2:27.519,39.9406,1.77195,0,0.000885,0,0
0:2:27.732,39.9406,1.77195,0,0.000885,0,0
0:2:27.929,39.3534,1.75127,0,0.000885,0,0
0:2:28.125,39.7048,1.76506,0,0.000885,0,0
0:2:28.330,39.8828,1.77195,0,0.000885,0,0
0:2:28.527,39.8249,1.77195,0,0.000885,0,0
0:2:28.729,39.8249,1.77195,0,0.000885,0,0
0:2:28.925,39.8249,1.77195,0,0.000885,0,0
0:2:29.130,39.5892,1.75816,0,0.000885,0,0
0:2:29.324,39.647,1.76506,0,0.000885,0,0
0:2:29.519,39.7048,1.76506,0,0.000885,0,0
0:2:29.726,39.8249,1.77195,0,0.000885,0,0
0:2:29.918,39.4735,1.75127,0,0.000885,0,0
0:2:30.116,39.2956,1.74437,0,0.000885,0,0
0:2:30.309,39.3534,1.75127,0,0.000885,0,0
0:2:30.507,39.2956,1.74437,0,0.000885,0,0
0:2:30.705,39.4735,1.75127,0,0.000885,0,0
0:2:30.905,39.3534,1.75127,0,0.000885,0,0
0:2:31.105,39.2378,1.74437,0,0.000885,0,0
0:2:31.304,39.2378,1.74437,0,0.000885,0,0
0:2:31.501,39.2378,1.74437,0,0.000885,0,0
0:2:31.700,39.002,1.73058,0,0.000885,0,0
0:2:31.898,39.2378,1.74437,0,0.000885,0,0
0:2:32.095,39.1177,1.73748,0,0.000885,0,0
0:2:32.289,38.8285,1.72369,0,0.000885,0,0
0:2:32.484,38.8285,1.72369,0,0.000885,0,0
0:2:32.683,38.8285,1.72369,0,0.000885,0,0
0:2:32.875,38.5928,1.71679,0,0.000885,0,0
0:2:33.073,38.5349,1.7099,0,0.000885,0,0
0:2:33.267,38.357,1.70301,0,0.000885,0,0
0:2:33.471,38.2992,1.70301,0,0.000885,0,0
0:2:33.669,38.4727,1.7099,0,0.000885,0,0
0:2:33.862,38.4148,1.7099,0,0.000885,0,0
0:2:34.058,38.4148,1.7099,0,0.000885,0,0
0:2:34.255,38.1213,1.69611,0,0.000885,0,0
0:2:34.446,38.357,1.70301,0,0.000885,0,0
0:2:34.644,38.0056,1.68922,0,0.000885,0,0
0:2:34.841,37.712,1.67543,0,0.000885,0,0
0:2:34.879,37.712,1.67543,0,0.000885,0,0