File: DataFile2021-06-08_064755.csv
Test ID:,Date Tested:,Time:,Test Type:,Diameter Avg. (mm):,Cyl. Corr. Factor:,Height (mm):,Age (days):,Weight (kN):,Break Type:,Ramp Rate (MPa/s):,Load at Break (kN):,Stress at Break (MPa):
12,6/8/2021,06:47,Cylinder,100,1,200,0,3.6,3,0.24,354.43,45.13
Sample Time,Load (kN),Stress (MPa),Long. Strain,Trans. Strain,Chan1 Deflection (mm),Chan2 Deflection (mm)
0:0:14.170,6.86361,0.875634,0,0.000885,0,0
0:0:14.368,5.68928,0.72395,0,0.000885,0,0
0:0:14.569,12.3171,1.56511,0,0.000885,0,0
0:0:14.765,15.0127,1.90985,0,0.000885,0,0
0:0:14.967,15.3063,1.95122,0,0.000885,0,0
0:0:15.163,14.7192,1.87537,0,0.000885,0,0
0:0:15.362,14.2521,1.81332,0,0.000885,0,0
0:0:15.563,14.1364,1.79953,0,0.000885,0,0
0:0:15.757,14.0742,1.79264,0,0.000885,0,0
0:0:15.958,13.8429,1.76506,0,0.000885,0,0
0:0:16.156,14.0163,1.78574,0,0.000885,0,0
0:0:16.352,14.2521,1.81332,0,0.000885,0,0
0:0:16.554,13.785,1.75816,0,0.000885,0,0
0:0:16.750,13.785,1.75816,0,0.000885,0,0
0:0:16.950,13.6071,1.73058,0,0.000885,0,0
0:0:17.147,13.7228,1.74437,0,0.000885,0,0
0:0:17.344,13.785,1.75816,0,0.000885,0,0
0:0:17.546,13.4292,1.7099,0,0.000885,0,0
0:0:17.741,13.4915,1.71679,0,0.000885,0,0
0:0:17.940,13.6071,1.73058,0,0.000885,0,0
0:0:18.139,12.9043,1.64095,0,0.000885,0,0
0:0:18.335,13.785,1.75816,0,0.000885,0,0
0:0:18.537,14.7192,1.87537,0,0.000885,0,0
0:0:18.742,14.2521,1.81332,0,0.000885,0,0
0:0:18.942,14.1943,1.80643,0,0.000885,0,0
0:0:19.141,14.5457,1.85469,0,0.000885,0,0
0:0:19.336,14.1943,1.80643,0,0.000885,0,0
0:0:19.536,15.1907,1.93743,0,0.000885,0,0
0:0:19.739,14.9549,1.90295,0,0.000885,0,0
0:0:19.941,15.6577,1.99258,0,0.000885,0,0
0:0:20.144,16.1871,2.06153,0,0.000885,0,0
0:0:20.345,16.7164,2.13048,0,0.000885,0,0
0:0:20.546,16.9522,2.15806,0,0.000885,0,0
0:0:20.749,17.7128,2.25459,0,0.000885,0,0
0:0:20.948,18.2422,2.32353,0,0.000885,0,0
0:0:21.150,18.7092,2.38559,0,0.000885,0,0
0:0:21.349,19.2964,2.45453,0,0.000885,0,0
0:0:21.550,19.8257,2.52348,0,0.000885,0,0
0:0:21.749,20.4084,2.59932,0,0.000885,0,0
0:0:21.947,20.7643,2.64069,0,0.000885,0,0
0:0:22.149,21.347,2.71653,0,0.000885,0,0
0:0:22.343,21.7029,2.7648,0,0.000885,0,0
0:0:22.545,21.9342,2.79238,0,0.000885,0,0
0:0:22.744,22.5213,2.86822,0,0.000885,0,0
0:0:22.943,23.0507,2.93717,0,0.000885,0,0
0:0:23.144,23.2242,2.95785,0,0.000885,0,0
0:0:23.339,23.8692,3.04059,0,0.000885,0,0
0:0:23.541,24.1627,3.07506,0,0.000885,0,0
0:0:23.740,24.5141,3.12333,0,0.000885,0,0
0:0:23.935,24.4563,3.11643,0,0.000885,0,0
0:0:24.138,24.87,3.16469,0,0.000885,0,0
0:0:24.342,24.9857,3.17848,0,0.000885,0,0
0:0:24.542,25.515,3.24743,0,0.000885,0,0
0:0:24.743,25.8041,3.2888,0,0.000885,0,0
0:0:24.948,26.0977,3.32327,0,0.000885,0,0
0:0:25.150,26.3335,3.35085,0,0.000885,0,0
0:0:25.352,27.0363,3.44048,0,0.000885,0,0
0:0:25.554,27.272,3.47496,0,0.000885,0,0
0:0:25.756,28.1528,3.58527,0,0.000885,0,0
0:0:25.957,28.0371,3.57148,0,0.000885,0,0
0:0:26.159,28.74,3.66112,0,0.000885,0,0
0:0:26.357,28.7978,3.66801,0,0.000885,0,0
0:0:26.557,29.9721,3.8128,0,0.000885,0,0
0:0:26.757,29.9721,3.8128,0,0.000885,0,0
0:0:26.953,30.7906,3.92312,0,0.000885,0,0
0:0:27.156,31.0842,3.95759,0,0.000885,0,0
0:0:27.353,31.3778,3.99206,0,0.000885,0,0
0:0:27.552,31.9071,4.06101,0,0.000885,0,0
0:0:27.752,31.8493,4.05412,0,0.000885,0,0
0:0:27.948,32.3742,4.12306,0,0.000885,0,0
0:0:28.150,33.077,4.2127,0,0.000885,0,0
0:0:28.348,33.1393,4.21959,0,0.000885,0,0
0:0:28.544,33.1971,4.22649,0,0.000885,0,0
0:0:28.747,34.2513,4.36438,0,0.000885,0,0
0:0:28.942,34.7228,4.41954,0,0.000885,0,0
0:0:29.144,35.0164,4.46091,0,0.000885,0,0
0:0:29.344,35.0742,4.4678,0,0.000885,0,0
0:0:29.539,35.3678,4.50228,0,0.000885,0,0
0:0:29.741,35.7192,4.55054,0,0.000885,0,0
0:0:29.943,36.4799,4.64707,0,0.000885,0,0
0:0:30.147,36.8891,4.69533,0,0.000885,0,0
0:0:30.350,36.8891,4.69533,0,0.000885,0,0
0:0:30.550,37.1249,4.7298,0,0.000885,0,0
0:0:30.753,37.9478,4.83322,0,0.000885,0,0
0:0:30.952,38.357,4.88149,0,0.000885,0,0
0:0:31.154,38.2992,4.87459,0,0.000885,0,0
0:0:31.356,38.7084,4.92975,0,0.000885,0,0
0:0:31.551,39.5892,5.04007,0,0.000885,0,0
0:0:31.752,39.4735,5.02628,0,0.000885,0,0
0:0:31.951,39.8249,5.06765,0,0.000885,0,0
0:0:32.149,40.6434,5.17796,0,0.000885,0,0
0:0:32.350,41.1727,5.24002,0,0.000885,0,0
0:0:32.547,41.3507,5.26759,0,0.000885,0,0
0:0:32.747,41.7021,5.30896,0,0.000885,0,0
0:0:32.948,42.227,5.37791,0,0.000885,0,0
0:0:33.142,42.2848,5.38481,0,0.000885,0,0
0:0:33.345,43.0499,5.48133,0,0.000885,0,0
0:0:33.542,43.4013,5.5227,0,0.000885,0,0
0:0:33.741,43.8105,5.57786,0,0.000885,0,0
0:0:33.942,44.282,5.63991,0,0.000885,0,0
0:0:34.137,44.927,5.72265,0,0.000885,0,0
0:0:34.338,44.927,5.72265,0,0.000885,0,0
0:0:34.540,45.2206,5.75712,0,0.000885,0,0
0:0:34.743,45.572,5.80539,0,0.000885,0,0
0:0:34.947,46.1014,5.86744,0,0.000885,0,0
0:0:35.149,46.6841,5.94328,0,0.000885,0,0
0:0:35.352,47.1556,6.00533,0,0.000885,0,0
0:0:35.552,47.2713,6.01912,0,0.000885,0,0
0:0:35.754,47.8006,6.08807,0,0.000885,0,0
0:0:35.956,47.7428,6.08118,0,0.000885,0,0
0:0:36.151,48.4456,6.17081,0,0.000885,0,0
0:0:36.353,48.797,6.21218,0,0.000885,0,0
0:0:36.552,49.0327,6.23976,0,0.000885,0,0
0:0:36.750,49.3842,6.28802,0,0.000885,0,0
0:0:36.952,49.7356,6.32939,0,0.000885,0,0
0:0:37.147,50.087,6.37765,0,0.000885,0,0
0:0:37.347,50.3806,6.41212,0,0.000885,0,0
0:0:37.548,51.0834,6.50176,0,0.000885,0,0
0:0:37.744,51.6705,6.5776,0,0.000885,0,0
0:0:37.946,51.7862,6.59139,0,0.000885,0,0
0:0:38.142,52.2577,6.65344,0,0.000885,0,0
0:0:38.341,52.7248,6.71549,0,0.000885,0,0
0:0:38.543,53.6055,6.82581,0,0.000885,0,0
0:0:38.738,53.7834,6.84649,0,0.000885,0,0
0:0:38.940,54.3083,6.91544,0,0.000885,0,0
0:0:39.138,54.1927,6.90165,0,0.000885,0,0
0:0:39.346,54.8377,6.98439,0,0.000885,0,0
0:0:39.547,55.3092,7.03955,0,0.000885,0,0
0:0:39.750,55.4827,7.06713,0,0.000885,0,0
0:0:39.953,56.0698,7.13607,0,0.000885,0,0
0:0:40.156,56.4212,7.18434,0,0.000885,0,0
0:0:40.357,56.9506,7.25328,0,0.000885,0,0
0:0:40.558,57.2442,7.28776,0,0.000885,0,0
0:0:40.760,57.5377,7.32913,0,0.000885,0,0
0:0:40.962,57.7691,7.35671,0,0.000885,0,0
0:0:41.162,58.5341,7.45323,0,0.000885,0,0
0:0:41.358,58.6498,7.46702,0,0.000885,0,0
0:0:41.560,59.059,7.52218,0,0.000885,0,0
0:0:41.756,59.237,7.54286,0,0.000885,0,0
0:0:41.956,59.4149,7.56355,0,0.000885,0,0
0:0:42.156,59.9976,7.63939,0,0.000885,0,0
0:0:42.351,60.527,7.70834,0,0.000885,0,0
0:0:42.554,60.8205,7.74281,0,0.000885,0,0
0:0:42.752,61.7591,7.86002,0,0.000885,0,0
0:0:42.951,62.1105,7.90829,0,0.000885,0,0
0:0:43.152,62.1105,7.90829,0,0.000885,0,0
0:0:43.346,62.4619,7.94966,0,0.000885,0,0
0:0:43.547,62.582,7.97034,0,0.000885,0,0
0:0:43.746,63.227,8.05308,0,0.000885,0,0
0:0:43.944,63.6363,8.10134,0,0.000885,0,0
0:0:44.146,64.1033,8.16339,0,0.000885,0,0
0:0:44.342,64.3391,8.19097,0,0.000885,0,0
0:0:44.542,65.2777,8.30818,0,0.000885,0,0
0:0:44.744,65.5134,8.34266,0,0.000885,0,0
0:0:44.947,66.1006,8.4185,0,0.000885,0,0
0:0:45.149,65.9226,8.39092,0,0.000885,0,0
0:0:45.353,66.5098,8.46676,0,0.000885,0,0
0:0:45.554,66.8034,8.50813,0,0.000885,0,0
0:0:45.756,67.5062,8.59776,0,0.000885,0,0
0:0:45.957,67.9154,8.64603,0,0.000885,0,0
0:0:46.157,67.9154,8.64603,0,0.000885,0,0
0:0:46.357,68.387,8.70808,0,0.000885,0,0
0:0:46.555,68.2713,8.69429,0,0.000885,0,0
0:0:46.755,69.0898,8.79771,0,0.000885,0,0
0:0:46.951,69.5613,8.85976,0,0.000885,0,0
0:0:47.154,70.144,8.92871,0,0.000885,0,0
0:0:47.352,70.2063,8.93561,0,0.000885,0,0
0:0:47.550,70.5577,8.98387,0,0.000885,0,0
0:0:47.750,70.9669,9.03903,0,0.000885,0,0
0:0:47.947,71.6697,9.12866,0,0.000885,0,0
0:0:48.149,72.1991,9.19071,0,0.000885,0,0
0:0:48.349,72.6083,9.24587,0,0.000885,0,0
0:0:48.544,72.9597,9.28724,0,0.000885,0,0
0:0:48.746,73.667,9.37687,0,0.000885,0,0
0:0:48.943,73.8983,9.41134,0,0.000885,0,0
0:0:49.143,74.3698,9.4665,0,0.000885,0,0
0:0:49.345,74.6056,9.50098,0,0.000885,0,0
0:0:49.548,74.6634,9.50787,0,0.000885,0,0
0:0:49.751,75.1883,9.57682,0,0.000885,0,0
0:0:49.953,75.424,9.6044,0,0.000885,0,0
0:0:50.154,75.5397,9.61819,0,0.000885,0,0
0:0:50.356,76.7719,9.77677,0,0.000885,0,0
0:0:50.556,76.8341,9.78366,0,0.000885,0,0
0:0:50.759,77.1233,9.81813,0,0.000885,0,0
0:0:50.958,77.3012,9.84571,0,0.000885,0,0
0:0:51.154,77.4791,9.8664,0,0.000885,0,0
0:0:51.356,78.4755,9.9905,0,0.000885,0,0
0:0:51.553,78.5334,9.9974,0,0.000885,0,0
0:0:51.753,79.1205,10.0732,0,0.000885,0,0
0:0:51.953,79.2362,10.087,0,0.000885,0,0
0:0:52.148,80.1169,10.1973,0,0.000885,0,0
0:0:52.350,80.2326,10.218,0,0.000885,0,0
0:0:52.548,80.7619,10.2801,0,0.000885,0,0
0:0:52.746,81.4069,10.3628,0,0.000885,0,0
0:0:52.947,81.2912,10.349,0,0.000885,0,0
0:0:53.141,81.5226,10.3766,0,0.000885,0,0
0:0:53.344,82.2877,10.48,0,0.000885,0,0
0:0:53.543,82.4033,10.4938,0,0.000885,0,0
0:0:53.740,83.2841,10.6041,0,0.000885,0,0
0:0:53.942,83.4575,10.6248,0,0.000885,0,0
0:0:54.148,83.929,10.6869,0,0.000885,0,0
0:0:54.346,83.8134,10.6731,0,0.000885,0,0
0:0:54.547,84.3961,10.7489,0,0.000885,0,0
0:0:54.751,84.8676,10.8041,0,0.000885,0,0
0:0:54.953,85.4548,10.8799,0,0.000885,0,0
0:0:55.155,85.9797,10.9489,0,0.000885,0,0
0:0:55.358,86.3355,10.9902,0,0.000885,0,0
0:0:55.558,86.7448,11.0454,0,0.000885,0,0
0:0:55.760,87.2741,11.1143,0,0.000885,0,0
0:0:55.962,87.3898,11.1281,0,0.000885,0,0
0:0:56.161,87.5632,11.1488,0,0.000885,0,0
0:0:56.360,88.0926,11.2178,0,0.000885,0,0
0:0:56.561,88.0348,11.2109,0,0.000885,0,0
0:0:56.757,89.2669,11.3626,0,0.000885,0,0
0:0:56.959,89.5027,11.397,0,0.000885,0,0
0:0:57.156,89.734,11.4246,0,0.000885,0,0
0:0:57.354,90.0276,11.466,0,0.000885,0,0
0:0:57.555,90.2633,11.4936,0,0.000885,0,0
0:0:57.751,90.6725,11.5418,0,0.000885,0,0
0:0:57.953,91.1441,11.6039,0,0.000885,0,0
0:0:58.152,91.5533,11.659,0,0.000885,0,0
0:0:58.348,92.3762,11.7625,0,0.000885,0,0
0:0:58.550,92.4919,11.7762,0,0.000885,0,0
0:0:58.747,92.3762,11.7625,0,0.000885,0,0
0:0:58.947,93.079,11.8521,0,0.000885,0,0
0:0:59.147,93.8397,11.9486,0,0.000885,0,0
0:0:59.342,94.1333,11.9831,0,0.000885,0,0
0:0:59.544,94.4268,12.0245,0,0.000885,0,0
0:0:59.746,95.0718,12.1072,0,0.000885,0,0
0:0:59.949,94.7204,12.0589,0,0.000885,0,0
0:1:0.152,95.6012,12.1692,0,0.000885,0,0
0:1:0.353,95.8369,12.2037,0,0.000885,0,0
0:1:0.555,96.2462,12.252,0,0.000885,0,0
0:1:0.757,96.7132,12.314,0,0.000885,0,0
0:1:0.958,97.1269,12.3692,0,0.000885,0,0
0:1:1.160,97.4205,12.4037,0,0.000885,0,0
0:1:1.356,98.239,12.5071,0,0.000885,0,0
0:1:1.557,98.4747,12.5416,0,0.000885,0,0
0:1:1.754,98.8261,12.5829,0,0.000885,0,0
0:1:1.952,99.1197,12.6174,0,0.000885,0,0
0:1:2.155,99.3555,12.6519,0,0.000885,0,0
0:1:2.351,99.7069,12.6932,0,0.000885,0,0
0:1:2.551,100.819,12.838,0,0.000885,0,0
0:1:2.751,100.703,12.8242,0,0.000885,0,0
0:1:2.947,100.997,12.8587,0,0.000885,0,0
0:1:3.149,101.7,12.9484,0,0.000885,0,0
0:1:3.346,102.403,13.038,0,0.000885,0,0
0:1:3.544,102.403,13.038,0,0.000885,0,0
0:1:3.745,102.171,13.0104,0,0.000885,0,0
0:1:3.940,101.758,12.9552,0,0.000885,0,0
0:1:4.141,102.932,13.1069,0,0.000885,0,0
0:1:4.340,103.283,13.1483,0,0.000885,0,0
0:1:4.547,104.044,13.2448,0,0.000885,0,0
0:1:4.749,104.337,13.2862,0,0.000885,0,0
0:1:4.953,104.693,13.3276,0,0.000885,0,0
0:1:5.155,105.627,13.4517,0,0.000885,0,0
0:1:5.356,105.69,13.4586,0,0.000885,0,0
0:1:5.559,106.099,13.5068,0,0.000885,0,0
0:1:5.761,106.45,13.5551,0,0.000885,0,0
0:1:5.961,106.508,13.562,0,0.000885,0,0
0:1:6.164,107.331,13.6654,0,0.000885,0,0
0:1:6.363,108.092,13.7619,0,0.000885,0,0
0:1:6.558,108.092,13.7619,0,0.000885,0,0
0:1:6.761,108.563,13.824,0,0.000885,0,0
0:1:6.959,109.15,13.8998,0,0.000885,0,0
0:1:7.157,109.382,13.9274,0,0.000885,0,0
0:1:7.358,109.382,13.9274,0,0.000885,0,0
0:1:7.554,110.378,14.0515,0,0.000885,0,0
0:1:7.754,110.85,14.1136,0,0.000885,0,0
0:1:7.952,111.317,14.1756,0,0.000885,0,0
0:1:8.150,111.143,14.148,0,0.000885,0,0
0:1:8.352,112.197,14.2859,0,0.000885,0,0
0:1:8.548,112.549,14.3273,0,0.000885,0,0
0:1:8.750,112.082,14.2721,0,0.000885,0,0
0:1:8.947,112.669,14.348,0,0.000885,0,0
0:1:9.145,113.314,14.4307,0,0.000885,0,0
0:1:9.347,113.43,14.4445,0,0.000885,0,0
0:1:9.548,113.256,14.4169,0,0.000885,0,0
0:1:9.751,114.017,14.5204,0,0.000885,0,0
0:1:9.954,114.777,14.6169,0,0.000885,0,0
0:1:10.154,115.422,14.6996,0,0.000885,0,0
0:1:10.358,115.485,14.7065,0,0.000885,0,0
0:1:10.557,115.658,14.7272,0,0.000885,0,0
0:1:10.759,116.655,14.8513,0,0.000885,0,0
0:1:10.961,116.712,14.8582,0,0.000885,0,0
0:1:11.156,116.712,14.8582,0,0.000885,0,0
0:1:11.359,117.771,14.9961,0,0.000885,0,0
0:1:11.555,118.238,15.0513,0,0.000885,0,0
0:1:11.755,118.652,15.1064,0,0.000885,0,0
0:1:11.954,118.358,15.0719,0,0.000885,0,0
0:1:12.151,119.061,15.1616,0,0.000885,0,0
0:1:12.353,119.648,15.2305,0,0.000885,0,0
0:1:12.551,120.235,15.3064,0,0.000885,0,0
0:1:12.750,120.76,15.3753,0,0.000885,0,0
0:1:12.950,120.76,15.3753,0,0.000885,0,0
0:1:13.145,120.938,15.396,0,0.000885,0,0
0:1:13.348,121.232,15.4374,0,0.000885,0,0
0:1:13.545,122.108,15.5477,0,0.000885,0,0
0:1:13.743,122.17,15.5546,0,0.000885,0,0
0:1:13.945,122.522,15.6028,0,0.000885,0,0
0:1:14.140,122.695,15.6235,0,0.000885,0,0
0:1:14.342,123.518,15.7269,0,0.000885,0,0
0:1:14.544,124.221,15.8166,0,0.000885,0,0
0:1:14.745,123.812,15.7614,0,0.000885,0,0
0:1:14.949,124.048,15.7959,0,0.000885,0,0
0:1:15.151,124.63,15.8717,0,0.000885,0,0
0:1:15.353,125.044,15.92,0,0.000885,0,0
0:1:15.554,125.747,16.0096,0,0.000885,0,0
0:1:15.755,125.805,16.0165,0,0.000885,0,0
0:1:15.959,127.037,16.1751,0,0.000885,0,0
0:1:16.154,126.507,16.1062,0,0.000885,0,0
0:1:16.355,126.979,16.1682,0,0.000885,0,0
0:1:16.555,127.682,16.2578,0,0.000885,0,0
0:1:16.752,128.211,16.3268,0,0.000885,0,0
0:1:16.955,129.092,16.4371,0,0.000885,0,0
0:1:17.150,129.265,16.4578,0,0.000885,0,0
0:1:17.349,129.501,16.4854,0,0.000885,0,0
0:1:17.550,130.32,16.5957,0,0.000885,0,0
0:1:17.746,130.965,16.6784,0,0.000885,0,0
0:1:17.948,130.204,16.575,0,0.000885,0,0
0:1:18.145,130.907,16.6646,0,0.000885,0,0
0:1:18.342,130.907,16.6646,0,0.000885,0,0
0:1:18.544,131.32,16.7198,0,0.000885,0,0
0:1:18.736,131.552,16.7474,0,0.000885,0,0
0:1:18.942,131.965,16.8025,0,0.000885,0,0
0:1:19.149,132.317,16.8439,0,0.000885,0,0
0:1:19.348,133.429,16.9887,0,0.000885,0,0
0:1:19.549,133.722,17.0232,0,0.000885,0,0
0:1:19.753,133.843,17.0438,0,0.000885,0,0
0:1:19.955,134.31,17.099,0,0.000885,0,0
0:1:20.158,134.777,17.1611,0,0.000885,0,0
0:1:20.360,134.897,17.1748,0,0.000885,0,0
0:1:20.561,136.129,17.3334,0,0.000885,0,0
0:1:20.762,136.071,17.3265,0,0.000885,0,0
0:1:20.965,136.538,17.3817,0,0.000885,0,0
0:1:21.163,136.423,17.3679,0,0.000885,0,0
0:1:21.362,137.535,17.5127,0,0.000885,0,0
0:1:21.563,137.77,17.5403,0,0.000885,0,0
0:1:21.757,138.064,17.5816,0,0.000885,0,0
0:1:21.959,138.357,17.6161,0,0.000885,0,0
0:1:22.158,138.882,17.6851,0,0.000885,0,0
0:1:22.355,139.118,17.7126,0,0.000885,0,0
0:1:22.557,139.176,17.7195,0,0.000885,0,0
0:1:22.751,139.941,17.8161,0,0.000885,0,0
0:1:22.954,140.586,17.8988,0,0.000885,0,0
0:1:23.152,140.466,17.885,0,0.000885,0,0
0:1:23.350,141.231,17.9815,0,0.000885,0,0
0:1:23.552,142.112,18.0918,0,0.000885,0,0
0:1:23.747,141.525,18.016,0,0.000885,0,0
0:1:23.947,142.112,18.0918,0,0.000885,0,0
0:1:24.147,142.521,18.147,0,0.000885,0,0
0:1:24.343,143.108,18.2228,0,0.000885,0,0
0:1:24.544,143.633,18.2849,0,0.000885,0,0
0:1:24.747,143.517,18.2711,0,0.000885,0,0
0:1:24.949,143.575,18.278,0,0.000885,0,0
0:1:25.152,144.634,18.4159,0,0.000885,0,0
0:1:25.353,144.692,18.4228,0,0.000885,0,0
0:1:25.555,145.804,18.5676,0,0.000885,0,0
0:1:25.756,145.688,18.5469,0,0.000885,0,0
0:1:25.957,146.391,18.6365,0,0.000885,0,0
0:1:26.158,147.214,18.7468,0,0.000885,0,0
0:1:26.354,147.739,18.8089,0,0.000885,0,0
0:1:26.556,147.623,18.7951,0,0.000885,0,0
0:1:26.753,148.095,18.8572,0,0.000885,0,0
0:1:26.951,148.74,18.9399,0,0.000885,0,0
0:1:27.152,148.326,18.8847,0,0.000885,0,0
0:1:27.347,148.21,18.871,0,0.000885,0,0
0:1:27.549,149.442,19.0295,0,0.000885,0,0
0:1:27.747,149.442,19.0295,0,0.000885,0,0
0:1:27.944,149.091,18.9813,0,0.000885,0,0
0:1:28.146,150.675,19.1812,0,0.000885,0,0
0:1:28.342,150.906,19.2157,0,0.000885,0,0
0:1:28.544,151.671,19.3122,0,0.000885,0,0
0:1:28.742,151.551,19.2984,0,0.000885,0,0
0:1:28.949,151.787,19.326,0,0.000885,0,0
0:1:29.150,152.725,19.4432,0,0.000885,0,0
0:1:29.347,152.432,19.4087,0,0.000885,0,0
0:1:29.547,152.552,19.4225,0,0.000885,0,0
0:1:29.749,153.428,19.5328,0,0.000885,0,0
0:1:29.953,154.309,19.6501,0,0.000885,0,0
0:1:30.156,154.78,19.7052,0,0.000885,0,0
0:1:30.356,154.487,19.6707,0,0.000885,0,0
0:1:30.558,154.602,19.6845,0,0.000885,0,0
0:1:30.758,155.95,19.8569,0,0.000885,0,0
0:1:30.960,156.422,19.919,0,0.000885,0,0
0:1:31.162,156.364,19.9121,0,0.000885,0,0
0:1:31.358,156.889,19.9741,0,0.000885,0,0
0:1:31.557,157.24,20.0224,0,0.000885,0,0
0:1:31.759,158.063,20.1258,0,0.000885,0,0
0:1:31.954,158.063,20.1258,0,0.000885,0,0
0:1:32.155,158.357,20.1603,0,0.000885,0,0
0:1:32.351,159.353,20.2913,0,0.000885,0,0
0:1:32.550,159.18,20.2637,0,0.000885,0,0
0:1:32.751,159.002,20.243,0,0.000885,0,0
0:1:32.947,159.589,20.3188,0,0.000885,0,0
0:1:33.149,159.998,20.374,0,0.000885,0,0
0:1:33.345,160.349,20.4154,0,0.000885,0,0
0:1:33.544,161.115,20.5119,0,0.000885,0,0
0:1:33.746,161.466,20.5602,0,0.000885,0,0
0:1:33.942,162.284,20.6636,0,0.000885,0,0
0:1:34.144,162.405,20.6774,0,0.000885,0,0
0:1:34.341,163.281,20.7877,0,0.000885,0,0
0:1:34.549,163.517,20.8222,0,0.000885,0,0
0:1:34.751,163.165,20.7739,0,0.000885,0,0
0:1:34.954,164.046,20.8842,0,0.000885,0,0
0:1:35.157,164.633,20.9601,0,0.000885,0,0
0:1:35.359,164.575,20.9532,0,0.000885,0,0
0:1:35.561,164.807,20.9807,0,0.000885,0,0
0:1:35.762,164.575,20.9532,0,0.000885,0,0
0:1:35.963,165.572,21.0842,0,0.000885,0,0
0:1:36.166,165.981,21.1324,0,0.000885,0,0
0:1:36.365,166.684,21.2221,0,0.000885,0,0
0:1:36.561,166.804,21.2359,0,0.000885,0,0
0:1:36.764,167.387,21.3117,0,0.000885,0,0
0:1:36.961,167.449,21.3186,0,0.000885,0,0
0:1:37.161,168.094,21.4013,0,0.000885,0,0
0:1:37.360,168.561,21.4634,0,0.000885,0,0
0:1:37.556,168.854,21.4979,0,0.000885,0,0
0:1:37.758,169.148,21.5392,0,0.000885,0,0
0:1:37.955,169.971,21.6426,0,0.000885,0,0
0:1:38.154,170.674,21.7323,0,0.000885,0,0
0:1:38.353,170.732,21.7392,0,0.000885,0,0
0:1:38.549,171.434,21.8288,0,0.000885,0,0
0:1:38.750,171.434,21.8288,0,0.000885,0,0
0:1:38.949,171.848,21.8771,0,0.000885,0,0
0:1:39.147,172.2,21.9253,0,0.000885,0,0
0:1:39.350,172.782,22.0012,0,0.000885,0,0
0:1:39.553,172.724,21.9943,0,0.000885,0,0
0:1:39.755,173.138,22.0425,0,0.000885,0,0
0:1:39.958,173.369,22.077,0,0.000885,0,0
0:1:40.159,173.899,22.1391,0,0.000885,0,0
0:1:40.361,174.366,22.2011,0,0.000885,0,0
0:1:40.562,174.895,22.2701,0,0.000885,0,0
0:1:40.764,175.073,22.2908,0,0.000885,0,0
0:1:40.963,175.425,22.339,0,0.000885,0,0
0:1:41.161,175.776,22.3804,0,0.000885,0,0
0:1:41.364,176.657,22.4907,0,0.000885,0,0
0:1:41.558,176.657,22.4907,0,0.000885,0,0
0:1:41.759,177.244,22.5665,0,0.000885,0,0
0:1:41.958,177.889,22.6493,0,0.000885,0,0
0:1:42.154,177.827,22.6424,0,0.000885,0,0
0:1:42.356,178.062,22.67,0,0.000885,0,0
0:1:42.553,178.649,22.7458,0,0.000885,0,0
0:1:42.752,179.41,22.8423,0,0.000885,0,0
0:1:42.953,179.646,22.8699,0,0.000885,0,0
0:1:43.149,179.997,22.9182,0,0.000885,0,0
0:1:43.351,180.411,22.9733,0,0.000885,0,0
0:1:43.548,181.172,23.0699,0,0.000885,0,0
0:1:43.747,180.7,23.0078,0,0.000885,0,0
0:1:43.947,181.465,23.1043,0,0.000885,0,0
0:1:44.150,182.11,23.1871,0,0.000885,0,0
0:1:44.352,182.462,23.2284,0,0.000885,0,0
0:1:44.554,182.519,23.2422,0,0.000885,0,0
0:1:44.758,183.222,23.3319,0,0.000885,0,0
0:1:44.960,183.458,23.3594,0,0.000885,0,0
0:1:45.162,183.93,23.4215,0,0.000885,0,0
0:1:45.364,184.454,23.4835,0,0.000885,0,0
0:1:45.565,184.632,23.5111,0,0.000885,0,0
0:1:45.765,184.926,23.5456,0,0.000885,0,0
0:1:45.967,185.393,23.6076,0,0.000885,0,0
0:1:46.163,186.096,23.6973,0,0.000885,0,0
0:1:46.364,186.452,23.7386,0,0.000885,0,0
0:1:46.564,186.625,23.7593,0,0.000885,0,0
0:1:46.760,187.39,23.8559,0,0.000885,0,0
0:1:46.962,187.622,23.8903,0,0.000885,0,0
0:1:47.159,187.448,23.8696,0,0.000885,0,0
0:1:47.357,188.035,23.9386,0,0.000885,0,0
0:1:47.559,188.267,23.9731,0,0.000885,0,0
0:1:47.754,188.738,24.0282,0,0.000885,0,0
0:1:47.955,189.032,24.0696,0,0.000885,0,0
0:1:48.154,189.85,24.173,0,0.000885,0,0
0:1:48.350,190.028,24.1937,0,0.000885,0,0
0:1:48.553,190.615,24.2695,0,0.000885,0,0
0:1:48.749,191.024,24.3247,0,0.000885,0,0
0:1:48.950,190.967,24.3178,0,0.000885,0,0
0:1:49.149,191.024,24.3247,0,0.000885,0,0
0:1:49.344,192.021,24.4488,0,0.000885,0,0
0:1:49.547,192.492,24.5109,0,0.000885,0,0
0:1:49.746,193.311,24.6143,0,0.000885,0,0
0:1:49.948,193.431,24.6281,0,0.000885,0,0
0:1:50.150,193.724,24.6625,0,0.000885,0,0
0:1:50.350,193.84,24.6832,0,0.000885,0,0
0:1:50.551,194.601,24.7798,0,0.000885,0,0
0:1:50.751,194.894,24.8142,0,0.000885,0,0
0:1:50.951,195.482,24.8901,0,0.000885,0,0
0:1:51.152,195.775,24.9245,0,0.000885,0,0
0:1:51.345,195.953,24.9521,0,0.000885,0,0
0:1:51.546,196.536,25.0211,0,0.000885,0,0
0:1:51.743,196.598,25.0349,0,0.000885,0,0
0:1:51.937,197.417,25.1383,0,0.000885,0,0
0:1:52.139,198.182,25.2348,0,0.000885,0,0
0:1:52.345,198.475,25.2693,0,0.000885,0,0
0:1:52.543,198.475,25.2693,0,0.000885,0,0
0:1:52.739,198.942,25.3313,0,0.000885,0,0
0:1:52.947,199.236,25.3658,0,0.000885,0,0
0:1:53.148,199.823,25.4417,0,0.000885,0,0
0:1:53.343,199.939,25.4554,0,0.000885,0,0
0:1:53.538,200.877,25.5795,0,0.000885,0,0
0:1:53.737,200.819,25.5658,0,0.000885,0,0
0:1:53.944,200.997,25.5933,0,0.000885,0,0
0:1:54.145,201.931,25.7105,0,0.000885,0,0
0:1:54.339,201.994,25.7174,0,0.000885,0,0
0:1:54.547,201.994,25.7174,0,0.000885,0,0
0:1:54.748,202.639,25.8002,0,0.000885,0,0
0:1:54.947,202.812,25.8209,0,0.000885,0,0
0:1:55.149,203.635,25.9243,0,0.000885,0,0
0:1:55.351,204.102,25.9863,0,0.000885,0,0
0:1:55.551,204.574,26.0484,0,0.000885,0,0
0:1:55.752,204.396,26.0277,0,0.000885,0,0
0:1:55.951,205.041,26.1036,0,0.000885,0,0
0:1:56.152,205.806,26.207,0,0.000885,0,0
0:1:56.351,205.864,26.2139,0,0.000885,0,0
0:1:56.544,206.273,26.2621,0,0.000885,0,0
0:1:56.745,206.567,26.3035,0,0.000885,0,0
0:1:56.950,207.038,26.3587,0,0.000885,0,0
0:1:57.148,206.918,26.3449,0,0.000885,0,0
0:1:57.348,207.799,26.4552,0,0.000885,0,0
0:1:57.538,208.328,26.5241,0,0.000885,0,0
0:1:57.739,208.973,26.6069,0,0.000885,0,0
0:1:57.947,208.795,26.5862,0,0.000885,0,0
0:1:58.145,209.324,26.6551,0,0.000885,0,0
0:1:58.345,209.849,26.7172,0,0.000885,0,0
0:1:58.549,210.205,26.7654,0,0.000885,0,0
0:1:58.747,210.436,26.793,0,0.000885,0,0
0:1:58.944,210.73,26.8344,0,0.000885,0,0
0:1:59.150,211.202,26.8896,0,0.000885,0,0
0:1:59.351,212.02,26.993,0,0.000885,0,0
0:1:59.551,212.198,27.0206,0,0.000885,0,0
0:1:59.754,212.785,27.0895,0,0.000885,0,0
0:1:59.955,212.901,27.1102,0,0.000885,0,0
0:2:0.156,213.252,27.1516,0,0.000885,0,0
0:2:0.356,213.782,27.2205,0,0.000885,0,0
0:2:0.555,214.311,27.2894,0,0.000885,0,0
0:2:0.755,214.894,27.3584,0,0.000885,0,0
0:2:0.956,215.365,27.4204,0,0.000885,0,0
0:2:1.148,215.307,27.4136,0,0.000885,0,0
0:2:1.348,215.249,27.4067,0,0.000885,0,0
0:2:1.545,215.894,27.4894,0,0.000885,0,0
0:2:1.751,216.419,27.5583,0,0.000885,0,0
0:2:1.952,216.539,27.5721,0,0.000885,0,0
0:2:2.145,216.655,27.5859,0,0.000885,0,0
0:2:2.345,217.358,27.6756,0,0.000885,0,0
0:2:2.543,218.181,27.779,0,0.000885,0,0
0:2:2.748,218.648,27.841,0,0.000885,0,0
0:2:2.948,218.532,27.8272,0,0.000885,0,0
0:2:3.141,219.177,27.9031,0,0.000885,0,0
0:2:3.339,219.644,27.9651,0,0.000885,0,0
0:2:3.539,220.231,28.041,0,0.000885,0,0
0:2:3.745,220.289,28.0479,0,0.000885,0,0
0:2:3.944,220.819,28.1168,0,0.000885,0,0
0:2:4.149,221.112,28.1513,0,0.000885,0,0
0:2:4.347,222.229,28.2961,0,0.000885,0,0
0:2:4.547,221.873,28.2478,0,0.000885,0,0
0:2:4.747,222.229,28.2961,0,0.000885,0,0
0:2:4.950,222.989,28.3926,0,0.000885,0,0
0:2:5.151,223.692,28.4822,0,0.000885,0,0
0:2:5.350,223.341,28.434,0,0.000885,0,0
0:2:5.552,224.044,28.5236,0,0.000885,0,0
0:2:5.750,224.164,28.5443,0,0.000885,0,0
0:2:5.952,224.573,28.5926,0,0.000885,0,0
0:2:6.150,225.102,28.6615,0,0.000885,0,0
0:2:6.345,225.511,28.7098,0,0.000885,0,0
0:2:6.546,226.45,28.8339,0,0.000885,0,0
0:2:6.750,226.392,28.827,0,0.000885,0,0
0:2:6.949,226.859,28.8821,0,0.000885,0,0
0:2:7.147,226.917,28.889,0,0.000885,0,0
0:2:7.338,227.562,28.9718,0,0.000885,0,0
0:2:7.539,227.918,29.02,0,0.000885,0,0
0:2:7.737,228.621,29.1097,0,0.000885,0,0
0:2:7.933,228.563,29.1028,0,0.000885,0,0
0:2:8.133,228.794,29.1303,0,0.000885,0,0
0:2:8.348,229.266,29.1924,0,0.000885,0,0
0:2:8.548,229.733,29.2476,0,0.000885,0,0
0:2:8.753,229.733,29.2476,0,0.000885,0,0
0:2:8.951,230.556,29.3579,0,0.000885,0,0
0:2:9.152,231.085,29.4199,0,0.000885,0,0
0:2:9.346,232.082,29.5509,0,0.000885,0,0
0:2:9.545,231.73,29.5027,0,0.000885,0,0
0:2:9.745,231.788,29.5096,0,0.000885,0,0
0:2:9.946,232.669,29.6268,0,0.000885,0,0
0:2:10.147,232.549,29.6061,0,0.000885,0,0
0:2:10.348,233.078,29.675,0,0.000885,0,0
0:2:10.548,233.723,29.7578,0,0.000885,0,0
0:2:10.748,234.19,29.8198,0,0.000885,0,0
0:2:10.948,234.31,29.8336,0,0.000885,0,0
0:2:11.149,234.835,29.9026,0,0.000885,0,0
0:2:11.347,235.071,29.9301,0,0.000885,0,0
0:2:11.552,235.774,30.0198,0,0.000885,0,0
0:2:11.753,236.419,30.1025,0,0.000885,0,0
0:2:11.947,236.948,30.1715,0,0.000885,0,0
0:2:12.147,236.77,30.1439,0,0.000885,0,0
0:2:12.353,237.064,30.1852,0,0.000885,0,0
0:2:12.550,237.651,30.2611,0,0.000885,0,0
0:2:12.749,238.474,30.3645,0,0.000885,0,0
0:2:12.953,238.238,30.33,0,0.000885,0,0
0:2:13.153,238.416,30.3576,0,0.000885,0,0
0:2:13.352,239.061,30.4404,0,0.000885,0,0
0:2:13.545,239.706,30.5231,0,0.000885,0,0
0:2:13.746,240.231,30.5851,0,0.000885,0,0
0:2:13.951,240.76,30.6541,0,0.000885,0,0
0:2:14.149,240.644,30.6403,0,0.000885,0,0
0:2:14.350,241.463,30.7437,0,0.000885,0,0
0:2:14.553,241.814,30.792,0,0.000885,0,0
0:2:14.755,242.815,30.9161,0,0.000885,0,0
0:2:14.954,242.815,30.9161,0,0.000885,0,0
0:2:15.155,242.931,30.9299,0,0.000885,0,0
0:2:15.355,243.166,30.9575,0,0.000885,0,0
0:2:15.554,243.34,30.985,0,0.000885,0,0
0:2:15.755,243.927,31.0609,0,0.000885,0,0
0:2:15.950,243.754,31.0333,0,0.000885,0,0
0:2:16.147,244.866,31.1781,0,0.000885,0,0
0:2:16.347,244.981,31.1919,0,0.000885,0,0
0:2:16.550,245.217,31.2195,0,0.000885,0,0
0:2:16.750,245.862,31.3022,0,0.000885,0,0
0:2:16.948,246.334,31.3643,0,0.000885,0,0
0:2:17.151,246.507,31.3849,0,0.000885,0,0
0:2:17.352,246.743,31.4194,0,0.000885,0,0
0:2:17.549,247.681,31.5366,0,0.000885,0,0
0:2:17.746,248.326,31.6194,0,0.000885,0,0
0:2:17.945,247.681,31.5366,0,0.000885,0,0
0:2:18.148,248.678,31.6607,0,0.000885,0,0
0:2:18.349,248.914,31.6952,0,0.000885,0,0
0:2:18.547,249.381,31.7504,0,0.000885,0,0
0:2:18.752,250.083,31.84,0,0.000885,0,0
0:2:18.953,250.733,31.9227,0,0.000885,0,0
0:2:19.147,250.906,31.9434,0,0.000885,0,0
0:2:19.346,251.845,32.0675,0,0.000885,0,0
0:2:19.546,251.903,32.0744,0,0.000885,0,0
0:2:19.748,251.729,32.0537,0,0.000885,0,0
0:2:19.950,252.784,32.1847,0,0.000885,0,0
0:2:20.149,253.251,32.2468,0,0.000885,0,0
0:2:20.350,253.251,32.2468,0,0.000885,0,0
0:2:20.550,252.961,32.2054,0,0.000885,0,0
0:2:20.749,253.606,32.2881,0,0.000885,0,0
0:2:20.951,253.664,32.295,0,0.000885,0,0
0:2:21.146,254.189,32.364,0,0.000885,0,0
0:2:21.342,254.483,32.4054,0,0.000885,0,0
0:2:21.541,255.248,32.5019,0,0.000885,0,0
0:2:21.747,255.657,32.5501,0,0.000885,0,0
0:2:21.948,256.129,32.6122,0,0.000885,0,0
0:2:22.143,256.066,32.6053,0,0.000885,0,0
0:2:22.338,256.711,32.688,0,0.000885,0,0
0:2:22.539,257.534,32.7915,0,0.000885,0,0
0:2:22.746,257.943,32.8397,0,0.000885,0,0
0:2:22.943,258.121,32.8673,0,0.000885,0,0
0:2:23.141,258.766,32.95,0,0.000885,0,0
0:2:23.335,259.176,32.9983,0,0.000885,0,0
0:2:23.536,259.002,32.9776,0,0.000885,0,0
0:2:23.732,259.647,33.0604,0,0.000885,0,0
0:2:23.940,259.585,33.0535,0,0.000885,0,0
0:2:24.139,260.234,33.1362,0,0.000885,0,0
0:2:24.333,260.759,33.1983,0,0.000885,0,0
0:2:24.532,261.462,33.2879,0,0.000885,0,0
0:2:24.733,261.289,33.2672,0,0.000885,0,0
0:2:24.936,262.169,33.3775,0,0.000885,0,0
0:2:25.137,262.107,33.3706,0,0.000885,0,0
0:2:25.338,262.872,33.4672,0,0.000885,0,0
0:2:25.539,263.459,33.543,0,0.000885,0,0
0:2:25.738,264.104,33.6257,0,0.000885,0,0
0:2:25.939,264.162,33.6326,0,0.000885,0,0
0:2:26.139,264.278,33.6464,0,0.000885,0,0
0:2:26.354,264.571,33.6878,0,0.000885,0,0
0:2:26.555,265.101,33.7567,0,0.000885,0,0
0:2:26.752,265.981,33.867,0,0.000885,0,0
0:2:26.948,266.506,33.936,0,0.000885,0,0
0:2:27.148,266.275,33.9015,0,0.000885,0,0
0:2:27.351,266.92,33.9843,0,0.000885,0,0
0:2:27.550,267.214,34.0256,0,0.000885,0,0
0:2:27.749,267.738,34.0877,0,0.000885,0,0
0:2:27.953,267.859,34.1015,0,0.000885,0,0
0:2:28.154,268.032,34.129,0,0.000885,0,0
0:2:28.350,268.735,34.2187,0,0.000885,0,0
0:2:28.547,268.913,34.2394,0,0.000885,0,0
0:2:28.747,269.149,34.2669,0,0.000885,0,0
0:2:28.951,269.794,34.3497,0,0.000885,0,0
0:2:29.151,270.087,34.391,0,0.000885,0,0
0:2:29.348,270.79,34.4807,0,0.000885,0,0
0:2:29.553,271.319,34.5427,0,0.000885,0,0
0:2:29.754,270.848,34.4876,0,0.000885,0,0
0:2:29.954,271.729,34.5979,0,0.000885,0,0
0:2:30.156,272.316,34.6737,0,0.000885,0,0
0:2:30.357,272.725,34.722,0,0.000885,0,0
0:2:30.558,272.903,34.7496,0,0.000885,0,0
0:2:30.758,273.548,34.8323,0,0.000885,0,0
0:2:30.957,273.548,34.8323,0,0.000885,0,0
0:2:31.157,274.251,34.9219,0,0.000885,0,0
0:2:31.357,274.953,35.0116,0,0.000885,0,0
0:2:31.551,274.896,34.9978,0,0.000885,0,0
0:2:31.750,274.66,34.9702,0,0.000885,0,0
0:2:31.944,275.598,35.0874,0,0.000885,0,0
0:2:32.140,275.656,35.1012,0,0.000885,0,0
0:2:32.340,276.301,35.1771,0,0.000885,0,0
0:2:32.535,276.831,35.246,0,0.000885,0,0
0:2:32.733,276.831,35.246,0,0.000885,0,0
0:2:32.941,277.885,35.3839,0,0.000885,0,0
0:2:33.137,278.236,35.4253,0,0.000885,0,0
0:2:33.336,278.472,35.4528,0,0.000885,0,0
0:2:33.553,279.117,35.5356,0,0.000885,0,0
0:2:33.753,279.411,35.5769,0,0.000885,0,0
0:2:33.951,279.94,35.6459,0,0.000885,0,0
0:2:34.154,280.527,35.7148,0,0.000885,0,0
0:2:34.355,280.349,35.6942,0,0.000885,0,0
0:2:34.556,280.701,35.7424,0,0.000885,0,0
0:2:34.758,281.346,35.8252,0,0.000885,0,0
0:2:34.960,281.817,35.8803,0,0.000885,0,0
0:2:35.160,281.933,35.8941,0,0.000885,0,0
0:2:35.362,282.462,35.9631,0,0.000885,0,0
0:2:35.561,282.693,35.9906,0,0.000885,0,0
0:2:35.762,283.401,36.0803,0,0.000885,0,0
0:2:35.961,284.103,36.1699,0,0.000885,0,0
0:2:36.156,284.339,36.2044,0,0.000885,0,0
0:2:36.355,284.161,36.1837,0,0.000885,0,0
0:2:36.553,284.633,36.2388,0,0.000885,0,0
0:2:36.749,284.984,36.2871,0,0.000885,0,0
0:2:36.950,285.216,36.3147,0,0.000885,0,0
0:2:37.152,285.745,36.3836,0,0.000885,0,0
0:2:37.353,286.274,36.4526,0,0.000885,0,0
0:2:37.551,286.448,36.4733,0,0.000885,0,0
0:2:37.744,286.448,36.4733,0,0.000885,0,0
0:2:37.944,287.506,36.6043,0,0.000885,0,0
0:2:38.150,287.858,36.6525,0,0.000885,0,0
0:2:38.348,287.916,36.6594,0,0.000885,0,0
0:2:38.549,288.854,36.7766,0,0.000885,0,0
0:2:38.752,289.263,36.8318,0,0.000885,0,0
0:2:38.953,289.735,36.887,0,0.000885,0,0
0:2:39.149,290.611,37.0042,0,0.000885,0,0
0:2:39.354,290.322,36.9628,0,0.000885,0,0
0:2:39.555,290.905,37.0386,0,0.000885,0,0
0:2:39.756,290.673,37.0111,0,0.000885,0,0
0:2:39.959,291.318,37.0938,0,0.000885,0,0
0:2:40.159,291.728,37.1421,0,0.000885,0,0
0:2:40.360,292.137,37.1972,0,0.000885,0,0
0:2:40.561,292.315,37.2179,0,0.000885,0,0
0:2:40.760,292.608,37.2593,0,0.000885,0,0
0:2:40.962,292.96,37.3006,0,0.000885,0,0
0:2:41.160,294.072,37.4454,0,0.000885,0,0
0:2:41.354,294.134,37.4523,0,0.000885,0,0
0:2:41.555,295.011,37.5626,0,0.000885,0,0
0:2:41.751,294.953,37.5557,0,0.000885,0,0
0:2:41.950,295.246,37.5902,0,0.000885,0,0
0:2:42.149,295.891,37.673,0,0.000885,0,0
0:2:42.352,295.891,37.673,0,0.000885,0,0
0:2:42.553,296.421,37.7419,0,0.000885,0,0
0:2:42.749,296.888,37.804,0,0.000885,0,0
0:2:42.945,297.417,37.866,0,0.000885,0,0
0:2:43.145,298.12,37.9556,0,0.000885,0,0
0:2:43.339,298.24,37.9694,0,0.000885,0,0
0:2:43.538,298.649,38.0246,0,0.000885,0,0
0:2:43.744,298.885,38.0522,0,0.000885,0,0
0:2:43.940,298.765,38.0384,0,0.000885,0,0
0:2:44.142,300.055,38.2039,0,0.000885,0,0
0:2:44.345,299.939,38.1901,0,0.000885,0,0
0:2:44.548,300.291,38.2314,0,0.000885,0,0
0:2:44.745,300.878,38.3073,0,0.000885,0,0
0:2:44.950,301.229,38.3555,0,0.000885,0,0
0:2:45.152,301.345,38.3693,0,0.000885,0,0
0:2:45.354,302.226,38.4796,0,0.000885,0,0
0:2:45.553,302.461,38.5072,0,0.000885,0,0
0:2:45.754,302.697,38.5417,0,0.000885,0,0
0:2:45.955,303.164,38.5969,0,0.000885,0,0
0:2:46.156,303.516,38.6451,0,0.000885,0,0
0:2:46.351,303.925,38.7003,0,0.000885,0,0
0:2:46.549,304.574,38.7761,0,0.000885,0,0
0:2:46.745,304.632,38.7899,0,0.000885,0,0
0:2:46.952,305.571,38.9071,0,0.000885,0,0
0:2:47.152,305.393,38.8864,0,0.000885,0,0
0:2:47.349,306.038,38.9692,0,0.000885,0,0
0:2:47.556,306.509,39.0243,0,0.000885,0,0
0:2:47.754,306.389,39.0105,0,0.000885,0,0
0:2:47.957,307.563,39.1622,0,0.000885,0,0
0:2:48.156,307.328,39.1277,0,0.000885,0,0
0:2:48.355,308.853,39.3277,0,0.000885,0,0
0:2:48.550,308.502,39.2794,0,0.000885,0,0
0:2:48.751,309.263,39.376,0,0.000885,0,0
0:2:48.953,309.031,39.3484,0,0.000885,0,0
0:2:49.153,309.441,39.3966,0,0.000885,0,0
0:2:49.353,309.908,39.4587,0,0.000885,0,0
0:2:49.545,310.143,39.4863,0,0.000885,0,0
0:2:49.746,310.615,39.5483,0,0.000885,0,0
0:2:49.950,310.908,39.5828,0,0.000885,0,0
0:2:50.152,311.491,39.6586,0,0.000885,0,0
0:2:50.352,311.611,39.6724,0,0.000885,0,0
0:2:50.553,312.608,39.8034,0,0.000885,0,0
0:2:50.752,312.492,39.7896,0,0.000885,0,0
0:2:50.953,313.426,39.9069,0,0.000885,0,0
0:2:51.154,313.195,39.8793,0,0.000885,0,0
0:2:51.352,314.013,39.9827,0,0.000885,0,0
0:2:51.545,314.013,39.9827,0,0.000885,0,0
0:2:51.745,315.366,40.1551,0,0.000885,0,0
0:2:51.951,314.894,40.093,0,0.000885,0,0
0:2:52.158,315.833,40.2102,0,0.000885,0,0
0:2:52.358,315.717,40.1964,0,0.000885,0,0
0:2:52.552,316.068,40.2447,0,0.000885,0,0
0:2:52.753,316.242,40.2654,0,0.000885,0,0
0:2:52.950,316.713,40.3274,0,0.000885,0,0
0:2:53.144,317.71,40.4515,0,0.000885,0,0
0:2:53.344,317.652,40.4446,0,0.000885,0,0
0:2:53.538,318.177,40.5136,0,0.000885,0,0
0:2:53.738,317.946,40.4791,0,0.000885,0,0
0:2:53.945,318.884,40.6032,0,0.000885,0,0
0:2:54.140,319.471,40.6791,0,0.000885,0,0
0:2:54.340,319.471,40.6791,0,0.000885,0,0
0:2:54.541,319.938,40.7342,0,0.000885,0,0
0:2:54.743,320.174,40.7687,0,0.000885,0,0
0:2:54.944,320.583,40.817,0,0.000885,0,0
0:2:55.143,321.344,40.9135,0,0.000885,0,0
0:2:55.344,321.758,40.9686,0,0.000885,0,0
0:2:55.544,321.873,40.9824,0,0.000885,0,0
0:2:55.744,322.576,41.0721,0,0.000885,0,0
0:2:55.944,322.99,41.1272,0,0.000885,0,0
0:2:56.139,323.283,41.1617,0,0.000885,0,0
0:2:56.338,323.635,41.2031,0,0.000885,0,0
0:2:56.545,324.044,41.2582,0,0.000885,0,0
0:2:56.743,324.453,41.3134,0,0.000885,0,0
0:2:56.941,324.805,41.3548,0,0.000885,0,0
0:2:57.145,325.57,41.4513,0,0.000885,0,0
0:2:57.345,325.512,41.4444,0,0.000885,0,0
0:2:57.553,325.921,41.4995,0,0.000885,0,0
0:2:57.751,326.095,41.5202,0,0.000885,0,0
0:2:57.951,326.566,41.5823,0,0.000885,0,0
0:2:58.154,326.624,41.5892,0,0.000885,0,0
0:2:58.355,327.62,41.7133,0,0.000885,0,0
0:2:58.550,327.62,41.7133,0,0.000885,0,0
0:2:58.746,328.443,41.8167,0,0.000885,0,0
0:2:58.946,328.323,41.8029,0,0.000885,0,0
0:2:59.140,329.324,41.9339,0,0.000885,0,0
0:2:59.340,329.262,41.9201,0,0.000885,0,0
0:2:59.541,329.555,41.9615,0,0.000885,0,0
0:2:59.743,330.2,42.0442,0,0.000885,0,0
0:2:59.944,330.494,42.0787,0,0.000885,0,0
0:3:0.144,330.788,42.1201,0,0.000885,0,0
0:3:0.345,331.49,42.2097,0,0.000885,0,0
0:3:0.544,331.61,42.2235,0,0.000885,0,0
0:3:0.744,331.61,42.2235,0,0.000885,0,0
0:3:0.944,332.491,42.3338,0,0.000885,0,0
0:3:1.151,332.843,42.3821,0,0.000885,0,0
0:3:1.350,333.603,42.4786,0,0.000885,0,0
0:3:1.545,333.839,42.5062,0,0.000885,0,0
0:3:1.741,334.248,42.5613,0,0.000885,0,0
0:3:1.942,334.484,42.5889,0,0.000885,0,0
0:3:2.139,334.835,42.6303,0,0.000885,0,0
0:3:2.335,335.013,42.6579,0,0.000885,0,0
0:3:2.544,336.068,42.7889,0,0.000885,0,0
0:3:2.752,336.125,42.7958,0,0.000885,0,0
0:3:2.953,336.655,42.8647,0,0.000885,0,0
0:3:3.158,337.18,42.9337,0,0.000885,0,0
0:3:3.356,337.767,43.0026,0,0.000885,0,0
0:3:3.553,337.767,43.0026,0,0.000885,0,0
0:3:3.746,338.06,43.044,0,0.000885,0,0
0:3:3.950,338.412,43.0853,0,0.000885,0,0
0:3:4.143,339.293,43.2025,0,0.000885,0,0
0:3:4.341,338.941,43.1543,0,0.000885,0,0
0:3:4.542,339.35,43.2094,0,0.000885,0,0
0:3:4.744,339.586,43.237,0,0.000885,0,0
0:3:4.945,340.173,43.3129,0,0.000885,0,0
0:3:5.146,340.525,43.3542,0,0.000885,0,0
0:3:5.347,340.583,43.3611,0,0.000885,0,0
0:3:5.546,341.054,43.4232,0,0.000885,0,0
0:3:5.746,341.405,43.4714,0,0.000885,0,0
0:3:5.946,342.05,43.5542,0,0.000885,0,0
0:3:6.155,342.638,43.6231,0,0.000885,0,0
0:3:6.353,342.869,43.6576,0,0.000885,0,0
0:3:6.553,343.225,43.699,0,0.000885,0,0
0:3:6.756,344.043,43.8024,0,0.000885,0,0
0:3:6.957,344.221,43.83,0,0.000885,0,0
0:3:7.154,344.746,43.892,0,0.000885,0,0
0:3:7.351,344.866,43.9127,0,0.000885,0,0
0:3:7.552,345.453,43.9817,0,0.000885,0,0
0:3:7.755,345.863,44.0368,0,0.000885,0,0
0:3:7.955,346.743,44.1471,0,0.000885,0,0
0:3:8.151,346.33,44.0989,0,0.000885,0,0
0:3:8.347,347.095,44.1954,0,0.000885,0,0
0:3:8.546,347.268,44.2161,0,0.000885,0,0
0:3:8.752,347.62,44.2574,0,0.000885,0,0
0:3:8.952,347.682,44.2712,0,0.000885,0,0
0:3:9.147,348.443,44.3678,0,0.000885,0,0
0:3:9.355,348.558,44.3816,0,0.000885,0,0
0:3:9.556,349.088,44.4505,0,0.000885,0,0
0:3:9.756,349.323,44.4781,0,0.000885,0,0
0:3:9.959,349.91,44.5539,0,0.000885,0,0
0:3:10.160,349.968,44.5608,0,0.000885,0,0
0:3:10.361,350.32,44.6022,0,0.000885,0,0
0:3:10.560,350.378,44.6091,0,0.000885,0,0
0:3:10.761,350.493,44.6298,0,0.000885,0,0
0:3:10.962,351.494,44.7539,0,0.000885,0,0
0:3:11.160,351.494,44.7539,0,0.000885,0,0
0:3:11.355,352.077,44.8297,0,0.000885,0,0
0:3:11.556,352.197,44.8435,0,0.000885,0,0
0:3:11.751,352.197,44.8435,0,0.000885,0,0
0:3:11.948,352.433,44.8711,0,0.000885,0,0
0:3:12.147,353.193,44.9676,0,0.000885,0,0
0:3:12.352,353.371,44.9952,0,0.000885,0,0
0:3:12.553,353.602,45.0228,0,0.000885,0,0
0:3:12.747,353.66,45.0297,0,0.000885,0,0
0:3:12.955,353.838,45.0503,0,0.000885,0,0
0:3:13.155,354.074,45.0848,0,0.000885,0,0
0:3:13.358,354.661,45.1538,0,0.000885,0,0
0:3:13.558,354.368,45.1193,0,0.000885,0,0
0:3:13.754,354.132,45.0917,0,0.000885,0,0
0:3:13.948,354.074,45.0848,0,0.000885,0,0
0:3:14.151,353.896,45.0572,0,0.000885,0,0
0:3:14.353,353.954,45.0641,0,0.000885,0,0
0:3:14.553,353.487,45.009,0,0.000885,0,0
0:3:14.752,352.548,44.8849,0,0.000885,0,0
0:3:14.954,351.788,44.7883,0,0.000885,0,0
0:3:15.155,349.79,44.5401,0,0.000885,0,0
0:3:15.356,348.443,44.3678,0,0.000885,0,0
0:3:15.555,344.688,43.8851,0,0.000885,0,0
0:3:15.755,341.815,43.5197,0,0.000885,0,0
0:3:15.956,332.371,42.32,0,0.000885,0,0
0:3:16.155,326.095,41.5202,0,0.000885,0,0
0:3:16.349,307.328,39.1277,0,0.000885,0,0
0:3:16.556,298.004,37.9418,0,0.000885,0,0
0:3:16.755,282.048,35.9148,0,0.000885,0,0
0:3:16.947,275.421,35.0667,0,0.000885,0,0
0:3:17.148,260.879,33.2189,0,0.000885,0,0
0:3:17.355,253.313,32.2537,0,0.000885,0,0
0:3:17.383,253.313,32.2537,0,0.000885,0,0