File: DataFile2021-06-06_074142.csv
Test ID:,Date Tested:,Time:,Test Type:,Diameter Avg. (mm):,Cyl. Corr. Factor:,Height (mm):,Age (days):,Weight (kN):,Break Type:,Ramp Rate (MPa/s):,Load at Break (kN):,Stress at Break (MPa):
12,6/6/2021,07:41,Cylinder,100,1,200,0,13.39,3,0.23,363.81,46.32
Sample Time,Load (kN),Stress (MPa),Long. Strain,Trans. Strain,Chan1 Deflection (mm),Chan2 Deflection (mm)
0:0:18.135,9.91064,1.26174,0,0.000885,0,0
0:0:18.333,17.1257,2.17874,0,0.000885,0,0
0:0:18.533,17.5972,2.2408,0,0.000885,0,0
0:0:18.731,18.0064,2.29595,0,0.000885,0,0
0:0:18.929,17.3614,2.21322,0,0.000885,0,0
0:0:19.128,17.3036,2.20632,0,0.000885,0,0
0:0:19.324,17.01,2.16495,0,0.000885,0,0
0:0:19.526,16.7742,2.13737,0,0.000885,0,0
0:0:19.722,16.6586,2.12359,0,0.000885,0,0
0:0:19.920,16.6586,2.12359,0,0.000885,0,0
0:0:20.120,16.1293,2.05464,0,0.000885,0,0
0:0:20.315,16.3027,2.07532,0,0.000885,0,0
0:0:20.517,16.1293,2.05464,0,0.000885,0,0
0:0:20.714,16.0136,2.04085,0,0.000885,0,0
0:0:20.910,16.0714,2.04774,0,0.000885,0,0
0:0:21.112,15.5999,1.98569,0,0.000885,0,0
0:0:21.306,15.8357,2.01327,0,0.000885,0,0
0:0:21.507,15.5421,1.9788,0,0.000885,0,0
0:0:21.707,15.8935,2.02706,0,0.000885,0,0
0:0:21.901,15.4843,1.9719,0,0.000885,0,0
0:0:22.103,15.8935,2.02706,0,0.000885,0,0
0:0:22.299,15.5421,1.9788,0,0.000885,0,0
0:0:22.498,15.5421,1.9788,0,0.000885,0,0
0:0:22.699,15.5999,1.98569,0,0.000885,0,0
0:0:22.894,15.5421,1.9788,0,0.000885,0,0
0:0:23.095,15.3686,1.95811,0,0.000885,0,0
0:0:23.301,15.6577,1.99258,0,0.000885,0,0
0:0:23.498,15.4843,1.9719,0,0.000885,0,0
0:0:23.700,15.72,1.99948,0,0.000885,0,0
0:0:23.901,16.2449,2.06843,0,0.000885,0,0
0:0:24.104,16.5963,2.11669,0,0.000885,0,0
0:0:24.307,16.7742,2.13737,0,0.000885,0,0
0:0:24.507,17.3036,2.20632,0,0.000885,0,0
0:0:24.708,17.5349,2.2339,0,0.000885,0,0
0:0:24.909,17.5972,2.2408,0,0.000885,0,0
0:0:25.109,17.8863,2.27527,0,0.000885,0,0
0:0:25.310,18.5357,2.35801,0,0.000885,0,0
0:0:25.508,19.1807,2.44074,0,0.000885,0,0
0:0:25.709,19.6478,2.5028,0,0.000885,0,0
0:0:25.906,19.8836,2.53038,0,0.000885,0,0
0:0:26.106,20.6442,2.6269,0,0.000885,0,0
0:0:26.306,21.2314,2.70274,0,0.000885,0,0
0:0:26.504,22.1121,2.81306,0,0.000885,0,0
0:0:26.705,22.5213,2.86822,0,0.000885,0,0
0:0:26.903,22.5213,2.86822,0,0.000885,0,0
0:0:27.102,22.9306,2.91648,0,0.000885,0,0
0:0:27.302,23.9893,3.05438,0,0.000885,0,0
0:0:27.498,24.2828,3.08885,0,0.000885,0,0
0:0:27.700,24.4563,3.11643,0,0.000885,0,0
0:0:27.897,24.4563,3.11643,0,0.000885,0,0
0:0:28.097,25.2214,3.21296,0,0.000885,0,0
0:0:28.298,25.1013,3.19917,0,0.000885,0,0
0:0:28.503,25.9821,3.30948,0,0.000885,0,0
0:0:28.704,25.9242,3.30259,0,0.000885,0,0
0:0:28.906,26.5114,3.37843,0,0.000885,0,0
0:0:29.109,26.6849,3.39912,0,0.000885,0,0
0:0:29.309,27.1564,3.45427,0,0.000885,0,0
0:0:29.511,27.3877,3.48875,0,0.000885,0,0
0:0:29.713,27.8592,3.54391,0,0.000885,0,0
0:0:29.911,28.0371,3.57148,0,0.000885,0,0
0:0:30.111,28.6199,3.64733,0,0.000885,0,0
0:0:30.311,28.9134,3.6818,0,0.000885,0,0
0:0:30.507,29.6163,3.77143,0,0.000885,0,0
0:0:30.709,30.1456,3.84038,0,0.000885,0,0
0:0:30.906,29.7364,3.78522,0,0.000885,0,0
0:0:31.106,30.2034,3.84727,0,0.000885,0,0
0:0:31.307,30.7906,3.92312,0,0.000885,0,0
0:0:31.502,31.3778,3.99206,0,0.000885,0,0
0:0:31.704,32.1384,4.09549,0,0.000885,0,0
0:0:31.902,32.5521,4.14375,0,0.000885,0,0
0:0:32.101,33.0191,4.2058,0,0.000885,0,0
0:0:32.303,33.2549,4.23338,0,0.000885,0,0
0:0:32.497,33.722,4.29543,0,0.000885,0,0
0:0:32.699,33.8999,4.31612,0,0.000885,0,0
0:0:32.896,34.2513,4.36438,0,0.000885,0,0
0:0:33.096,34.8385,4.43333,0,0.000885,0,0
0:0:33.298,34.9541,4.45401,0,0.000885,0,0
0:0:33.500,35.7192,4.55054,0,0.000885,0,0
0:0:33.703,35.4256,4.50917,0,0.000885,0,0
0:0:33.906,36.0706,4.59191,0,0.000885,0,0
0:0:34.107,36.5377,4.65396,0,0.000885,0,0
0:0:34.309,37.1249,4.7298,0,0.000885,0,0
0:0:34.510,36.8313,4.68843,0,0.000885,0,0
0:0:34.713,37.9478,4.83322,0,0.000885,0,0
0:0:34.912,38.357,4.88149,0,0.000885,0,0
0:0:35.109,39.2956,5.00559,0,0.000885,0,0
0:0:35.310,39.2378,4.9987,0,0.000885,0,0
0:0:35.507,39.5313,5.03317,0,0.000885,0,0
0:0:35.708,39.9984,5.09523,0,0.000885,0,0
0:0:35.908,40.1185,5.10902,0,0.000885,0,0
0:0:36.103,40.292,5.1297,0,0.000885,0,0
0:0:36.304,40.3498,5.13659,0,0.000885,0,0
0:0:36.502,40.8792,5.20554,0,0.000885,0,0
0:0:36.701,41.1149,5.23312,0,0.000885,0,0
0:0:36.903,41.8756,5.32965,0,0.000885,0,0
0:0:37.098,42.4049,5.39859,0,0.000885,0,0
0:0:37.300,42.872,5.46065,0,0.000885,0,0
0:0:37.499,43.1077,5.48823,0,0.000885,0,0
0:0:37.697,44.1619,5.62612,0,0.000885,0,0
0:0:37.899,44.2242,5.63302,0,0.000885,0,0
0:0:38.095,44.5178,5.66749,0,0.000885,0,0
0:0:38.295,44.927,5.72265,0,0.000885,0,0
0:0:38.497,45.5142,5.7916,0,0.000885,0,0
0:0:38.700,45.572,5.80539,0,0.000885,0,0
0:0:38.903,46.0391,5.86054,0,0.000885,0,0
0:0:39.104,46.3905,5.90881,0,0.000885,0,0
0:0:39.306,46.5106,5.9226,0,0.000885,0,0
0:0:39.508,46.8042,5.95707,0,0.000885,0,0
0:0:39.710,47.6227,6.06049,0,0.000885,0,0
0:0:39.911,47.8006,6.08807,0,0.000885,0,0
0:0:40.108,48.797,6.21218,0,0.000885,0,0
0:0:40.308,48.9126,6.22597,0,0.000885,0,0
0:0:40.508,49.0906,6.25354,0,0.000885,0,0
0:0:40.706,49.9135,6.35697,0,0.000885,0,0
0:0:40.907,49.8512,6.35007,0,0.000885,0,0
0:0:41.104,50.2649,6.39833,0,0.000885,0,0
0:0:41.303,50.8521,6.47418,0,0.000885,0,0
0:0:41.503,51.3191,6.53623,0,0.000885,0,0
0:0:41.700,51.377,6.54312,0,0.000885,0,0
0:0:41.902,52.1999,6.64655,0,0.000885,0,0
0:0:42.099,52.1999,6.64655,0,0.000885,0,0
0:0:42.300,52.6669,6.7086,0,0.000885,0,0
0:0:42.498,53.2541,6.77755,0,0.000885,0,0
0:0:42.696,53.1963,6.77065,0,0.000885,0,0
0:0:42.898,53.7256,6.8396,0,0.000885,0,0
0:0:43.095,54.4284,6.92923,0,0.000885,0,0
0:0:43.294,54.4284,6.92923,0,0.000885,0,0
0:0:43.496,55.1891,7.02576,0,0.000885,0,0
0:0:43.698,55.4248,7.06023,0,0.000885,0,0
0:0:43.901,55.8919,7.11539,0,0.000885,0,0
0:0:44.104,56.012,7.12918,0,0.000885,0,0
0:0:44.305,56.657,7.21192,0,0.000885,0,0
0:0:44.507,56.8305,7.2395,0,0.000885,0,0
0:0:44.708,57.5377,7.32913,0,0.000885,0,0
0:0:44.910,57.6534,7.34292,0,0.000885,0,0
0:0:45.110,58.0626,7.39118,0,0.000885,0,0
0:0:45.308,58.592,7.46013,0,0.000885,0,0
0:0:45.510,59.0012,7.51529,0,0.000885,0,0
0:0:45.705,59.059,7.52218,0,0.000885,0,0
0:0:45.907,59.5305,7.57734,0,0.000885,0,0
0:0:46.106,60.2334,7.66697,0,0.000885,0,0
0:0:46.303,60.527,7.70834,0,0.000885,0,0
0:0:46.506,61.1141,7.78418,0,0.000885,0,0
0:0:46.702,61.7013,7.85313,0,0.000885,0,0
0:0:46.903,61.9949,7.8945,0,0.000885,0,0
0:0:47.102,61.7013,7.85313,0,0.000885,0,0
0:0:47.298,62.4041,7.94276,0,0.000885,0,0
0:0:47.500,62.7555,7.99102,0,0.000885,0,0
0:0:47.696,63.4583,8.08066,0,0.000885,0,0
0:0:47.896,63.8097,8.12202,0,0.000885,0,0
0:0:48.098,64.1656,8.17029,0,0.000885,0,0
0:0:48.290,64.3969,8.19787,0,0.000885,0,0
0:0:48.495,64.3391,8.19097,0,0.000885,0,0
0:0:48.695,65.162,8.29439,0,0.000885,0,0
0:0:48.900,65.6291,8.35645,0,0.000885,0,0
0:0:49.102,65.7492,8.37024,0,0.000885,0,0
0:0:49.304,65.9226,8.39092,0,0.000885,0,0
0:0:49.506,66.5676,8.47366,0,0.000885,0,0
0:0:49.707,67.097,8.5426,0,0.000885,0,0
0:0:49.910,67.742,8.62534,0,0.000885,0,0
0:0:50.112,68.1512,8.6805,0,0.000885,0,0
0:0:50.307,68.9741,8.78392,0,0.000885,0,0
0:0:50.509,68.854,8.77013,0,0.000885,0,0
0:0:50.706,68.854,8.77013,0,0.000885,0,0
0:0:50.904,69.4412,8.83908,0,0.000885,0,0
0:0:51.106,69.9705,8.90803,0,0.000885,0,0
0:0:51.303,70.2063,8.93561,0,0.000885,0,0
0:0:51.503,70.7312,9.00455,0,0.000885,0,0
0:0:51.703,70.789,9.01145,0,0.000885,0,0
0:0:51.899,71.7898,9.14245,0,0.000885,0,0
0:0:52.102,71.9055,9.15624,0,0.000885,0,0
0:0:52.299,72.4348,9.22519,0,0.000885,0,0
0:0:52.498,72.6083,9.24587,0,0.000885,0,0
0:0:52.700,73.3111,9.3355,0,0.000885,0,0
0:0:52.894,73.3111,9.3355,0,0.000885,0,0
0:0:53.096,73.8983,9.41134,0,0.000885,0,0
0:0:53.296,74.5433,9.49408,0,0.000885,0,0
0:0:53.503,74.957,9.54234,0,0.000885,0,0
0:0:53.704,74.957,9.54234,0,0.000885,0,0
0:0:53.907,75.8333,9.65266,0,0.000885,0,0
0:0:54.110,74.957,9.54234,0,0.000885,0,0
0:0:54.310,75.6598,9.63198,0,0.000885,0,0
0:0:54.512,76.0112,9.68024,0,0.000885,0,0
0:0:54.713,76.892,9.79056,0,0.000885,0,0
0:0:54.914,76.8341,9.78366,0,0.000885,0,0
0:0:55.116,77.4168,9.8595,0,0.000885,0,0
0:0:55.314,78.4177,9.98361,0,0.000885,0,0
0:0:55.512,78.1241,9.94913,0,0.000885,0,0
0:0:55.714,79.0004,10.0595,0,0.000885,0,0
0:0:55.910,79.7077,10.1491,0,0.000885,0,0
0:0:56.110,79.8812,10.1698,0,0.000885,0,0
0:0:56.310,80.0591,10.1905,0,0.000885,0,0
0:0:56.506,80.6463,10.2663,0,0.000885,0,0
0:0:56.709,80.8776,10.3008,0,0.000885,0,0
0:0:56.907,81.4069,10.3628,0,0.000885,0,0
0:0:57.105,81.9941,10.4387,0,0.000885,0,0
0:0:57.307,82.5234,10.5076,0,0.000885,0,0
0:0:57.502,82.3455,10.4869,0,0.000885,0,0
0:0:57.703,82.9905,10.5697,0,0.000885,0,0
0:0:57.903,83.2262,10.5972,0,0.000885,0,0
0:0:58.099,84.107,10.7076,0,0.000885,0,0
0:0:58.301,83.6933,10.6593,0,0.000885,0,0
0:0:58.503,84.8676,10.8041,0,0.000885,0,0
0:0:58.705,84.8098,10.7972,0,0.000885,0,0
0:0:58.908,84.8676,10.8041,0,0.000885,0,0
0:0:59.110,85.1612,10.8455,0,0.000885,0,0
0:0:59.310,85.8062,10.9282,0,0.000885,0,0
0:0:59.513,86.2154,10.9765,0,0.000885,0,0
0:0:59.714,86.5668,11.0247,0,0.000885,0,0
0:0:59.917,87.154,11.0937,0,0.000885,0,0
0:1:0.112,87.7412,11.1695,0,0.000885,0,0
0:1:0.313,88.5641,11.2729,0,0.000885,0,0
0:1:0.511,88.3862,11.2522,0,0.000885,0,0
0:1:0.710,88.7376,11.3005,0,0.000885,0,0
0:1:0.911,89.5605,11.4039,0,0.000885,0,0
0:1:1.107,89.8541,11.4384,0,0.000885,0,0
0:1:1.309,89.5605,11.4039,0,0.000885,0,0
0:1:1.508,90.4991,11.5211,0,0.000885,0,0
0:1:1.703,90.4991,11.5211,0,0.000885,0,0
0:1:1.906,91.3175,11.6246,0,0.000885,0,0
0:1:2.103,91.3754,11.6315,0,0.000885,0,0
0:1:2.303,92.1405,11.7349,0,0.000885,0,0
0:1:2.502,92.1983,11.7418,0,0.000885,0,0
0:1:2.697,92.4919,11.7762,0,0.000885,0,0
0:1:2.900,93.1369,11.859,0,0.000885,0,0
0:1:3.097,92.9011,11.8314,0,0.000885,0,0
0:1:3.305,94.2534,12.0038,0,0.000885,0,0
0:1:3.506,94.8361,12.0727,0,0.000885,0,0
0:1:3.708,94.5425,12.0382,0,0.000885,0,0
0:1:3.912,94.6048,12.0451,0,0.000885,0,0
0:1:4.114,95.4811,12.1555,0,0.000885,0,0
0:1:4.315,96.0104,12.2244,0,0.000885,0,0
0:1:4.516,96.2462,12.252,0,0.000885,0,0
0:1:4.718,96.1261,12.2382,0,0.000885,0,0
0:1:4.920,96.4819,12.2865,0,0.000885,0,0
0:1:5.118,96.8333,12.3278,0,0.000885,0,0
0:1:5.316,97.1847,12.3761,0,0.000885,0,0
0:1:5.518,98.239,12.5071,0,0.000885,0,0
0:1:5.713,98.884,12.5898,0,0.000885,0,0
0:1:5.914,99.7647,12.7001,0,0.000885,0,0
0:1:6.115,99.6491,12.6864,0,0.000885,0,0
0:1:6.310,99.8804,12.7139,0,0.000885,0,0
0:1:6.512,100.761,12.8311,0,0.000885,0,0
0:1:6.709,100.525,12.7967,0,0.000885,0,0
0:1:6.907,100.877,12.8449,0,0.000885,0,0
0:1:7.108,100.761,12.8311,0,0.000885,0,0
0:1:7.304,101.7,12.9484,0,0.000885,0,0
0:1:7.506,102.171,13.0104,0,0.000885,0,0
0:1:7.703,101.878,12.969,0,0.000885,0,0
0:1:7.901,102.874,13.1,0,0.000885,0,0
0:1:8.102,102.874,13.1,0,0.000885,0,0
0:1:8.298,103.461,13.1759,0,0.000885,0,0
0:1:8.499,103.577,13.1897,0,0.000885,0,0
0:1:8.701,104.573,13.3138,0,0.000885,0,0
0:1:8.904,104.28,13.2793,0,0.000885,0,0
0:1:9.107,105.512,13.431,0,0.000885,0,0
0:1:9.308,105.748,13.4655,0,0.000885,0,0
0:1:9.510,106.508,13.562,0,0.000885,0,0
0:1:9.712,106.628,13.5758,0,0.000885,0,0
0:1:9.914,106.922,13.6103,0,0.000885,0,0
0:1:10.115,107.567,13.693,0,0.000885,0,0
0:1:10.314,108.212,13.7757,0,0.000885,0,0
0:1:10.513,108.328,13.7895,0,0.000885,0,0
0:1:10.713,108.621,13.8309,0,0.000885,0,0
0:1:10.908,108.563,13.824,0,0.000885,0,0
0:1:11.109,108.737,13.8447,0,0.000885,0,0
0:1:11.306,108.737,13.8447,0,0.000885,0,0
0:1:11.505,109.266,13.9136,0,0.000885,0,0
0:1:11.707,110.147,14.0239,0,0.000885,0,0
0:1:11.902,110.614,14.086,0,0.000885,0,0
0:1:12.103,111.317,14.1756,0,0.000885,0,0
0:1:12.300,111.023,14.1343,0,0.000885,0,0
0:1:12.499,112.607,14.3411,0,0.000885,0,0
0:1:12.700,112.433,14.3135,0,0.000885,0,0
0:1:12.897,112.785,14.3618,0,0.000885,0,0
0:1:13.096,113.781,14.4859,0,0.000885,0,0
0:1:13.298,114.19,14.541,0,0.000885,0,0
0:1:13.500,114.075,14.5273,0,0.000885,0,0
0:1:13.703,114.898,14.6307,0,0.000885,0,0
0:1:13.906,113.839,14.4928,0,0.000885,0,0
0:1:14.108,115.422,14.6996,0,0.000885,0,0
0:1:14.310,115.543,14.7134,0,0.000885,0,0
0:1:14.510,115.6,14.7203,0,0.000885,0,0
0:1:14.712,116.245,14.803,0,0.000885,0,0
0:1:14.913,116.89,14.8858,0,0.000885,0,0
0:1:15.109,117.887,15.0099,0,0.000885,0,0
0:1:15.311,117.945,15.0168,0,0.000885,0,0
0:1:15.505,117.713,14.9892,0,0.000885,0,0
0:1:15.707,118.59,15.0995,0,0.000885,0,0
0:1:15.907,118.474,15.0857,0,0.000885,0,0
0:1:16.102,118.532,15.0926,0,0.000885,0,0
0:1:16.304,118.825,15.1271,0,0.000885,0,0
0:1:16.499,119.528,15.2167,0,0.000885,0,0
0:1:16.699,119.942,15.2719,0,0.000885,0,0
0:1:16.901,120.645,15.3615,0,0.000885,0,0
0:1:17.093,121.174,15.4305,0,0.000885,0,0
0:1:17.297,121.405,15.458,0,0.000885,0,0
0:1:17.504,121.819,15.5132,0,0.000885,0,0
0:1:17.702,122.344,15.5753,0,0.000885,0,0
0:1:17.905,123.167,15.6787,0,0.000885,0,0
0:1:18.099,123.225,15.6925,0,0.000885,0,0
0:1:18.302,123.34,15.7063,0,0.000885,0,0
0:1:18.503,123.927,15.7821,0,0.000885,0,0
0:1:18.706,123.225,15.6925,0,0.000885,0,0
0:1:18.908,124.105,15.8028,0,0.000885,0,0
0:1:19.111,124.866,15.8993,0,0.000885,0,0
0:1:19.311,124.986,15.9131,0,0.000885,0,0
0:1:19.513,126.04,16.051,0,0.000885,0,0
0:1:19.713,126.04,16.051,0,0.000885,0,0
0:1:19.916,125.689,16.0027,0,0.000885,0,0
0:1:20.113,126.276,16.0786,0,0.000885,0,0
0:1:20.312,126.921,16.1613,0,0.000885,0,0
0:1:20.513,127.508,16.2372,0,0.000885,0,0
0:1:20.709,128.62,16.375,0,0.000885,0,0
0:1:20.909,128.678,16.3819,0,0.000885,0,0
0:1:21.108,129.15,16.444,0,0.000885,0,0
0:1:21.307,129.15,16.444,0,0.000885,0,0
0:1:21.507,129.737,16.5198,0,0.000885,0,0
0:1:21.702,130.497,16.6164,0,0.000885,0,0
0:1:21.903,130.204,16.575,0,0.000885,0,0
0:1:22.102,130.613,16.6302,0,0.000885,0,0
0:1:22.299,130.555,16.6233,0,0.000885,0,0
0:1:22.500,131.494,16.7405,0,0.000885,0,0
0:1:22.694,131.845,16.7887,0,0.000885,0,0
0:1:22.894,132.432,16.8646,0,0.000885,0,0
0:1:23.094,132.842,16.9128,0,0.000885,0,0
0:1:23.291,133.135,16.9542,0,0.000885,0,0
0:1:23.494,133.607,17.0094,0,0.000885,0,0
0:1:23.697,133.958,17.0576,0,0.000885,0,0
0:1:23.901,133.9,17.0507,0,0.000885,0,0
0:1:24.103,134.897,17.1748,0,0.000885,0,0
0:1:24.305,135.364,17.2369,0,0.000885,0,0
0:1:24.507,135.893,17.3058,0,0.000885,0,0
0:1:24.707,135.657,17.2714,0,0.000885,0,0
0:1:24.910,136.654,17.4024,0,0.000885,0,0
0:1:25.110,137.01,17.4437,0,0.000885,0,0
0:1:25.306,137.886,17.5541,0,0.000885,0,0
0:1:25.508,138.122,17.5885,0,0.000885,0,0
0:1:25.706,137.944,17.5609,0,0.000885,0,0
0:1:25.903,138.064,17.5816,0,0.000885,0,0
0:1:26.105,137.944,17.5609,0,0.000885,0,0
0:1:26.300,138.473,17.6299,0,0.000885,0,0
0:1:26.502,139.527,17.7678,0,0.000885,0,0
0:1:26.699,139.47,17.7609,0,0.000885,0,0
0:1:26.893,140.177,17.8505,0,0.000885,0,0
0:1:27.098,140.937,17.9471,0,0.000885,0,0
0:1:27.292,141.111,17.9677,0,0.000885,0,0
0:1:27.504,141.76,18.0505,0,0.000885,0,0
0:1:27.704,141.818,18.0574,0,0.000885,0,0
0:1:27.902,143.166,18.2297,0,0.000885,0,0
0:1:28.102,143.224,18.2366,0,0.000885,0,0
0:1:28.298,142.872,18.1884,0,0.000885,0,0
0:1:28.499,143.166,18.2297,0,0.000885,0,0
0:1:28.701,143.224,18.2366,0,0.000885,0,0
0:1:28.904,143.753,18.3056,0,0.000885,0,0
0:1:29.107,144.22,18.3607,0,0.000885,0,0
0:1:29.309,144.278,18.3676,0,0.000885,0,0
0:1:29.511,145.043,18.4642,0,0.000885,0,0
0:1:29.711,145.982,18.5883,0,0.000885,0,0
0:1:29.912,146.333,18.6296,0,0.000885,0,0
0:1:30.114,146.627,18.671,0,0.000885,0,0
0:1:30.312,147.507,18.7813,0,0.000885,0,0
0:1:30.510,147.507,18.7813,0,0.000885,0,0
0:1:30.712,147.975,18.8434,0,0.000885,0,0
0:1:30.906,147.739,18.8089,0,0.000885,0,0
0:1:31.109,148.326,18.8847,0,0.000885,0,0
0:1:31.306,149.029,18.9744,0,0.000885,0,0
0:1:31.504,149.736,19.064,0,0.000885,0,0
0:1:31.706,149.616,19.0502,0,0.000885,0,0
0:1:31.902,150.323,19.1398,0,0.000885,0,0
0:1:32.103,151.435,19.2846,0,0.000885,0,0
0:1:32.301,151.084,19.2364,0,0.000885,0,0
0:1:32.498,151.142,19.2433,0,0.000885,0,0
0:1:32.700,151.435,19.2846,0,0.000885,0,0
0:1:32.905,152.138,19.3743,0,0.000885,0,0
0:1:33.107,152.316,19.395,0,0.000885,0,0
0:1:33.304,152.316,19.395,0,0.000885,0,0
0:1:33.502,153.134,19.4984,0,0.000885,0,0
0:1:33.704,153.606,19.5604,0,0.000885,0,0
0:1:33.906,154.073,19.6156,0,0.000885,0,0
0:1:34.108,154.073,19.6156,0,0.000885,0,0
0:1:34.311,154.251,19.6432,0,0.000885,0,0
0:1:34.513,154.954,19.7328,0,0.000885,0,0
0:1:34.715,155.483,19.7948,0,0.000885,0,0
0:1:34.916,156.364,19.9121,0,0.000885,0,0
0:1:35.118,156.012,19.8638,0,0.000885,0,0
0:1:35.319,156.773,19.9603,0,0.000885,0,0
0:1:35.515,157.596,20.0637,0,0.000885,0,0
0:1:35.717,158.005,20.1189,0,0.000885,0,0
0:1:35.915,157.476,20.05,0,0.000885,0,0
0:1:36.114,158.415,20.1672,0,0.000885,0,0
0:1:36.314,158.824,20.2223,0,0.000885,0,0
0:1:36.508,159.06,20.2499,0,0.000885,0,0
0:1:36.710,159.411,20.2982,0,0.000885,0,0
0:1:36.908,159.589,20.3188,0,0.000885,0,0
0:1:37.109,160.349,20.4154,0,0.000885,0,0
0:1:37.308,160.763,20.4705,0,0.000885,0,0
0:1:37.505,161.582,20.574,0,0.000885,0,0
0:1:37.706,161.466,20.5602,0,0.000885,0,0
0:1:37.904,162.169,20.6498,0,0.000885,0,0
0:1:38.103,161.991,20.6222,0,0.000885,0,0
0:1:38.306,161.933,20.6153,0,0.000885,0,0
0:1:38.509,162.992,20.7532,0,0.000885,0,0
0:1:38.710,163.517,20.8222,0,0.000885,0,0
0:1:38.913,163.343,20.7946,0,0.000885,0,0
0:1:39.115,164.046,20.8842,0,0.000885,0,0
0:1:39.315,164.927,21.0014,0,0.000885,0,0
0:1:39.518,165.22,21.0359,0,0.000885,0,0
0:1:39.719,165.1,21.0221,0,0.000885,0,0
0:1:39.917,165.63,21.0911,0,0.000885,0,0
0:1:40.116,166.684,21.2221,0,0.000885,0,0
0:1:40.317,166.92,21.2496,0,0.000885,0,0
0:1:40.512,167.097,21.2772,0,0.000885,0,0
0:1:40.714,167.858,21.3737,0,0.000885,0,0
0:1:40.913,168.267,21.422,0,0.000885,0,0
0:1:41.110,167.858,21.3737,0,0.000885,0,0
0:1:41.310,168.445,21.4496,0,0.000885,0,0
0:1:41.507,168.97,21.5116,0,0.000885,0,0
0:1:41.708,169.442,21.5737,0,0.000885,0,0
0:1:41.906,169.384,21.5668,0,0.000885,0,0
0:1:42.103,169.793,21.622,0,0.000885,0,0
0:1:42.305,170.202,21.6702,0,0.000885,0,0
0:1:42.502,170.789,21.7461,0,0.000885,0,0
0:1:42.700,171.199,21.8012,0,0.000885,0,0
0:1:42.900,171.492,21.8357,0,0.000885,0,0
0:1:43.094,170.91,21.7599,0,0.000885,0,0
0:1:43.296,172.022,21.9046,0,0.000885,0,0
0:1:43.501,172.902,22.015,0,0.000885,0,0
0:1:43.705,173.432,22.0839,0,0.000885,0,0
0:1:43.907,173.49,22.0908,0,0.000885,0,0
0:1:44.109,173.783,22.1253,0,0.000885,0,0
0:1:44.311,174.78,22.2563,0,0.000885,0,0
0:1:44.511,175.131,22.2976,0,0.000885,0,0
0:1:44.712,174.895,22.2701,0,0.000885,0,0
0:1:44.914,175.598,22.3597,0,0.000885,0,0
0:1:45.109,176.363,22.4562,0,0.000885,0,0
0:1:45.310,177.182,22.5596,0,0.000885,0,0
0:1:45.508,177.182,22.5596,0,0.000885,0,0
0:1:45.706,177.653,22.6217,0,0.000885,0,0
0:1:45.908,177.008,22.539,0,0.000885,0,0
0:1:46.103,177.889,22.6493,0,0.000885,0,0
0:1:46.305,178.649,22.7458,0,0.000885,0,0
0:1:46.501,178.592,22.7389,0,0.000885,0,0
0:1:46.701,179.237,22.8216,0,0.000885,0,0
0:1:46.902,179.117,22.8079,0,0.000885,0,0
0:1:47.094,179.294,22.8285,0,0.000885,0,0
0:1:47.295,179.997,22.9182,0,0.000885,0,0
0:1:47.494,180.527,22.9871,0,0.000885,0,0
0:1:47.692,180.642,23.0009,0,0.000885,0,0
0:1:47.894,181.172,23.0699,0,0.000885,0,0
0:1:48.102,182.052,23.1802,0,0.000885,0,0
0:1:48.303,182.284,23.2078,0,0.000885,0,0
0:1:48.504,182.462,23.2284,0,0.000885,0,0
0:1:48.708,183.164,23.3181,0,0.000885,0,0
0:1:48.910,183.752,23.3939,0,0.000885,0,0
0:1:49.113,184.281,23.4629,0,0.000885,0,0
0:1:49.314,183.867,23.4077,0,0.000885,0,0
0:1:49.514,184.69,23.518,0,0.000885,0,0
0:1:49.716,184.926,23.5456,0,0.000885,0,0
0:1:49.918,185.042,23.5594,0,0.000885,0,0
0:1:50.115,185.571,23.6283,0,0.000885,0,0
0:1:50.315,186.509,23.7455,0,0.000885,0,0
0:1:50.514,186.452,23.7386,0,0.000885,0,0
0:1:50.710,187.212,23.8352,0,0.000885,0,0
0:1:50.912,188.502,24.0007,0,0.000885,0,0
0:1:51.108,188.093,23.9455,0,0.000885,0,0
0:1:51.308,188.093,23.9455,0,0.000885,0,0
0:1:51.508,188.329,23.98,0,0.000885,0,0
0:1:51.702,188.974,24.0627,0,0.000885,0,0
0:1:51.904,189.441,24.1179,0,0.000885,0,0
0:1:52.102,189.205,24.0903,0,0.000885,0,0
0:1:52.297,189.85,24.173,0,0.000885,0,0
0:1:52.502,190.322,24.2351,0,0.000885,0,0
0:1:52.694,190.379,24.242,0,0.000885,0,0
0:1:52.895,191.202,24.3454,0,0.000885,0,0
0:1:53.096,191.785,24.4212,0,0.000885,0,0
0:1:53.291,192.021,24.4488,0,0.000885,0,0
0:1:53.494,192.257,24.4764,0,0.000885,0,0
0:1:53.696,192.314,24.4833,0,0.000885,0,0
0:1:53.902,192.492,24.5109,0,0.000885,0,0
0:1:54.103,193.253,24.6074,0,0.000885,0,0
0:1:54.304,193.84,24.6832,0,0.000885,0,0
0:1:54.503,194.543,24.7729,0,0.000885,0,0
0:1:54.703,195.246,24.8625,0,0.000885,0,0
0:1:54.904,195.072,24.8349,0,0.000885,0,0
0:1:55.103,195.539,24.897,0,0.000885,0,0
0:1:55.296,196.478,25.0142,0,0.000885,0,0
0:1:55.497,196.829,25.0624,0,0.000885,0,0
0:1:55.704,196.656,25.0418,0,0.000885,0,0
0:1:55.908,197.474,25.1452,0,0.000885,0,0
0:1:56.109,197.946,25.2003,0,0.000885,0,0
0:1:56.304,198.413,25.2624,0,0.000885,0,0
0:1:56.503,198.942,25.3313,0,0.000885,0,0
0:1:56.701,199.703,25.4279,0,0.000885,0,0
0:1:56.893,199.058,25.3451,0,0.000885,0,0
0:1:57.093,199.703,25.4279,0,0.000885,0,0
0:1:57.290,199.881,25.4485,0,0.000885,0,0
0:1:57.487,200.468,25.5244,0,0.000885,0,0
0:1:57.687,201.171,25.614,0,0.000885,0,0
0:1:57.889,200.232,25.4968,0,0.000885,0,0
0:1:58.088,201.464,25.6485,0,0.000885,0,0
0:1:58.286,202.287,25.7588,0,0.000885,0,0
0:1:58.483,201.994,25.7174,0,0.000885,0,0
0:1:58.683,202.697,25.8071,0,0.000885,0,0
0:1:58.884,202.639,25.8002,0,0.000885,0,0
0:1:59.087,202.812,25.8209,0,0.000885,0,0
0:1:59.289,203.693,25.9381,0,0.000885,0,0
0:1:59.489,203.693,25.9381,0,0.000885,0,0
0:1:59.688,204.044,25.9794,0,0.000885,0,0
0:1:59.888,204.747,26.0691,0,0.000885,0,0
0:2:0.088,205.277,26.138,0,0.000885,0,0
0:2:0.286,205.219,26.1311,0,0.000885,0,0
0:2:0.489,205.922,26.2208,0,0.000885,0,0
0:2:0.690,206.273,26.2621,0,0.000885,0,0
0:2:0.887,206.86,26.338,0,0.000885,0,0
0:2:1.083,207.447,26.4138,0,0.000885,0,0
0:2:1.283,207.977,26.4828,0,0.000885,0,0
0:2:1.486,207.977,26.4828,0,0.000885,0,0
0:2:1.687,208.679,26.5724,0,0.000885,0,0
0:2:1.885,209.146,26.6276,0,0.000885,0,0
0:2:2.089,209.849,26.7172,0,0.000885,0,0
0:2:2.289,209.734,26.7034,0,0.000885,0,0
0:2:2.484,210.614,26.8137,0,0.000885,0,0
0:2:2.684,211.081,26.8758,0,0.000885,0,0
0:2:2.881,210.557,26.8068,0,0.000885,0,0
0:2:3.076,211.317,26.9033,0,0.000885,0,0
0:2:3.276,211.962,26.9861,0,0.000885,0,0
0:2:3.478,212.082,26.9999,0,0.000885,0,0
0:2:3.678,212.959,27.1171,0,0.000885,0,0
0:2:3.879,212.785,27.0895,0,0.000885,0,0
0:2:4.079,212.959,27.1171,0,0.000885,0,0
0:2:4.280,214.542,27.317,0,0.000885,0,0
0:2:4.478,213.897,27.2343,0,0.000885,0,0
0:2:4.679,213.666,27.2067,0,0.000885,0,0
0:2:4.879,213.955,27.2412,0,0.000885,0,0
0:2:5.083,214.836,27.3515,0,0.000885,0,0
0:2:5.284,215.365,27.4204,0,0.000885,0,0
0:2:5.489,216.246,27.5308,0,0.000885,0,0
0:2:5.695,216.068,27.5101,0,0.000885,0,0
0:2:5.896,216.655,27.5859,0,0.000885,0,0
0:2:6.101,217.122,27.648,0,0.000885,0,0
0:2:6.298,218.003,27.7583,0,0.000885,0,0
0:2:6.495,217.829,27.7376,0,0.000885,0,0
0:2:6.690,218.181,27.779,0,0.000885,0,0
0:2:6.890,218.003,27.7583,0,0.000885,0,0
0:2:7.086,218.706,27.8479,0,0.000885,0,0
0:2:7.284,219.351,27.9307,0,0.000885,0,0
0:2:7.484,220.352,28.0548,0,0.000885,0,0
0:2:7.687,220.645,28.0961,0,0.000885,0,0
0:2:7.888,220.876,28.1237,0,0.000885,0,0
0:2:8.085,221.228,28.1651,0,0.000885,0,0
0:2:8.290,221.054,28.1444,0,0.000885,0,0
0:2:8.490,221.584,28.2133,0,0.000885,0,0
0:2:8.691,222.58,28.3375,0,0.000885,0,0
0:2:8.893,223.047,28.3995,0,0.000885,0,0
0:2:9.094,223.225,28.4202,0,0.000885,0,0
0:2:9.293,223.283,28.4271,0,0.000885,0,0
0:2:9.493,223.75,28.4891,0,0.000885,0,0
0:2:9.694,224.457,28.5788,0,0.000885,0,0
0:2:9.893,224.222,28.5512,0,0.000885,0,0
0:2:10.092,224.689,28.6063,0,0.000885,0,0
0:2:10.286,225.16,28.6684,0,0.000885,0,0
0:2:10.487,225.979,28.7718,0,0.000885,0,0
0:2:10.692,226.156,28.7925,0,0.000885,0,0
0:2:10.891,226.686,28.8615,0,0.000885,0,0
0:2:11.091,227.037,28.9097,0,0.000885,0,0
0:2:11.285,227.504,28.9649,0,0.000885,0,0
0:2:11.487,228.149,29.0476,0,0.000885,0,0
0:2:11.691,228.794,29.1303,0,0.000885,0,0
0:2:11.896,228.501,29.0959,0,0.000885,0,0
0:2:12.097,228.794,29.1303,0,0.000885,0,0
0:2:12.303,229.791,29.2613,0,0.000885,0,0
0:2:12.503,229.853,29.2682,0,0.000885,0,0
0:2:12.708,229.733,29.2476,0,0.000885,0,0
0:2:12.906,230.436,29.3372,0,0.000885,0,0
0:2:13.106,230.378,29.3303,0,0.000885,0,0
0:2:13.299,230.965,29.4061,0,0.000885,0,0
0:2:13.499,231.374,29.4613,0,0.000885,0,0
0:2:13.699,232.082,29.5509,0,0.000885,0,0
0:2:13.903,232.669,29.6268,0,0.000885,0,0
0:2:14.104,232.727,29.6337,0,0.000885,0,0
0:2:14.305,233.723,29.7578,0,0.000885,0,0
0:2:14.505,234.19,29.8198,0,0.000885,0,0
0:2:14.705,234.426,29.8474,0,0.000885,0,0
0:2:14.904,234.777,29.8957,0,0.000885,0,0
0:2:15.105,234.955,29.9164,0,0.000885,0,0
0:2:15.298,234.426,29.8474,0,0.000885,0,0
0:2:15.496,235.542,29.9922,0,0.000885,0,0
0:2:15.697,236.125,30.068,0,0.000885,0,0
0:2:15.890,236.481,30.1094,0,0.000885,0,0
0:2:16.090,236.419,30.1025,0,0.000885,0,0
0:2:16.296,237.006,30.1784,0,0.000885,0,0
0:2:16.494,237.593,30.2542,0,0.000885,0,0
0:2:16.694,238.002,30.3025,0,0.000885,0,0
0:2:16.897,237.829,30.2818,0,0.000885,0,0
0:2:17.097,238.825,30.4059,0,0.000885,0,0
0:2:17.294,239.586,30.5024,0,0.000885,0,0
0:2:17.499,239.879,30.5438,0,0.000885,0,0
0:2:17.699,239.528,30.4955,0,0.000885,0,0
0:2:17.893,240.409,30.6127,0,0.000885,0,0
0:2:18.092,240.938,30.6748,0,0.000885,0,0
0:2:18.290,240.876,30.6679,0,0.000885,0,0
0:2:18.494,241.641,30.7644,0,0.000885,0,0
0:2:18.695,242.521,30.8816,0,0.000885,0,0
0:2:18.895,241.699,30.7713,0,0.000885,0,0
0:2:19.096,242.228,30.8402,0,0.000885,0,0
0:2:19.297,243.046,30.9437,0,0.000885,0,0
0:2:19.498,242.989,30.9368,0,0.000885,0,0
0:2:19.698,243.518,31.0057,0,0.000885,0,0
0:2:19.898,243.985,31.0678,0,0.000885,0,0
0:2:20.099,244.514,31.1298,0,0.000885,0,0
0:2:20.298,244.456,31.1229,0,0.000885,0,0
0:2:20.503,245.511,31.2608,0,0.000885,0,0
0:2:20.703,246.214,31.3505,0,0.000885,0,0
0:2:20.900,246.685,31.4056,0,0.000885,0,0
0:2:21.105,246.565,31.3918,0,0.000885,0,0
0:2:21.306,247.094,31.4608,0,0.000885,0,0
0:2:21.498,247.388,31.4953,0,0.000885,0,0
0:2:21.697,247.681,31.5366,0,0.000885,0,0
0:2:21.896,247.624,31.5297,0,0.000885,0,0
0:2:22.090,248.269,31.6125,0,0.000885,0,0
0:2:22.290,249.323,31.7435,0,0.000885,0,0
0:2:22.494,248.793,31.6745,0,0.000885,0,0
0:2:22.700,249.852,31.8124,0,0.000885,0,0
0:2:22.903,250.671,31.9158,0,0.000885,0,0
0:2:23.096,250.733,31.9227,0,0.000885,0,0
0:2:23.295,251.2,31.9848,0,0.000885,0,0
0:2:23.496,251.609,32.033,0,0.000885,0,0
0:2:23.698,251.609,32.033,0,0.000885,0,0
0:2:23.899,252.081,32.0951,0,0.000885,0,0
0:2:24.099,252.548,32.1571,0,0.000885,0,0
0:2:24.299,252.899,32.1985,0,0.000885,0,0
0:2:24.499,253.019,32.2123,0,0.000885,0,0
0:2:24.699,254.016,32.3433,0,0.000885,0,0
0:2:24.899,254.251,32.3709,0,0.000885,0,0
0:2:25.094,254.834,32.4467,0,0.000885,0,0
0:2:25.293,255.248,32.5019,0,0.000885,0,0
0:2:25.493,255.421,32.5226,0,0.000885,0,0
0:2:25.695,255.248,32.5019,0,0.000885,0,0
0:2:25.897,255.893,32.5846,0,0.000885,0,0
0:2:26.094,256.596,32.6674,0,0.000885,0,0
0:2:26.299,256.596,32.6674,0,0.000885,0,0
0:2:26.499,256.653,32.6811,0,0.000885,0,0
0:2:26.704,257.476,32.7846,0,0.000885,0,0
0:2:26.901,258.295,32.888,0,0.000885,0,0
0:2:27.099,258.709,32.9363,0,0.000885,0,0
0:2:27.295,258.94,32.9707,0,0.000885,0,0
0:2:27.495,259.176,32.9983,0,0.000885,0,0
0:2:27.699,259.941,33.0948,0,0.000885,0,0
0:2:27.898,260.056,33.1086,0,0.000885,0,0
0:2:28.097,260.114,33.1155,0,0.000885,0,0
0:2:28.291,260.817,33.2052,0,0.000885,0,0
0:2:28.491,261.524,33.2948,0,0.000885,0,0
0:2:28.692,261.168,33.2534,0,0.000885,0,0
0:2:28.896,261.818,33.3362,0,0.000885,0,0
0:2:29.095,262.752,33.4534,0,0.000885,0,0
0:2:29.297,263.046,33.4947,0,0.000885,0,0
0:2:29.497,262.872,33.4672,0,0.000885,0,0
0:2:29.697,262.814,33.4603,0,0.000885,0,0
0:2:29.896,263.811,33.5913,0,0.000885,0,0
0:2:30.095,264.513,33.6809,0,0.000885,0,0
0:2:30.289,264.336,33.6533,0,0.000885,0,0
0:2:30.489,264.865,33.7223,0,0.000885,0,0
0:2:30.686,265.336,33.7843,0,0.000885,0,0
0:2:30.880,265.274,33.7774,0,0.000885,0,0
0:2:31.081,266.213,33.8946,0,0.000885,0,0
0:2:31.295,266.978,33.9912,0,0.000885,0,0
0:2:31.495,266.92,33.9843,0,0.000885,0,0
0:2:31.701,267.503,34.0601,0,0.000885,0,0
0:2:31.908,268.326,34.1635,0,0.000885,0,0
0:2:32.108,268.561,34.1911,0,0.000885,0,0
0:2:32.312,267.916,34.1153,0,0.000885,0,0
0:2:32.511,268.797,34.2256,0,0.000885,0,0
0:2:32.709,269.794,34.3497,0,0.000885,0,0
0:2:32.901,269.442,34.3083,0,0.000885,0,0
0:2:33.104,270.203,34.4048,0,0.000885,0,0
0:2:33.297,270.612,34.4531,0,0.000885,0,0
0:2:33.495,270.906,34.4945,0,0.000885,0,0
0:2:33.696,271.141,34.522,0,0.000885,0,0
0:2:33.898,272.138,34.6531,0,0.000885,0,0
0:2:34.099,272.196,34.6599,0,0.000885,0,0
0:2:34.299,272.431,34.6875,0,0.000885,0,0
0:2:34.500,273.018,34.7634,0,0.000885,0,0
0:2:34.698,273.548,34.8323,0,0.000885,0,0
0:2:34.898,273.428,34.8116,0,0.000885,0,0
0:2:35.098,274.073,34.8944,0,0.000885,0,0
0:2:35.296,274.718,34.9771,0,0.000885,0,0
0:2:35.500,274.953,35.0116,0,0.000885,0,0
0:2:35.700,275.131,35.0323,0,0.000885,0,0
0:2:35.895,275.598,35.0874,0,0.000885,0,0
0:2:36.093,275.834,35.1219,0,0.000885,0,0
0:2:36.301,276.186,35.1633,0,0.000885,0,0
0:2:36.505,276.653,35.2253,0,0.000885,0,0
0:2:36.706,277.591,35.3425,0,0.000885,0,0
0:2:36.901,277.654,35.3494,0,0.000885,0,0
0:2:37.098,278.236,35.4253,0,0.000885,0,0
0:2:37.298,278.823,35.5011,0,0.000885,0,0
0:2:37.500,279.295,35.5632,0,0.000885,0,0
0:2:37.699,279.353,35.5701,0,0.000885,0,0
0:2:37.898,279.762,35.6183,0,0.000885,0,0
0:2:38.102,279.94,35.6459,0,0.000885,0,0
0:2:38.305,280.171,35.6735,0,0.000885,0,0
0:2:38.506,280.821,35.7562,0,0.000885,0,0
0:2:38.707,281.052,35.7838,0,0.000885,0,0
0:2:38.909,281.346,35.8252,0,0.000885,0,0
0:2:39.109,281.697,35.8665,0,0.000885,0,0
0:2:39.309,282.284,35.9424,0,0.000885,0,0
0:2:39.509,281.991,35.901,0,0.000885,0,0
0:2:39.709,282.693,35.9906,0,0.000885,0,0
0:2:39.908,283.223,36.0596,0,0.000885,0,0
0:2:40.101,283.694,36.1216,0,0.000885,0,0
0:2:40.301,284.691,36.2457,0,0.000885,0,0
0:2:40.497,285.042,36.294,0,0.000885,0,0
0:2:40.702,285.278,36.3216,0,0.000885,0,0
0:2:40.902,286.038,36.4181,0,0.000885,0,0
0:2:41.096,286.038,36.4181,0,0.000885,0,0
0:2:41.297,286.683,36.5008,0,0.000885,0,0
0:2:41.494,286.861,36.5215,0,0.000885,0,0
0:2:41.697,287.035,36.5491,0,0.000885,0,0
0:2:41.899,287.68,36.6318,0,0.000885,0,0
0:2:42.094,287.858,36.6525,0,0.000885,0,0
0:2:42.293,288.561,36.7422,0,0.000885,0,0
0:2:42.500,289.09,36.8111,0,0.000885,0,0
0:2:42.707,289.441,36.8525,0,0.000885,0,0
0:2:42.907,289.557,36.8663,0,0.000885,0,0
0:2:43.100,290.202,36.949,0,0.000885,0,0
0:2:43.299,290.202,36.949,0,0.000885,0,0
0:2:43.499,290.496,36.9904,0,0.000885,0,0
0:2:43.699,291.256,37.0869,0,0.000885,0,0
0:2:43.901,291.141,37.0662,0,0.000885,0,0
0:2:44.101,291.376,37.1007,0,0.000885,0,0
0:2:44.301,292.021,37.1834,0,0.000885,0,0
0:2:44.502,292.373,37.2248,0,0.000885,0,0
0:2:44.701,292.724,37.2731,0,0.000885,0,0
0:2:44.901,293.076,37.3144,0,0.000885,0,0
0:2:45.099,293.841,37.411,0,0.000885,0,0
0:2:45.294,293.605,37.3834,0,0.000885,0,0
0:2:45.495,294.072,37.4454,0,0.000885,0,0
0:2:45.698,294.837,37.542,0,0.000885,0,0
0:2:45.897,294.953,37.5557,0,0.000885,0,0
0:2:46.095,295.776,37.6592,0,0.000885,0,0
0:2:46.290,295.598,37.6385,0,0.000885,0,0
0:2:46.490,296.069,37.6936,0,0.000885,0,0
0:2:46.686,296.656,37.7695,0,0.000885,0,0
0:2:46.882,297.417,37.866,0,0.000885,0,0
0:2:47.082,297.359,37.8591,0,0.000885,0,0
0:2:47.277,298.178,37.9625,0,0.000885,0,0
0:2:47.476,298.471,38.0039,0,0.000885,0,0
0:2:47.674,299.001,38.0728,0,0.000885,0,0
0:2:47.869,299.058,38.0797,0,0.000885,0,0
0:2:48.069,299.53,38.1349,0,0.000885,0,0
0:2:48.263,300.233,38.2245,0,0.000885,0,0
0:2:48.461,300.113,38.2107,0,0.000885,0,0
0:2:48.662,300.758,38.2935,0,0.000885,0,0
0:2:48.864,301.171,38.3486,0,0.000885,0,0
0:2:49.065,301.696,38.4107,0,0.000885,0,0
0:2:49.265,301.99,38.4521,0,0.000885,0,0
0:2:49.466,302.403,38.5003,0,0.000885,0,0
0:2:49.664,302.283,38.4865,0,0.000885,0,0
0:2:49.866,302.871,38.5624,0,0.000885,0,0
0:2:50.066,303.164,38.5969,0,0.000885,0,0
0:2:50.264,303.636,38.6589,0,0.000885,0,0
0:2:50.458,304.338,38.7485,0,0.000885,0,0
0:2:50.658,304.574,38.7761,0,0.000885,0,0
0:2:50.854,305.041,38.8382,0,0.000885,0,0
0:2:51.053,305.571,38.9071,0,0.000885,0,0
0:2:51.250,305.864,38.9416,0,0.000885,0,0
0:2:51.444,306.095,38.9761,0,0.000885,0,0
0:2:51.645,306.273,38.9967,0,0.000885,0,0
0:2:51.841,307.092,39.1002,0,0.000885,0,0
0:2:52.039,307.328,39.1277,0,0.000885,0,0
0:2:52.237,308.093,39.2243,0,0.000885,0,0
0:2:52.431,308.738,39.307,0,0.000885,0,0
0:2:52.631,308.738,39.307,0,0.000885,0,0
0:2:52.827,309.498,39.4035,0,0.000885,0,0
0:2:53.023,309.205,39.3691,0,0.000885,0,0
0:2:53.223,309.734,39.438,0,0.000885,0,0
0:2:53.424,310.321,39.5139,0,0.000885,0,0
0:2:53.626,310.615,39.5483,0,0.000885,0,0
0:2:53.827,311.433,39.6517,0,0.000885,0,0
0:2:54.029,311.553,39.6655,0,0.000885,0,0
0:2:54.229,311.433,39.6517,0,0.000885,0,0
0:2:54.428,311.727,39.6931,0,0.000885,0,0
0:2:54.629,311.905,39.7138,0,0.000885,0,0
0:2:54.829,312.608,39.8034,0,0.000885,0,0
0:2:55.024,313.662,39.9344,0,0.000885,0,0
0:2:55.225,313.31,39.8931,0,0.000885,0,0
0:2:55.421,314.249,40.0103,0,0.000885,0,0
0:2:55.618,314.133,39.9965,0,0.000885,0,0
0:2:55.817,314.249,40.0103,0,0.000885,0,0
0:2:56.011,314.952,40.0999,0,0.000885,0,0
0:2:56.212,315.366,40.1551,0,0.000885,0,0
0:2:56.408,315.717,40.1964,0,0.000885,0,0
0:2:56.602,316.184,40.2585,0,0.000885,0,0
0:2:56.803,316.42,40.2861,0,0.000885,0,0
0:2:56.997,317.474,40.424,0,0.000885,0,0
0:2:57.197,317.243,40.3895,0,0.000885,0,0
0:2:57.395,317.416,40.4171,0,0.000885,0,0
0:2:57.598,318.47,40.5481,0,0.000885,0,0
0:2:57.799,318.061,40.4998,0,0.000885,0,0
0:2:57.994,319.236,40.6446,0,0.000885,0,0
0:2:58.194,319.351,40.6584,0,0.000885,0,0
0:2:58.395,319.76,40.7135,0,0.000885,0,0
0:2:58.597,320.29,40.7825,0,0.000885,0,0
0:2:58.797,320.468,40.8032,0,0.000885,0,0
0:2:58.999,321.464,40.9273,0,0.000885,0,0
0:2:59.199,321.406,40.9204,0,0.000885,0,0
0:2:59.399,321.758,40.9686,0,0.000885,0,0
0:2:59.600,322.696,41.0859,0,0.000885,0,0
0:2:59.799,322.403,41.0514,0,0.000885,0,0
0:3:0.004,323.341,41.1686,0,0.000885,0,0
0:3:0.201,323.221,41.1548,0,0.000885,0,0
0:3:0.401,324.102,41.2651,0,0.000885,0,0
0:3:0.616,324.102,41.2651,0,0.000885,0,0
0:3:0.816,324.395,41.3065,0,0.000885,0,0
0:3:1.012,324.28,41.2858,0,0.000885,0,0
0:3:1.208,324.805,41.3548,0,0.000885,0,0
0:3:1.409,325.743,41.472,0,0.000885,0,0
0:3:1.613,325.743,41.472,0,0.000885,0,0
0:3:1.814,326.682,41.5961,0,0.000885,0,0
0:3:2.010,327.389,41.6857,0,0.000885,0,0
0:3:2.207,326.86,41.6168,0,0.000885,0,0
0:3:2.407,327.972,41.7615,0,0.000885,0,0
0:3:2.610,327.856,41.7409,0,0.000885,0,0
0:3:2.811,328.853,41.8719,0,0.000885,0,0
0:3:3.008,329.088,41.8994,0,0.000885,0,0
0:3:3.213,329.031,41.8925,0,0.000885,0,0
0:3:3.414,329.498,41.9546,0,0.000885,0,0
0:3:3.615,329.849,41.996,0,0.000885,0,0
0:3:3.818,330.436,42.0718,0,0.000885,0,0
0:3:4.019,330.965,42.1408,0,0.000885,0,0
0:3:4.220,331.259,42.1752,0,0.000885,0,0
0:3:4.421,331.61,42.2235,0,0.000885,0,0
0:3:4.620,332.313,42.3131,0,0.000885,0,0
0:3:4.822,332.491,42.3338,0,0.000885,0,0
0:3:5.020,332.843,42.3821,0,0.000885,0,0
0:3:5.216,333.31,42.4372,0,0.000885,0,0
0:3:5.416,333.603,42.4786,0,0.000885,0,0
0:3:5.612,333.955,42.52,0,0.000885,0,0
0:3:5.812,333.781,42.4993,0,0.000885,0,0
0:3:6.008,334.542,42.5958,0,0.000885,0,0
0:3:6.202,335.48,42.713,0,0.000885,0,0
0:3:6.401,335.538,42.7199,0,0.000885,0,0
0:3:6.598,335.596,42.7268,0,0.000885,0,0
0:3:6.796,336.183,42.8027,0,0.000885,0,0
0:3:6.995,336.361,42.8233,0,0.000885,0,0
0:3:7.189,336.891,42.8923,0,0.000885,0,0
0:3:7.390,337.473,42.9681,0,0.000885,0,0
0:3:7.586,337.829,43.0164,0,0.000885,0,0
0:3:7.784,338.003,43.0371,0,0.000885,0,0
0:3:7.984,338.941,43.1543,0,0.000885,0,0
0:3:8.178,338.941,43.1543,0,0.000885,0,0
0:3:8.377,339.528,43.2301,0,0.000885,0,0
0:3:8.578,339.586,43.237,0,0.000885,0,0
0:3:8.780,340.525,43.3542,0,0.000885,0,0
0:3:8.981,340.703,43.3818,0,0.000885,0,0
0:3:9.183,340.934,43.4094,0,0.000885,0,0
0:3:9.384,341.699,43.5059,0,0.000885,0,0
0:3:9.583,341.641,43.499,0,0.000885,0,0
0:3:9.782,342.05,43.5542,0,0.000885,0,0
0:3:9.984,342.753,43.6438,0,0.000885,0,0
0:3:10.179,342.869,43.6576,0,0.000885,0,0
0:3:10.379,342.695,43.63,0,0.000885,0,0
0:3:10.576,343.75,43.7679,0,0.000885,0,0
0:3:10.773,344.043,43.8024,0,0.000885,0,0
0:3:10.971,344.279,43.8369,0,0.000885,0,0
0:3:11.167,344.688,43.8851,0,0.000885,0,0
0:3:11.367,345.218,43.9541,0,0.000885,0,0
0:3:11.564,345.333,43.9679,0,0.000885,0,0
0:3:11.760,346.098,44.0644,0,0.000885,0,0
0:3:11.960,346.392,44.1058,0,0.000885,0,0
0:3:12.156,347.095,44.1954,0,0.000885,0,0
0:3:12.354,347.268,44.2161,0,0.000885,0,0
0:3:12.555,347.74,44.2781,0,0.000885,0,0
0:3:12.747,347.62,44.2574,0,0.000885,0,0
0:3:12.948,348.149,44.3264,0,0.000885,0,0
0:3:13.144,348.62,44.3884,0,0.000885,0,0
0:3:13.341,349.145,44.4574,0,0.000885,0,0
0:3:13.543,349.968,44.5608,0,0.000885,0,0
0:3:13.744,349.79,44.5401,0,0.000885,0,0
0:3:13.947,350.026,44.5677,0,0.000885,0,0
0:3:14.148,350.435,44.616,0,0.000885,0,0
0:3:14.349,350.907,44.678,0,0.000885,0,0
0:3:14.549,351.143,44.7056,0,0.000885,0,0
0:3:14.749,351.725,44.7814,0,0.000885,0,0
0:3:14.950,352.077,44.8297,0,0.000885,0,0
0:3:15.147,352.548,44.8849,0,0.000885,0,0
0:3:15.344,352.726,44.9124,0,0.000885,0,0
0:3:15.545,353.015,44.9469,0,0.000885,0,0
0:3:15.739,353.135,44.9607,0,0.000885,0,0
0:3:15.938,353.896,45.0572,0,0.000885,0,0
0:3:16.137,354.016,45.0779,0,0.000885,0,0
0:3:16.331,354.132,45.0917,0,0.000885,0,0
0:3:16.533,354.892,45.1882,0,0.000885,0,0
0:3:16.729,355.244,45.2296,0,0.000885,0,0
0:3:16.928,356.182,45.3537,0,0.000885,0,0
0:3:17.126,356.303,45.3675,0,0.000885,0,0
0:3:17.323,356.827,45.4296,0,0.000885,0,0
0:3:17.523,357.063,45.464,0,0.000885,0,0
0:3:17.718,357.65,45.5399,0,0.000885,0,0
0:3:17.916,357.766,45.5537,0,0.000885,0,0
0:3:18.116,358.18,45.6019,0,0.000885,0,0
0:3:18.316,358.353,45.6295,0,0.000885,0,0
0:3:18.519,359.176,45.7329,0,0.000885,0,0
0:3:18.720,359.234,45.7398,0,0.000885,0,0
0:3:18.919,359.412,45.7605,0,0.000885,0,0
0:3:19.120,359.821,45.8157,0,0.000885,0,0
0:3:19.320,360.35,45.8777,0,0.000885,0,0
0:3:19.521,360.644,45.9191,0,0.000885,0,0
0:3:19.719,360.644,45.9191,0,0.000885,0,0
0:3:19.914,361.111,45.9811,0,0.000885,0,0
0:3:20.115,360.76,45.9329,0,0.000885,0,0
0:3:20.318,361.289,46.0018,0,0.000885,0,0
0:3:20.517,361.814,46.0708,0,0.000885,0,0
0:3:20.716,362.05,46.0983,0,0.000885,0,0
0:3:20.911,362.401,46.1397,0,0.000885,0,0
0:3:21.112,362.873,46.2018,0,0.000885,0,0
0:3:21.304,363.046,46.2225,0,0.000885,0,0
0:3:21.503,363.162,46.2362,0,0.000885,0,0
0:3:21.703,363.575,46.2914,0,0.000885,0,0
0:3:21.897,363.749,46.3121,0,0.000885,0,0
0:3:22.097,363.455,46.2776,0,0.000885,0,0
0:3:22.293,363.869,46.3259,0,0.000885,0,0
0:3:22.500,363.749,46.3121,0,0.000885,0,0
0:3:22.698,363.34,46.2638,0,0.000885,0,0
0:3:22.903,363.869,46.3259,0,0.000885,0,0
0:3:23.103,363.224,46.25,0,0.000885,0,0
0:3:23.303,362.401,46.1397,0,0.000885,0,0
0:3:23.505,361.578,46.0363,0,0.000885,0,0
0:3:23.706,359.528,45.7743,0,0.000885,0,0
0:3:23.907,357.766,45.5537,0,0.000885,0,0
0:3:24.106,352.957,44.94,0,0.000885,0,0
0:3:24.306,350.204,44.5884,0,0.000885,0,0
0:3:24.505,337.358,42.9543,0,0.000885,0,0
0:3:24.705,325.628,41.4582,0,0.000885,0,0
0:3:24.900,285.336,36.3285,0,0.000885,0,0
0:3:25.098,268.268,34.1566,0,0.000885,0,0
0:3:25.267,259.647,33.0604,0,0.000885,0,0