File: DataFile2021-06-29_044659.csv
Test ID:,Date Tested:,Time:,Test Type:,Width (mm):,Depth (mm):,Height (mm):,Age (days):,Weight (kN):,Ramp Rate (MPa/s):,Load at Break (kN):,Stress at Break (MPa):
12,6/29/2021,04:46,Cube,100,100,100,7,8.37,0.02,33.37,3.34
Sample Time,Load (kN),Stress (MPa),Long. Strain,Trans. Strain,Chan1 Deflection (mm),Chan2 Deflection (mm)
0:0:13.803,9.26565,0.923897,0,0.000885,0,0
0:0:13.902,10.7914,1.08248,0,0.000885,0,0
0:0:13.999,10.7914,1.08248,0,0.000885,0,0
0:0:14.096,10.7914,1.08248,0,0.000885,0,0
0:0:14.194,10.6757,1.06869,0,0.000885,0,0
0:0:14.290,10.6179,1.06179,0,0.000885,0,0
0:0:14.390,10.6179,1.06179,0,0.000885,0,0
0:0:14.489,10.7336,1.07558,0,0.000885,0,0
0:0:14.586,10.3821,1.04111,0,0.000885,0,0
0:0:14.681,10.3821,1.04111,0,0.000885,0,0
0:0:14.781,10.3821,1.04111,0,0.000885,0,0
0:0:14.880,10.5556,1.0549,0,0.000885,0,0
0:0:14.978,10.8492,1.08248,0,0.000885,0,0
0:0:15.084,10.8492,1.08248,0,0.000885,0,0
0:0:15.180,10.7336,1.07558,0,0.000885,0,0
0:0:15.279,10.3821,1.04111,0,0.000885,0,0
0:0:15.379,10.6179,1.06179,0,0.000885,0,0
0:0:15.477,10.6179,1.06179,0,0.000885,0,0
0:0:15.583,10.5556,1.0549,0,0.000885,0,0
0:0:15.679,10.8492,1.08248,0,0.000885,0,0
0:0:15.777,10.9693,1.09627,0,0.000885,0,0
0:0:15.877,10.9693,1.09627,0,0.000885,0,0
0:0:15.976,11.2629,1.12385,0,0.000885,0,0
0:0:16.082,10.7914,1.08248,0,0.000885,0,0
0:0:16.177,10.907,1.08937,0,0.000885,0,0
0:0:16.273,10.907,1.08937,0,0.000885,0,0
0:0:16.373,10.907,1.08937,0,0.000885,0,0
0:0:16.471,11.1428,1.11695,0,0.000885,0,0
0:0:16.568,11.1428,1.11695,0,0.000885,0,0
0:0:16.672,10.907,1.08937,0,0.000885,0,0
0:0:16.770,11.2629,1.12385,0,0.000885,0,0
0:0:16.870,11.2629,1.12385,0,0.000885,0,0
0:0:16.969,11.2629,1.12385,0,0.000885,0,0
0:0:17.078,11.6143,1.15832,0,0.000885,0,0
0:0:17.183,12.1392,1.21348,0,0.000885,0,0
0:0:17.281,12.375,1.23416,0,0.000885,0,0
0:0:17.379,12.375,1.23416,0,0.000885,0,0
0:0:17.479,12.0814,1.20658,0,0.000885,0,0
0:0:17.577,12.3171,1.23416,0,0.000885,0,0
0:0:17.671,12.4328,1.24106,0,0.000885,0,0
0:0:17.780,12.4328,1.24106,0,0.000885,0,0
0:0:17.878,12.4328,1.24106,0,0.000885,0,0
0:0:17.979,12.5529,1.25485,0,0.000885,0,0
0:0:18.076,12.9621,1.29621,0,0.000885,0,0
0:0:18.181,12.9621,1.29621,0,0.000885,0,0
0:0:18.279,13.3135,1.33069,0,0.000885,0,0
0:0:18.380,13.4915,1.35137,0,0.000885,0,0
0:0:18.478,13.5493,1.35827,0,0.000885,0,0
0:0:18.576,13.5493,1.35827,0,0.000885,0,0
0:0:18.681,13.3714,1.33758,0,0.000885,0,0
0:0:18.778,13.785,1.37895,0,0.000885,0,0
0:0:18.878,13.785,1.37895,0,0.000885,0,0
0:0:18.977,14.0742,1.40653,0,0.000885,0,0
0:0:19.077,14.3099,1.43411,0,0.000885,0,0
0:0:19.173,14.7814,1.47548,0,0.000885,0,0
0:0:19.277,14.7814,1.47548,0,0.000885,0,0
0:0:19.377,14.9549,1.49616,0,0.000885,0,0
0:0:19.478,14.7814,1.47548,0,0.000885,0,0
0:0:19.577,14.9549,1.49616,0,0.000885,0,0
0:0:19.672,14.9549,1.49616,0,0.000885,0,0
0:0:19.772,15.0127,1.50306,0,0.000885,0,0
0:0:19.872,15.3063,1.53064,0,0.000885,0,0
0:0:19.972,15.1907,1.51685,0,0.000885,0,0
0:0:20.072,15.1907,1.51685,0,0.000885,0,0
0:0:20.169,15.5421,1.55132,0,0.000885,0,0
0:0:20.269,15.5999,1.55822,0,0.000885,0,0
0:0:20.369,15.8935,1.59269,0,0.000885,0,0
0:0:20.469,15.8935,1.59269,0,0.000885,0,0
0:0:20.569,15.8935,1.59269,0,0.000885,0,0
0:0:20.666,16.0136,1.59958,0,0.000885,0,0
0:0:20.771,16.1293,1.61337,0,0.000885,0,0
0:0:20.870,16.1293,1.61337,0,0.000885,0,0
0:0:20.969,16.4807,1.64785,0,0.000885,0,0
0:0:21.069,16.6586,1.66853,0,0.000885,0,0
0:0:21.177,16.6586,1.66853,0,0.000885,0,0
0:0:21.271,16.7742,1.67543,0,0.000885,0,0
0:0:21.370,16.8321,1.68232,0,0.000885,0,0
0:0:21.470,16.8899,1.68922,0,0.000885,0,0
0:0:21.568,16.8899,1.68922,0,0.000885,0,0
0:0:21.666,17.01,1.70301,0,0.000885,0,0
0:0:21.771,16.9522,1.69611,0,0.000885,0,0
0:0:21.870,17.4192,1.74437,0,0.000885,0,0
0:0:21.970,17.4192,1.74437,0,0.000885,0,0
0:0:22.068,17.4192,1.74437,0,0.000885,0,0
0:0:22.177,17.7128,1.77195,0,0.000885,0,0
0:0:22.282,17.7706,1.77885,0,0.000885,0,0
0:0:22.382,17.7706,1.77885,0,0.000885,0,0
0:0:22.481,18.0064,1.79953,0,0.000885,0,0
0:0:22.580,17.8863,1.78574,0,0.000885,0,0
0:0:22.686,18.1799,1.82022,0,0.000885,0,0
0:0:22.782,18.1799,1.82022,0,0.000885,0,0
0:0:22.881,18.0642,1.80643,0,0.000885,0,0
0:0:22.980,18.2422,1.82711,0,0.000885,0,0
0:0:23.080,18.4735,1.84779,0,0.000885,0,0
0:0:23.176,18.4735,1.84779,0,0.000885,0,0
0:0:23.282,18.5936,1.86158,0,0.000885,0,0
0:0:23.379,18.4735,1.84779,0,0.000885,0,0
0:0:23.479,18.6514,1.86848,0,0.000885,0,0
0:0:23.578,18.6514,1.86848,0,0.000885,0,0
0:0:23.673,18.767,1.87537,0,0.000885,0,0
0:0:23.770,19.2964,1.93053,0,0.000885,0,0
0:0:23.867,19.2964,1.93053,0,0.000885,0,0
0:0:23.967,19.0028,1.90295,0,0.000885,0,0
0:0:24.067,19.4699,1.94432,0,0.000885,0,0
0:0:24.166,19.4699,1.94432,0,0.000885,0,0
0:0:24.266,19.4699,1.94432,0,0.000885,0,0
0:0:24.366,19.1807,1.91674,0,0.000885,0,0
0:0:24.466,19.8836,1.98569,0,0.000885,0,0
0:0:24.566,19.5321,1.95122,0,0.000885,0,0
0:0:24.666,19.5321,1.95122,0,0.000885,0,0
0:0:24.764,19.6478,1.96501,0,0.000885,0,0
0:0:24.863,20.1193,2.01327,0,0.000885,0,0
0:0:24.962,20.1193,2.01327,0,0.000885,0,0
0:0:25.062,20.1193,2.01327,0,0.000885,0,0
0:0:25.160,19.8836,1.98569,0,0.000885,0,0
0:0:25.260,20.1771,2.02016,0,0.000885,0,0
0:0:25.359,20.1771,2.02016,0,0.000885,0,0
0:0:25.458,20.3506,2.03395,0,0.000885,0,0
0:0:25.558,20.4084,2.04085,0,0.000885,0,0
0:0:25.665,20.3506,2.03395,0,0.000885,0,0
0:0:25.769,20.3506,2.03395,0,0.000885,0,0
0:0:25.867,20.4084,2.04085,0,0.000885,0,0
0:0:25.964,20.5285,2.05464,0,0.000885,0,0
0:0:26.065,20.88,2.08911,0,0.000885,0,0
0:0:26.164,20.88,2.08911,0,0.000885,0,0
0:0:26.270,21.4093,2.13737,0,0.000885,0,0
0:0:26.368,21.6406,2.16495,0,0.000885,0,0
0:0:26.467,21.7607,2.17874,0,0.000885,0,0
0:0:26.566,21.7607,2.17874,0,0.000885,0,0
0:0:26.673,21.8185,2.17874,0,0.000885,0,0
0:0:26.781,21.8764,2.18564,0,0.000885,0,0
0:0:26.878,22.1121,2.21322,0,0.000885,0,0
0:0:26.979,22.1121,2.21322,0,0.000885,0,0
0:0:27.078,22.4057,2.2408,0,0.000885,0,0
0:0:27.173,22.3479,2.2339,0,0.000885,0,0
0:0:27.282,22.2856,2.22701,0,0.000885,0,0
0:0:27.378,22.2856,2.22701,0,0.000885,0,0
0:0:27.478,22.4057,2.2408,0,0.000885,0,0
0:0:27.578,22.4635,2.24769,0,0.000885,0,0
0:0:27.672,22.6993,2.26838,0,0.000885,0,0
0:0:27.780,22.6993,2.26838,0,0.000885,0,0
0:0:27.877,22.9929,2.29595,0,0.000885,0,0
0:0:27.977,23.2864,2.33043,0,0.000885,0,0
0:0:28.077,23.1663,2.31664,0,0.000885,0,0
0:0:28.173,23.1663,2.31664,0,0.000885,0,0
0:0:28.282,23.2864,2.33043,0,0.000885,0,0
0:0:28.378,23.8113,2.37869,0,0.000885,0,0
0:0:28.477,23.8113,2.37869,0,0.000885,0,0
0:0:28.574,23.8113,2.37869,0,0.000885,0,0
0:0:28.672,23.8692,2.38559,0,0.000885,0,0
0:0:28.780,24.0471,2.40627,0,0.000885,0,0
0:0:28.886,24.0471,2.40627,0,0.000885,0,0
0:0:28.985,23.9893,2.39938,0,0.000885,0,0
0:0:29.085,24.1627,2.41317,0,0.000885,0,0
0:0:29.183,24.1627,2.41317,0,0.000885,0,0
0:0:29.282,24.1627,2.41317,0,0.000885,0,0
0:0:29.383,24.6343,2.46143,0,0.000885,0,0
0:0:29.483,24.6343,2.46143,0,0.000885,0,0
0:0:29.583,24.6921,2.46832,0,0.000885,0,0
0:0:29.683,24.6921,2.46832,0,0.000885,0,0
0:0:29.783,24.8077,2.48211,0,0.000885,0,0
0:0:29.881,25.2214,2.52348,0,0.000885,0,0
0:0:29.981,25.2214,2.52348,0,0.000885,0,0
0:0:30.080,25.2214,2.52348,0,0.000885,0,0
0:0:30.181,25.2792,2.53038,0,0.000885,0,0
0:0:30.279,25.7463,2.57174,0,0.000885,0,0
0:0:30.379,25.8041,2.57864,0,0.000885,0,0
0:0:30.474,25.8041,2.57864,0,0.000885,0,0
0:0:30.574,25.9821,2.59932,0,0.000885,0,0
0:0:30.674,26.0399,2.60622,0,0.000885,0,0
0:0:30.784,26.16,2.61311,0,0.000885,0,0
0:0:30.880,26.16,2.61311,0,0.000885,0,0
0:0:30.978,26.2756,2.6269,0,0.000885,0,0
0:0:31.079,26.4536,2.64759,0,0.000885,0,0
0:0:31.174,26.4536,2.64759,0,0.000885,0,0
0:0:31.284,26.6849,2.66827,0,0.000885,0,0
0:0:31.381,26.8628,2.68896,0,0.000885,0,0
0:0:31.479,26.6849,2.66827,0,0.000885,0,0
0:0:31.580,26.6849,2.66827,0,0.000885,0,0
0:0:31.678,27.0363,2.70274,0,0.000885,0,0
0:0:31.784,27.0986,2.70964,0,0.000885,0,0
0:0:31.880,27.0986,2.70964,0,0.000885,0,0
0:0:31.979,27.0986,2.70964,0,0.000885,0,0
0:0:32.078,27.0986,2.70964,0,0.000885,0,0
0:0:32.173,27.3877,2.73722,0,0.000885,0,0
0:0:32.283,27.7436,2.77169,0,0.000885,0,0
0:0:32.381,27.7436,2.77169,0,0.000885,0,0
0:0:32.479,27.7436,2.77169,0,0.000885,0,0
0:0:32.579,27.8592,2.78548,0,0.000885,0,0
0:0:32.678,28.2684,2.82685,0,0.000885,0,0
0:0:32.784,28.2684,2.82685,0,0.000885,0,0
0:0:32.880,28.6199,2.86132,0,0.000885,0,0
0:0:32.986,28.562,2.85443,0,0.000885,0,0
0:0:33.086,28.3263,2.83375,0,0.000885,0,0
0:0:33.185,28.3263,2.83375,0,0.000885,0,0
0:0:33.283,28.2106,2.81996,0,0.000885,0,0
0:0:33.379,28.6199,2.86132,0,0.000885,0,0
0:0:33.486,28.6199,2.86132,0,0.000885,0,0
0:0:33.586,28.6199,2.86132,0,0.000885,0,0
0:0:33.686,28.9134,2.8889,0,0.000885,0,0
0:0:33.783,28.9134,2.8889,0,0.000885,0,0
0:0:33.879,28.9134,2.8889,0,0.000885,0,0
0:0:33.984,28.9134,2.8889,0,0.000885,0,0
0:0:34.085,29.2648,2.92338,0,0.000885,0,0
0:0:34.184,29.3271,2.93027,0,0.000885,0,0
0:0:34.284,29.3271,2.93027,0,0.000885,0,0
0:0:34.383,29.207,2.92338,0,0.000885,0,0
0:0:34.485,29.385,2.93717,0,0.000885,0,0
0:0:34.583,29.852,2.98543,0,0.000885,0,0
0:0:34.684,29.852,2.98543,0,0.000885,0,0
0:0:34.784,30.2034,3.0199,0,0.000885,0,0
0:0:34.883,30.0878,3.00611,0,0.000885,0,0
0:0:34.982,30.3235,3.03369,0,0.000885,0,0
0:0:35.081,30.3235,3.03369,0,0.000885,0,0
0:0:35.180,30.1456,3.01301,0,0.000885,0,0
0:0:35.279,30.1456,3.01301,0,0.000885,0,0
0:0:35.378,30.1456,3.01301,0,0.000885,0,0
0:0:35.478,30.0878,3.00611,0,0.000885,0,0
0:0:35.574,30.6749,3.06817,0,0.000885,0,0
0:0:35.674,30.6749,3.06817,0,0.000885,0,0
0:0:35.772,30.6749,3.06817,0,0.000885,0,0
0:0:35.881,30.7328,3.07506,0,0.000885,0,0
0:0:35.978,31.0842,3.10954,0,0.000885,0,0
0:0:36.074,30.9107,3.08885,0,0.000885,0,0
0:0:36.173,30.9107,3.08885,0,0.000885,0,0
0:0:36.271,31.0263,3.10264,0,0.000885,0,0
0:0:36.379,31.0842,3.10954,0,0.000885,0,0
0:0:36.485,31.2621,3.12333,0,0.000885,0,0
0:0:36.583,31.2621,3.12333,0,0.000885,0,0
0:0:36.684,31.3199,3.13022,0,0.000885,0,0
0:0:36.782,31.2621,3.12333,0,0.000885,0,0
0:0:36.880,31.2043,3.12333,0,0.000885,0,0
0:0:36.985,31.2043,3.12333,0,0.000885,0,0
0:0:37.082,31.4356,3.14401,0,0.000885,0,0
0:0:37.183,32.1384,3.21296,0,0.000885,0,0
0:0:37.281,31.8493,3.18538,0,0.000885,0,0
0:0:37.378,31.8493,3.18538,0,0.000885,0,0
0:0:37.483,32.0806,3.20606,0,0.000885,0,0
0:0:37.581,32.432,3.24054,0,0.000885,0,0
0:0:37.681,32.432,3.24054,0,0.000885,0,0
0:0:37.779,32.3742,3.24054,0,0.000885,0,0
0:0:37.879,32.9613,3.29569,0,0.000885,0,0
0:0:37.985,33.0191,3.30259,0,0.000885,0,0
0:0:38.081,33.0191,3.30259,0,0.000885,0,0
0:0:38.181,33.4328,3.34396,0,0.000885,0,0
0:0:38.280,33.1393,3.31638,0,0.000885,0,0
0:0:38.375,33.6063,3.35775,0,0.000885,0,0
0:0:38.483,33.6063,3.35775,0,0.000885,0,0
0:0:38.579,33.3706,3.33706,0,0.000885,0,0
0:0:38.679,33.7842,3.37843,0,0.000885,0,0
0:0:38.778,33.3706,3.33706,0,0.000885,0,0
0:0:38.874,33.3706,3.33706,0,0.000885,0,0
0:0:38.983,33.5485,3.35775,0,0.000885,0,0
0:0:39.079,33.3706,3.33706,0,0.000885,0,0
0:0:39.175,33.4907,3.35085,0,0.000885,0,0
0:0:39.275,33.4907,3.35085,0,0.000885,0,0
0:0:39.372,33.1971,3.31638,0,0.000885,0,0
0:0:39.472,33.1393,3.31638,0,0.000885,0,0
0:0:39.572,32.9035,3.2888,0,0.000885,0,0
0:0:39.673,32.9035,3.2888,0,0.000885,0,0
0:0:39.772,32.7256,3.27501,0,0.000885,0,0
0:0:39.872,32.8457,3.2819,0,0.000885,0,0
0:0:39.971,32.8457,3.2819,0,0.000885,0,0
0:0:40.070,32.8457,3.2819,0,0.000885,0,0
0:0:40.169,33.077,3.30948,0,0.000885,0,0
0:0:40.268,32.8457,3.2819,0,0.000885,0,0
0:0:40.367,32.8457,3.2819,0,0.000885,0,0
0:0:40.467,32.7878,3.2819,0,0.000885,0,0
0:0:40.565,32.5521,3.25433,0,0.000885,0,0
0:0:40.663,32.2007,3.21985,0,0.000885,0,0
0:0:40.764,32.2007,3.21985,0,0.000885,0,0
0:0:40.862,32.2007,3.21985,0,0.000885,0,0
0:0:40.961,32.3163,3.23364,0,0.000885,0,0
0:0:41.067,31.6135,3.16469,0,0.000885,0,0
0:0:41.173,31.6135,3.16469,0,0.000885,0,0
0:0:41.271,31.4934,3.1509,0,0.000885,0,0
0:0:41.371,31.2621,3.12333,0,0.000885,0,0
0:0:41.469,30.6171,3.06127,0,0.000885,0,0
0:0:41.566,30.6171,3.06127,0,0.000885,0,0
0:0:41.672,30.1456,3.01301,0,0.000885,0,0
0:0:41.770,29.6785,2.96475,0,0.000885,0,0
0:0:41.869,28.6821,2.86822,0,0.000885,0,0
0:0:41.968,28.6821,2.86822,0,0.000885,0,0
0:0:42.075,28.095,2.80617,0,0.000885,0,0
0:0:42.182,27.7436,2.77169,0,0.000885,0,0
0:0:42.282,27.3299,2.73032,0,0.000885,0,0
0:0:42.382,27.3299,2.73032,0,0.000885,0,0
0:0:42.481,27.2142,2.72343,0,0.000885,0,0
0:0:42.585,27.1564,2.71653,0,0.000885,0,0
0:0:42.681,26.9785,2.69585,0,0.000885,0,0
0:0:42.780,26.9785,2.69585,0,0.000885,0,0
0:0:42.880,26.7427,2.67517,0,0.000885,0,0
0:0:42.979,26.6271,2.66138,0,0.000885,0,0
0:0:43.085,26.6271,2.66138,0,0.000885,0,0
0:0:43.180,26.5114,2.64759,0,0.000885,0,0
0:0:43.279,26.3913,2.64069,0,0.000885,0,0
0:0:43.379,26.6271,2.66138,0,0.000885,0,0
0:0:43.476,26.6271,2.66138,0,0.000885,0,0
0:0:43.584,26.0977,2.61311,0,0.000885,0,0
0:0:43.679,25.8664,2.58553,0,0.000885,0,0
0:0:43.787,25.7463,2.57174,0,0.000885,0,0
0:0:43.887,25.7463,2.57174,0,0.000885,0,0
0:0:43.986,25.3949,2.53727,0,0.000885,0,0
0:0:44.084,24.8077,2.48211,0,0.000885,0,0
0:0:44.183,24.2206,2.42006,0,0.000885,0,0
0:0:44.285,24.2206,2.42006,0,0.000885,0,0
0:0:44.384,23.7535,2.37869,0,0.000885,0,0
0:0:44.485,23.1663,2.31664,0,0.000885,0,0
0:0:44.583,22.1121,2.21322,0,0.000885,0,0
0:0:44.682,22.1121,2.21322,0,0.000885,0,0
0:0:44.781,21.1157,2.1098,0,0.000885,0,0
0:0:44.881,20.9956,2.1029,0,0.000885,0,0
0:0:44.980,21.0534,2.1029,0,0.000885,0,0
0:0:45.081,21.0534,2.1029,0,0.000885,0,0
0:0:45.175,21.1157,2.1098,0,0.000885,0,0
0:0:45.275,21.4093,2.13737,0,0.000885,0,0
0:0:45.375,21.4093,2.13737,0,0.000885,0,0
0:0:45.473,21.5249,2.15116,0,0.000885,0,0
0:0:45.572,21.347,2.13737,0,0.000885,0,0
0:0:45.680,21.4671,2.14427,0,0.000885,0,0
0:0:45.785,21.4671,2.14427,0,0.000885,0,0
0:0:45.884,21.347,2.13737,0,0.000885,0,0
0:0:45.983,21.2892,2.13048,0,0.000885,0,0
0:0:46.082,21.4093,2.13737,0,0.000885,0,0
0:0:46.179,21.4093,2.13737,0,0.000885,0,0
0:0:46.273,21.2314,2.12359,0,0.000885,0,0
0:0:46.373,21.5828,2.15806,0,0.000885,0,0
0:0:46.470,21.7029,2.17185,0,0.000885,0,0
0:0:46.569,21.7029,2.17185,0,0.000885,0,0
0:0:46.674,21.5828,2.15806,0,0.000885,0,0
0:0:46.782,21.7607,2.17874,0,0.000885,0,0
0:0:46.881,22.0543,2.20632,0,0.000885,0,0
0:0:46.981,22.0543,2.20632,0,0.000885,0,0
0:0:47.079,21.992,2.19943,0,0.000885,0,0
0:0:47.186,22.2856,2.22701,0,0.000885,0,0
0:0:47.291,22.4057,2.2408,0,0.000885,0,0
0:0:47.389,22.4057,2.2408,0,0.000885,0,0
0:0:47.490,21.8764,2.18564,0,0.000885,0,0
0:0:47.588,22.2856,2.22701,0,0.000885,0,0
0:0:47.685,22.2856,2.22701,0,0.000885,0,0
0:0:47.780,22.3479,2.2339,0,0.000885,0,0
0:0:47.876,21.992,2.19943,0,0.000885,0,0
0:0:47.975,22.2278,2.22011,0,0.000885,0,0
0:0:48.075,22.2278,2.22011,0,0.000885,0,0
0:0:48.184,22.2278,2.22011,0,0.000885,0,0
0:0:48.280,21.9342,2.19253,0,0.000885,0,0
0:0:48.386,21.8185,2.17874,0,0.000885,0,0
0:0:48.486,21.8185,2.17874,0,0.000885,0,0
0:0:48.585,21.992,2.19943,0,0.000885,0,0
0:0:48.683,21.7029,2.17185,0,0.000885,0,0
0:0:48.788,21.7607,2.17874,0,0.000885,0,0
0:0:48.885,21.7607,2.17874,0,0.000885,0,0
0:0:48.982,22.0543,2.20632,0,0.000885,0,0
0:0:49.082,21.6406,2.16495,0,0.000885,0,0
0:0:49.181,22.2856,2.22701,0,0.000885,0,0
0:0:49.282,22.2856,2.22701,0,0.000885,0,0
0:0:49.381,22.4057,2.2408,0,0.000885,0,0
0:0:49.480,22.2278,2.22011,0,0.000885,0,0
0:0:49.580,22.2278,2.22011,0,0.000885,0,0
0:0:49.681,21.9342,2.19253,0,0.000885,0,0
0:0:49.780,22.3479,2.2339,0,0.000885,0,0
0:0:49.880,21.9342,2.19253,0,0.000885,0,0
0:0:49.975,21.9342,2.19253,0,0.000885,0,0
0:0:50.075,22.0543,2.20632,0,0.000885,0,0
0:0:50.174,21.7607,2.17874,0,0.000885,0,0
0:0:50.274,21.8185,2.17874,0,0.000885,0,0
0:0:50.373,21.8185,2.17874,0,0.000885,0,0
0:0:50.471,22.2278,2.22011,0,0.000885,0,0
0:0:50.570,22.2278,2.22011,0,0.000885,0,0
0:0:50.670,21.9342,2.19253,0,0.000885,0,0
0:0:50.767,21.9342,2.19253,0,0.000885,0,0
0:0:50.872,22.1121,2.21322,0,0.000885,0,0
0:0:50.970,21.992,2.19943,0,0.000885,0,0
0:0:51.069,22.1121,2.21322,0,0.000885,0,0
0:0:51.169,22.1121,2.21322,0,0.000885,0,0
0:0:51.274,22.2856,2.22701,0,0.000885,0,0
0:0:51.382,22.2278,2.22011,0,0.000885,0,0
0:0:51.480,22.2278,2.22011,0,0.000885,0,0
0:0:51.580,22.2278,2.22011,0,0.000885,0,0
0:0:51.676,21.8764,2.18564,0,0.000885,0,0
0:0:51.785,22.0543,2.20632,0,0.000885,0,0
0:0:51.881,21.8764,2.18564,0,0.000885,0,0
0:0:51.987,21.8764,2.18564,0,0.000885,0,0
0:0:52.088,21.8185,2.17874,0,0.000885,0,0
0:0:52.186,22.2278,2.22011,0,0.000885,0,0
0:0:52.284,21.992,2.19943,0,0.000885,0,0
0:0:52.388,21.992,2.19943,0,0.000885,0,0
0:0:52.487,22.2278,2.22011,0,0.000885,0,0
0:0:52.586,21.8764,2.18564,0,0.000885,0,0
0:0:52.686,21.8764,2.18564,0,0.000885,0,0
0:0:52.784,22.1121,2.21322,0,0.000885,0,0
0:0:52.888,22.1121,2.21322,0,0.000885,0,0
0:0:52.984,21.992,2.19943,0,0.000885,0,0
0:0:53.084,21.992,2.19943,0,0.000885,0,0
0:0:53.184,21.9342,2.19253,0,0.000885,0,0
0:0:53.282,22.1699,2.22011,0,0.000885,0,0
0:0:53.386,22.3479,2.2339,0,0.000885,0,0
0:0:53.483,22.3479,2.2339,0,0.000885,0,0
0:0:53.582,22.1699,2.22011,0,0.000885,0,0
0:0:53.682,22.2278,2.22011,0,0.000885,0,0
0:0:53.780,22.1121,2.21322,0,0.000885,0,0
0:0:53.886,22.1121,2.21322,0,0.000885,0,0
0:0:53.990,21.9342,2.19253,0,0.000885,0,0
0:0:54.088,21.992,2.19943,0,0.000885,0,0
0:0:54.189,22.1699,2.22011,0,0.000885,0,0
0:0:54.288,22.1699,2.22011,0,0.000885,0,0
0:0:54.387,22.0543,2.20632,0,0.000885,0,0
0:0:54.487,21.9342,2.19253,0,0.000885,0,0
0:0:54.588,21.7029,2.17185,0,0.000885,0,0
0:0:54.686,21.7029,2.17185,0,0.000885,0,0
0:0:54.787,21.5828,2.15806,0,0.000885,0,0
0:0:54.886,21.4093,2.13737,0,0.000885,0,0
0:0:54.986,21.4093,2.13737,0,0.000885,0,0
0:0:55.085,21.4671,2.14427,0,0.000885,0,0
0:0:55.184,21.5249,2.15116,0,0.000885,0,0
0:0:55.282,21.7029,2.17185,0,0.000885,0,0
0:0:55.382,21.7029,2.17185,0,0.000885,0,0
0:0:55.481,21.5249,2.15116,0,0.000885,0,0
0:0:55.577,21.5249,2.15116,0,0.000885,0,0
0:0:55.688,21.6406,2.16495,0,0.000885,0,0
0:0:55.787,21.6406,2.16495,0,0.000885,0,0
0:0:55.886,21.8185,2.17874,0,0.000885,0,0
0:0:55.982,21.9342,2.19253,0,0.000885,0,0
0:0:56.076,21.8764,2.18564,0,0.000885,0,0
0:0:56.176,21.8764,2.18564,0,0.000885,0,0
0:0:56.274,21.7607,2.17874,0,0.000885,0,0
0:0:56.373,22.0543,2.20632,0,0.000885,0,0
0:0:56.480,21.8764,2.18564,0,0.000885,0,0
0:0:56.574,21.8764,2.18564,0,0.000885,0,0
0:0:56.673,22.2856,2.22701,0,0.000885,0,0
0:0:56.771,22.1699,2.22011,0,0.000885,0,0
0:0:56.869,22.1699,2.22011,0,0.000885,0,0
0:0:56.976,22.4057,2.2408,0,0.000885,0,0
0:0:57.084,22.3479,2.2339,0,0.000885,0,0
0:0:57.182,22.2856,2.22701,0,0.000885,0,0
0:0:57.282,22.2856,2.22701,0,0.000885,0,0
0:0:57.381,22.5213,2.25459,0,0.000885,0,0
0:0:57.487,23.1085,2.30974,0,0.000885,0,0
0:0:57.582,22.6993,2.26838,0,0.000885,0,0
0:0:57.680,22.6993,2.26838,0,0.000885,0,0
0:0:57.781,22.8728,2.28906,0,0.000885,0,0
0:0:57.877,22.8149,2.28216,0,0.000885,0,0
0:0:57.986,22.5213,2.25459,0,0.000885,0,0
0:0:58.081,22.5213,2.25459,0,0.000885,0,0
0:0:58.176,22.7571,2.27527,0,0.000885,0,0
0:0:58.276,22.8149,2.28216,0,0.000885,0,0
0:0:58.375,22.6993,2.26838,0,0.000885,0,0
0:0:58.485,22.6993,2.26838,0,0.000885,0,0
0:0:58.580,22.6993,2.26838,0,0.000885,0,0
0:0:58.687,22.7571,2.27527,0,0.000885,0,0
0:0:58.786,22.637,2.26148,0,0.000885,0,0
0:0:58.884,22.637,2.26148,0,0.000885,0,0
0:0:58.982,22.4635,2.24769,0,0.000885,0,0
0:0:59.088,22.5792,2.26148,0,0.000885,0,0
0:0:59.185,22.7571,2.27527,0,0.000885,0,0
0:0:59.284,22.7571,2.27527,0,0.000885,0,0
0:0:59.384,22.3479,2.2339,0,0.000885,0,0
0:0:59.481,22.8149,2.28216,0,0.000885,0,0
0:0:59.582,22.8149,2.28216,0,0.000885,0,0
0:0:59.681,22.7571,2.27527,0,0.000885,0,0
0:0:59.783,22.6993,2.26838,0,0.000885,0,0
0:0:59.882,22.5792,2.26148,0,0.000885,0,0
0:0:59.983,22.5792,2.26148,0,0.000885,0,0
0:1:0.080,22.4635,2.24769,0,0.000885,0,0
0:1:0.180,22.6993,2.26838,0,0.000885,0,0
0:1:0.277,22.8149,2.28216,0,0.000885,0,0
0:1:0.377,22.8149,2.28216,0,0.000885,0,0
0:1:0.474,22.5213,2.25459,0,0.000885,0,0
0:1:0.573,22.5213,2.25459,0,0.000885,0,0
0:1:0.672,22.5213,2.25459,0,0.000885,0,0
0:1:0.771,22.5213,2.25459,0,0.000885,0,0
0:1:0.871,22.3479,2.2339,0,0.000885,0,0
0:1:0.970,22.5213,2.25459,0,0.000885,0,0
0:1:1.068,22.5213,2.25459,0,0.000885,0,0
0:1:1.173,22.3479,2.2339,0,0.000885,0,0
0:1:1.270,22.3479,2.2339,0,0.000885,0,0
0:1:1.370,22.1699,2.22011,0,0.000885,0,0
0:1:1.470,22.1699,2.22011,0,0.000885,0,0
0:1:1.567,22.2856,2.22701,0,0.000885,0,0
0:1:1.672,22.4057,2.2408,0,0.000885,0,0
0:1:1.768,22.1699,2.22011,0,0.000885,0,0
0:1:1.867,22.1699,2.22011,0,0.000885,0,0
0:1:1.966,22.4057,2.2408,0,0.000885,0,0
0:1:2.073,22.7571,2.27527,0,0.000885,0,0
0:1:2.182,22.4057,2.2408,0,0.000885,0,0
0:1:2.288,22.4057,2.2408,0,0.000885,0,0
0:1:2.388,22.4635,2.24769,0,0.000885,0,0
0:1:2.487,22.4635,2.24769,0,0.000885,0,0
0:1:2.585,22.5792,2.26148,0,0.000885,0,0
0:1:2.689,22.5792,2.26148,0,0.000885,0,0
0:1:2.786,22.1699,2.22011,0,0.000885,0,0
0:1:2.885,22.3479,2.2339,0,0.000885,0,0
0:1:2.985,22.5792,2.26148,0,0.000885,0,0
0:1:3.083,22.5792,2.26148,0,0.000885,0,0
0:1:3.177,22.4635,2.24769,0,0.000885,0,0
0:1:3.285,22.7571,2.27527,0,0.000885,0,0
0:1:3.384,22.3479,2.2339,0,0.000885,0,0
0:1:3.483,22.3479,2.2339,0,0.000885,0,0
0:1:3.582,22.4057,2.2408,0,0.000885,0,0
0:1:3.687,22.3479,2.2339,0,0.000885,0,0
0:1:3.783,22.3479,2.2339,0,0.000885,0,0
0:1:3.881,22.4057,2.2408,0,0.000885,0,0
0:1:3.977,22.5213,2.25459,0,0.000885,0,0
0:1:4.077,22.4057,2.2408,0,0.000885,0,0
0:1:4.177,22.4057,2.2408,0,0.000885,0,0
0:1:4.277,22.1121,2.21322,0,0.000885,0,0
0:1:4.376,22.5792,2.26148,0,0.000885,0,0
0:1:4.476,22.1699,2.22011,0,0.000885,0,0
0:1:4.576,22.1699,2.22011,0,0.000885,0,0
0:1:4.676,21.5828,2.15806,0,0.000885,0,0
0:1:4.775,21.7607,2.17874,0,0.000885,0,0
0:1:4.873,21.347,2.13737,0,0.000885,0,0
0:1:4.973,21.347,2.13737,0,0.000885,0,0
0:1:5.072,21.2892,2.13048,0,0.000885,0,0
0:1:5.171,21.2314,2.12359,0,0.000885,0,0
0:1:5.272,21.4671,2.14427,0,0.000885,0,0
0:1:5.369,21.4671,2.14427,0,0.000885,0,0
0:1:5.469,21.5828,2.15806,0,0.000885,0,0
0:1:5.567,21.347,2.13737,0,0.000885,0,0
0:1:5.666,21.347,2.13737,0,0.000885,0,0
0:1:5.770,21.4671,2.14427,0,0.000885,0,0
0:1:5.867,21.7029,2.17185,0,0.000885,0,0
0:1:5.966,21.7029,2.17185,0,0.000885,0,0
0:1:6.066,21.7029,2.17185,0,0.000885,0,0
0:1:6.164,21.7029,2.17185,0,0.000885,0,0
0:1:6.269,21.1157,2.1098,0,0.000885,0,0
0:1:6.367,21.2892,2.13048,0,0.000885,0,0
0:1:6.465,21.2892,2.13048,0,0.000885,0,0
0:1:6.565,21.347,2.13737,0,0.000885,0,0
0:1:6.663,20.9956,2.1029,0,0.000885,0,0
0:1:6.769,21.1157,2.1098,0,0.000885,0,0
0:1:6.874,21.1157,2.1098,0,0.000885,0,0
0:1:6.973,20.9956,2.1029,0,0.000885,0,0
0:1:7.071,20.8221,2.08222,0,0.000885,0,0
0:1:7.171,20.9378,2.09601,0,0.000885,0,0
0:1:7.276,20.9378,2.09601,0,0.000885,0,0
0:1:7.385,20.7643,2.07532,0,0.000885,0,0
0:1:7.484,20.8221,2.08222,0,0.000885,0,0
0:1:7.584,20.5864,2.06153,0,0.000885,0,0
0:1:7.682,20.5864,2.06153,0,0.000885,0,0
0:1:7.788,20.4707,2.04774,0,0.000885,0,0
0:1:7.891,20.4084,2.04085,0,0.000885,0,0
0:1:7.991,20.4084,2.04085,0,0.000885,0,0
0:1:8.090,20.4084,2.04085,0,0.000885,0,0
0:1:8.189,20.1771,2.02016,0,0.000885,0,0
0:1:8.285,20.1193,2.01327,0,0.000885,0,0
0:1:8.390,20.1193,2.01327,0,0.000885,0,0
0:1:8.489,20.1193,2.01327,0,0.000885,0,0
0:1:8.589,19.8836,1.98569,0,0.000885,0,0
0:1:8.688,19.5321,1.95122,0,0.000885,0,0
0:1:8.785,19.4699,1.94432,0,0.000885,0,0
0:1:8.889,19.4699,1.94432,0,0.000885,0,0
0:1:8.987,19.5321,1.95122,0,0.000885,0,0
0:1:9.086,19.4699,1.94432,0,0.000885,0,0
0:1:9.186,19.4699,1.94432,0,0.000885,0,0
0:1:9.284,19.6478,1.96501,0,0.000885,0,0
0:1:9.385,19.5321,1.95122,0,0.000885,0,0
0:1:9.484,19.5321,1.95122,0,0.000885,0,0
0:1:9.585,19.5321,1.95122,0,0.000885,0,0
0:1:9.683,19.4699,1.94432,0,0.000885,0,0
0:1:9.783,19.1807,1.91674,0,0.000885,0,0
0:1:9.882,18.8871,1.88916,0,0.000885,0,0
0:1:9.982,18.8871,1.88916,0,0.000885,0,0
0:1:10.078,18.945,1.89606,0,0.000885,0,0
0:1:10.178,18.945,1.89606,0,0.000885,0,0
0:1:10.276,18.945,1.89606,0,0.000885,0,0
0:1:10.375,18.945,1.89606,0,0.000885,0,0
0:1:10.474,18.8871,1.88916,0,0.000885,0,0
0:1:10.573,18.6514,1.86848,0,0.000885,0,0
0:1:10.673,18.4735,1.84779,0,0.000885,0,0
0:1:10.772,18.4735,1.84779,0,0.000885,0,0
0:1:10.877,18.767,1.87537,0,0.000885,0,0
0:1:10.985,18.5357,1.85469,0,0.000885,0,0
0:1:11.083,18.4156,1.8409,0,0.000885,0,0
0:1:11.182,18.4156,1.8409,0,0.000885,0,0
0:1:11.279,18.3578,1.83401,0,0.000885,0,0
0:1:11.386,18.0642,1.80643,0,0.000885,0,0
0:1:11.483,18.0642,1.80643,0,0.000885,0,0
0:1:11.578,17.9486,1.79264,0,0.000885,0,0
0:1:11.678,17.4192,1.74437,0,0.000885,0,0
0:1:11.778,17.5349,1.75127,0,0.000885,0,0
0:1:11.874,17.5349,1.75127,0,0.000885,0,0
0:1:11.982,17.01,1.70301,0,0.000885,0,0
0:1:12.078,17.1835,1.71679,0,0.000885,0,0
0:1:12.148,17.1835,1.71679,0,0.000885,0,0