File: DataFile2021-06-30_075552.csv
Test ID:,Date Tested:,Time:,Test Type:,Diameter Avg. (mm):,Cyl. Corr. Factor:,Height (mm):,Age (days):,Weight (kN):,Break Type:,Ramp Rate (MPa/s):,Load at Break (kN):,Stress at Break (MPa):
12,6/30/2021,07:55,Cylinder,100,1,200,0,3.6,3,0.25,461.23,58.72
Sample Time,Load (kN),Stress (MPa),Long. Strain,Trans. Strain,Chan1 Deflection (mm),Chan2 Deflection (mm)
0:0:23.821,5.10211,0.648107,0,0.000885,0,0
0:0:24.017,7.09491,0.903213,0,0.000885,0,0
0:0:24.221,10.2042,1.29621,0,0.000885,0,0
0:0:24.427,12.375,1.5789,0,0.000885,0,0
0:0:24.628,12.1392,1.54443,0,0.000885,0,0
0:0:24.825,12.4328,1.58579,0,0.000885,0,0
0:0:25.023,12.1392,1.54443,0,0.000885,0,0
0:0:25.225,12.0814,1.53753,0,0.000885,0,0
0:0:25.428,11.9079,1.51685,0,0.000885,0,0
0:0:25.629,11.6721,1.48927,0,0.000885,0,0
0:0:25.827,11.2006,1.42721,0,0.000885,0,0
0:0:26.024,11.4364,1.45479,0,0.000885,0,0
0:0:26.224,11.4364,1.45479,0,0.000885,0,0
0:0:26.430,11.4942,1.46169,0,0.000885,0,0
0:0:26.629,11.0271,1.40653,0,0.000885,0,0
0:0:26.828,11.1428,1.42032,0,0.000885,0,0
0:0:27.023,11.4364,1.45479,0,0.000885,0,0
0:0:27.224,11.1428,1.42032,0,0.000885,0,0
0:0:27.420,11.73,1.49616,0,0.000885,0,0
0:0:27.629,11.8456,1.50995,0,0.000885,0,0
0:0:27.828,11.9079,1.51685,0,0.000885,0,0
0:0:28.024,12.4328,1.58579,0,0.000885,0,0
0:0:28.225,12.8465,1.63406,0,0.000885,0,0
0:0:28.424,13.1979,1.68232,0,0.000885,0,0
0:0:28.623,13.785,1.75816,0,0.000885,0,0
0:0:28.821,14.1943,1.80643,0,0.000885,0,0
0:0:29.027,14.4879,1.84779,0,0.000885,0,0
0:0:29.229,14.7814,1.88227,0,0.000885,0,0
0:0:29.431,15.4843,1.9719,0,0.000885,0,0
0:0:29.633,15.7778,2.00637,0,0.000885,0,0
0:0:29.836,16.5963,2.11669,0,0.000885,0,0
0:0:30.038,16.8321,2.14427,0,0.000885,0,0
0:0:30.239,17.4192,2.22011,0,0.000885,0,0
0:0:30.441,18.6514,2.3718,0,0.000885,0,0
0:0:30.640,18.6514,2.3718,0,0.000885,0,0
0:0:30.843,19.412,2.47522,0,0.000885,0,0
0:0:31.041,19.9414,2.53727,0,0.000885,0,0
0:0:31.243,20.2928,2.58553,0,0.000885,0,0
0:0:31.441,20.5285,2.61311,0,0.000885,0,0
0:0:31.640,21.5249,2.73722,0,0.000885,0,0
0:0:31.840,21.7029,2.7648,0,0.000885,0,0
0:0:32.035,21.9342,2.79238,0,0.000885,0,0
0:0:32.237,22.2278,2.82685,0,0.000885,0,0
0:0:32.436,22.7571,2.8958,0,0.000885,0,0
0:0:32.634,22.9306,2.91648,0,0.000885,0,0
0:0:32.837,23.6957,3.0199,0,0.000885,0,0
0:0:33.032,24.0471,3.06127,0,0.000885,0,0
0:0:33.234,24.3985,3.10954,0,0.000885,0,0
0:0:33.433,24.6343,3.13711,0,0.000885,0,0
0:0:33.629,24.6343,3.13711,0,0.000885,0,0
0:0:33.832,24.9278,3.17159,0,0.000885,0,0
0:0:34.026,25.1591,3.20606,0,0.000885,0,0
0:0:34.226,25.1013,3.19917,0,0.000885,0,0
0:0:34.427,25.2792,3.21985,0,0.000885,0,0
0:0:34.631,25.9242,3.30259,0,0.000885,0,0
0:0:34.833,26.16,3.33017,0,0.000885,0,0
0:0:35.036,26.9206,3.42669,0,0.000885,0,0
0:0:35.237,26.805,3.4129,0,0.000885,0,0
0:0:35.438,27.7436,3.53012,0,0.000885,0,0
0:0:35.641,27.9749,3.56459,0,0.000885,0,0
0:0:35.843,28.562,3.63354,0,0.000885,0,0
0:0:36.041,29.0914,3.70248,0,0.000885,0,0
0:0:36.241,29.7364,3.78522,0,0.000885,0,0
0:0:36.440,30.1456,3.84038,0,0.000885,0,0
0:0:36.637,30.7328,3.91622,0,0.000885,0,0
0:0:36.840,31.2621,3.97827,0,0.000885,0,0
0:0:37.038,31.7292,4.04033,0,0.000885,0,0
0:0:37.236,32.1384,4.09549,0,0.000885,0,0
0:0:37.437,32.6677,4.15754,0,0.000885,0,0
0:0:37.631,32.7256,4.16443,0,0.000885,0,0
0:0:37.833,32.9035,4.19201,0,0.000885,0,0
0:0:38.033,33.1971,4.22649,0,0.000885,0,0
0:0:38.230,33.8421,4.30922,0,0.000885,0,0
0:0:38.431,33.9577,4.32301,0,0.000885,0,0
0:0:38.627,34.367,4.37817,0,0.000885,0,0
0:0:38.827,34.5449,4.39886,0,0.000885,0,0
0:0:39.027,34.6605,4.41264,0,0.000885,0,0
0:0:39.224,35.5991,4.52986,0,0.000885,0,0
0:0:39.426,35.777,4.55743,0,0.000885,0,0
0:0:39.629,36.0706,4.59191,0,0.000885,0,0
0:0:39.833,36.5377,4.65396,0,0.000885,0,0
0:0:40.035,37.1249,4.7298,0,0.000885,0,0
0:0:40.237,37.245,4.74359,0,0.000885,0,0
0:0:40.438,38.1213,4.85391,0,0.000885,0,0
0:0:40.639,38.2992,4.87459,0,0.000885,0,0
0:0:40.841,38.6506,4.92286,0,0.000885,0,0
0:0:41.040,39.1177,4.97801,0,0.000885,0,0
0:0:41.238,39.5892,5.04007,0,0.000885,0,0
0:0:41.440,39.8249,5.06765,0,0.000885,0,0
0:0:41.636,40.292,5.1297,0,0.000885,0,0
0:0:41.836,40.3498,5.13659,0,0.000885,0,0
0:0:42.037,40.6434,5.17796,0,0.000885,0,0
0:0:42.233,41.3507,5.26759,0,0.000885,0,0
0:0:42.436,42.1691,5.37102,0,0.000885,0,0
0:0:42.632,42.6407,5.42617,0,0.000885,0,0
0:0:42.830,42.9921,5.47444,0,0.000885,0,0
0:0:43.032,42.9921,5.47444,0,0.000885,0,0
0:0:43.227,43.2234,5.50202,0,0.000885,0,0
0:0:43.429,43.6371,5.55717,0,0.000885,0,0
0:0:43.626,43.9306,5.59165,0,0.000885,0,0
0:0:43.825,44.4555,5.6606,0,0.000885,0,0
0:0:44.028,44.8692,5.71575,0,0.000885,0,0
0:0:44.229,45.2206,5.75712,0,0.000885,0,0
0:0:44.432,45.4519,5.7847,0,0.000885,0,0
0:0:44.635,45.7455,5.82607,0,0.000885,0,0
0:0:44.836,45.9813,5.85365,0,0.000885,0,0
0:0:45.038,46.5684,5.92949,0,0.000885,0,0
0:0:45.239,47.0355,5.99154,0,0.000885,0,0
0:0:45.441,47.507,6.0467,0,0.000885,0,0
0:0:45.641,47.8006,6.08807,0,0.000885,0,0
0:0:45.836,48.2098,6.13633,0,0.000885,0,0
0:0:46.038,48.6191,6.19149,0,0.000885,0,0
0:0:46.237,49.5576,6.3087,0,0.000885,0,0
0:0:46.435,49.5576,6.3087,0,0.000885,0,0
0:0:46.637,50.3806,6.41212,0,0.000885,0,0
0:0:46.831,50.5585,6.4397,0,0.000885,0,0
0:0:47.033,50.6163,6.4466,0,0.000885,0,0
0:0:47.230,51.1412,6.50865,0,0.000885,0,0
0:0:47.430,51.9063,6.61207,0,0.000885,0,0
0:0:47.631,52.2577,6.65344,0,0.000885,0,0
0:0:47.825,52.4935,6.68102,0,0.000885,0,0
0:0:48.027,52.787,6.72239,0,0.000885,0,0
0:0:48.225,53.1963,6.77065,0,0.000885,0,0
0:0:48.423,53.432,6.80513,0,0.000885,0,0
0:0:48.626,53.7834,6.84649,0,0.000885,0,0
0:0:48.829,54.3083,6.91544,0,0.000885,0,0
0:0:49.030,54.3706,6.92234,0,0.000885,0,0
0:0:49.232,55.0156,7.00507,0,0.000885,0,0
0:0:49.435,55.4827,7.06713,0,0.000885,0,0
0:0:49.638,55.5405,7.07402,0,0.000885,0,0
0:0:49.840,55.7184,7.09471,0,0.000885,0,0
0:0:50.042,56.3634,7.17744,0,0.000885,0,0
0:0:50.242,57.302,7.29465,0,0.000885,0,0
0:0:50.444,57.5956,7.33602,0,0.000885,0,0
0:0:50.646,57.7691,7.35671,0,0.000885,0,0
0:0:50.846,58.4763,7.44634,0,0.000885,0,0
0:0:51.043,58.7699,7.48081,0,0.000885,0,0
0:0:51.245,59.2948,7.54976,0,0.000885,0,0
0:0:51.440,59.5305,7.57734,0,0.000885,0,0
0:0:51.643,59.882,7.6256,0,0.000885,0,0
0:0:51.841,60.2334,7.66697,0,0.000885,0,0
0:0:52.038,60.527,7.70834,0,0.000885,0,0
0:0:52.240,60.8784,7.74971,0,0.000885,0,0
0:0:52.436,61.5234,7.83244,0,0.000885,0,0
0:0:52.638,61.6435,7.84623,0,0.000885,0,0
0:0:52.838,62.4041,7.94276,0,0.000885,0,0
0:0:53.034,62.582,7.97034,0,0.000885,0,0
0:0:53.235,62.4619,7.94966,0,0.000885,0,0
0:0:53.431,63.3427,8.06687,0,0.000885,0,0
0:0:53.633,63.6363,8.10134,0,0.000885,0,0
0:0:53.834,64.1656,8.17029,0,0.000885,0,0
0:0:54.028,64.5748,8.21855,0,0.000885,0,0
0:0:54.231,65.1042,8.2875,0,0.000885,0,0
0:0:54.433,65.3933,8.32887,0,0.000885,0,0
0:0:54.636,65.807,8.37713,0,0.000885,0,0
0:0:54.839,66.1584,8.42539,0,0.000885,0,0
0:0:55.041,66.8034,8.50813,0,0.000885,0,0
0:0:55.241,66.9769,8.52881,0,0.000885,0,0
0:0:55.444,67.2705,8.56329,0,0.000885,0,0
0:0:55.645,67.3906,8.57708,0,0.000885,0,0
0:0:55.847,68.2713,8.69429,0,0.000885,0,0
0:0:56.044,68.5026,8.72187,0,0.000885,0,0
0:0:56.243,69.2677,8.81839,0,0.000885,0,0
0:0:56.442,68.9163,8.77703,0,0.000885,0,0
0:0:56.638,69.4412,8.83908,0,0.000885,0,0
0:0:56.840,69.7348,8.88045,0,0.000885,0,0
0:0:57.038,70.2063,8.93561,0,0.000885,0,0
0:0:57.237,70.789,9.01145,0,0.000885,0,0
0:0:57.437,71.0248,9.04592,0,0.000885,0,0
0:0:57.631,71.1449,9.05971,0,0.000885,0,0
0:0:57.833,71.9055,9.15624,0,0.000885,0,0
0:0:58.032,72.6661,9.25276,0,0.000885,0,0
0:0:58.229,72.3726,9.21829,0,0.000885,0,0
0:0:58.430,72.9019,9.28034,0,0.000885,0,0
0:0:58.625,73.5469,9.36308,0,0.000885,0,0
0:0:58.828,74.1341,9.43892,0,0.000885,0,0
0:0:59.027,74.1919,9.44582,0,0.000885,0,0
0:0:59.232,74.7791,9.52166,0,0.000885,0,0
0:0:59.434,75.0148,9.54924,0,0.000885,0,0
0:0:59.637,75.3662,9.5975,0,0.000885,0,0
0:0:59.841,75.9534,9.67334,0,0.000885,0,0
0:1:0.044,76.3048,9.71471,0,0.000885,0,0
0:1:0.245,76.8341,9.78366,0,0.000885,0,0
0:1:0.447,77.0654,9.81124,0,0.000885,0,0
0:1:0.647,77.2434,9.83192,0,0.000885,0,0
0:1:0.850,78.1819,9.95603,0,0.000885,0,0
0:1:1.051,78.649,10.0112,0,0.000885,0,0
0:1:1.247,79.1783,10.0801,0,0.000885,0,0
0:1:1.449,79.4719,10.1215,0,0.000885,0,0
0:1:1.646,79.7077,10.1491,0,0.000885,0,0
0:1:1.844,79.7655,10.156,0,0.000885,0,0
0:1:2.046,80.4683,10.2456,0,0.000885,0,0
0:1:2.240,80.4683,10.2456,0,0.000885,0,0
0:1:2.443,80.9398,10.3077,0,0.000885,0,0
0:1:2.641,81.4647,10.3697,0,0.000885,0,0
0:1:2.838,82.1097,10.4525,0,0.000885,0,0
0:1:3.041,82.2298,10.4662,0,0.000885,0,0
0:1:3.237,82.2298,10.4662,0,0.000885,0,0
0:1:3.438,82.4611,10.5007,0,0.000885,0,0
0:1:3.638,83.2841,10.6041,0,0.000885,0,0
0:1:3.833,83.6933,10.6593,0,0.000885,0,0
0:1:4.034,84.0447,10.7007,0,0.000885,0,0
0:1:4.236,84.6897,10.7834,0,0.000885,0,0
0:1:4.438,84.6897,10.7834,0,0.000885,0,0
0:1:4.642,85.9218,10.942,0,0.000885,0,0
0:1:4.844,85.9218,10.942,0,0.000885,0,0
0:1:5.045,86.4512,11.004,0,0.000885,0,0
0:1:5.246,86.6247,11.0316,0,0.000885,0,0
0:1:5.449,86.8604,11.0592,0,0.000885,0,0
0:1:5.649,87.2118,11.1075,0,0.000885,0,0
0:1:5.846,88.3862,11.2522,0,0.000885,0,0
0:1:6.047,88.6797,11.2936,0,0.000885,0,0
0:1:6.244,88.3862,11.2522,0,0.000885,0,0
0:1:6.443,88.9155,11.3212,0,0.000885,0,0
0:1:6.644,89.2669,11.3626,0,0.000885,0,0
0:1:6.840,89.4404,11.3901,0,0.000885,0,0
0:1:7.041,90.3211,11.5005,0,0.000885,0,0
0:1:7.239,90.3211,11.5005,0,0.000885,0,0
0:1:7.436,90.8505,11.5694,0,0.000885,0,0
0:1:7.639,91.3175,11.6246,0,0.000885,0,0
0:1:7.835,92.0248,11.7142,0,0.000885,0,0
0:1:8.035,92.5497,11.7831,0,0.000885,0,0
0:1:8.233,92.5497,11.7831,0,0.000885,0,0
0:1:8.431,92.7276,11.8038,0,0.000885,0,0
0:1:8.633,92.9011,11.8314,0,0.000885,0,0
0:1:8.830,93.6084,11.921,0,0.000885,0,0
0:1:9.028,93.6084,11.921,0,0.000885,0,0
0:1:9.230,94.6048,12.0451,0,0.000885,0,0
0:1:9.434,95.0718,12.1072,0,0.000885,0,0
0:1:9.636,95.014,12.1003,0,0.000885,0,0
0:1:9.838,95.4811,12.1555,0,0.000885,0,0
0:1:10.040,96.3618,12.2727,0,0.000885,0,0
0:1:10.242,96.4819,12.2865,0,0.000885,0,0
0:1:10.442,96.8912,12.3347,0,0.000885,0,0
0:1:10.644,97.1269,12.3692,0,0.000885,0,0
0:1:10.846,97.5362,12.4175,0,0.000885,0,0
0:1:11.041,97.5362,12.4175,0,0.000885,0,0
0:1:11.243,98.1811,12.5002,0,0.000885,0,0
0:1:11.439,98.4169,12.5278,0,0.000885,0,0
0:1:11.640,99.1775,12.6243,0,0.000885,0,0
0:1:11.842,99.7069,12.6932,0,0.000885,0,0
0:1:12.036,100.058,12.7415,0,0.000885,0,0
0:1:12.238,100.588,12.8036,0,0.000885,0,0
0:1:12.434,100.41,12.7829,0,0.000885,0,0
0:1:12.633,101.29,12.8932,0,0.000885,0,0
0:1:12.835,101.406,12.9139,0,0.000885,0,0
0:1:13.030,101.758,12.9552,0,0.000885,0,0
0:1:13.230,101.993,12.9828,0,0.000885,0,0
0:1:13.430,102.816,13.0931,0,0.000885,0,0
0:1:13.635,102.874,13.1,0,0.000885,0,0
0:1:13.837,103.105,13.1276,0,0.000885,0,0
0:1:14.034,103.519,13.1828,0,0.000885,0,0
0:1:14.234,104.4,13.2931,0,0.000885,0,0
0:1:14.435,104.515,13.3069,0,0.000885,0,0
0:1:14.638,105.045,13.3758,0,0.000885,0,0
0:1:14.841,104.982,13.3689,0,0.000885,0,0
0:1:15.043,105.863,13.4793,0,0.000885,0,0
0:1:15.244,106.099,13.5068,0,0.000885,0,0
0:1:15.446,106.686,13.5827,0,0.000885,0,0
0:1:15.647,106.98,13.624,0,0.000885,0,0
0:1:15.849,107.447,13.6792,0,0.000885,0,0
0:1:16.047,108.034,13.755,0,0.000885,0,0
0:1:16.246,108.385,13.8033,0,0.000885,0,0
0:1:16.448,108.795,13.8516,0,0.000885,0,0
0:1:16.643,109.088,13.8929,0,0.000885,0,0
0:1:16.844,109.324,13.9205,0,0.000885,0,0
0:1:17.043,109.502,13.9412,0,0.000885,0,0
0:1:17.241,110.027,14.0101,0,0.000885,0,0
0:1:17.443,110.263,14.0377,0,0.000885,0,0
0:1:17.639,111.085,14.1411,0,0.000885,0,0
0:1:17.839,111.259,14.1687,0,0.000885,0,0
0:1:18.040,111.317,14.1756,0,0.000885,0,0
0:1:18.234,111.495,14.1963,0,0.000885,0,0
0:1:18.437,112.842,14.3687,0,0.000885,0,0
0:1:18.634,112.727,14.3549,0,0.000885,0,0
0:1:18.831,113.43,14.4445,0,0.000885,0,0
0:1:19.034,113.959,14.5066,0,0.000885,0,0
0:1:19.235,114.484,14.5755,0,0.000885,0,0
0:1:19.438,114.426,14.5686,0,0.000885,0,0
0:1:19.641,115.129,14.6583,0,0.000885,0,0
0:1:19.843,115.485,14.7065,0,0.000885,0,0
0:1:20.044,115.658,14.7272,0,0.000885,0,0
0:1:20.246,115.836,14.7479,0,0.000885,0,0
0:1:20.449,116.655,14.8513,0,0.000885,0,0
0:1:20.649,116.89,14.8858,0,0.000885,0,0
0:1:20.846,117.184,14.9203,0,0.000885,0,0
0:1:21.048,117.42,14.9478,0,0.000885,0,0
0:1:21.245,118.123,15.0375,0,0.000885,0,0
0:1:21.444,118.474,15.0857,0,0.000885,0,0
0:1:21.645,119.47,15.2098,0,0.000885,0,0
0:1:21.840,119.59,15.2236,0,0.000885,0,0
0:1:22.041,119.59,15.2236,0,0.000885,0,0
0:1:22.239,119.706,15.2443,0,0.000885,0,0
0:1:22.437,119.942,15.2719,0,0.000885,0,0
0:1:22.640,121.112,15.4236,0,0.000885,0,0
0:1:22.834,120.938,15.396,0,0.000885,0,0
0:1:23.036,121.463,15.4649,0,0.000885,0,0
0:1:23.235,121.757,15.4994,0,0.000885,0,0
0:1:23.432,122.05,15.5408,0,0.000885,0,0
0:1:23.635,122.402,15.5822,0,0.000885,0,0
0:1:23.831,123.225,15.6925,0,0.000885,0,0
0:1:24.031,123.518,15.7269,0,0.000885,0,0
0:1:24.232,123.576,15.7338,0,0.000885,0,0
0:1:24.435,123.927,15.7821,0,0.000885,0,0
0:1:24.638,124.75,15.8855,0,0.000885,0,0
0:1:24.841,125.338,15.9614,0,0.000885,0,0
0:1:25.042,125.511,15.982,0,0.000885,0,0
0:1:25.243,125.631,15.9958,0,0.000885,0,0
0:1:25.444,126.04,16.051,0,0.000885,0,0
0:1:25.646,126.57,16.113,0,0.000885,0,0
0:1:25.844,127.037,16.1751,0,0.000885,0,0
0:1:26.041,127.095,16.182,0,0.000885,0,0
0:1:26.244,128.091,16.3061,0,0.000885,0,0
0:1:26.438,128.327,16.3406,0,0.000885,0,0
0:1:26.641,128.505,16.3613,0,0.000885,0,0
0:1:26.839,128.856,16.4095,0,0.000885,0,0
0:1:27.036,129.501,16.4854,0,0.000885,0,0
0:1:27.239,130.026,16.5543,0,0.000885,0,0
0:1:27.433,129.737,16.5198,0,0.000885,0,0
0:1:27.635,130.965,16.6784,0,0.000885,0,0
0:1:27.833,131.142,16.6991,0,0.000885,0,0
0:1:28.030,131.378,16.7267,0,0.000885,0,0
0:1:28.231,131.436,16.7336,0,0.000885,0,0
0:1:28.428,131.73,16.7749,0,0.000885,0,0
0:1:28.628,132.081,16.8163,0,0.000885,0,0
0:1:28.829,132.668,16.8922,0,0.000885,0,0
0:1:29.033,133.255,16.968,0,0.000885,0,0
0:1:29.235,133.9,17.0507,0,0.000885,0,0
0:1:29.436,134.31,17.099,0,0.000885,0,0
0:1:29.640,134.603,17.1404,0,0.000885,0,0
0:1:29.843,135.012,17.1886,0,0.000885,0,0
0:1:30.045,135.657,17.2714,0,0.000885,0,0
0:1:30.246,136.129,17.3334,0,0.000885,0,0
0:1:30.448,136.48,17.3748,0,0.000885,0,0
0:1:30.651,136.36,17.361,0,0.000885,0,0
0:1:30.851,137.125,17.4575,0,0.000885,0,0
0:1:31.048,137.361,17.492,0,0.000885,0,0
0:1:31.248,137.592,17.5196,0,0.000885,0,0
0:1:31.448,137.655,17.5265,0,0.000885,0,0
0:1:31.644,138.18,17.5954,0,0.000885,0,0
0:1:31.844,138.357,17.6161,0,0.000885,0,0
0:1:32.043,138.945,17.6919,0,0.000885,0,0
0:1:32.242,139.354,17.7402,0,0.000885,0,0
0:1:32.441,139.59,17.7747,0,0.000885,0,0
0:1:32.637,140.177,17.8505,0,0.000885,0,0
0:1:32.839,140.292,17.8643,0,0.000885,0,0
0:1:33.038,141.053,17.9608,0,0.000885,0,0
0:1:33.236,141.698,18.0436,0,0.000885,0,0
0:1:33.439,142.05,18.0849,0,0.000885,0,0
0:1:33.633,142.463,18.1401,0,0.000885,0,0
0:1:33.835,143.282,18.2435,0,0.000885,0,0
0:1:34.035,143.05,18.2159,0,0.000885,0,0
0:1:34.231,143.575,18.278,0,0.000885,0,0
0:1:34.433,143.695,18.2987,0,0.000885,0,0
0:1:34.636,144.34,18.3745,0,0.000885,0,0
0:1:34.840,144.807,18.4366,0,0.000885,0,0
0:1:35.043,145.452,18.5193,0,0.000885,0,0
0:1:35.243,145.688,18.5469,0,0.000885,0,0
0:1:35.444,145.63,18.54,0,0.000885,0,0
0:1:35.645,146.391,18.6365,0,0.000885,0,0
0:1:35.846,146.569,18.6641,0,0.000885,0,0
0:1:36.048,146.92,18.7055,0,0.000885,0,0
0:1:36.243,147.156,18.7331,0,0.000885,0,0
0:1:36.445,148.152,18.8641,0,0.000885,0,0
0:1:36.642,148.504,18.9054,0,0.000885,0,0
0:1:36.840,148.913,18.9606,0,0.000885,0,0
0:1:37.042,149.442,19.0295,0,0.000885,0,0
0:1:37.238,149.794,19.0709,0,0.000885,0,0
0:1:37.438,149.852,19.0778,0,0.000885,0,0
0:1:37.638,150.675,19.1812,0,0.000885,0,0
0:1:37.833,150.323,19.1398,0,0.000885,0,0
0:1:38.035,150.968,19.2226,0,0.000885,0,0
0:1:38.231,150.612,19.1743,0,0.000885,0,0
0:1:38.431,151.551,19.2984,0,0.000885,0,0
0:1:38.632,151.965,19.3467,0,0.000885,0,0
0:1:38.828,152.845,19.4639,0,0.000885,0,0
0:1:39.030,153.077,19.4915,0,0.000885,0,0
0:1:39.232,153.49,19.5397,0,0.000885,0,0
0:1:39.435,153.312,19.5191,0,0.000885,0,0
0:1:39.638,154.487,19.6707,0,0.000885,0,0
0:1:39.840,154.429,19.6638,0,0.000885,0,0
0:1:40.041,154.954,19.7328,0,0.000885,0,0
0:1:40.243,155.425,19.788,0,0.000885,0,0
0:1:40.443,155.541,19.8017,0,0.000885,0,0
0:1:40.646,156.128,19.8776,0,0.000885,0,0
0:1:40.842,156.715,19.9534,0,0.000885,0,0
0:1:41.042,157.125,20.0086,0,0.000885,0,0
0:1:41.240,157.24,20.0224,0,0.000885,0,0
0:1:41.439,158.063,20.1258,0,0.000885,0,0
0:1:41.640,157.77,20.0844,0,0.000885,0,0
0:1:41.837,158.472,20.1741,0,0.000885,0,0
0:1:42.037,158.886,20.2292,0,0.000885,0,0
0:1:42.236,159.295,20.2844,0,0.000885,0,0
0:1:42.433,159.411,20.2982,0,0.000885,0,0
0:1:42.635,160.114,20.3878,0,0.000885,0,0
0:1:42.832,160.234,20.4016,0,0.000885,0,0
0:1:43.031,160.763,20.4705,0,0.000885,0,0
0:1:43.231,160.994,20.4981,0,0.000885,0,0
0:1:43.428,161.408,20.5533,0,0.000885,0,0
0:1:43.630,162.169,20.6498,0,0.000885,0,0
0:1:43.839,162.462,20.6843,0,0.000885,0,0
0:1:44.036,163.05,20.7601,0,0.000885,0,0
0:1:44.237,162.872,20.7394,0,0.000885,0,0
0:1:44.440,163.281,20.7877,0,0.000885,0,0
0:1:44.641,163.93,20.8704,0,0.000885,0,0
0:1:44.844,163.81,20.8566,0,0.000885,0,0
0:1:45.047,164.927,21.0014,0,0.000885,0,0
0:1:45.247,164.927,21.0014,0,0.000885,0,0
0:1:45.449,165.687,21.098,0,0.000885,0,0
0:1:45.650,166.039,21.1393,0,0.000885,0,0
0:1:45.852,166.684,21.2221,0,0.000885,0,0
0:1:46.048,167.155,21.2841,0,0.000885,0,0
0:1:46.250,167.271,21.2979,0,0.000885,0,0
0:1:46.447,167.622,21.3393,0,0.000885,0,0
0:1:46.646,168.209,21.4151,0,0.000885,0,0
0:1:46.847,168.503,21.4565,0,0.000885,0,0
0:1:47.043,168.739,21.4841,0,0.000885,0,0
0:1:47.245,169.264,21.553,0,0.000885,0,0
0:1:47.442,169.735,21.6082,0,0.000885,0,0
0:1:47.640,169.851,21.6289,0,0.000885,0,0
0:1:47.841,170.202,21.6702,0,0.000885,0,0
0:1:48.038,170.616,21.7254,0,0.000885,0,0
0:1:48.238,170.847,21.753,0,0.000885,0,0
0:1:48.437,171.555,21.8426,0,0.000885,0,0
0:1:48.634,171.261,21.8081,0,0.000885,0,0
0:1:48.835,171.786,21.8702,0,0.000885,0,0
0:1:49.033,172.137,21.9184,0,0.000885,0,0
0:1:49.232,172.551,21.9667,0,0.000885,0,0
0:1:49.434,173.49,22.0908,0,0.000885,0,0
0:1:49.638,173.957,22.146,0,0.000885,0,0
0:1:49.841,174.135,22.1735,0,0.000885,0,0
0:1:50.042,174.308,22.1942,0,0.000885,0,0
0:1:50.244,174.722,22.2494,0,0.000885,0,0
0:1:50.445,175.015,22.2839,0,0.000885,0,0
0:1:50.647,176.07,22.4149,0,0.000885,0,0
0:1:50.848,176.127,22.4286,0,0.000885,0,0
0:1:51.047,176.772,22.5045,0,0.000885,0,0
0:1:51.246,177.008,22.539,0,0.000885,0,0
0:1:51.446,177.417,22.5872,0,0.000885,0,0
0:1:51.641,177.769,22.6355,0,0.000885,0,0
0:1:51.843,178.534,22.732,0,0.000885,0,0
0:1:52.041,178.24,22.6906,0,0.000885,0,0
0:1:52.240,178.827,22.7665,0,0.000885,0,0
0:1:52.441,178.943,22.7803,0,0.000885,0,0
0:1:52.636,179.646,22.8699,0,0.000885,0,0
0:1:52.838,179.824,22.8975,0,0.000885,0,0
0:1:53.038,180.469,22.9802,0,0.000885,0,0
0:1:53.236,180.936,23.0354,0,0.000885,0,0
0:1:53.438,181.345,23.0905,0,0.000885,0,0
0:1:53.631,181.817,23.1526,0,0.000885,0,0
0:1:53.833,182.404,23.2215,0,0.000885,0,0
0:1:54.032,182.226,23.2009,0,0.000885,0,0
0:1:54.229,182.871,23.2836,0,0.000885,0,0
0:1:54.432,183.107,23.3112,0,0.000885,0,0
0:1:54.635,183.867,23.4077,0,0.000885,0,0
0:1:54.838,184.103,23.4422,0,0.000885,0,0
0:1:55.039,184.103,23.4422,0,0.000885,0,0
0:1:55.241,184.281,23.4629,0,0.000885,0,0
0:1:55.444,184.69,23.518,0,0.000885,0,0
0:1:55.644,185.451,23.6145,0,0.000885,0,0
0:1:55.847,186.038,23.6904,0,0.000885,0,0
0:1:56.046,186.745,23.78,0,0.000885,0,0
0:1:56.242,186.567,23.7524,0,0.000885,0,0
0:1:56.445,187.328,23.849,0,0.000885,0,0
0:1:56.640,187.212,23.8352,0,0.000885,0,0
0:1:56.841,187.857,23.9179,0,0.000885,0,0
0:1:57.040,188.68,24.0213,0,0.000885,0,0
0:1:57.236,189.205,24.0903,0,0.000885,0,0
0:1:57.437,188.796,24.0351,0,0.000885,0,0
0:1:57.635,189.263,24.0972,0,0.000885,0,0
0:1:57.833,189.85,24.173,0,0.000885,0,0
0:1:58.034,190.379,24.242,0,0.000885,0,0
0:1:58.226,190.557,24.2627,0,0.000885,0,0
0:1:58.432,191.376,24.3661,0,0.000885,0,0
0:1:58.630,191.14,24.3385,0,0.000885,0,0
0:1:58.825,191.612,24.3937,0,0.000885,0,0
0:1:59.027,192.021,24.4488,0,0.000885,0,0
0:1:59.232,191.963,24.4419,0,0.000885,0,0
0:1:59.435,193.017,24.5729,0,0.000885,0,0
0:1:59.634,192.959,24.566,0,0.000885,0,0
0:1:59.834,193.724,24.6625,0,0.000885,0,0
0:2:0.034,194.134,24.7177,0,0.000885,0,0
0:2:0.235,194.779,24.8004,0,0.000885,0,0
0:2:0.437,194.952,24.8211,0,0.000885,0,0
0:2:0.634,195.539,24.897,0,0.000885,0,0
0:2:0.830,195.597,24.9039,0,0.000885,0,0
0:2:1.029,196.011,24.959,0,0.000885,0,0
0:2:1.233,196.362,25.0004,0,0.000885,0,0
0:2:1.433,197.007,25.0831,0,0.000885,0,0
0:2:1.630,197.537,25.1521,0,0.000885,0,0
0:2:1.836,198.004,25.2072,0,0.000885,0,0
0:2:2.037,198.119,25.2279,0,0.000885,0,0
0:2:2.231,198.884,25.3244,0,0.000885,0,0
0:2:2.430,198.764,25.3107,0,0.000885,0,0
0:2:2.630,199,25.3382,0,0.000885,0,0
0:2:2.833,199.881,25.4485,0,0.000885,0,0
0:2:3.034,200.059,25.4692,0,0.000885,0,0
0:2:3.227,200.348,25.5106,0,0.000885,0,0
0:2:3.425,200.526,25.5313,0,0.000885,0,0
0:2:3.624,200.819,25.5658,0,0.000885,0,0
0:2:3.831,201.464,25.6485,0,0.000885,0,0
0:2:4.031,201.816,25.6968,0,0.000885,0,0
0:2:4.231,202.052,25.7243,0,0.000885,0,0
0:2:4.434,202.99,25.8484,0,0.000885,0,0
0:2:4.634,202.812,25.8209,0,0.000885,0,0
0:2:4.835,203.106,25.8622,0,0.000885,0,0
0:2:5.036,203.693,25.9381,0,0.000885,0,0
0:2:5.235,204.222,26.0001,0,0.000885,0,0
0:2:5.436,204.867,26.0829,0,0.000885,0,0
0:2:5.635,204.983,26.0967,0,0.000885,0,0
0:2:5.830,205.806,26.207,0,0.000885,0,0
0:2:6.030,206.451,26.2828,0,0.000885,0,0
0:2:6.235,206.157,26.2483,0,0.000885,0,0
0:2:6.433,206.624,26.3104,0,0.000885,0,0
0:2:6.633,206.976,26.3518,0,0.000885,0,0
0:2:6.836,207.389,26.4069,0,0.000885,0,0
0:2:7.036,207.914,26.4759,0,0.000885,0,0
0:2:7.234,208.795,26.5862,0,0.000885,0,0
0:2:7.440,208.973,26.6069,0,0.000885,0,0
0:2:7.639,209.734,26.7034,0,0.000885,0,0
0:2:7.833,209.791,26.7103,0,0.000885,0,0
0:2:8.033,210.205,26.7654,0,0.000885,0,0
0:2:8.230,210.321,26.7792,0,0.000885,0,0
0:2:8.435,210.263,26.7723,0,0.000885,0,0
0:2:8.636,210.908,26.8551,0,0.000885,0,0
0:2:8.830,211.433,26.924,0,0.000885,0,0
0:2:9.027,212.02,26.993,0,0.000885,0,0
0:2:9.230,212.434,27.0481,0,0.000885,0,0
0:2:9.431,213.079,27.1309,0,0.000885,0,0
0:2:9.632,212.959,27.1171,0,0.000885,0,0
0:2:9.834,213.604,27.1998,0,0.000885,0,0
0:2:10.034,213.897,27.2343,0,0.000885,0,0
0:2:10.234,214.311,27.2894,0,0.000885,0,0
0:2:10.432,214.249,27.2826,0,0.000885,0,0
0:2:10.633,214.836,27.3515,0,0.000885,0,0
0:2:10.830,215.307,27.4136,0,0.000885,0,0
0:2:11.026,215.481,27.4342,0,0.000885,0,0
0:2:11.226,215.659,27.4618,0,0.000885,0,0
0:2:11.432,215.774,27.4756,0,0.000885,0,0
0:2:11.632,216.655,27.5859,0,0.000885,0,0
0:2:11.826,217.184,27.6549,0,0.000885,0,0
0:2:12.022,217.594,27.7031,0,0.000885,0,0
0:2:12.222,218.061,27.7652,0,0.000885,0,0
0:2:12.428,218.417,27.8066,0,0.000885,0,0
0:2:12.631,219.062,27.8893,0,0.000885,0,0
0:2:12.835,219.119,27.8962,0,0.000885,0,0
0:2:13.032,219.413,27.9376,0,0.000885,0,0
0:2:13.232,220.058,28.0203,0,0.000885,0,0
0:2:13.435,219.938,28.0065,0,0.000885,0,0
0:2:13.637,221.17,28.1582,0,0.000885,0,0
0:2:13.831,221.054,28.1444,0,0.000885,0,0
0:2:14.026,221.584,28.2133,0,0.000885,0,0
0:2:14.228,222.344,28.3099,0,0.000885,0,0
0:2:14.428,222.518,28.3306,0,0.000885,0,0
0:2:14.632,222.518,28.3306,0,0.000885,0,0
0:2:14.833,223.519,28.4616,0,0.000885,0,0
0:2:15.033,223.634,28.4753,0,0.000885,0,0
0:2:15.234,224.101,28.5305,0,0.000885,0,0
0:2:15.432,224.631,28.5995,0,0.000885,0,0
0:2:15.633,225.102,28.6615,0,0.000885,0,0
0:2:15.831,225.627,28.7305,0,0.000885,0,0
0:2:16.035,226.099,28.7856,0,0.000885,0,0
0:2:16.236,225.685,28.7373,0,0.000885,0,0
0:2:16.440,226.624,28.8546,0,0.000885,0,0
0:2:16.639,227.331,28.9442,0,0.000885,0,0
0:2:16.838,227.331,28.9442,0,0.000885,0,0
0:2:17.032,227.446,28.958,0,0.000885,0,0
0:2:17.233,227.798,29.0062,0,0.000885,0,0
0:2:17.426,228.501,29.0959,0,0.000885,0,0
0:2:17.624,228.327,29.0683,0,0.000885,0,0
0:2:17.824,228.679,29.1166,0,0.000885,0,0
0:2:18.026,229.381,29.2062,0,0.000885,0,0
0:2:18.227,229.969,29.282,0,0.000885,0,0
0:2:18.433,229.502,29.22,0,0.000885,0,0
0:2:18.631,230.556,29.3579,0,0.000885,0,0
0:2:18.831,230.614,29.3648,0,0.000885,0,0
0:2:19.025,231.494,29.4751,0,0.000885,0,0
0:2:19.224,231.961,29.5371,0,0.000885,0,0
0:2:19.424,232.549,29.6061,0,0.000885,0,0
0:2:19.627,231.961,29.5371,0,0.000885,0,0
0:2:19.828,232.9,29.6544,0,0.000885,0,0
0:2:20.028,233.429,29.7233,0,0.000885,0,0
0:2:20.228,233.839,29.7716,0,0.000885,0,0
0:2:20.428,234.016,29.7991,0,0.000885,0,0
0:2:20.627,234.604,29.8681,0,0.000885,0,0
0:2:20.828,234.719,29.8888,0,0.000885,0,0
0:2:21.036,235.249,29.9508,0,0.000885,0,0
0:2:21.232,235.48,29.9853,0,0.000885,0,0
0:2:21.432,236.245,30.0818,0,0.000885,0,0
0:2:21.636,236.832,30.1577,0,0.000885,0,0
0:2:21.836,237.241,30.2059,0,0.000885,0,0
0:2:22.033,236.89,30.1646,0,0.000885,0,0
0:2:22.227,237.886,30.2887,0,0.000885,0,0
0:2:22.427,238.064,30.3094,0,0.000885,0,0
0:2:22.633,238.474,30.3645,0,0.000885,0,0
0:2:22.834,238.883,30.4128,0,0.000885,0,0
0:2:23.029,239.061,30.4404,0,0.000885,0,0
0:2:23.235,239.586,30.5024,0,0.000885,0,0
0:2:23.435,239.879,30.5438,0,0.000885,0,0
0:2:23.639,240.702,30.6472,0,0.000885,0,0
0:2:23.838,240.587,30.6334,0,0.000885,0,0
0:2:24.037,241.347,30.7299,0,0.000885,0,0
0:2:24.232,241.814,30.792,0,0.000885,0,0
0:2:24.433,242.166,30.8334,0,0.000885,0,0
0:2:24.634,242.344,30.854,0,0.000885,0,0
0:2:24.835,242.873,30.923,0,0.000885,0,0
0:2:25.036,243.046,30.9437,0,0.000885,0,0
0:2:25.236,243.576,31.0126,0,0.000885,0,0
0:2:25.436,244.043,31.0747,0,0.000885,0,0
0:2:25.637,244.866,31.1781,0,0.000885,0,0
0:2:25.836,244.688,31.1574,0,0.000885,0,0
0:2:26.037,245.275,31.2264,0,0.000885,0,0
0:2:26.240,245.689,31.2815,0,0.000885,0,0
0:2:26.440,246.214,31.3505,0,0.000885,0,0
0:2:26.637,246.04,31.3298,0,0.000885,0,0
0:2:26.829,246.271,31.3574,0,0.000885,0,0
0:2:27.032,247.036,31.4539,0,0.000885,0,0
0:2:27.226,247.272,31.4815,0,0.000885,0,0
0:2:27.425,247.446,31.509,0,0.000885,0,0
0:2:27.635,247.975,31.5711,0,0.000885,0,0
0:2:27.839,248.326,31.6194,0,0.000885,0,0
0:2:28.039,249.029,31.709,0,0.000885,0,0
0:2:28.236,249.674,31.7917,0,0.000885,0,0
0:2:28.433,249.616,31.7848,0,0.000885,0,0
0:2:28.630,250.377,31.8814,0,0.000885,0,0
0:2:28.835,250.497,31.8951,0,0.000885,0,0
0:2:29.035,251.022,31.9641,0,0.000885,0,0
0:2:29.235,251.551,32.0261,0,0.000885,0,0
0:2:29.438,251.729,32.0537,0,0.000885,0,0
0:2:29.640,252.196,32.1089,0,0.000885,0,0
0:2:29.841,253.019,32.2123,0,0.000885,0,0
0:2:30.041,253.019,32.2123,0,0.000885,0,0
0:2:30.241,253.135,32.233,0,0.000885,0,0
0:2:30.440,253.958,32.3364,0,0.000885,0,0
0:2:30.641,254.309,32.3778,0,0.000885,0,0
0:2:30.837,254.661,32.426,0,0.000885,0,0
0:2:31.035,255.599,32.5433,0,0.000885,0,0
0:2:31.233,255.421,32.5226,0,0.000885,0,0
0:2:31.439,256.129,32.6122,0,0.000885,0,0
0:2:31.639,256.36,32.6398,0,0.000885,0,0
0:2:31.835,256.711,32.688,0,0.000885,0,0
0:2:32.029,257.005,32.7225,0,0.000885,0,0
0:2:32.229,257.183,32.7432,0,0.000885,0,0
0:2:32.425,257.65,32.8053,0,0.000885,0,0
0:2:32.624,258.064,32.8604,0,0.000885,0,0
0:2:32.830,258.415,32.9018,0,0.000885,0,0
0:2:33.026,258.295,32.888,0,0.000885,0,0
0:2:33.227,259.469,33.0397,0,0.000885,0,0
0:2:33.433,259.821,33.081,0,0.000885,0,0
0:2:33.633,259.763,33.0742,0,0.000885,0,0
0:2:33.838,259.941,33.0948,0,0.000885,0,0
0:2:34.034,261.404,33.281,0,0.000885,0,0
0:2:34.234,261.053,33.2396,0,0.000885,0,0
0:2:34.434,261.756,33.3293,0,0.000885,0,0
0:2:34.636,262.285,33.3982,0,0.000885,0,0
0:2:34.839,262.814,33.4603,0,0.000885,0,0
0:2:35.038,262.872,33.4672,0,0.000885,0,0
0:2:35.239,263.517,33.5499,0,0.000885,0,0
0:2:35.440,263.926,33.605,0,0.000885,0,0
0:2:35.640,263.984,33.6119,0,0.000885,0,0
0:2:35.839,264.104,33.6257,0,0.000885,0,0
0:2:36.034,264.398,33.6671,0,0.000885,0,0
0:2:36.235,264.691,33.7016,0,0.000885,0,0
0:2:36.438,265.336,33.7843,0,0.000885,0,0
0:2:36.638,265.919,33.8602,0,0.000885,0,0
0:2:36.838,265.568,33.8119,0,0.000885,0,0
0:2:37.029,266.333,33.9084,0,0.000885,0,0
0:2:37.229,266.92,33.9843,0,0.000885,0,0
0:2:37.438,267.503,34.0601,0,0.000885,0,0
0:2:37.633,268.21,34.1497,0,0.000885,0,0
0:2:37.834,268.383,34.1704,0,0.000885,0,0
0:2:38.037,268.971,34.2463,0,0.000885,0,0
0:2:38.237,269.38,34.3014,0,0.000885,0,0
0:2:38.435,269.149,34.2669,0,0.000885,0,0
0:2:38.628,269.967,34.3704,0,0.000885,0,0
0:2:38.828,270.318,34.4186,0,0.000885,0,0
0:2:39.036,270.554,34.4462,0,0.000885,0,0
0:2:39.243,271.084,34.5152,0,0.000885,0,0
0:2:39.443,271.902,34.6186,0,0.000885,0,0
0:2:39.645,271.964,34.6255,0,0.000885,0,0
0:2:39.845,272.253,34.6668,0,0.000885,0,0
0:2:40.046,272.961,34.7565,0,0.000885,0,0
0:2:40.246,272.961,34.7565,0,0.000885,0,0
0:2:40.446,273.428,34.8116,0,0.000885,0,0
0:2:40.645,273.721,34.853,0,0.000885,0,0
0:2:40.846,274.193,34.9082,0,0.000885,0,0
0:2:41.044,274.544,34.9564,0,0.000885,0,0
0:2:41.239,274.896,34.9978,0,0.000885,0,0
0:2:41.440,275.541,35.0805,0,0.000885,0,0
0:2:41.634,276.186,35.1633,0,0.000885,0,0
0:2:41.830,276.301,35.1771,0,0.000885,0,0
0:2:42.030,276.243,35.1702,0,0.000885,0,0
0:2:42.224,277.298,35.3081,0,0.000885,0,0
0:2:42.425,277.533,35.3356,0,0.000885,0,0
0:2:42.630,277.827,35.377,0,0.000885,0,0
0:2:42.827,278.414,35.4459,0,0.000885,0,0
0:2:43.027,277.943,35.3908,0,0.000885,0,0
0:2:43.230,278.588,35.4735,0,0.000885,0,0
0:2:43.431,279.646,35.6045,0,0.000885,0,0
0:2:43.626,279.704,35.6114,0,0.000885,0,0
0:2:43.835,280.113,35.6666,0,0.000885,0,0
0:2:44.035,280.465,35.7079,0,0.000885,0,0
0:2:44.235,280.465,35.7079,0,0.000885,0,0
0:2:44.437,281.052,35.7838,0,0.000885,0,0
0:2:44.638,282.048,35.9148,0,0.000885,0,0
0:2:44.838,281.817,35.8803,0,0.000885,0,0
0:2:45.038,282.462,35.9631,0,0.000885,0,0
0:2:45.239,283.049,36.0389,0,0.000885,0,0
0:2:45.440,283.049,36.0389,0,0.000885,0,0
0:2:45.637,283.338,36.0734,0,0.000885,0,0
0:2:45.830,283.694,36.1216,0,0.000885,0,0
0:2:46.029,284.571,36.2319,0,0.000885,0,0
0:2:46.227,284.922,36.2802,0,0.000885,0,0
0:2:46.425,284.922,36.2802,0,0.000885,0,0
0:2:46.624,285.745,36.3836,0,0.000885,0,0
0:2:46.827,285.687,36.3767,0,0.000885,0,0
0:2:47.027,286.038,36.4181,0,0.000885,0,0
0:2:47.235,286.568,36.4871,0,0.000885,0,0
0:2:47.442,286.977,36.5422,0,0.000885,0,0
0:2:47.642,287.564,36.6112,0,0.000885,0,0
0:2:47.836,288.209,36.6939,0,0.000885,0,0
0:2:48.036,288.618,36.7491,0,0.000885,0,0
0:2:48.242,289.148,36.818,0,0.000885,0,0
0:2:48.439,289.441,36.8525,0,0.000885,0,0
0:2:48.640,289.851,36.9076,0,0.000885,0,0
0:2:48.842,290.028,36.9283,0,0.000885,0,0
0:2:49.043,290.322,36.9628,0,0.000885,0,0
0:2:49.243,290.789,37.0248,0,0.000885,0,0
0:2:49.444,291.141,37.0662,0,0.000885,0,0
0:2:49.646,291.318,37.0938,0,0.000885,0,0
0:2:49.848,292.257,37.211,0,0.000885,0,0
0:2:50.047,292.137,37.1972,0,0.000885,0,0
0:2:50.247,292.666,37.2662,0,0.000885,0,0
0:2:50.447,292.96,37.3006,0,0.000885,0,0
0:2:50.648,293.605,37.3834,0,0.000885,0,0
0:2:50.844,293.663,37.3903,0,0.000885,0,0
0:2:51.040,294.366,37.4799,0,0.000885,0,0
0:2:51.240,294.659,37.5144,0,0.000885,0,0
0:2:51.443,294.543,37.5006,0,0.000885,0,0
0:2:51.644,295.598,37.6385,0,0.000885,0,0
0:2:51.840,295.246,37.5902,0,0.000885,0,0
0:2:52.038,295.949,37.6798,0,0.000885,0,0
0:2:52.239,296.363,37.735,0,0.000885,0,0
0:2:52.441,296.536,37.7557,0,0.000885,0,0
0:2:52.641,296.83,37.7902,0,0.000885,0,0
0:2:52.840,297.711,37.9074,0,0.000885,0,0
0:2:53.035,297.768,37.9143,0,0.000885,0,0
0:2:53.236,298.591,38.0177,0,0.000885,0,0
0:2:53.439,298.529,38.0108,0,0.000885,0,0
0:2:53.637,299.588,38.1418,0,0.000885,0,0
0:2:53.837,299.761,38.1694,0,0.000885,0,0
0:2:54.043,300.406,38.2521,0,0.000885,0,0
0:2:54.242,300.348,38.2383,0,0.000885,0,0
0:2:54.443,301.113,38.3417,0,0.000885,0,0
0:2:54.646,302.052,38.459,0,0.000885,0,0
0:2:54.845,302.11,38.4659,0,0.000885,0,0
0:2:55.046,302.283,38.4865,0,0.000885,0,0
0:2:55.245,302.871,38.5624,0,0.000885,0,0
0:2:55.444,302.871,38.5624,0,0.000885,0,0
0:2:55.645,303.28,38.6175,0,0.000885,0,0
0:2:55.844,303.987,38.7072,0,0.000885,0,0
0:2:56.039,303.573,38.652,0,0.000885,0,0
0:2:56.240,304.805,38.8106,0,0.000885,0,0
0:2:56.435,305.099,38.8451,0,0.000885,0,0
0:2:56.642,305.393,38.8864,0,0.000885,0,0
0:2:56.842,305.45,38.8933,0,0.000885,0,0
0:2:57.036,305.864,38.9416,0,0.000885,0,0
0:2:57.236,306.331,39.0036,0,0.000885,0,0
0:2:57.442,306.74,39.0588,0,0.000885,0,0
0:2:57.637,307.448,39.1484,0,0.000885,0,0
0:2:57.839,307.679,39.176,0,0.000885,0,0
0:2:58.032,307.973,39.2105,0,0.000885,0,0
0:2:58.231,308.386,39.2656,0,0.000885,0,0
0:2:58.428,308.444,39.2725,0,0.000885,0,0
0:2:58.636,309.205,39.3691,0,0.000885,0,0
0:2:58.836,309.263,39.376,0,0.000885,0,0
0:2:59.030,310.553,39.5414,0,0.000885,0,0
0:2:59.228,310.086,39.4794,0,0.000885,0,0
0:2:59.429,310.908,39.5828,0,0.000885,0,0
0:2:59.631,311.318,39.638,0,0.000885,0,0
0:2:59.831,311.376,39.6449,0,0.000885,0,0
0:3:0.033,312.078,39.7345,0,0.000885,0,0
0:3:0.232,312.021,39.7276,0,0.000885,0,0
0:3:0.432,312.256,39.7552,0,0.000885,0,0
0:3:0.635,312.723,39.8172,0,0.000885,0,0
0:3:0.833,313.017,39.8517,0,0.000885,0,0
0:3:1.030,313.662,39.9344,0,0.000885,0,0
0:3:1.226,313.955,39.9758,0,0.000885,0,0
0:3:1.426,314.836,40.0861,0,0.000885,0,0
0:3:1.630,314.778,40.0792,0,0.000885,0,0
0:3:1.831,315.423,40.162,0,0.000885,0,0
0:3:2.038,315.539,40.1758,0,0.000885,0,0
0:3:2.236,315.717,40.1964,0,0.000885,0,0
0:3:2.436,316.242,40.2654,0,0.000885,0,0
0:3:2.638,316.771,40.3343,0,0.000885,0,0
0:3:2.839,317.123,40.3757,0,0.000885,0,0
0:3:3.045,317.946,40.4791,0,0.000885,0,0
0:3:3.242,318.061,40.4998,0,0.000885,0,0
0:3:3.442,318.706,40.5756,0,0.000885,0,0
0:3:3.645,319.115,40.6308,0,0.000885,0,0
0:3:3.844,319.115,40.6308,0,0.000885,0,0
0:3:4.041,319.938,40.7342,0,0.000885,0,0
0:3:4.239,319.823,40.7204,0,0.000885,0,0
0:3:4.440,320.877,40.8583,0,0.000885,0,0
0:3:4.642,321.17,40.8928,0,0.000885,0,0
0:3:4.843,321.58,40.948,0,0.000885,0,0
0:3:5.044,321.7,40.9618,0,0.000885,0,0
0:3:5.244,322.167,41.0169,0,0.000885,0,0
0:3:5.443,322.638,41.079,0,0.000885,0,0
0:3:5.644,322.87,41.1065,0,0.000885,0,0
0:3:5.844,323.515,41.1893,0,0.000885,0,0
0:3:6.040,323.221,41.1548,0,0.000885,0,0
0:3:6.236,324.044,41.2582,0,0.000885,0,0
0:3:6.437,324.338,41.2927,0,0.000885,0,0
0:3:6.641,324.805,41.3548,0,0.000885,0,0
0:3:6.841,325.276,41.4168,0,0.000885,0,0
0:3:7.039,325.685,41.4651,0,0.000885,0,0
0:3:7.243,326.095,41.5202,0,0.000885,0,0
0:3:7.444,326.74,41.603,0,0.000885,0,0
0:3:7.639,326.975,41.6305,0,0.000885,0,0
0:3:7.838,327.389,41.6857,0,0.000885,0,0
0:3:8.036,327.678,41.7202,0,0.000885,0,0
0:3:8.239,327.678,41.7202,0,0.000885,0,0
0:3:8.440,328.559,41.8305,0,0.000885,0,0
0:3:8.637,328.323,41.8029,0,0.000885,0,0
0:3:8.831,329.088,41.8994,0,0.000885,0,0
0:3:9.032,329.498,41.9546,0,0.000885,0,0
0:3:9.237,329.733,41.9822,0,0.000885,0,0
0:3:9.438,330.085,42.0304,0,0.000885,0,0
0:3:9.639,330.614,42.0925,0,0.000885,0,0
0:3:9.840,330.73,42.1132,0,0.000885,0,0
0:3:10.040,331.259,42.1752,0,0.000885,0,0
0:3:10.240,331.846,42.2511,0,0.000885,0,0
0:3:10.441,332.255,42.3062,0,0.000885,0,0
0:3:10.640,332.491,42.3338,0,0.000885,0,0
0:3:10.837,333.43,42.451,0,0.000885,0,0
0:3:11.037,333.781,42.4993,0,0.000885,0,0
0:3:11.240,334.19,42.5475,0,0.000885,0,0
0:3:11.439,334.484,42.5889,0,0.000885,0,0
0:3:11.638,334.951,42.651,0,0.000885,0,0
0:3:11.832,335.307,42.6923,0,0.000885,0,0
0:3:12.031,335.129,42.6717,0,0.000885,0,0
0:3:12.237,335.89,42.7682,0,0.000885,0,0
0:3:12.438,336.241,42.8095,0,0.000885,0,0
0:3:12.634,336.655,42.8647,0,0.000885,0,0
0:3:12.842,336.891,42.8923,0,0.000885,0,0
0:3:13.042,337.006,42.9061,0,0.000885,0,0
0:3:13.246,337.887,43.0233,0,0.000885,0,0
0:3:13.445,338.238,43.0647,0,0.000885,0,0
0:3:13.643,338.825,43.1405,0,0.000885,0,0
0:3:13.840,338.999,43.1612,0,0.000885,0,0
0:3:14.040,339.408,43.2163,0,0.000885,0,0
0:3:14.242,339.995,43.2922,0,0.000885,0,0
0:3:14.444,340.347,43.3335,0,0.000885,0,0
0:3:14.644,340.525,43.3542,0,0.000885,0,0
0:3:14.844,340.818,43.3956,0,0.000885,0,0
0:3:15.045,341.112,43.4301,0,0.000885,0,0
0:3:15.244,341.579,43.4921,0,0.000885,0,0
0:3:15.445,342.286,43.5818,0,0.000885,0,0
0:3:15.644,342.224,43.5749,0,0.000885,0,0
0:3:15.839,342.869,43.6576,0,0.000885,0,0
0:3:16.040,343.105,43.6852,0,0.000885,0,0
0:3:16.234,343.75,43.7679,0,0.000885,0,0
0:3:16.443,343.692,43.761,0,0.000885,0,0
0:3:16.642,344.63,43.8782,0,0.000885,0,0
0:3:16.846,344.982,43.9265,0,0.000885,0,0
0:3:17.045,345.275,43.961,0,0.000885,0,0
0:3:17.243,345.511,43.9886,0,0.000885,0,0
0:3:17.440,346.214,44.0782,0,0.000885,0,0
0:3:17.640,346.272,44.092,0,0.000885,0,0
0:3:17.832,346.859,44.1609,0,0.000885,0,0
0:3:18.032,347.562,44.2506,0,0.000885,0,0
0:3:18.229,347.74,44.2781,0,0.000885,0,0
0:3:18.438,348.149,44.3264,0,0.000885,0,0
0:3:18.639,348.443,44.3678,0,0.000885,0,0
0:3:18.841,348.91,44.4229,0,0.000885,0,0
0:3:19.040,348.852,44.416,0,0.000885,0,0
0:3:19.241,349.559,44.5057,0,0.000885,0,0
0:3:19.444,349.79,44.5401,0,0.000885,0,0
0:3:19.645,350.849,44.6711,0,0.000885,0,0
0:3:19.845,350.849,44.6711,0,0.000885,0,0
0:3:20.045,350.965,44.6849,0,0.000885,0,0
0:3:20.244,351.2,44.7194,0,0.000885,0,0
0:3:20.445,351.725,44.7814,0,0.000885,0,0
0:3:20.645,352.019,44.8228,0,0.000885,0,0
0:3:20.841,352.664,44.9056,0,0.000885,0,0
0:3:21.038,353.545,45.0159,0,0.000885,0,0
0:3:21.237,353.251,44.9745,0,0.000885,0,0
0:3:21.441,353.371,44.9952,0,0.000885,0,0
0:3:21.643,353.896,45.0572,0,0.000885,0,0
0:3:21.838,354.368,45.1193,0,0.000885,0,0
0:3:22.033,355.07,45.2089,0,0.000885,0,0
0:3:22.234,355.07,45.2089,0,0.000885,0,0
0:3:22.428,355.364,45.2434,0,0.000885,0,0
0:3:22.629,356.476,45.3882,0,0.000885,0,0
0:3:22.835,356.827,45.4296,0,0.000885,0,0
0:3:23.041,357.183,45.4778,0,0.000885,0,0
0:3:23.242,357.063,45.464,0,0.000885,0,0
0:3:23.438,357.766,45.5537,0,0.000885,0,0
0:3:23.634,358.06,45.5881,0,0.000885,0,0
0:3:23.832,358.531,45.6502,0,0.000885,0,0
0:3:24.026,358.705,45.6709,0,0.000885,0,0
0:3:24.228,359.35,45.7536,0,0.000885,0,0
0:3:24.428,359.06,45.7191,0,0.000885,0,0
0:3:24.630,359.643,45.7881,0,0.000885,0,0
0:3:24.832,360.173,45.857,0,0.000885,0,0
0:3:25.033,361.111,45.9811,0,0.000885,0,0
0:3:25.232,361.347,46.0087,0,0.000885,0,0
0:3:25.432,361.52,46.0294,0,0.000885,0,0
0:3:25.632,361.934,46.0846,0,0.000885,0,0
0:3:25.833,362.459,46.1466,0,0.000885,0,0
0:3:26.038,362.459,46.1466,0,0.000885,0,0
0:3:26.239,363.162,46.2362,0,0.000885,0,0
0:3:26.446,363.749,46.3121,0,0.000885,0,0
0:3:26.642,363.927,46.3397,0,0.000885,0,0
0:3:26.843,364.22,46.3741,0,0.000885,0,0
0:3:27.046,365.159,46.4913,0,0.000885,0,0
0:3:27.244,365.217,46.4982,0,0.000885,0,0
0:3:27.443,365.92,46.5879,0,0.000885,0,0
0:3:27.639,366.04,46.6086,0,0.000885,0,0
0:3:27.840,366.155,46.6223,0,0.000885,0,0
0:3:28.044,366.916,46.7189,0,0.000885,0,0
0:3:28.241,366.743,46.6982,0,0.000885,0,0
0:3:28.441,367.503,46.7947,0,0.000885,0,0
0:3:28.633,367.503,46.7947,0,0.000885,0,0
0:3:28.834,367.912,46.843,0,0.000885,0,0
0:3:29.041,367.912,46.843,0,0.000885,0,0
0:3:29.246,368.442,46.9119,0,0.000885,0,0
0:3:29.447,368.735,46.9464,0,0.000885,0,0
0:3:29.650,369.029,46.9878,0,0.000885,0,0
0:3:29.850,368.913,46.974,0,0.000885,0,0
0:3:30.052,369.145,47.0016,0,0.000885,0,0
0:3:30.252,369.616,47.0636,0,0.000885,0,0
0:3:30.452,369.674,47.0705,0,0.000885,0,0
0:3:30.652,370.261,47.1464,0,0.000885,0,0
0:3:30.852,370.79,47.2084,0,0.000885,0,0
0:3:31.051,371.257,47.2705,0,0.000885,0,0
0:3:31.246,372.08,47.3739,0,0.000885,0,0
0:3:31.447,372.605,47.4428,0,0.000885,0,0
0:3:31.642,372.957,47.4842,0,0.000885,0,0
0:3:31.840,373.428,47.5462,0,0.000885,0,0
0:3:32.036,373.428,47.5462,0,0.000885,0,0
0:3:32.242,374.482,47.6841,0,0.000885,0,0
0:3:32.442,374.834,47.7255,0,0.000885,0,0
0:3:32.639,376.124,47.891,0,0.000885,0,0
0:3:32.833,376.008,47.8772,0,0.000885,0,0
0:3:33.034,376.48,47.9324,0,0.000885,0,0
0:3:33.240,377.24,48.0289,0,0.000885,0,0
0:3:33.440,377.298,48.0358,0,0.000885,0,0
0:3:33.636,378.063,48.1392,0,0.000885,0,0
0:3:33.842,378.766,48.2288,0,0.000885,0,0
0:3:34.043,379.117,48.2702,0,0.000885,0,0
0:3:34.243,379.585,48.3322,0,0.000885,0,0
0:3:34.446,379.647,48.3391,0,0.000885,0,0
0:3:34.648,380.875,48.4977,0,0.000885,0,0
0:3:34.848,381.11,48.5253,0,0.000885,0,0
0:3:35.049,381.582,48.5874,0,0.000885,0,0
0:3:35.248,381.582,48.5874,0,0.000885,0,0
0:3:35.449,382.578,48.7115,0,0.000885,0,0
0:3:35.650,382.872,48.7459,0,0.000885,0,0
0:3:35.844,383.281,48.8011,0,0.000885,0,0
0:3:36.044,383.517,48.8287,0,0.000885,0,0
0:3:36.242,384.398,48.9459,0,0.000885,0,0
0:3:36.436,384.922,49.0079,0,0.000885,0,0
0:3:36.636,384.749,48.9873,0,0.000885,0,0
0:3:36.841,385.452,49.0769,0,0.000885,0,0
0:3:37.040,385.688,49.1045,0,0.000885,0,0
0:3:37.239,386.155,49.1665,0,0.000885,0,0
0:3:37.434,386.684,49.2355,0,0.000885,0,0
0:3:37.633,386.684,49.2355,0,0.000885,0,0
0:3:37.828,386.915,49.263,0,0.000885,0,0
0:3:38.026,387.445,49.332,0,0.000885,0,0
0:3:38.225,387.854,49.3803,0,0.000885,0,0
0:3:38.441,387.738,49.3665,0,0.000885,0,0
0:3:38.642,388.147,49.4216,0,0.000885,0,0
0:3:38.847,388.792,49.5044,0,0.000885,0,0
0:3:39.043,389.028,49.5319,0,0.000885,0,0
0:3:39.244,389.615,49.6078,0,0.000885,0,0
0:3:39.445,389.615,49.6078,0,0.000885,0,0
0:3:39.647,389.793,49.6285,0,0.000885,0,0
0:3:39.848,390.202,49.6836,0,0.000885,0,0
0:3:40.049,390.496,49.7181,0,0.000885,0,0
0:3:40.248,390.732,49.7526,0,0.000885,0,0
0:3:40.449,391.435,49.8422,0,0.000885,0,0
0:3:40.650,391.608,49.8629,0,0.000885,0,0
0:3:40.848,392.08,49.918,0,0.000885,0,0
0:3:41.043,392.604,49.987,0,0.000885,0,0
0:3:41.244,393.076,50.049,0,0.000885,0,0
0:3:41.437,393.249,50.0697,0,0.000885,0,0
0:3:41.636,393.427,50.0904,0,0.000885,0,0
0:3:41.835,394.072,50.1731,0,0.000885,0,0
0:3:42.041,394.308,50.2076,0,0.000885,0,0
0:3:42.242,394.544,50.2352,0,0.000885,0,0
0:3:42.435,395.069,50.3041,0,0.000885,0,0
0:3:42.645,395.42,50.3455,0,0.000885,0,0
0:3:42.845,395.772,50.3938,0,0.000885,0,0
0:3:43.036,396.417,50.4765,0,0.000885,0,0
0:3:43.236,397.004,50.5455,0,0.000885,0,0
0:3:43.432,397.475,50.6075,0,0.000885,0,0
0:3:43.629,397.649,50.6282,0,0.000885,0,0
0:3:43.830,397.769,50.642,0,0.000885,0,0
0:3:44.025,397.355,50.5937,0,0.000885,0,0
0:3:44.231,396.888,50.5317,0,0.000885,0,0
0:3:44.430,397.475,50.6075,0,0.000885,0,0
0:3:44.633,398.062,50.6834,0,0.000885,0,0
0:3:44.834,398.294,50.7109,0,0.000885,0,0
0:3:45.035,398.881,50.7868,0,0.000885,0,0
0:3:45.236,399.232,50.835,0,0.000885,0,0
0:3:45.436,400.349,50.9729,0,0.000885,0,0
0:3:45.636,400.7,51.0212,0,0.000885,0,0
0:3:45.837,401.167,51.0764,0,0.000885,0,0
0:3:46.045,401.581,51.1315,0,0.000885,0,0
0:3:46.242,402.106,51.2005,0,0.000885,0,0
0:3:46.442,402.342,51.228,0,0.000885,0,0
0:3:46.634,402.751,51.2832,0,0.000885,0,0
0:3:46.835,403.632,51.3935,0,0.000885,0,0
0:3:47.043,403.867,51.4211,0,0.000885,0,0
0:3:47.249,404.334,51.4832,0,0.000885,0,0
0:3:47.449,404.219,51.4694,0,0.000885,0,0
0:3:47.642,405.157,51.5866,0,0.000885,0,0
0:3:47.842,405.745,51.6624,0,0.000885,0,0
0:3:48.041,406.39,51.7452,0,0.000885,0,0
0:3:48.233,406.683,51.7796,0,0.000885,0,0
0:3:48.434,407.622,51.8968,0,0.000885,0,0
0:3:48.642,407.737,51.9175,0,0.000885,0,0
0:3:48.838,408.325,51.9865,0,0.000885,0,0
0:3:49.041,408.382,52.0003,0,0.000885,0,0
0:3:49.243,409.027,52.0761,0,0.000885,0,0
0:3:49.443,409.379,52.1244,0,0.000885,0,0
0:3:49.644,409.441,52.1313,0,0.000885,0,0
0:3:49.845,409.908,52.1933,0,0.000885,0,0
0:3:50.045,410.847,52.3105,0,0.000885,0,0
0:3:50.243,410.847,52.3105,0,0.000885,0,0
0:3:50.446,411.67,52.4139,0,0.000885,0,0
0:3:50.642,412.021,52.4622,0,0.000885,0,0
0:3:50.837,412.372,52.5036,0,0.000885,0,0
0:3:51.038,412.839,52.5656,0,0.000885,0,0
0:3:51.243,412.897,52.5725,0,0.000885,0,0
0:3:51.443,413.311,52.6277,0,0.000885,0,0
0:3:51.638,413.662,52.6691,0,0.000885,0,0
0:3:51.845,414.129,52.7311,0,0.000885,0,0
0:3:52.045,414.365,52.7587,0,0.000885,0,0
0:3:52.242,414.952,52.8345,0,0.000885,0,0
0:3:52.438,415.362,52.8828,0,0.000885,0,0
0:3:52.637,415.713,52.9311,0,0.000885,0,0
0:3:52.831,415.833,52.9448,0,0.000885,0,0
0:3:53.032,416.242,53,0,0.000885,0,0
0:3:53.228,416.358,53.0138,0,0.000885,0,0
0:3:53.425,416.536,53.0345,0,0.000885,0,0
0:3:53.625,417.003,53.0965,0,0.000885,0,0
0:3:53.838,417.474,53.1517,0,0.000885,0,0
0:3:54.041,418.062,53.2275,0,0.000885,0,0
0:3:54.241,418.529,53.2896,0,0.000885,0,0
0:3:54.443,419.232,53.3792,0,0.000885,0,0
0:3:54.645,419.703,53.4413,0,0.000885,0,0
0:3:54.846,419.881,53.4619,0,0.000885,0,0
0:3:55.044,419.819,53.4551,0,0.000885,0,0
0:3:55.244,420.348,53.5171,0,0.000885,0,0
0:3:55.443,420.699,53.5654,0,0.000885,0,0
0:3:55.644,421.109,53.6205,0,0.000885,0,0
0:3:55.850,421.989,53.7308,0,0.000885,0,0
0:3:56.047,421.989,53.7308,0,0.000885,0,0
0:3:56.246,422.167,53.7515,0,0.000885,0,0
0:3:56.439,422.812,53.8343,0,0.000885,0,0
0:3:56.642,422.986,53.8549,0,0.000885,0,0
0:3:56.836,423.279,53.8963,0,0.000885,0,0
0:3:57.032,423.631,53.9377,0,0.000885,0,0
0:3:57.232,423.924,53.9791,0,0.000885,0,0
0:3:57.426,424.102,53.9997,0,0.000885,0,0
0:3:57.627,424.396,54.0342,0,0.000885,0,0
0:3:57.832,425.157,54.1307,0,0.000885,0,0
0:3:58.028,425.744,54.2066,0,0.000885,0,0
0:3:58.228,425.744,54.2066,0,0.000885,0,0
0:3:58.432,426.389,54.2893,0,0.000885,0,0
0:3:58.632,426.682,54.3238,0,0.000885,0,0
0:3:58.831,427.327,54.4065,0,0.000885,0,0
0:3:59.025,427.857,54.4755,0,0.000885,0,0
0:3:59.226,428.382,54.5444,0,0.000885,0,0
0:3:59.427,428.559,54.5651,0,0.000885,0,0
0:3:59.630,428.911,54.6134,0,0.000885,0,0
0:3:59.831,429.089,54.6341,0,0.000885,0,0
0:4:0.032,429.262,54.6547,0,0.000885,0,0
0:4:0.232,430.143,54.7651,0,0.000885,0,0
0:4:0.432,430.317,54.7926,0,0.000885,0,0
0:4:0.630,430.552,54.8202,0,0.000885,0,0
0:4:0.831,431.024,54.8823,0,0.000885,0,0
0:4:1.036,431.375,54.9236,0,0.000885,0,0
0:4:1.235,431.784,54.9788,0,0.000885,0,0
0:4:1.443,432.55,55.0753,0,0.000885,0,0
0:4:1.639,433.017,55.1305,0,0.000885,0,0
0:4:1.842,433.252,55.165,0,0.000885,0,0
0:4:2.044,433.252,55.165,0,0.000885,0,0
0:4:2.245,434.013,55.2615,0,0.000885,0,0
0:4:2.442,434.191,55.2822,0,0.000885,0,0
0:4:2.636,434.422,55.3097,0,0.000885,0,0
0:4:2.838,434.836,55.3649,0,0.000885,0,0
0:4:3.043,434.952,55.3787,0,0.000885,0,0
0:4:3.239,435.361,55.4338,0,0.000885,0,0
0:4:3.438,436.593,55.5855,0,0.000885,0,0
0:4:3.635,436.829,55.62,0,0.000885,0,0
0:4:3.835,437.007,55.6407,0,0.000885,0,0
0:4:4.031,437.474,55.7027,0,0.000885,0,0
0:4:4.229,438.234,55.7993,0,0.000885,0,0
0:4:4.429,438.648,55.8475,0,0.000885,0,0
0:4:4.630,438.942,55.8889,0,0.000885,0,0
0:4:4.831,439.115,55.9096,0,0.000885,0,0
0:4:5.032,439.409,55.9441,0,0.000885,0,0
0:4:5.233,439.818,55.9992,0,0.000885,0,0
0:4:5.431,440.289,56.0613,0,0.000885,0,0
0:4:5.632,440.934,56.144,0,0.000885,0,0
0:4:5.831,440.992,56.1509,0,0.000885,0,0
0:4:6.030,441.464,56.2061,0,0.000885,0,0
0:4:6.235,441.637,56.2336,0,0.000885,0,0
0:4:6.436,442.051,56.2819,0,0.000885,0,0
0:4:6.639,442.518,56.344,0,0.000885,0,0
0:4:6.838,442.927,56.3922,0,0.000885,0,0
0:4:7.038,443.221,56.4336,0,0.000885,0,0
0:4:7.232,444.044,56.537,0,0.000885,0,0
0:4:7.433,443.986,56.5301,0,0.000885,0,0
0:4:7.638,444.631,56.6129,0,0.000885,0,0
0:4:7.846,444.924,56.6473,0,0.000885,0,0
0:4:8.047,445.449,56.7163,0,0.000885,0,0
0:4:8.238,445.507,56.7232,0,0.000885,0,0
0:4:8.438,444.804,56.6335,0,0.000885,0,0
0:4:8.635,444.982,56.6542,0,0.000885,0,0
0:4:8.829,445.098,56.6749,0,0.000885,0,0
0:4:9.030,445.801,56.7645,0,0.000885,0,0
0:4:9.231,445.921,56.7783,0,0.000885,0,0
0:4:9.433,447.091,56.9231,0,0.000885,0,0
0:4:9.635,447.269,56.9507,0,0.000885,0,0
0:4:9.833,448.443,57.0955,0,0.000885,0,0
0:4:10.036,448.674,57.13,0,0.000885,0,0
0:4:10.234,449.675,57.2541,0,0.000885,0,0
0:4:10.435,449.497,57.2334,0,0.000885,0,0
0:4:10.635,450.787,57.3989,0,0.000885,0,0
0:4:10.838,450.672,57.3782,0,0.000885,0,0
0:4:11.038,450.32,57.3368,0,0.000885,0,0
0:4:11.236,450.672,57.3782,0,0.000885,0,0
0:4:11.432,451.374,57.4678,0,0.000885,0,0
0:4:11.633,451.962,57.5436,0,0.000885,0,0
0:4:11.826,452.255,57.585,0,0.000885,0,0
0:4:12.027,453.074,57.6884,0,0.000885,0,0
0:4:12.234,453.719,57.7712,0,0.000885,0,0
0:4:12.440,453.954,57.7988,0,0.000885,0,0
0:4:12.640,454.248,57.8332,0,0.000885,0,0
0:4:12.845,454.715,57.8953,0,0.000885,0,0
0:4:13.043,455.422,57.9849,0,0.000885,0,0
0:4:13.239,455.774,58.0332,0,0.000885,0,0
0:4:13.435,456.654,58.1435,0,0.000885,0,0
0:4:13.637,456.534,58.1297,0,0.000885,0,0
0:4:13.831,455.654,58.0125,0,0.000885,0,0
0:4:14.029,455.889,58.047,0,0.000885,0,0
0:4:14.229,456.009,58.0608,0,0.000885,0,0
0:4:14.430,456.419,58.1159,0,0.000885,0,0
0:4:14.631,456.948,58.178,0,0.000885,0,0
0:4:14.833,457.593,58.2607,0,0.000885,0,0
0:4:15.033,457.709,58.2745,0,0.000885,0,0
0:4:15.232,458.532,58.3848,0,0.000885,0,0
0:4:15.432,458.532,58.3848,0,0.000885,0,0
0:4:15.633,459.759,58.5365,0,0.000885,0,0
0:4:15.838,460.346,58.6123,0,0.000885,0,0
0:4:16.048,461.049,58.702,0,0.000885,0,0
0:4:16.248,461.227,58.7226,0,0.000885,0,0
0:4:16.440,461.285,58.7295,0,0.000885,0,0
0:4:16.640,459.408,58.4951,0,0.000885,0,0
0:4:16.836,418.529,53.2896,0,0.000885,0,0
0:4:17.041,406.625,51.7727,0,0.000885,0,0
0:4:17.243,403.632,51.3935,0,0.000885,0,0
0:4:17.448,403.458,51.3728,0,0.000885,0,0
0:4:17.646,403.458,51.3728,0,0.000885,0,0
0:4:17.843,403.458,51.3728,0,0.000885,0,0
0:4:18.035,403.752,51.4073,0,0.000885,0,0
0:4:18.236,403.044,51.3177,0,0.000885,0,0
0:4:18.431,392.253,49.9456,0,0.000885,0,0
0:4:18.629,390.025,49.6629,0,0.000885,0,0
0:4:18.829,389.437,49.5871,0,0.000885,0,0
0:4:19.041,388.561,49.4699,0,0.000885,0,0
0:4:19.241,388.561,49.4699,0,0.000885,0,0
0:4:19.440,388.677,49.4906,0,0.000885,0,0
0:4:19.641,388.499,49.463,0,0.000885,0,0
0:4:19.845,387.796,49.3734,0,0.000885,0,0
0:4:20.044,387.565,49.3458,0,0.000885,0,0
0:4:20.245,387.738,49.3665,0,0.000885,0,0
0:4:20.442,387.854,49.3803,0,0.000885,0,0
0:4:20.644,387.738,49.3665,0,0.000885,0,0
0:4:20.841,387.68,49.3596,0,0.000885,0,0
0:4:21.037,387.329,49.3182,0,0.000885,0,0
0:4:21.235,387.093,49.2837,0,0.000885,0,0
0:4:21.432,386.097,49.1596,0,0.000885,0,0
0:4:21.637,385.043,49.0217,0,0.000885,0,0
0:4:21.836,382.165,48.6563,0,0.000885,0,0
0:4:22.033,379.936,48.3736,0,0.000885,0,0
0:4:22.211,356.827,45.4296,0,0.000885,0,0