File: DataFile2021-06-29_074115.csv
Test ID:,Date Tested:,Time:,Test Type:,Diameter Avg. (mm):,Cyl. Corr. Factor:,Height (mm):,Age (days):,Weight (kN):,Break Type:,Ramp Rate (MPa/s):,Load at Break (kN):,Stress at Break (MPa):
12,6/29/2021,07:41,Cylinder,150,1,300,0,3.6,3,0.24,575.19,32.55
Sample Time,Load (kN),Stress (MPa),Long. Strain,Trans. Strain,Chan1 Deflection (mm),Chan2 Deflection (mm)
0:0:18.374,5.92503,0.337843,0,0.000885,0,0
0:0:18.576,12.0235,0.682581,0,0.000885,0,0
0:0:18.771,13.9007,0.786002,0,0.000885,0,0
0:0:18.971,13.6649,0.772213,0,0.000885,0,0
0:0:19.169,13.1356,0.744634,0,0.000885,0,0
0:0:19.366,12.7842,0.72395,0,0.000885,0,0
0:0:19.568,12.7842,0.72395,0,0.000885,0,0
0:0:19.763,12.4328,0.703265,0,0.000885,0,0
0:0:19.963,12.6107,0.71016,0,0.000885,0,0
0:0:20.162,13.2557,0.751529,0,0.000885,0,0
0:0:20.357,12.5529,0.71016,0,0.000885,0,0
0:0:20.559,13.2557,0.751529,0,0.000885,0,0
0:0:20.757,14.0163,0.792897,0,0.000885,0,0
0:0:20.955,14.7192,0.834266,0,0.000885,0,0
0:0:21.156,16.0136,0.903213,0,0.000885,0,0
0:0:21.351,16.7742,0.951477,0,0.000885,0,0
0:0:21.552,18.4735,1.048,0,0.000885,0,0
0:0:21.751,18.767,1.06179,0,0.000885,0,0
0:0:21.949,19.8257,1.12385,0,0.000885,0,0
0:0:22.152,21.1157,1.19279,0,0.000885,0,0
0:0:22.347,22.1121,1.24795,0,0.000885,0,0
0:0:22.548,23.7535,1.34448,0,0.000885,0,0
0:0:22.748,24.5764,1.39274,0,0.000885,0,0
0:0:22.945,25.4527,1.441,0,0.000885,0,0
0:0:23.147,26.0977,1.47548,0,0.000885,0,0
0:0:23.344,27.8592,1.5789,0,0.000885,0,0
0:0:23.543,28.3886,1.60648,0,0.000885,0,0
0:0:23.745,29.6207,1.67543,0,0.000885,0,0
0:0:23.948,30.2657,1.7099,0,0.000885,0,0
0:0:24.151,31.8493,1.79953,0,0.000885,0,0
0:0:24.354,32.3742,1.83401,0,0.000885,0,0
0:0:24.555,33.8999,1.91674,0,0.000885,0,0
0:0:24.757,34.1935,1.93743,0,0.000885,0,0
0:0:24.959,35.2477,1.99258,0,0.000885,0,0
0:0:25.162,35.4256,2.00637,0,0.000885,0,0
0:0:25.361,36.1863,2.04774,0,0.000885,0,0
0:0:25.560,36.7734,2.08222,0,0.000885,0,0
0:0:25.762,37.8277,2.13737,0,0.000885,0,0
0:0:25.956,38.4148,2.17185,0,0.000885,0,0
0:0:26.159,39.4735,2.2339,0,0.000885,0,0
0:0:26.358,40.3498,2.28216,0,0.000885,0,0
0:0:26.555,41.7599,2.3649,0,0.000885,0,0
0:0:26.757,42.1691,2.38559,0,0.000885,0,0
0:0:26.952,42.5206,2.40627,0,0.000885,0,0
0:0:27.152,44.0463,2.4959,0,0.000885,0,0
0:0:27.354,44.927,2.54417,0,0.000885,0,0
0:0:27.550,45.8656,2.59243,0,0.000885,0,0
0:0:27.752,46.5684,2.6338,0,0.000885,0,0
0:0:27.948,47.9162,2.70964,0,0.000885,0,0
0:0:28.147,48.3878,2.73722,0,0.000885,0,0
0:0:28.349,49.2685,2.78548,0,0.000885,0,0
0:0:28.544,49.7934,2.81996,0,0.000885,0,0
0:0:28.747,50.6741,2.86822,0,0.000885,0,0
0:0:28.948,51.4971,2.91648,0,0.000885,0,0
0:0:29.153,53.0184,2.99922,0,0.000885,0,0
0:0:29.355,53.9569,3.05438,0,0.000885,0,0
0:0:29.558,55.0156,3.11643,0,0.000885,0,0
0:0:29.760,55.5405,3.14401,0,0.000885,0,0
0:0:29.962,56.3634,3.19227,0,0.000885,0,0
0:0:30.164,57.0662,3.22675,0,0.000885,0,0
0:0:30.366,58.6498,3.31638,0,0.000885,0,0
0:0:30.563,59.1791,3.35085,0,0.000885,0,0
0:0:30.763,60.3535,3.4129,0,0.000885,0,0
0:0:30.962,60.6426,3.43359,0,0.000885,0,0
0:0:31.158,62.2262,3.52322,0,0.000885,0,0
0:0:31.360,62.7555,3.5508,0,0.000885,0,0
0:0:31.559,63.4583,3.59217,0,0.000885,0,0
0:0:31.756,64.517,3.65422,0,0.000885,0,0
0:0:31.957,65.1042,3.6818,0,0.000885,0,0
0:0:32.152,66.5676,3.76454,0,0.000885,0,0
0:0:32.355,67.1548,3.79901,0,0.000885,0,0
0:0:32.553,68.209,3.86106,0,0.000885,0,0
0:0:32.751,68.6805,3.88864,0,0.000885,0,0
0:0:32.953,69.499,3.93001,0,0.000885,0,0
0:0:33.149,69.7348,3.9438,0,0.000885,0,0
0:0:33.351,70.789,4.00585,0,0.000885,0,0
0:0:33.550,71.6697,4.05412,0,0.000885,0,0
0:0:33.748,73.1955,4.14375,0,0.000885,0,0
0:0:33.950,73.9561,4.18512,0,0.000885,0,0
0:0:34.153,75.7755,4.28854,0,0.000885,0,0
0:0:34.357,76.3048,4.31612,0,0.000885,0,0
0:0:34.561,76.892,4.35059,0,0.000885,0,0
0:0:34.763,77.3012,4.37128,0,0.000885,0,0
0:0:34.965,78.5912,4.44712,0,0.000885,0,0
0:0:35.166,78.8848,4.46091,0,0.000885,0,0
0:0:35.368,80.1169,4.53675,0,0.000885,0,0
0:0:35.569,81.0555,4.58501,0,0.000885,0,0
0:0:35.765,81.874,4.63328,0,0.000885,0,0
0:0:35.967,82.7547,4.68154,0,0.000885,0,0
0:0:36.165,83.7511,4.7367,0,0.000885,0,0
0:0:36.362,84.5162,4.78496,0,0.000885,0,0
0:0:36.564,85.9797,4.8677,0,0.000885,0,0
0:0:36.760,86.5668,4.90217,0,0.000885,0,0
0:0:36.962,87.154,4.92975,0,0.000885,0,0
0:0:37.160,88.6219,5.01249,0,0.000885,0,0
0:0:37.358,89.3247,5.05386,0,0.000885,0,0
0:0:37.561,90.379,5.11591,0,0.000885,0,0
0:0:37.757,91.1441,5.15728,0,0.000885,0,0
0:0:37.958,92.1405,5.21244,0,0.000885,0,0
0:0:38.158,92.3139,5.22623,0,0.000885,0,0
0:0:38.353,93.4304,5.28828,0,0.000885,0,0
0:0:38.556,93.6662,5.30207,0,0.000885,0,0
0:0:38.759,94.9562,5.37102,0,0.000885,0,0
0:0:38.961,95.3654,5.39859,0,0.000885,0,0
0:0:39.165,96.949,5.48823,0,0.000885,0,0
0:0:39.367,97.1269,5.49512,0,0.000885,0,0
0:0:39.570,99.1197,5.61233,0,0.000885,0,0
0:0:39.771,99.8225,5.64681,0,0.000885,0,0
0:0:39.973,101.055,5.71575,0,0.000885,0,0
0:0:40.175,101.7,5.75712,0,0.000885,0,0
0:0:40.370,102.638,5.80539,0,0.000885,0,0
0:0:40.572,103.635,5.86744,0,0.000885,0,0
0:0:40.771,104.458,5.90881,0,0.000885,0,0
0:0:40.968,104.693,5.9226,0,0.000885,0,0
0:0:41.171,106.628,6.03291,0,0.000885,0,0
0:0:41.367,107.095,6.06049,0,0.000885,0,0
0:0:41.567,107.918,6.10875,0,0.000885,0,0
0:0:41.767,108.679,6.15012,0,0.000885,0,0
0:0:41.963,109.03,6.17081,0,0.000885,0,0
0:0:42.166,110.089,6.23286,0,0.000885,0,0
0:0:42.363,110.556,6.25354,0,0.000885,0,0
0:0:42.563,111.73,6.32249,0,0.000885,0,0
0:0:42.762,112.197,6.35007,0,0.000885,0,0
0:0:42.958,114.426,6.47418,0,0.000885,0,0
0:0:43.160,114.662,6.48797,0,0.000885,0,0
0:0:43.360,116.188,6.5776,0,0.000885,0,0
0:0:43.556,116.481,6.59139,0,0.000885,0,0
0:0:43.759,117.535,6.65344,0,0.000885,0,0
0:0:43.962,118.296,6.69481,0,0.000885,0,0
0:0:44.166,119.47,6.76376,0,0.000885,0,0
0:0:44.368,119.706,6.77065,0,0.000885,0,0
0:0:44.571,121.174,6.86028,0,0.000885,0,0
0:0:44.772,122.05,6.90855,0,0.000885,0,0
0:0:44.974,122.931,6.95681,0,0.000885,0,0
0:0:45.176,123.812,7.00507,0,0.000885,0,0
0:0:45.378,124.693,7.05334,0,0.000885,0,0
0:0:45.573,125.044,7.07402,0,0.000885,0,0
0:0:45.775,126.685,7.17055,0,0.000885,0,0
0:0:45.971,126.685,7.17055,0,0.000885,0,0
0:0:46.171,128.505,7.27397,0,0.000885,0,0
0:0:46.372,128.856,7.29465,0,0.000885,0,0
0:0:46.569,130.32,7.37739,0,0.000885,0,0
0:0:46.772,130.965,7.41186,0,0.000885,0,0
0:0:46.968,131.436,7.43944,0,0.000885,0,0
0:0:47.167,132.784,7.51529,0,0.000885,0,0
0:0:47.369,133.193,7.53597,0,0.000885,0,0
0:0:47.565,134.425,7.60492,0,0.000885,0,0
0:0:47.766,135.133,7.64629,0,0.000885,0,0
0:0:47.965,135.835,7.68765,0,0.000885,0,0
0:0:48.161,136.832,7.74281,0,0.000885,0,0
0:0:48.363,137.77,7.79797,0,0.000885,0,0
0:0:48.561,138.3,7.82555,0,0.000885,0,0
0:0:48.761,139.238,7.88071,0,0.000885,0,0
0:0:48.962,140.115,7.92897,0,0.000885,0,0
0:0:49.166,141.347,7.99792,0,0.000885,0,0
0:0:49.369,142.405,8.05997,0,0.000885,0,0
0:0:49.572,143.344,8.10823,0,0.000885,0,0
0:0:49.773,143.575,8.12202,0,0.000885,0,0
0:0:49.974,144.985,8.20476,0,0.000885,0,0
0:0:50.177,145.924,8.25992,0,0.000885,0,0
0:0:50.379,147.623,8.35645,0,0.000885,0,0
0:0:50.577,148.152,8.38402,0,0.000885,0,0
0:0:50.776,148.971,8.43229,0,0.000885,0,0
0:0:50.978,149.442,8.45987,0,0.000885,0,0
0:0:51.173,150.968,8.5426,0,0.000885,0,0
0:0:51.373,150.906,8.5426,0,0.000885,0,0
0:0:51.574,152.022,8.60466,0,0.000885,0,0
0:0:51.770,152.489,8.63224,0,0.000885,0,0
0:0:51.972,153.312,8.6736,0,0.000885,0,0
0:0:52.169,153.9,8.70808,0,0.000885,0,0
0:0:52.369,154.367,8.73566,0,0.000885,0,0
0:0:52.569,155.835,8.81839,0,0.000885,0,0
0:0:52.767,156.07,8.83218,0,0.000885,0,0
0:0:52.969,157.534,8.91492,0,0.000885,0,0
0:0:53.167,158.708,8.98387,0,0.000885,0,0
0:0:53.365,159.882,9.04592,0,0.000885,0,0
0:0:53.567,160.701,9.09418,0,0.000885,0,0
0:0:53.770,161.697,9.14934,0,0.000885,0,0
0:0:53.973,162.578,9.19761,0,0.000885,0,0
0:0:54.177,163.81,9.26655,0,0.000885,0,0
0:0:54.379,163.988,9.28034,0,0.000885,0,0
0:0:54.581,165.336,9.35619,0,0.000885,0,0
0:0:54.783,166.448,9.41824,0,0.000885,0,0
0:0:54.986,167.271,9.4665,0,0.000885,0,0
0:0:55.183,167.858,9.50098,0,0.000885,0,0
0:0:55.381,169.206,9.57682,0,0.000885,0,0
0:0:55.583,169.557,9.5975,0,0.000885,0,0
0:0:55.780,170.202,9.63198,0,0.000885,0,0
0:0:55.981,170.91,9.67334,0,0.000885,0,0
0:0:56.180,172.2,9.74229,0,0.000885,0,0
0:0:56.377,172.551,9.76298,0,0.000885,0,0
0:0:56.580,174.135,9.85261,0,0.000885,0,0
0:0:56.776,174.837,9.89398,0,0.000885,0,0
0:0:56.977,175.482,9.92845,0,0.000885,0,0
0:0:57.178,176.537,9.9905,0,0.000885,0,0
0:0:57.373,177.417,10.0388,0,0.000885,0,0
0:0:57.576,178.649,10.1077,0,0.000885,0,0
0:0:57.773,179.237,10.1422,0,0.000885,0,0
0:0:57.973,180.349,10.2042,0,0.000885,0,0
0:0:58.173,181.172,10.2525,0,0.000885,0,0
0:0:58.369,182.346,10.3215,0,0.000885,0,0
0:0:58.571,183.049,10.3559,0,0.000885,0,0
0:0:58.772,183.867,10.4042,0,0.000885,0,0
0:0:58.976,184.575,10.4456,0,0.000885,0,0
0:0:59.179,185.393,10.4938,0,0.000885,0,0
0:0:59.382,186.096,10.5283,0,0.000885,0,0
0:0:59.584,187.448,10.6041,0,0.000885,0,0
0:0:59.786,188.267,10.6524,0,0.000885,0,0
0:0:59.989,188.912,10.6869,0,0.000885,0,0
0:1:0.191,189.557,10.7282,0,0.000885,0,0
0:1:0.389,190.557,10.7834,0,0.000885,0,0
0:1:0.588,191.847,10.8592,0,0.000885,0,0
0:1:0.790,192.608,10.9006,0,0.000885,0,0
0:1:0.982,193.431,10.9489,0,0.000885,0,0
0:1:1.183,194.894,11.0316,0,0.000885,0,0
0:1:1.381,195.246,11.0454,0,0.000885,0,0
0:1:1.577,195.891,11.0868,0,0.000885,0,0
0:1:1.778,196.829,11.135,0,0.000885,0,0
0:1:1.971,197.537,11.1764,0,0.000885,0,0
0:1:2.170,198.649,11.2385,0,0.000885,0,0
0:1:2.370,199,11.2591,0,0.000885,0,0
0:1:2.565,200.526,11.3488,0,0.000885,0,0
0:1:2.765,201.171,11.3832,0,0.000885,0,0
0:1:2.960,202.109,11.4384,0,0.000885,0,0
0:1:3.159,202.812,11.4798,0,0.000885,0,0
0:1:3.359,204.222,11.5556,0,0.000885,0,0
0:1:3.553,204.809,11.5901,0,0.000885,0,0
0:1:3.753,205.922,11.6521,0,0.000885,0,0
0:1:3.953,206.393,11.6797,0,0.000885,0,0
0:1:4.156,207.154,11.7211,0,0.000885,0,0
0:1:4.356,208.328,11.79,0,0.000885,0,0
0:1:4.558,209.267,11.8452,0,0.000885,0,0
0:1:4.759,210.085,11.8866,0,0.000885,0,0
0:1:4.959,210.85,11.9348,0,0.000885,0,0
0:1:5.159,212.14,12.0038,0,0.000885,0,0
0:1:5.361,212.727,12.0382,0,0.000885,0,0
0:1:5.557,213.897,12.1072,0,0.000885,0,0
0:1:5.755,215.014,12.1692,0,0.000885,0,0
0:1:5.953,216.01,12.2244,0,0.000885,0,0
0:1:6.148,216.184,12.2313,0,0.000885,0,0
0:1:6.349,217.536,12.3071,0,0.000885,0,0
0:1:6.546,218.123,12.3416,0,0.000885,0,0
0:1:6.743,219.351,12.4106,0,0.000885,0,0
0:1:6.943,219.88,12.445,0,0.000885,0,0
0:1:7.135,220.703,12.4864,0,0.000885,0,0
0:1:7.334,221.348,12.5278,0,0.000885,0,0
0:1:7.533,222.166,12.5691,0,0.000885,0,0
0:1:7.730,223.047,12.6243,0,0.000885,0,0
0:1:7.930,223.519,12.6519,0,0.000885,0,0
0:1:8.125,224.631,12.7139,0,0.000885,0,0
0:1:8.323,225.454,12.7553,0,0.000885,0,0
0:1:8.523,226.45,12.8174,0,0.000885,0,0
0:1:8.718,227.211,12.8587,0,0.000885,0,0
0:1:8.920,228.269,12.9139,0,0.000885,0,0
0:1:9.121,228.679,12.9415,0,0.000885,0,0
0:1:9.324,230.262,13.0311,0,0.000885,0,0
0:1:9.526,231.316,13.0931,0,0.000885,0,0
0:1:9.726,232.313,13.1483,0,0.000885,0,0
0:1:9.926,233.194,13.1966,0,0.000885,0,0
0:1:10.125,234.604,13.2724,0,0.000885,0,0
0:1:10.325,235.186,13.3069,0,0.000885,0,0
0:1:10.526,235.836,13.3483,0,0.000885,0,0
0:1:10.730,236.419,13.3758,0,0.000885,0,0
0:1:10.931,237.886,13.4586,0,0.000885,0,0
0:1:11.129,238.416,13.493,0,0.000885,0,0
0:1:11.323,239.292,13.5413,0,0.000885,0,0
0:1:11.525,240.057,13.5827,0,0.000885,0,0
0:1:11.727,240.644,13.6171,0,0.000885,0,0
0:1:11.928,241.641,13.6723,0,0.000885,0,0
0:1:12.127,242.05,13.6999,0,0.000885,0,0
0:1:12.322,243.46,13.7757,0,0.000885,0,0
0:1:12.522,243.754,13.7964,0,0.000885,0,0
0:1:12.717,245.159,13.8723,0,0.000885,0,0
0:1:12.916,245.862,13.9136,0,0.000885,0,0
0:1:13.117,247.036,13.9826,0,0.000885,0,0
0:1:13.309,247.739,14.017,0,0.000885,0,0
0:1:13.511,249.029,14.0929,0,0.000885,0,0
0:1:13.710,249.732,14.1343,0,0.000885,0,0
0:1:13.914,250.555,14.1756,0,0.000885,0,0
0:1:14.114,251.2,14.217,0,0.000885,0,0
0:1:14.316,252.841,14.3066,0,0.000885,0,0
0:1:14.517,253.486,14.3411,0,0.000885,0,0
0:1:14.716,254.834,14.4238,0,0.000885,0,0
0:1:14.917,255.248,14.4445,0,0.000885,0,0
0:1:15.118,256.36,14.5066,0,0.000885,0,0
0:1:15.314,256.947,14.541,0,0.000885,0,0
0:1:15.513,257.943,14.5962,0,0.000885,0,0
0:1:15.710,258.531,14.6307,0,0.000885,0,0
0:1:15.907,259.176,14.6651,0,0.000885,0,0
0:1:16.107,260.114,14.7203,0,0.000885,0,0
0:1:16.302,260.937,14.7686,0,0.000885,0,0
0:1:16.501,261.756,14.8099,0,0.000885,0,0
0:1:16.700,262.227,14.8375,0,0.000885,0,0
0:1:16.895,263.633,14.9203,0,0.000885,0,0
0:1:17.096,264.162,14.9478,0,0.000885,0,0
0:1:17.292,265.568,15.0306,0,0.000885,0,0
0:1:17.492,266.333,15.0719,0,0.000885,0,0
0:1:17.689,267.329,15.1271,0,0.000885,0,0
0:1:17.882,268.09,15.1685,0,0.000885,0,0
0:1:18.083,268.913,15.2167,0,0.000885,0,0
0:1:18.281,269.38,15.2443,0,0.000885,0,0
0:1:18.478,270.145,15.2857,0,0.000885,0,0
0:1:18.679,271.551,15.3684,0,0.000885,0,0
0:1:18.881,272.138,15.4029,0,0.000885,0,0
0:1:19.083,273.192,15.458,0,0.000885,0,0
0:1:19.284,274.131,15.5132,0,0.000885,0,0
0:1:19.484,275.069,15.5684,0,0.000885,0,0
0:1:19.684,275.598,15.5959,0,0.000885,0,0
0:1:19.887,276.537,15.6511,0,0.000885,0,0
0:1:20.088,277.533,15.7063,0,0.000885,0,0
0:1:20.283,278.356,15.7545,0,0.000885,0,0
0:1:20.481,279.237,15.8028,0,0.000885,0,0
0:1:20.682,280.936,15.8993,0,0.000885,0,0
0:1:20.876,281.697,15.9407,0,0.000885,0,0
0:1:21.077,282.52,15.9889,0,0.000885,0,0
0:1:21.274,282.987,16.0165,0,0.000885,0,0
0:1:21.472,284.455,16.0993,0,0.000885,0,0
0:1:21.672,284.922,16.1268,0,0.000885,0,0
0:1:21.867,286.096,16.1889,0,0.000885,0,0
0:1:22.065,286.799,16.2303,0,0.000885,0,0
0:1:22.263,287.328,16.2578,0,0.000885,0,0
0:1:22.458,288.209,16.3061,0,0.000885,0,0
0:1:22.659,289.028,16.3544,0,0.000885,0,0
0:1:22.855,290.496,16.4371,0,0.000885,0,0
0:1:23.053,290.847,16.4578,0,0.000885,0,0
0:1:23.252,292.488,16.5543,0,0.000885,0,0
0:1:23.446,292.782,16.5681,0,0.000885,0,0
0:1:23.647,293.663,16.6164,0,0.000885,0,0
0:1:23.847,294.366,16.6577,0,0.000885,0,0
0:1:24.050,295.598,16.7267,0,0.000885,0,0
0:1:24.252,296.363,16.768,0,0.000885,0,0
0:1:24.452,297.301,16.8232,0,0.000885,0,0
0:1:24.653,297.768,16.8508,0,0.000885,0,0
0:1:24.853,299.001,16.9197,0,0.000885,0,0
0:1:25.053,299.646,16.9542,0,0.000885,0,0
0:1:25.254,300.526,17.0094,0,0.000885,0,0
0:1:25.449,301.407,17.0576,0,0.000885,0,0
0:1:25.649,301.932,17.0852,0,0.000885,0,0
0:1:25.848,302.871,17.1404,0,0.000885,0,0
0:1:26.041,303.636,17.1817,0,0.000885,0,0
0:1:26.242,304.69,17.2438,0,0.000885,0,0
0:1:26.435,305.219,17.2714,0,0.000885,0,0
0:1:26.634,306.861,17.3679,0,0.000885,0,0
0:1:26.833,307.679,17.4093,0,0.000885,0,0
0:1:27.037,308.502,17.4575,0,0.000885,0,0
0:1:27.238,309.205,17.4989,0,0.000885,0,0
0:1:27.433,310.495,17.5678,0,0.000885,0,0
0:1:27.632,311.611,17.6368,0,0.000885,0,0
0:1:27.831,312.959,17.7126,0,0.000885,0,0
0:1:28.026,313.604,17.7471,0,0.000885,0,0
0:1:28.228,314.543,17.8023,0,0.000885,0,0
0:1:28.424,315.13,17.8298,0,0.000885,0,0
0:1:28.620,315.833,17.8712,0,0.000885,0,0
0:1:28.821,316.829,17.9264,0,0.000885,0,0
0:1:29.024,317.416,17.9608,0,0.000885,0,0
0:1:29.225,318.764,18.0367,0,0.000885,0,0
0:1:29.426,319,18.0505,0,0.000885,0,0
0:1:29.627,320.054,18.1125,0,0.000885,0,0
0:1:29.828,320.526,18.1401,0,0.000885,0,0
0:1:30.027,321.406,18.1884,0,0.000885,0,0
0:1:30.228,322.051,18.2228,0,0.000885,0,0
0:1:30.428,323.457,18.3056,0,0.000885,0,0
0:1:30.632,324.573,18.3676,0,0.000885,0,0
0:1:30.832,325.392,18.4159,0,0.000885,0,0
0:1:31.026,325.743,18.4366,0,0.000885,0,0
0:1:31.227,327.269,18.5193,0,0.000885,0,0
0:1:31.425,327.447,18.5262,0,0.000885,0,0
0:1:31.620,328.795,18.6089,0,0.000885,0,0
0:1:31.821,329.324,18.6365,0,0.000885,0,0
0:1:32.015,330.494,18.7055,0,0.000885,0,0
0:1:32.216,331.317,18.7468,0,0.000885,0,0
0:1:32.414,331.846,18.7813,0,0.000885,0,0
0:1:32.608,333.016,18.8434,0,0.000885,0,0
0:1:32.809,333.723,18.8847,0,0.000885,0,0
0:1:33.006,335.307,18.9744,0,0.000885,0,0
0:1:33.204,335.716,18.9951,0,0.000885,0,0
0:1:33.404,336.828,19.064,0,0.000885,0,0
0:1:33.606,337.358,19.0916,0,0.000885,0,0
0:1:33.808,338.59,19.1605,0,0.000885,0,0
0:1:34.009,339.293,19.2019,0,0.000885,0,0
0:1:34.211,340.347,19.2571,0,0.000885,0,0
0:1:34.410,341.17,19.3053,0,0.000885,0,0
0:1:34.610,341.93,19.3467,0,0.000885,0,0
0:1:34.811,342.402,19.3743,0,0.000885,0,0
0:1:35.010,343.75,19.4501,0,0.000885,0,0
0:1:35.208,344.573,19.4984,0,0.000885,0,0
0:1:35.409,345.805,19.5673,0,0.000885,0,0
0:1:35.601,346.392,19.6018,0,0.000885,0,0
0:1:35.802,347.504,19.6638,0,0.000885,0,0
0:1:35.999,348.149,19.6983,0,0.000885,0,0
0:1:36.195,349.03,19.7535,0,0.000885,0,0
0:1:36.396,349.968,19.8017,0,0.000885,0,0
0:1:36.591,350.378,19.8293,0,0.000885,0,0
0:1:36.791,351.725,19.9052,0,0.000885,0,0
0:1:36.989,352.019,19.919,0,0.000885,0,0
0:1:37.184,353.309,19.9948,0,0.000885,0,0
0:1:37.386,353.723,20.0155,0,0.000885,0,0
0:1:37.581,355.128,20.0982,0,0.000885,0,0
0:1:37.779,355.537,20.1189,0,0.000885,0,0
0:1:37.978,357.063,20.2085,0,0.000885,0,0
0:1:38.172,357.766,20.243,0,0.000885,0,0
0:1:38.373,358.94,20.312,0,0.000885,0,0
0:1:38.574,359.585,20.3464,0,0.000885,0,0
0:1:38.777,360.76,20.4154,0,0.000885,0,0
0:1:38.979,361.289,20.443,0,0.000885,0,0
0:1:39.180,362.517,20.5119,0,0.000885,0,0
0:1:39.381,362.873,20.5326,0,0.000885,0,0
0:1:39.583,364.394,20.6222,0,0.000885,0,0
0:1:39.781,364.394,20.6222,0,0.000885,0,0
0:1:39.982,365.101,20.6636,0,0.000885,0,0
0:1:40.177,366.8,20.7532,0,0.000885,0,0
0:1:40.378,367.561,20.8015,0,0.000885,0,0
0:1:40.574,368.851,20.8704,0,0.000885,0,0
0:1:40.771,369.087,20.8842,0,0.000885,0,0
0:1:40.972,370.377,20.9601,0,0.000885,0,0
0:1:41.167,370.906,20.9876,0,0.000885,0,0
0:1:41.366,371.96,21.0497,0,0.000885,0,0
0:1:41.564,372.605,21.0842,0,0.000885,0,0
0:1:41.762,373.837,21.1531,0,0.000885,0,0
0:1:41.962,374.131,21.1738,0,0.000885,0,0
0:1:42.157,375.479,21.2496,0,0.000885,0,0
0:1:42.356,376.244,21.291,0,0.000885,0,0
0:1:42.553,376.831,21.3255,0,0.000885,0,0
0:1:42.750,377.65,21.3737,0,0.000885,0,0
0:1:42.951,378.588,21.422,0,0.000885,0,0
0:1:43.155,379.527,21.4772,0,0.000885,0,0
0:1:43.354,380.114,21.5116,0,0.000885,0,0
0:1:43.554,381.813,21.6082,0,0.000885,0,0
0:1:43.756,381.991,21.6151,0,0.000885,0,0
0:1:43.958,383.632,21.7116,0,0.000885,0,0
0:1:44.160,383.868,21.7254,0,0.000885,0,0
0:1:44.360,385.274,21.8012,0,0.000885,0,0
0:1:44.561,385.861,21.8357,0,0.000885,0,0
0:1:44.762,387.387,21.9184,0,0.000885,0,0
0:1:44.963,387.796,21.946,0,0.000885,0,0
0:1:45.161,389.028,22.015,0,0.000885,0,0
0:1:45.356,389.557,22.0425,0,0.000885,0,0
0:1:45.557,390.732,22.1115,0,0.000885,0,0
0:1:45.751,391.257,22.1391,0,0.000885,0,0
0:1:45.949,392.489,22.208,0,0.000885,0,0
0:1:46.150,393.018,22.2425,0,0.000885,0,0
0:1:46.354,394.25,22.3114,0,0.000885,0,0
0:1:46.554,394.544,22.3252,0,0.000885,0,0
0:1:46.749,394.953,22.3528,0,0.000885,0,0
0:1:46.947,396.127,22.4149,0,0.000885,0,0
0:1:47.148,396.772,22.4493,0,0.000885,0,0
0:1:47.339,397.827,22.5114,0,0.000885,0,0
0:1:47.541,398.53,22.5528,0,0.000885,0,0
0:1:47.737,400.171,22.6424,0,0.000885,0,0
0:1:47.942,400.464,22.6631,0,0.000885,0,0
0:1:48.143,401.697,22.732,0,0.000885,0,0
0:1:48.337,402.226,22.7596,0,0.000885,0,0
0:1:48.537,403.4,22.8285,0,0.000885,0,0
0:1:48.738,404.103,22.8699,0,0.000885,0,0
0:1:48.941,405.567,22.9526,0,0.000885,0,0
0:1:49.142,406.212,22.9871,0,0.000885,0,0
0:1:49.343,407.386,23.0561,0,0.000885,0,0
0:1:49.544,408.267,23.1043,0,0.000885,0,0
0:1:49.743,409.263,23.1595,0,0.000885,0,0
0:1:49.943,409.908,23.194,0,0.000885,0,0
0:1:50.144,410.962,23.256,0,0.000885,0,0
0:1:50.339,411.314,23.2767,0,0.000885,0,0
0:1:50.538,411.901,23.3112,0,0.000885,0,0
0:1:50.737,412.96,23.3663,0,0.000885,0,0
0:1:50.952,414.543,23.456,0,0.000885,0,0
0:1:51.152,415.13,23.4904,0,0.000885,0,0
0:1:51.349,415.833,23.5318,0,0.000885,0,0
0:1:51.548,416.83,23.587,0,0.000885,0,0
0:1:51.745,417.297,23.6145,0,0.000885,0,0
0:1:51.950,418.764,23.6973,0,0.000885,0,0
0:1:52.151,419.409,23.7318,0,0.000885,0,0
0:1:52.349,420.464,23.7938,0,0.000885,0,0
0:1:52.544,421.402,23.849,0,0.000885,0,0
0:1:52.744,422.461,23.9041,0,0.000885,0,0
0:1:52.949,422.87,23.9317,0,0.000885,0,0
0:1:53.150,424.102,24.0007,0,0.000885,0,0
0:1:53.348,425.041,24.0489,0,0.000885,0,0
0:1:53.543,425.802,24.0972,0,0.000885,0,0
0:1:53.742,426.567,24.1385,0,0.000885,0,0
0:1:53.943,427.737,24.2075,0,0.000885,0,0
0:1:54.144,427.914,24.2144,0,0.000885,0,0
0:1:54.350,429.089,24.2833,0,0.000885,0,0
0:1:54.550,429.556,24.3109,0,0.000885,0,0
0:1:54.751,431.375,24.4074,0,0.000885,0,0
0:1:54.952,431.9,24.4419,0,0.000885,0,0
0:1:55.151,432.839,24.4971,0,0.000885,0,0
0:1:55.351,433.31,24.5178,0,0.000885,0,0
0:1:55.556,434.484,24.5867,0,0.000885,0,0
0:1:55.755,435.009,24.6143,0,0.000885,0,0
0:1:55.951,435.89,24.6694,0,0.000885,0,0
0:1:56.145,437.064,24.7315,0,0.000885,0,0
0:1:56.348,437.532,24.7591,0,0.000885,0,0
0:1:56.553,438.942,24.8418,0,0.000885,0,0
0:1:56.754,439.351,24.8625,0,0.000885,0,0
0:1:56.950,440.289,24.9177,0,0.000885,0,0
0:1:57.143,441.17,24.9659,0,0.000885,0,0
0:1:57.343,442.282,25.028,0,0.000885,0,0
0:1:57.539,443.163,25.0762,0,0.000885,0,0
0:1:57.738,444.747,25.1659,0,0.000885,0,0
0:1:57.937,444.862,25.1728,0,0.000885,0,0
0:1:58.152,446.33,25.2555,0,0.000885,0,0
0:1:58.353,447.091,25.2969,0,0.000885,0,0
0:1:58.554,447.562,25.3244,0,0.000885,0,0
0:1:58.756,448.559,25.3865,0,0.000885,0,0
0:1:58.957,449.675,25.4485,0,0.000885,0,0
0:1:59.159,450.258,25.4761,0,0.000885,0,0
0:1:59.360,451.317,25.5382,0,0.000885,0,0
0:1:59.559,452.135,25.5864,0,0.000885,0,0
0:1:59.760,453.309,25.6554,0,0.000885,0,0
0:1:59.961,453.719,25.6761,0,0.000885,0,0
0:2:0.155,454.599,25.7243,0,0.000885,0,0
0:2:0.354,455.187,25.7588,0,0.000885,0,0
0:2:0.553,455.716,25.7864,0,0.000885,0,0
0:2:0.746,457.651,25.8967,0,0.000885,0,0
0:2:0.949,457.824,25.9105,0,0.000885,0,0
0:2:1.143,459.234,25.9863,0,0.000885,0,0
0:2:1.340,459.759,26.0139,0,0.000885,0,0
0:2:1.540,461.636,26.1242,0,0.000885,0,0
0:2:1.736,462.166,26.1518,0,0.000885,0,0
0:2:1.936,462.869,26.1932,0,0.000885,0,0
0:2:2.142,463.865,26.2483,0,0.000885,0,0
0:2:2.339,464.394,26.2759,0,0.000885,0,0
0:2:2.540,464.866,26.3035,0,0.000885,0,0
0:2:2.743,466.623,26.4069,0,0.000885,0,0
0:2:2.942,467.032,26.4276,0,0.000885,0,0
0:2:3.141,468.616,26.5172,0,0.000885,0,0
0:2:3.335,469.029,26.5448,0,0.000885,0,0
0:2:3.537,469.968,26.5931,0,0.000885,0,0
0:2:3.738,470.671,26.6344,0,0.000885,0,0
0:2:3.941,471.783,26.6965,0,0.000885,0,0
0:2:4.141,472.134,26.7172,0,0.000885,0,0
0:2:4.343,473.429,26.793,0,0.000885,0,0
0:2:4.543,473.896,26.8137,0,0.000885,0,0
0:2:4.743,474.656,26.862,0,0.000885,0,0
0:2:4.942,476.066,26.9378,0,0.000885,0,0
0:2:5.142,476.36,26.9585,0,0.000885,0,0
0:2:5.346,477.886,27.0412,0,0.000885,0,0
0:2:5.546,478.059,27.055,0,0.000885,0,0
0:2:5.743,479.291,27.124,0,0.000885,0,0
0:2:5.938,480.057,27.1653,0,0.000885,0,0
0:2:6.140,480.817,27.2067,0,0.000885,0,0
0:2:6.336,481.698,27.2619,0,0.000885,0,0
0:2:6.534,482.694,27.317,0,0.000885,0,0
0:2:6.733,483.575,27.3653,0,0.000885,0,0
0:2:6.926,485.039,27.448,0,0.000885,0,0
0:2:7.128,485.274,27.4618,0,0.000885,0,0
0:2:7.324,486.564,27.5308,0,0.000885,0,0
0:2:7.522,487.094,27.5652,0,0.000885,0,0
0:2:7.722,488.677,27.6549,0,0.000885,0,0
0:2:7.916,489.029,27.6756,0,0.000885,0,0
0:2:8.116,489.616,27.7031,0,0.000885,0,0
0:2:8.315,490.319,27.7445,0,0.000885,0,0
0:2:8.510,491.373,27.8066,0,0.000885,0,0
0:2:8.711,492.605,27.8755,0,0.000885,0,0
0:2:8.912,492.899,27.8893,0,0.000885,0,0
0:2:9.114,494.304,27.972,0,0.000885,0,0
0:2:9.316,495.069,28.0134,0,0.000885,0,0
0:2:9.516,496.301,28.0823,0,0.000885,0,0
0:2:9.716,496.889,28.1168,0,0.000885,0,0
0:2:9.917,498.121,28.1858,0,0.000885,0,0
0:2:10.118,499.055,28.2409,0,0.000885,0,0
0:2:10.317,500.229,28.3099,0,0.000885,0,0
0:2:10.513,500.701,28.3306,0,0.000885,0,0
0:2:10.714,501.346,28.3719,0,0.000885,0,0
0:2:10.909,502.222,28.4202,0,0.000885,0,0
0:2:11.107,503.632,28.5029,0,0.000885,0,0
0:2:11.306,503.984,28.5167,0,0.000885,0,0
0:2:11.501,504.806,28.565,0,0.000885,0,0
0:2:11.701,505.803,28.6201,0,0.000885,0,0
0:2:11.898,506.448,28.6615,0,0.000885,0,0
0:2:12.094,507.738,28.7305,0,0.000885,0,0
0:2:12.295,507.974,28.7442,0,0.000885,0,0
0:2:12.490,509.321,28.8201,0,0.000885,0,0
0:2:12.690,510.433,28.8821,0,0.000885,0,0
0:2:12.889,511.608,28.9511,0,0.000885,0,0
0:2:13.082,511.723,28.958,0,0.000885,0,0
0:2:13.283,512.898,29.0269,0,0.000885,0,0
0:2:13.484,513.543,29.0614,0,0.000885,0,0
0:2:13.687,514.366,29.1097,0,0.000885,0,0
0:2:13.889,515.304,29.1579,0,0.000885,0,0
0:2:14.090,516.243,29.2131,0,0.000885,0,0
0:2:14.291,516.83,29.2476,0,0.000885,0,0
0:2:14.491,517.826,29.3027,0,0.000885,0,0
0:2:14.691,518.351,29.3303,0,0.000885,0,0
0:2:14.893,519.704,29.4061,0,0.000885,0,0
0:2:15.087,520.464,29.4544,0,0.000885,0,0
0:2:15.285,520.873,29.4751,0,0.000885,0,0
0:2:15.483,521.874,29.5302,0,0.000885,0,0
0:2:15.679,522.635,29.5785,0,0.000885,0,0
0:2:15.881,524.041,29.6544,0,0.000885,0,0
0:2:16.076,524.454,29.675,0,0.000885,0,0
0:2:16.274,525.918,29.7578,0,0.000885,0,0
0:2:16.473,526.505,29.7922,0,0.000885,0,0
0:2:16.668,527.973,29.875,0,0.000885,0,0
0:2:16.869,528.382,29.9026,0,0.000885,0,0
0:2:17.064,529.614,29.9715,0,0.000885,0,0
0:2:17.261,530.143,29.9991,0,0.000885,0,0
0:2:17.462,531.371,30.068,0,0.000885,0,0
0:2:17.656,531.665,30.0887,0,0.000885,0,0
0:2:17.856,532.372,30.1232,0,0.000885,0,0
0:2:18.055,533.426,30.1852,0,0.000885,0,0
0:2:18.247,534.129,30.2266,0,0.000885,0,0
0:2:18.450,535.477,30.3025,0,0.000885,0,0
0:2:18.651,535.948,30.33,0,0.000885,0,0
0:2:18.854,537.296,30.4059,0,0.000885,0,0
0:2:19.056,537.648,30.4266,0,0.000885,0,0
0:2:19.257,538.764,30.4886,0,0.000885,0,0
0:2:19.456,539.761,30.5438,0,0.000885,0,0
0:2:19.656,540.583,30.592,0,0.000885,0,0
0:2:19.856,541.58,30.6472,0,0.000885,0,0
0:2:20.057,542.87,30.723,0,0.000885,0,0
0:2:20.260,543.751,30.7713,0,0.000885,0,0
0:2:20.461,544.863,30.8334,0,0.000885,0,0
0:2:20.657,545.272,30.854,0,0.000885,0,0
0:2:20.853,546.21,30.9092,0,0.000885,0,0
0:2:21.053,546.918,30.9506,0,0.000885,0,0
0:2:21.247,548.088,31.0126,0,0.000885,0,0
0:2:21.446,548.853,31.0609,0,0.000885,0,0
0:2:21.644,549.44,31.0885,0,0.000885,0,0
0:2:21.847,550.201,31.1367,0,0.000885,0,0
0:2:22.048,551.081,31.185,0,0.000885,0,0
0:2:22.246,552.487,31.2677,0,0.000885,0,0
0:2:22.443,552.545,31.2677,0,0.000885,0,0
0:2:22.643,553.603,31.3298,0,0.000885,0,0
0:2:22.846,554.128,31.3574,0,0.000885,0,0
0:2:23.047,555.187,31.4194,0,0.000885,0,0
0:2:23.255,556.005,31.4608,0,0.000885,0,0
0:2:23.453,557.002,31.5228,0,0.000885,0,0
0:2:23.654,557.767,31.5642,0,0.000885,0,0
0:2:23.856,559.057,31.6331,0,0.000885,0,0
0:2:24.058,559.702,31.6745,0,0.000885,0,0
0:2:24.259,560.583,31.7228,0,0.000885,0,0
0:2:24.459,561.285,31.7641,0,0.000885,0,0
0:2:24.660,562.166,31.8124,0,0.000885,0,0
0:2:24.860,562.927,31.8538,0,0.000885,0,0
0:2:25.061,563.75,31.902,0,0.000885,0,0
0:2:25.260,564.275,31.9296,0,0.000885,0,0
0:2:25.455,565.685,32.0124,0,0.000885,0,0
0:2:25.654,565.685,32.0124,0,0.000885,0,0
0:2:25.849,566.975,32.0813,0,0.000885,0,0
0:2:26.046,567.268,32.102,0,0.000885,0,0
0:2:26.245,567.678,32.1227,0,0.000885,0,0
0:2:26.452,568.794,32.1847,0,0.000885,0,0
0:2:26.653,569.146,32.2054,0,0.000885,0,0
0:2:26.847,570.258,32.2675,0,0.000885,0,0
0:2:27.044,570.96,32.3088,0,0.000885,0,0
0:2:27.242,571.432,32.3364,0,0.000885,0,0
0:2:27.438,571.783,32.3571,0,0.000885,0,0
0:2:27.638,572.78,32.4123,0,0.000885,0,0
0:2:27.844,573.545,32.4536,0,0.000885,0,0
0:2:28.049,574.483,32.5088,0,0.000885,0,0
0:2:28.252,574.835,32.5295,0,0.000885,0,0
0:2:28.453,575.244,32.5501,0,0.000885,0,0
0:2:28.656,575.36,32.557,0,0.000885,0,0
0:2:28.856,575.538,32.5708,0,0.000885,0,0
0:2:29.056,575.302,32.557,0,0.000885,0,0
0:2:29.256,574.893,32.5295,0,0.000885,0,0
0:2:29.455,574.541,32.5157,0,0.000885,0,0
0:2:29.654,573.545,32.4536,0,0.000885,0,0
0:2:29.854,572.193,32.3778,0,0.000885,0,0
0:2:30.057,567.913,32.1365,0,0.000885,0,0
0:2:30.256,565.098,31.9779,0,0.000885,0,0
0:2:30.452,558.999,31.6331,0,0.000885,0,0
0:2:30.647,555.89,31.4539,0,0.000885,0,0
0:2:30.848,552.896,31.2884,0,0.000885,0,0
0:2:31.052,546.624,30.9299,0,0.000885,0,0
0:2:31.252,542.167,30.6817,0,0.000885,0,0
0:2:31.458,531.607,30.0818,0,0.000885,0,0
0:2:31.653,526.331,29.7854,0,0.000885,0,0
0:2:31.854,515.011,29.1441,0,0.000885,0,0
0:2:32.058,509.851,28.8546,0,0.000885,0,0
0:2:32.254,501.11,28.3581,0,0.000885,0,0
0:2:32.453,497.534,28.1513,0,0.000885,0,0
0:2:32.645,490.141,27.7376,0,0.000885,0,0
0:2:32.845,486.329,27.5239,0,0.000885,0,0
0:2:33.052,478.295,27.0688,0,0.000885,0,0
0:2:33.246,474.776,26.8689,0,0.000885,0,0
0:2:33.447,468.149,26.4897,0,0.000885,0,0
0:2:33.649,464.279,26.2759,0,0.000885,0,0
0:2:33.848,458.238,25.9312,0,0.000885,0,0
0:2:34.052,455.129,25.7519,0,0.000885,0,0
0:2:34.252,448.968,25.4072,0,0.000885,0,0
0:2:34.449,445.449,25.2072,0,0.000885,0,0
0:2:34.649,439.115,24.8487,0,0.000885,0,0
0:2:34.852,436.126,24.6763,0,0.000885,0,0
0:2:35.047,427.149,24.173,0,0.000885,0,0
0:2:35.254,422.986,23.9386,0,0.000885,0,0
0:2:35.454,415.655,23.518,0,0.000885,0,0
0:2:35.658,411.901,23.3112,0,0.000885,0,0
0:2:35.854,408.031,23.0905,0,0.000885,0,0
0:2:35.985,404.045,22.863,0,0.000885,0,0