File: DataFile2021-06-07_032736.csv
Test ID:,Date Tested:,Time:,Test Type:,Diameter Avg. (mm):,Cyl. Corr. Factor:,Height (mm):,Age (days):,Weight (kN):,Break Type:,Ramp Rate (MPa/s):,Load at Break (kN):,Stress at Break (MPa):
12,6/7/2021,03:27,Cylinder,100,1,200,0,3.6,3,0.24,373.84,47.6
Sample Time,Load (kN),Stress (MPa),Long. Strain,Trans. Strain,Chan1 Deflection (mm),Chan2 Deflection (mm)
0:0:21.086,6.92143,0.882529,0,0.000885,0,0
0:0:21.286,11.3207,1.441,0,0.000885,0,0
0:0:21.483,14.4879,1.84779,0,0.000885,0,0
0:0:21.693,14.43,1.83401,0,0.000885,0,0
0:0:21.893,14.4879,1.84779,0,0.000885,0,0
0:0:22.088,14.3099,1.82022,0,0.000885,0,0
0:0:22.289,13.9007,1.77195,0,0.000885,0,0
0:0:22.487,13.785,1.75816,0,0.000885,0,0
0:0:22.694,13.785,1.75816,0,0.000885,0,0
0:0:22.894,13.6649,1.73748,0,0.000885,0,0
0:0:23.089,13.3714,1.70301,0,0.000885,0,0
0:0:23.290,13.1979,1.68232,0,0.000885,0,0
0:0:23.488,12.9621,1.64785,0,0.000885,0,0
0:0:23.693,12.6685,1.61337,0,0.000885,0,0
0:0:23.895,12.8465,1.63406,0,0.000885,0,0
0:0:24.089,12.8465,1.63406,0,0.000885,0,0
0:0:24.289,12.7842,1.62716,0,0.000885,0,0
0:0:24.490,12.9043,1.64095,0,0.000885,0,0
0:0:24.682,12.5529,1.59958,0,0.000885,0,0
0:0:24.886,13.0199,1.65474,0,0.000885,0,0
0:0:25.092,13.1356,1.67543,0,0.000885,0,0
0:0:25.289,13.0778,1.66853,0,0.000885,0,0
0:0:25.491,12.4328,1.58579,0,0.000885,0,0
0:0:25.696,13.1979,1.68232,0,0.000885,0,0
0:0:25.896,14.1364,1.79953,0,0.000885,0,0
0:0:26.094,14.2521,1.81332,0,0.000885,0,0
0:0:26.290,14.6613,1.86848,0,0.000885,0,0
0:0:26.492,15.3063,1.95122,0,0.000885,0,0
0:0:26.693,15.5421,1.9788,0,0.000885,0,0
0:0:26.897,16.1293,2.05464,0,0.000885,0,0
0:0:27.100,16.3027,2.07532,0,0.000885,0,0
0:0:27.302,16.9522,2.15806,0,0.000885,0,0
0:0:27.503,17.4771,2.22701,0,0.000885,0,0
0:0:27.705,18.3,2.33043,0,0.000885,0,0
0:0:27.907,18.767,2.39248,0,0.000885,0,0
0:0:28.109,19.0028,2.42006,0,0.000885,0,0
0:0:28.306,19.4699,2.48211,0,0.000885,0,0
0:0:28.509,20.1193,2.55795,0,0.000885,0,0
0:0:28.707,20.1771,2.57174,0,0.000885,0,0
0:0:28.906,20.8221,2.64759,0,0.000885,0,0
0:0:29.108,20.88,2.66138,0,0.000885,0,0
0:0:29.302,21.7029,2.7648,0,0.000885,0,0
0:0:29.504,21.4093,2.72343,0,0.000885,0,0
0:0:29.702,22.1699,2.81996,0,0.000885,0,0
0:0:29.901,22.8728,2.90959,0,0.000885,0,0
0:0:30.103,23.5177,2.99232,0,0.000885,0,0
0:0:30.297,23.8692,3.04059,0,0.000885,0,0
0:0:30.499,24.3407,3.09575,0,0.000885,0,0
0:0:30.696,24.3407,3.09575,0,0.000885,0,0
0:0:30.895,24.4563,3.11643,0,0.000885,0,0
0:0:31.098,25.1013,3.19917,0,0.000885,0,0
0:0:31.292,25.1013,3.19917,0,0.000885,0,0
0:0:31.493,25.6307,3.26122,0,0.000885,0,0
0:0:31.694,25.8041,3.2888,0,0.000885,0,0
0:0:31.898,26.6271,3.39222,0,0.000885,0,0
0:0:32.101,27.0986,3.44738,0,0.000885,0,0
0:0:32.304,27.6235,3.51633,0,0.000885,0,0
0:0:32.505,27.5656,3.50943,0,0.000885,0,0
0:0:32.707,27.9749,3.56459,0,0.000885,0,0
0:0:32.908,28.2106,3.59217,0,0.000885,0,0
0:0:33.110,28.7978,3.66801,0,0.000885,0,0
0:0:33.308,29.4428,3.75075,0,0.000885,0,0
0:0:33.507,30.0878,3.83349,0,0.000885,0,0
0:0:33.709,30.3235,3.86106,0,0.000885,0,0
0:0:33.903,30.6749,3.90243,0,0.000885,0,0
0:0:34.104,30.5548,3.88864,0,0.000885,0,0
0:0:34.304,31.3199,3.98517,0,0.000885,0,0
0:0:34.501,31.6713,4.03343,0,0.000885,0,0
0:0:34.703,31.7292,4.04033,0,0.000885,0,0
0:0:34.898,32.0806,4.0817,0,0.000885,0,0
0:0:35.099,32.7256,4.16443,0,0.000885,0,0
0:0:35.300,32.9035,4.19201,0,0.000885,0,0
0:0:35.496,33.8421,4.30922,0,0.000885,0,0
0:0:35.698,34.0156,4.32991,0,0.000885,0,0
0:0:35.894,34.367,4.37817,0,0.000885,0,0
0:0:36.092,35.0164,4.46091,0,0.000885,0,0
0:0:36.293,34.9541,4.45401,0,0.000885,0,0
0:0:36.496,35.6614,4.54365,0,0.000885,0,0
0:0:36.700,35.8927,4.57122,0,0.000885,0,0
0:0:36.901,36.4799,4.64707,0,0.000885,0,0
0:0:37.103,36.422,4.64017,0,0.000885,0,0
0:0:37.305,36.7156,4.67465,0,0.000885,0,0
0:0:37.506,37.1827,4.7367,0,0.000885,0,0
0:0:37.709,38.1213,4.85391,0,0.000885,0,0
0:0:37.908,38.5349,4.90907,0,0.000885,0,0
0:0:38.106,38.8864,4.95044,0,0.000885,0,0
0:0:38.308,39.0598,4.97112,0,0.000885,0,0
0:0:38.506,39.5892,5.04007,0,0.000885,0,0
0:0:38.705,39.647,5.04696,0,0.000885,0,0
0:0:38.905,40.0562,5.10212,0,0.000885,0,0
0:0:39.101,40.3498,5.13659,0,0.000885,0,0
0:0:39.304,41.3507,5.26759,0,0.000885,0,0
0:0:39.501,41.582,5.29517,0,0.000885,0,0
0:0:39.700,41.9334,5.33654,0,0.000885,0,0
0:0:39.902,42.0535,5.35723,0,0.000885,0,0
0:0:40.096,42.6985,5.43307,0,0.000885,0,0
0:0:40.298,43.1077,5.48823,0,0.000885,0,0
0:0:40.497,43.4591,5.53649,0,0.000885,0,0
0:0:40.695,43.9885,5.59854,0,0.000885,0,0
0:0:40.897,44.1619,5.62612,0,0.000885,0,0
0:0:41.092,44.6335,5.68128,0,0.000885,0,0
0:0:41.293,44.9849,5.72954,0,0.000885,0,0
0:0:41.495,45.6299,5.81228,0,0.000885,0,0
0:0:41.697,45.9234,5.84675,0,0.000885,0,0
0:0:41.900,46.6841,5.94328,0,0.000885,0,0
0:0:42.103,46.9198,5.97086,0,0.000885,0,0
0:0:42.304,46.9198,5.97086,0,0.000885,0,0
0:0:42.505,47.3291,6.02602,0,0.000885,0,0
0:0:42.706,47.2713,6.01912,0,0.000885,0,0
0:0:42.909,47.6227,6.06049,0,0.000885,0,0
0:0:43.108,48.0942,6.12254,0,0.000885,0,0
0:0:43.305,48.4456,6.17081,0,0.000885,0,0
0:0:43.507,49.0906,6.25354,0,0.000885,0,0
0:0:43.704,49.3842,6.28802,0,0.000885,0,0
0:0:43.906,50.2026,6.39144,0,0.000885,0,0
0:0:44.104,50.6163,6.4466,0,0.000885,0,0
0:0:44.302,51.0834,6.50176,0,0.000885,0,0
0:0:44.503,50.9677,6.48797,0,0.000885,0,0
0:0:44.700,51.6127,6.5707,0,0.000885,0,0
0:0:44.901,51.6705,6.5776,0,0.000885,0,0
0:0:45.100,52.3734,6.66723,0,0.000885,0,0
0:0:45.296,52.9605,6.74307,0,0.000885,0,0
0:0:45.498,53.5477,6.81891,0,0.000885,0,0
0:0:45.694,53.7256,6.8396,0,0.000885,0,0
0:0:45.893,53.8991,6.86028,0,0.000885,0,0
0:0:46.094,54.7798,6.97749,0,0.000885,0,0
0:0:46.289,54.722,6.9706,0,0.000885,0,0
0:0:46.491,55.1891,7.02576,0,0.000885,0,0
0:0:46.693,55.2469,7.03265,0,0.000885,0,0
0:0:46.897,55.7184,7.09471,0,0.000885,0,0
0:0:47.101,55.9542,7.12228,0,0.000885,0,0
0:0:47.303,56.8928,7.24639,0,0.000885,0,0
0:0:47.504,57.1241,7.27397,0,0.000885,0,0
0:0:47.705,57.302,7.29465,0,0.000885,0,0
0:0:47.907,57.8313,7.3636,0,0.000885,0,0
0:0:48.110,58.2984,7.42565,0,0.000885,0,0
0:0:48.307,58.9434,7.50839,0,0.000885,0,0
0:0:48.508,59.2948,7.54976,0,0.000885,0,0
0:0:48.707,59.1791,7.53597,0,0.000885,0,0
0:0:48.904,60.1177,7.65318,0,0.000885,0,0
0:0:49.107,60.5848,7.71523,0,0.000885,0,0
0:0:49.302,60.8784,7.74971,0,0.000885,0,0
0:0:49.501,60.9985,7.7635,0,0.000885,0,0
0:0:49.702,61.9949,7.8945,0,0.000885,0,0
0:0:49.898,62.1105,7.90829,0,0.000885,0,0
0:0:50.100,62.5198,7.96344,0,0.000885,0,0
0:0:50.299,62.9334,8.01171,0,0.000885,0,0
0:0:50.497,63.1069,8.03239,0,0.000885,0,0
0:0:50.699,63.8097,8.12202,0,0.000885,0,0
0:0:50.893,64.2813,8.18408,0,0.000885,0,0
0:0:51.095,64.3391,8.19097,0,0.000885,0,0
0:0:51.294,64.4547,8.20476,0,0.000885,0,0
0:0:51.491,64.8684,8.25992,0,0.000885,0,0
0:0:51.693,65.0419,8.2806,0,0.000885,0,0
0:0:51.895,65.1042,8.2875,0,0.000885,0,0
0:0:52.099,65.3355,8.32197,0,0.000885,0,0
0:0:52.302,65.9805,8.39781,0,0.000885,0,0
0:0:52.504,66.2162,8.43229,0,0.000885,0,0
0:0:52.705,67.4484,8.59087,0,0.000885,0,0
0:0:52.905,67.7998,8.63224,0,0.000885,0,0
0:0:53.107,68.3291,8.70118,0,0.000885,0,0
0:0:53.309,68.4448,8.71497,0,0.000885,0,0
0:0:53.506,69.3255,8.82529,0,0.000885,0,0
0:0:53.709,69.4412,8.83908,0,0.000885,0,0
0:0:53.905,70.144,8.92871,0,0.000885,0,0
0:0:54.105,70.2641,8.94939,0,0.000885,0,0
0:0:54.307,70.789,9.01145,0,0.000885,0,0
0:0:54.501,70.6733,8.99766,0,0.000885,0,0
0:0:54.703,71.4963,9.10108,0,0.000885,0,0
0:0:54.900,71.7898,9.14245,0,0.000885,0,0
0:0:55.097,72.0212,9.17003,0,0.000885,0,0
0:0:55.300,72.3726,9.21829,0,0.000885,0,0
0:0:55.497,73.022,9.29413,0,0.000885,0,0
0:0:55.697,73.0798,9.30792,0,0.000885,0,0
0:0:55.897,73.2533,9.32861,0,0.000885,0,0
0:0:56.092,73.667,9.37687,0,0.000885,0,0
0:0:56.294,73.9561,9.41824,0,0.000885,0,0
0:0:56.496,74.312,9.45961,0,0.000885,0,0
0:0:56.700,75.0148,9.54924,0,0.000885,0,0
0:0:56.903,75.7176,9.63887,0,0.000885,0,0
0:0:57.105,76.069,9.68713,0,0.000885,0,0
0:0:57.308,76.8341,9.78366,0,0.000885,0,0
0:0:57.509,77.0654,9.81124,0,0.000885,0,0
0:0:57.712,77.4791,9.8664,0,0.000885,0,0
0:0:57.913,77.6526,9.88708,0,0.000885,0,0
0:0:58.109,78.1241,9.94913,0,0.000885,0,0
0:0:58.311,77.8884,9.91466,0,0.000885,0,0
0:0:58.511,78.5334,9.9974,0,0.000885,0,0
0:0:58.708,78.8269,10.0388,0,0.000885,0,0
0:0:58.911,79.8233,10.1629,0,0.000885,0,0
0:0:59.105,79.8233,10.1629,0,0.000885,0,0
0:0:59.306,80.3527,10.2318,0,0.000885,0,0
0:0:59.508,80.8776,10.3008,0,0.000885,0,0
0:0:59.703,81.0555,10.3215,0,0.000885,0,0
0:0:59.906,81.4069,10.3628,0,0.000885,0,0
0:1:0.102,81.8161,10.418,0,0.000885,0,0
0:1:0.302,81.8161,10.418,0,0.000885,0,0
0:1:0.503,82.5812,10.5145,0,0.000885,0,0
0:1:0.699,83.0483,10.5766,0,0.000885,0,0
0:1:0.901,83.6355,10.6455,0,0.000885,0,0
0:1:1.099,84.2226,10.7213,0,0.000885,0,0
0:1:1.297,84.2805,10.7282,0,0.000885,0,0
0:1:1.499,84.752,10.7903,0,0.000885,0,0
0:1:1.701,85.0411,10.8248,0,0.000885,0,0
0:1:1.906,85.6283,10.9006,0,0.000885,0,0
0:1:2.107,85.8062,10.9282,0,0.000885,0,0
0:1:2.310,86.1576,10.9696,0,0.000885,0,0
0:1:2.512,86.7448,11.0454,0,0.000885,0,0
0:1:2.713,86.8604,11.0592,0,0.000885,0,0
0:1:2.915,87.0384,11.0799,0,0.000885,0,0
0:1:3.117,87.9769,11.204,0,0.000885,0,0
0:1:3.311,88.2705,11.2385,0,0.000885,0,0
0:1:3.513,88.2082,11.2316,0,0.000885,0,0
0:1:3.711,88.7954,11.3074,0,0.000885,0,0
0:1:3.911,88.9733,11.3281,0,0.000885,0,0
0:1:4.111,89.6183,11.4108,0,0.000885,0,0
0:1:4.307,90.6725,11.5418,0,0.000885,0,0
0:1:4.509,90.7927,11.5625,0,0.000885,0,0
0:1:4.706,91.0862,11.597,0,0.000885,0,0
0:1:4.906,91.5533,11.659,0,0.000885,0,0
0:1:5.109,91.7312,11.6797,0,0.000885,0,0
0:1:5.303,92.3139,11.7556,0,0.000885,0,0
0:1:5.505,93.0212,11.8452,0,0.000885,0,0
0:1:5.702,93.079,11.8521,0,0.000885,0,0
0:1:5.901,92.9589,11.8383,0,0.000885,0,0
0:1:6.103,93.6084,11.921,0,0.000885,0,0
0:1:6.298,94.1333,11.9831,0,0.000885,0,0
0:1:6.499,94.4847,12.0314,0,0.000885,0,0
0:1:6.701,94.5425,12.0382,0,0.000885,0,0
0:1:6.904,94.8361,12.0727,0,0.000885,0,0
0:1:7.107,94.8361,12.0727,0,0.000885,0,0
0:1:7.310,96.6554,12.3071,0,0.000885,0,0
0:1:7.511,96.3618,12.2727,0,0.000885,0,0
0:1:7.713,97.0646,12.3623,0,0.000885,0,0
0:1:7.913,97.0646,12.3623,0,0.000885,0,0
0:1:8.115,97.594,12.4244,0,0.000885,0,0
0:1:8.314,98.0032,12.4795,0,0.000885,0,0
0:1:8.511,98.5904,12.5554,0,0.000885,0,0
0:1:8.713,98.9418,12.5967,0,0.000885,0,0
0:1:8.909,99.2932,12.645,0,0.000885,0,0
0:1:9.111,99.4133,12.6588,0,0.000885,0,0
0:1:9.312,100.232,12.7622,0,0.000885,0,0
0:1:9.507,100.174,12.7553,0,0.000885,0,0
0:1:9.709,100.645,12.8174,0,0.000885,0,0
0:1:9.905,100.997,12.8587,0,0.000885,0,0
0:1:10.105,101.233,12.8863,0,0.000885,0,0
0:1:10.307,101.642,12.9415,0,0.000885,0,0
0:1:10.502,101.815,12.9621,0,0.000885,0,0
0:1:10.704,102.58,13.0587,0,0.000885,0,0
0:1:10.900,103.168,13.1345,0,0.000885,0,0
0:1:11.099,103.519,13.1828,0,0.000885,0,0
0:1:11.301,104.106,13.2517,0,0.000885,0,0
0:1:11.504,104.631,13.3207,0,0.000885,0,0
0:1:11.706,104.631,13.3207,0,0.000885,0,0
0:1:11.909,105.276,13.4034,0,0.000885,0,0
0:1:12.111,105.512,13.431,0,0.000885,0,0
0:1:12.313,106.393,13.5482,0,0.000885,0,0
0:1:12.515,106.686,13.5827,0,0.000885,0,0
0:1:12.715,106.508,13.562,0,0.000885,0,0
0:1:12.915,106.566,13.5689,0,0.000885,0,0
0:1:13.113,107.505,13.6861,0,0.000885,0,0
0:1:13.313,107.505,13.6861,0,0.000885,0,0
0:1:13.511,108.27,13.7826,0,0.000885,0,0
0:1:13.710,108.505,13.8171,0,0.000885,0,0
0:1:13.910,109.266,13.9136,0,0.000885,0,0
0:1:14.105,109.324,13.9205,0,0.000885,0,0
0:1:14.307,109.795,13.9826,0,0.000885,0,0
0:1:14.505,110.498,14.0722,0,0.000885,0,0
0:1:14.703,110.378,14.0515,0,0.000885,0,0
0:1:14.904,110.908,14.1205,0,0.000885,0,0
0:1:15.099,111.495,14.1963,0,0.000885,0,0
0:1:15.300,112.024,14.2653,0,0.000885,0,0
0:1:15.499,111.904,14.2515,0,0.000885,0,0
0:1:15.696,112.491,14.3204,0,0.000885,0,0
0:1:15.898,112.433,14.3135,0,0.000885,0,0
0:1:16.092,113.078,14.3963,0,0.000885,0,0
0:1:16.293,113.545,14.4583,0,0.000885,0,0
0:1:16.496,114.368,14.5617,0,0.000885,0,0
0:1:16.699,114.84,14.6238,0,0.000885,0,0
0:1:16.902,115.422,14.6996,0,0.000885,0,0
0:1:17.104,115.307,14.6789,0,0.000885,0,0
0:1:17.304,115.774,14.741,0,0.000885,0,0
0:1:17.506,116.067,14.7755,0,0.000885,0,0
0:1:17.708,116.481,14.8306,0,0.000885,0,0
0:1:17.910,116.539,14.8375,0,0.000885,0,0
0:1:18.110,117.184,14.9203,0,0.000885,0,0
0:1:18.308,117.42,14.9478,0,0.000885,0,0
0:1:18.509,117.771,14.9961,0,0.000885,0,0
0:1:18.706,119.119,15.1685,0,0.000885,0,0
0:1:18.907,119.119,15.1685,0,0.000885,0,0
0:1:19.106,119.297,15.1892,0,0.000885,0,0
0:1:19.302,119.413,15.2029,0,0.000885,0,0
0:1:19.504,120,15.2788,0,0.000885,0,0
0:1:19.700,120.409,15.3339,0,0.000885,0,0
0:1:19.900,120.173,15.2995,0,0.000885,0,0
0:1:20.100,120.996,15.4029,0,0.000885,0,0
0:1:20.296,121.583,15.4787,0,0.000885,0,0
0:1:20.498,121.877,15.5201,0,0.000885,0,0
0:1:20.696,122.464,15.589,0,0.000885,0,0
0:1:20.895,122.402,15.5822,0,0.000885,0,0
0:1:21.096,123.403,15.7132,0,0.000885,0,0
0:1:21.288,123.167,15.6787,0,0.000885,0,0
0:1:21.492,123.518,15.7269,0,0.000885,0,0
0:1:21.694,124.63,15.8717,0,0.000885,0,0
0:1:21.898,125.102,15.9269,0,0.000885,0,0
0:1:22.101,125.631,15.9958,0,0.000885,0,0
0:1:22.303,125.569,15.9889,0,0.000885,0,0
0:1:22.505,125.983,16.0372,0,0.000885,0,0
0:1:22.706,126.507,16.1062,0,0.000885,0,0
0:1:22.908,125.983,16.0372,0,0.000885,0,0
0:1:23.110,126.334,16.0855,0,0.000885,0,0
0:1:23.306,126.743,16.1406,0,0.000885,0,0
0:1:23.507,127.446,16.2303,0,0.000885,0,0
0:1:23.706,128.153,16.3199,0,0.000885,0,0
0:1:23.902,128.327,16.3406,0,0.000885,0,0
0:1:24.103,129.559,16.4992,0,0.000885,0,0
0:1:24.301,129.265,16.4578,0,0.000885,0,0
0:1:24.500,129.852,16.5336,0,0.000885,0,0
0:1:24.701,130.382,16.6026,0,0.000885,0,0
0:1:24.897,130.965,16.6784,0,0.000885,0,0
0:1:25.098,131.258,16.7129,0,0.000885,0,0
0:1:25.298,131.436,16.7336,0,0.000885,0,0
0:1:25.494,131.845,16.7887,0,0.000885,0,0
0:1:25.696,132.081,16.8163,0,0.000885,0,0
0:1:25.888,132.081,16.8163,0,0.000885,0,0
0:1:26.088,132.668,16.8922,0,0.000885,0,0
0:1:26.289,133.429,16.9887,0,0.000885,0,0
0:1:26.485,133.313,16.9749,0,0.000885,0,0
0:1:26.688,134.194,17.0852,0,0.000885,0,0
0:1:26.889,134.661,17.1473,0,0.000885,0,0
0:1:27.096,135.07,17.1955,0,0.000885,0,0
0:1:27.298,134.545,17.1335,0,0.000885,0,0
0:1:27.500,134.661,17.1473,0,0.000885,0,0
0:1:27.702,135.306,17.23,0,0.000885,0,0
0:1:27.903,136.187,17.3403,0,0.000885,0,0
0:1:28.105,136.832,17.4231,0,0.000885,0,0
0:1:28.307,137.592,17.5196,0,0.000885,0,0
0:1:28.502,138.357,17.6161,0,0.000885,0,0
0:1:28.703,138.531,17.6368,0,0.000885,0,0
0:1:28.900,138.006,17.5747,0,0.000885,0,0
0:1:29.098,138.709,17.6575,0,0.000885,0,0
0:1:29.301,139.296,17.7333,0,0.000885,0,0
0:1:29.497,139.941,17.8161,0,0.000885,0,0
0:1:29.697,139.999,17.8229,0,0.000885,0,0
0:1:29.895,140.466,17.885,0,0.000885,0,0
0:1:30.102,140.88,17.9402,0,0.000885,0,0
0:1:30.303,141.289,17.9884,0,0.000885,0,0
0:1:30.500,141.64,18.0367,0,0.000885,0,0
0:1:30.701,142.17,18.0987,0,0.000885,0,0
0:1:30.901,142.579,18.1539,0,0.000885,0,0
0:1:31.097,142.815,18.1815,0,0.000885,0,0
0:1:31.299,143.05,18.2159,0,0.000885,0,0
0:1:31.501,143.517,18.2711,0,0.000885,0,0
0:1:31.705,143.695,18.2987,0,0.000885,0,0
0:1:31.908,144.34,18.3745,0,0.000885,0,0
0:1:32.109,145.101,18.4779,0,0.000885,0,0
0:1:32.310,145.101,18.4779,0,0.000885,0,0
0:1:32.511,145.043,18.4642,0,0.000885,0,0
0:1:32.712,145.804,18.5676,0,0.000885,0,0
0:1:32.914,146.333,18.6296,0,0.000885,0,0
0:1:33.109,146.275,18.6227,0,0.000885,0,0
0:1:33.311,147.445,18.7744,0,0.000885,0,0
0:1:33.509,147.214,18.7468,0,0.000885,0,0
0:1:33.705,147.917,18.8365,0,0.000885,0,0
0:1:33.908,148.446,18.8985,0,0.000885,0,0
0:1:34.103,149.322,19.0157,0,0.000885,0,0
0:1:34.303,149.736,19.064,0,0.000885,0,0
0:1:34.503,149.794,19.0709,0,0.000885,0,0
0:1:34.699,149.558,19.0433,0,0.000885,0,0
0:1:34.902,150.03,19.1054,0,0.000885,0,0
0:1:35.099,150.675,19.1812,0,0.000885,0,0
0:1:35.298,150.612,19.1743,0,0.000885,0,0
0:1:35.499,151.262,19.2571,0,0.000885,0,0
0:1:35.694,152.374,19.4018,0,0.000885,0,0
0:1:35.896,151.729,19.3191,0,0.000885,0,0
0:1:36.102,152.667,19.4363,0,0.000885,0,0
0:1:36.300,152.903,19.4708,0,0.000885,0,0
0:1:36.502,153.197,19.5053,0,0.000885,0,0
0:1:36.703,153.548,19.5535,0,0.000885,0,0
0:1:36.907,153.548,19.5535,0,0.000885,0,0
0:1:37.110,154.487,19.6707,0,0.000885,0,0
0:1:37.312,154.718,19.6983,0,0.000885,0,0
0:1:37.514,155.305,19.7742,0,0.000885,0,0
0:1:37.716,156.07,19.8707,0,0.000885,0,0
0:1:37.917,156.07,19.8707,0,0.000885,0,0
0:1:38.118,156.48,19.9258,0,0.000885,0,0
0:1:38.313,156.422,19.919,0,0.000885,0,0
0:1:38.516,156.537,19.9327,0,0.000885,0,0
0:1:38.712,157.302,20.0293,0,0.000885,0,0
0:1:38.912,157.654,20.0706,0,0.000885,0,0
0:1:39.114,158.472,20.1741,0,0.000885,0,0
0:1:39.309,159.002,20.243,0,0.000885,0,0
0:1:39.511,159.295,20.2844,0,0.000885,0,0
0:1:39.709,159.705,20.3326,0,0.000885,0,0
0:1:39.907,160.47,20.4292,0,0.000885,0,0
0:1:40.109,160.292,20.4085,0,0.000885,0,0
0:1:40.305,161.172,20.5188,0,0.000885,0,0
0:1:40.504,161.582,20.574,0,0.000885,0,0
0:1:40.703,161.817,20.6015,0,0.000885,0,0
0:1:40.901,162.169,20.6498,0,0.000885,0,0
0:1:41.103,161.933,20.6153,0,0.000885,0,0
0:1:41.299,161.933,20.6153,0,0.000885,0,0
0:1:41.498,162.929,20.7463,0,0.000885,0,0
0:1:41.699,163.401,20.8015,0,0.000885,0,0
0:1:41.902,163.459,20.8153,0,0.000885,0,0
0:1:42.105,164.927,21.0014,0,0.000885,0,0
0:1:42.307,164.927,21.0014,0,0.000885,0,0
0:1:42.508,165.158,21.029,0,0.000885,0,0
0:1:42.710,166.39,21.1876,0,0.000885,0,0
0:1:42.912,165.687,21.098,0,0.000885,0,0
0:1:43.112,165.923,21.1255,0,0.000885,0,0
0:1:43.312,167.035,21.2703,0,0.000885,0,0
0:1:43.508,166.51,21.2014,0,0.000885,0,0
0:1:43.710,167.449,21.3186,0,0.000885,0,0
0:1:43.905,168.152,21.4082,0,0.000885,0,0
0:1:44.106,168.681,21.4772,0,0.000885,0,0
0:1:44.305,168.267,21.422,0,0.000885,0,0
0:1:44.502,168.681,21.4772,0,0.000885,0,0
0:1:44.704,169.677,21.6013,0,0.000885,0,0
0:1:44.899,169.971,21.6426,0,0.000885,0,0
0:1:45.100,170.202,21.6702,0,0.000885,0,0
0:1:45.301,170.554,21.7185,0,0.000885,0,0
0:1:45.496,170.847,21.753,0,0.000885,0,0
0:1:45.698,171.141,21.7874,0,0.000885,0,0
0:1:45.895,171.964,21.8977,0,0.000885,0,0
0:1:46.091,172.2,21.9253,0,0.000885,0,0
0:1:46.296,172.845,22.0081,0,0.000885,0,0
0:1:46.501,173.312,22.0701,0,0.000885,0,0
0:1:46.703,173.076,22.0356,0,0.000885,0,0
0:1:46.905,173.432,22.0839,0,0.000885,0,0
0:1:47.110,174.014,22.1597,0,0.000885,0,0
0:1:47.312,174.722,22.2494,0,0.000885,0,0
0:1:47.513,175.304,22.3183,0,0.000885,0,0
0:1:47.714,175.304,22.3183,0,0.000885,0,0
0:1:47.916,175.247,22.3114,0,0.000885,0,0
0:1:48.116,175.834,22.3873,0,0.000885,0,0
0:1:48.318,176.714,22.4976,0,0.000885,0,0
0:1:48.513,176.421,22.4631,0,0.000885,0,0
0:1:48.715,177.124,22.5528,0,0.000885,0,0
0:1:48.913,177.889,22.6493,0,0.000885,0,0
0:1:49.111,178.472,22.7251,0,0.000885,0,0
0:1:49.311,178.472,22.7251,0,0.000885,0,0
0:1:49.507,178.707,22.7527,0,0.000885,0,0
0:1:49.709,179.294,22.8285,0,0.000885,0,0
0:1:49.907,179.766,22.8906,0,0.000885,0,0
0:1:50.104,179.824,22.8975,0,0.000885,0,0
0:1:50.306,180.175,22.9389,0,0.000885,0,0
0:1:50.503,180.878,23.0285,0,0.000885,0,0
0:1:50.703,180.878,23.0285,0,0.000885,0,0
0:1:50.902,181.465,23.1043,0,0.000885,0,0
0:1:51.099,182.168,23.194,0,0.000885,0,0
0:1:51.301,182.991,23.2974,0,0.000885,0,0
0:1:51.504,182.519,23.2422,0,0.000885,0,0
0:1:51.706,183.107,23.3112,0,0.000885,0,0
0:1:51.910,183.987,23.4284,0,0.000885,0,0
0:1:52.112,184.339,23.4698,0,0.000885,0,0
0:1:52.314,184.454,23.4835,0,0.000885,0,0
0:1:52.516,184.454,23.4835,0,0.000885,0,0
0:1:52.717,184.397,23.4766,0,0.000885,0,0
0:1:52.919,185.162,23.5732,0,0.000885,0,0
0:1:53.116,185.393,23.6076,0,0.000885,0,0
0:1:53.318,186.625,23.7593,0,0.000885,0,0
0:1:53.513,186.452,23.7386,0,0.000885,0,0
0:1:53.713,186.803,23.7869,0,0.000885,0,0
0:1:53.914,187.506,23.8765,0,0.000885,0,0
0:1:54.111,188.151,23.9593,0,0.000885,0,0
0:1:54.312,187.622,23.8903,0,0.000885,0,0
0:1:54.507,188.618,24.0144,0,0.000885,0,0
0:1:54.707,188.796,24.0351,0,0.000885,0,0
0:1:54.909,189.325,24.1041,0,0.000885,0,0
0:1:55.104,190.144,24.2075,0,0.000885,0,0
0:1:55.305,190.028,24.1937,0,0.000885,0,0
0:1:55.502,190.264,24.2282,0,0.000885,0,0
0:1:55.701,191.024,24.3247,0,0.000885,0,0
0:1:55.902,191.847,24.4281,0,0.000885,0,0
0:1:56.098,191.669,24.4074,0,0.000885,0,0
0:1:56.300,192.666,24.5315,0,0.000885,0,0
0:1:56.501,193.253,24.6074,0,0.000885,0,0
0:1:56.703,193.489,24.635,0,0.000885,0,0
0:1:56.905,193.604,24.6488,0,0.000885,0,0
0:1:57.105,193.724,24.6625,0,0.000885,0,0
0:1:57.305,194.076,24.7108,0,0.000885,0,0
0:1:57.504,194.894,24.8142,0,0.000885,0,0
0:1:57.705,194.779,24.8004,0,0.000885,0,0
0:1:57.907,195.246,24.8625,0,0.000885,0,0
0:1:58.101,195.482,24.8901,0,0.000885,0,0
0:1:58.301,196.656,25.0418,0,0.000885,0,0
0:1:58.499,196.829,25.0624,0,0.000885,0,0
0:1:58.691,197.007,25.0831,0,0.000885,0,0
0:1:58.891,197.123,25.0969,0,0.000885,0,0
0:1:59.088,197.537,25.1521,0,0.000885,0,0
0:1:59.286,198.591,25.2831,0,0.000885,0,0
0:1:59.484,198.533,25.2762,0,0.000885,0,0
0:1:59.678,198.707,25.2969,0,0.000885,0,0
0:1:59.879,199.472,25.4003,0,0.000885,0,0
0:2:0.076,200.059,25.4692,0,0.000885,0,0
0:2:0.282,199.996,25.4623,0,0.000885,0,0
0:2:0.481,200.059,25.4692,0,0.000885,0,0
0:2:0.674,201.055,25.6002,0,0.000885,0,0
0:2:0.874,201.464,25.6485,0,0.000885,0,0
0:2:1.072,201.7,25.683,0,0.000885,0,0
0:2:1.270,202.519,25.7864,0,0.000885,0,0
0:2:1.470,202.403,25.7726,0,0.000885,0,0
0:2:1.671,202.519,25.7864,0,0.000885,0,0
0:2:1.873,202.519,25.7864,0,0.000885,0,0
0:2:2.075,203.577,25.9174,0,0.000885,0,0
0:2:2.274,203.284,25.8829,0,0.000885,0,0
0:2:2.475,204.516,26.0415,0,0.000885,0,0
0:2:2.674,205.334,26.1449,0,0.000885,0,0
0:2:2.876,205.161,26.1242,0,0.000885,0,0
0:2:3.072,204.867,26.0829,0,0.000885,0,0
0:2:3.269,205.099,26.1173,0,0.000885,0,0
0:2:3.470,205.979,26.2277,0,0.000885,0,0
0:2:3.664,205.979,26.2277,0,0.000885,0,0
0:2:3.862,206.918,26.3449,0,0.000885,0,0
0:2:4.060,207.389,26.4069,0,0.000885,0,0
0:2:4.257,208.092,26.4966,0,0.000885,0,0
0:2:4.458,208.328,26.5241,0,0.000885,0,0
0:2:4.653,208.622,26.5655,0,0.000885,0,0
0:2:4.851,209.382,26.662,0,0.000885,0,0
0:2:5.050,209.56,26.6827,0,0.000885,0,0
0:2:5.244,209.734,26.7034,0,0.000885,0,0
0:2:5.445,210.436,26.793,0,0.000885,0,0
0:2:5.642,210.85,26.8482,0,0.000885,0,0
0:2:5.839,211.081,26.8758,0,0.000885,0,0
0:2:6.039,211.317,26.9033,0,0.000885,0,0
0:2:6.232,211.904,26.9792,0,0.000885,0,0
0:2:6.432,212.371,27.0412,0,0.000885,0,0
0:2:6.631,212.371,27.0412,0,0.000885,0,0
0:2:6.834,213.43,27.1722,0,0.000885,0,0
0:2:7.036,213.252,27.1516,0,0.000885,0,0
0:2:7.237,212.901,27.1102,0,0.000885,0,0
0:2:7.438,213.839,27.2274,0,0.000885,0,0
0:2:7.636,214.311,27.2894,0,0.000885,0,0
0:2:7.837,214.369,27.2963,0,0.000885,0,0
0:2:8.038,214.836,27.3515,0,0.000885,0,0
0:2:8.243,215.423,27.4273,0,0.000885,0,0
0:2:8.442,215.481,27.4342,0,0.000885,0,0
0:2:8.640,215.952,27.4963,0,0.000885,0,0
0:2:8.836,216.246,27.5308,0,0.000885,0,0
0:2:9.036,217.184,27.6549,0,0.000885,0,0
0:2:9.229,216.949,27.6204,0,0.000885,0,0
0:2:9.429,217.651,27.71,0,0.000885,0,0
0:2:9.628,218.59,27.8341,0,0.000885,0,0
0:2:9.822,218.354,27.7997,0,0.000885,0,0
0:2:10.022,219.177,27.9031,0,0.000885,0,0
0:2:10.218,219.938,28.0065,0,0.000885,0,0
0:2:10.416,219.938,28.0065,0,0.000885,0,0
0:2:10.615,220.467,28.0686,0,0.000885,0,0
0:2:10.810,220.997,28.1375,0,0.000885,0,0
0:2:11.012,221.699,28.2271,0,0.000885,0,0
0:2:11.207,221.642,28.2202,0,0.000885,0,0
0:2:11.404,222.344,28.3099,0,0.000885,0,0
0:2:11.605,222.811,28.3719,0,0.000885,0,0
0:2:11.804,222.58,28.3375,0,0.000885,0,0
0:2:12.006,223.105,28.4064,0,0.000885,0,0
0:2:12.207,223.105,28.4064,0,0.000885,0,0
0:2:12.408,223.75,28.4891,0,0.000885,0,0
0:2:12.609,224.222,28.5512,0,0.000885,0,0
0:2:12.808,224.982,28.6477,0,0.000885,0,0
0:2:13.008,224.866,28.6339,0,0.000885,0,0
0:2:13.208,225.396,28.696,0,0.000885,0,0
0:2:13.403,226.041,28.7787,0,0.000885,0,0
0:2:13.603,226.45,28.8339,0,0.000885,0,0
0:2:13.798,226.686,28.8615,0,0.000885,0,0
0:2:13.994,227.269,28.9373,0,0.000885,0,0
0:2:14.193,226.624,28.8546,0,0.000885,0,0
0:2:14.387,227.211,28.9304,0,0.000885,0,0
0:2:14.588,227.74,28.9993,0,0.000885,0,0
0:2:14.783,227.798,29.0062,0,0.000885,0,0
0:2:14.981,228.207,29.0545,0,0.000885,0,0
0:2:15.181,228.914,29.1441,0,0.000885,0,0
0:2:15.385,229.617,29.2338,0,0.000885,0,0
0:2:15.586,229.675,29.2407,0,0.000885,0,0
0:2:15.781,230.614,29.3648,0,0.000885,0,0
0:2:15.979,231.201,29.4406,0,0.000885,0,0
0:2:16.178,231.61,29.4889,0,0.000885,0,0
0:2:16.380,231.846,29.5165,0,0.000885,0,0
0:2:16.582,232.255,29.5716,0,0.000885,0,0
0:2:16.783,232.784,29.6406,0,0.000885,0,0
0:2:16.983,233.603,29.744,0,0.000885,0,0
0:2:17.181,233.078,29.675,0,0.000885,0,0
0:2:17.382,233.371,29.7164,0,0.000885,0,0
0:2:17.582,234.19,29.8198,0,0.000885,0,0
0:2:17.780,235.071,29.9301,0,0.000885,0,0
0:2:17.974,234.661,29.875,0,0.000885,0,0
0:2:18.175,234.897,29.9095,0,0.000885,0,0
0:2:18.371,235.013,29.9232,0,0.000885,0,0
0:2:18.569,235.249,29.9508,0,0.000885,0,0
0:2:18.767,236.009,30.0474,0,0.000885,0,0
0:2:18.961,236.187,30.0749,0,0.000885,0,0
0:2:19.162,237.126,30.1921,0,0.000885,0,0
0:2:19.358,236.948,30.1715,0,0.000885,0,0
0:2:19.554,237.593,30.2542,0,0.000885,0,0
0:2:19.755,238.122,30.3162,0,0.000885,0,0
0:2:19.949,238.941,30.4197,0,0.000885,0,0
0:2:20.147,238.941,30.4197,0,0.000885,0,0
0:2:20.347,239.354,30.4748,0,0.000885,0,0
0:2:20.541,239.937,30.5507,0,0.000885,0,0
0:2:20.741,240.582,30.6334,0,0.000885,0,0
0:2:20.937,240.76,30.6541,0,0.000885,0,0
0:2:21.134,240.996,30.6817,0,0.000885,0,0
0:2:21.336,241.756,30.7782,0,0.000885,0,0
0:2:21.538,241.934,30.8058,0,0.000885,0,0
0:2:21.738,241.876,30.7989,0,0.000885,0,0
0:2:21.939,242.344,30.854,0,0.000885,0,0
0:2:22.141,243.104,30.9506,0,0.000885,0,0
0:2:22.341,243.34,30.985,0,0.000885,0,0
0:2:22.541,244.105,31.0816,0,0.000885,0,0
0:2:22.742,244.221,31.0954,0,0.000885,0,0
0:2:22.940,244.456,31.1229,0,0.000885,0,0
0:2:23.134,244.866,31.1781,0,0.000885,0,0
0:2:23.337,245.275,31.2264,0,0.000885,0,0
0:2:23.532,245.746,31.2884,0,0.000885,0,0
0:2:23.730,246.507,31.3849,0,0.000885,0,0
0:2:23.928,246.507,31.3849,0,0.000885,0,0
0:2:24.122,246.979,31.447,0,0.000885,0,0
0:2:24.323,247.624,31.5297,0,0.000885,0,0
0:2:24.518,247.503,31.5159,0,0.000885,0,0
0:2:24.717,247.855,31.5573,0,0.000885,0,0
0:2:24.917,248.678,31.6607,0,0.000885,0,0
0:2:25.110,249.674,31.7917,0,0.000885,0,0
0:2:25.310,249.381,31.7504,0,0.000885,0,0
0:2:25.506,249.794,31.8055,0,0.000885,0,0
0:2:25.703,249.265,31.7366,0,0.000885,0,0
0:2:25.904,250.026,31.8331,0,0.000885,0,0
0:2:26.096,250.319,31.8745,0,0.000885,0,0
0:2:26.294,251.022,31.9641,0,0.000885,0,0
0:2:26.494,250.906,31.9434,0,0.000885,0,0
0:2:26.699,251.729,32.0537,0,0.000885,0,0
0:2:26.901,252.49,32.1503,0,0.000885,0,0
0:2:27.103,253.019,32.2123,0,0.000885,0,0
0:2:27.303,252.784,32.1847,0,0.000885,0,0
0:2:27.502,253.371,32.2606,0,0.000885,0,0
0:2:27.702,254.131,32.3571,0,0.000885,0,0
0:2:27.904,254.661,32.426,0,0.000885,0,0
0:2:28.100,254.483,32.4054,0,0.000885,0,0
0:2:28.307,255.248,32.5019,0,0.000885,0,0
0:2:28.506,256.066,32.6053,0,0.000885,0,0
0:2:28.699,255.893,32.5846,0,0.000885,0,0
0:2:28.900,256.066,32.6053,0,0.000885,0,0
0:2:29.096,256.302,32.6329,0,0.000885,0,0
0:2:29.302,257.067,32.7294,0,0.000885,0,0
0:2:29.503,257.125,32.7363,0,0.000885,0,0
0:2:29.696,257.65,32.8053,0,0.000885,0,0
0:2:29.894,258.121,32.8673,0,0.000885,0,0
0:2:30.094,258.651,32.9294,0,0.000885,0,0
0:2:30.299,258.824,32.9569,0,0.000885,0,0
0:2:30.499,259.354,33.019,0,0.000885,0,0
0:2:30.704,260.234,33.1362,0,0.000885,0,0
0:2:30.901,260.701,33.1914,0,0.000885,0,0
0:2:31.102,260.292,33.1431,0,0.000885,0,0
0:2:31.302,260.701,33.1914,0,0.000885,0,0
0:2:31.504,260.644,33.1845,0,0.000885,0,0
0:2:31.706,261.289,33.2672,0,0.000885,0,0
0:2:31.906,261.934,33.3499,0,0.000885,0,0
0:2:32.107,262.579,33.4327,0,0.000885,0,0
0:2:32.306,262.814,33.4603,0,0.000885,0,0
0:2:32.508,263.459,33.543,0,0.000885,0,0
0:2:32.706,263.575,33.5568,0,0.000885,0,0
0:2:32.902,263.811,33.5913,0,0.000885,0,0
0:2:33.103,264.571,33.6878,0,0.000885,0,0
0:2:33.307,264.513,33.6809,0,0.000885,0,0
0:2:33.506,265.394,33.7912,0,0.000885,0,0
0:2:33.704,266.213,33.8946,0,0.000885,0,0
0:2:33.896,266.858,33.9774,0,0.000885,0,0
0:2:34.095,266.333,33.9084,0,0.000885,0,0
0:2:34.304,266.569,33.9429,0,0.000885,0,0
0:2:34.500,267.387,34.0463,0,0.000885,0,0
0:2:34.700,267.796,34.0946,0,0.000885,0,0
0:2:34.903,267.565,34.067,0,0.000885,0,0
0:2:35.102,268.21,34.1497,0,0.000885,0,0
0:2:35.301,269.149,34.2669,0,0.000885,0,0
0:2:35.494,269.673,34.3359,0,0.000885,0,0
0:2:35.694,269.558,34.3221,0,0.000885,0,0
0:2:35.889,269.558,34.3221,0,0.000885,0,0
0:2:36.087,270.79,34.4807,0,0.000885,0,0
0:2:36.288,271.026,34.5083,0,0.000885,0,0
0:2:36.490,270.963,34.5014,0,0.000885,0,0
0:2:36.690,271.435,34.5634,0,0.000885,0,0
0:2:36.891,271.608,34.5841,0,0.000885,0,0
0:2:37.092,271.671,34.591,0,0.000885,0,0
0:2:37.292,272.196,34.6599,0,0.000885,0,0
0:2:37.492,272.961,34.7565,0,0.000885,0,0
0:2:37.693,273.486,34.8185,0,0.000885,0,0
0:2:37.888,273.312,34.7978,0,0.000885,0,0
0:2:38.085,273.957,34.8806,0,0.000885,0,0
0:2:38.285,274.602,34.9633,0,0.000885,0,0
0:2:38.480,275.598,35.0874,0,0.000885,0,0
0:2:38.679,275.363,35.0598,0,0.000885,0,0
0:2:38.876,275.95,35.1357,0,0.000885,0,0
0:2:39.071,276.479,35.2046,0,0.000885,0,0
0:2:39.272,276.888,35.2529,0,0.000885,0,0
0:2:39.468,276.773,35.2391,0,0.000885,0,0
0:2:39.666,277.004,35.2667,0,0.000885,0,0
0:2:39.865,277.654,35.3494,0,0.000885,0,0
0:2:40.060,278.063,35.4046,0,0.000885,0,0
0:2:40.260,278.588,35.4735,0,0.000885,0,0
0:2:40.458,279.117,35.5356,0,0.000885,0,0
0:2:40.655,279.526,35.5907,0,0.000885,0,0
0:2:40.853,279.526,35.5907,0,0.000885,0,0
0:2:41.048,279.762,35.6183,0,0.000885,0,0
0:2:41.246,280.349,35.6942,0,0.000885,0,0
0:2:41.446,280.585,35.7217,0,0.000885,0,0
0:2:41.649,281.172,35.7976,0,0.000885,0,0
0:2:41.850,282.048,35.9148,0,0.000885,0,0
0:2:42.051,281.875,35.8872,0,0.000885,0,0
0:2:42.252,282.693,35.9906,0,0.000885,0,0
0:2:42.452,283.401,36.0803,0,0.000885,0,0
0:2:42.653,283.81,36.1354,0,0.000885,0,0
0:2:42.852,283.401,36.0803,0,0.000885,0,0
0:2:43.049,283.81,36.1354,0,0.000885,0,0
0:2:43.245,284.219,36.1906,0,0.000885,0,0
0:2:43.445,283.926,36.1492,0,0.000885,0,0
0:2:43.640,285.216,36.3147,0,0.000885,0,0
0:2:43.839,285.393,36.3354,0,0.000885,0,0
0:2:44.037,285.923,36.4043,0,0.000885,0,0
0:2:44.231,286.626,36.494,0,0.000885,0,0
0:2:44.432,286.919,36.5284,0,0.000885,0,0
0:2:44.628,286.919,36.5284,0,0.000885,0,0
0:2:44.826,287.328,36.5836,0,0.000885,0,0
0:2:45.025,287.916,36.6594,0,0.000885,0,0
0:2:45.218,288.325,36.7077,0,0.000885,0,0
0:2:45.419,288.739,36.7628,0,0.000885,0,0
0:2:45.614,289.441,36.8525,0,0.000885,0,0
0:2:45.813,290.028,36.9283,0,0.000885,0,0
0:2:46.013,289.793,36.9007,0,0.000885,0,0
0:2:46.215,289.735,36.887,0,0.000885,0,0
0:2:46.416,290.438,36.9766,0,0.000885,0,0
0:2:46.616,291.083,37.0593,0,0.000885,0,0
0:2:46.816,291.025,37.0524,0,0.000885,0,0
0:2:47.017,291.55,37.1214,0,0.000885,0,0
0:2:47.217,292.195,37.2041,0,0.000885,0,0
0:2:47.417,292.373,37.2248,0,0.000885,0,0
0:2:47.614,292.551,37.2455,0,0.000885,0,0
0:2:47.810,293.196,37.3282,0,0.000885,0,0
0:2:48.010,293.427,37.3627,0,0.000885,0,0
0:2:48.207,293.605,37.3834,0,0.000885,0,0
0:2:48.404,294.779,37.5351,0,0.000885,0,0
0:2:48.604,294.953,37.5557,0,0.000885,0,0
0:2:48.796,295.011,37.5626,0,0.000885,0,0
0:2:48.996,295.776,37.6592,0,0.000885,0,0
0:2:49.193,296.127,37.7005,0,0.000885,0,0
0:2:49.398,296.945,37.8108,0,0.000885,0,0
0:2:49.598,297.533,37.8798,0,0.000885,0,0
0:2:49.803,297.359,37.8591,0,0.000885,0,0
0:2:50.004,297.826,37.9212,0,0.000885,0,0
0:2:50.201,298.529,38.0108,0,0.000885,0,0
0:2:50.406,298.413,37.997,0,0.000885,0,0
0:2:50.606,298.471,38.0039,0,0.000885,0,0
0:2:50.798,299.058,38.0797,0,0.000885,0,0
0:2:50.994,299.294,38.1073,0,0.000885,0,0
0:2:51.196,299.703,38.1625,0,0.000885,0,0
0:2:51.398,299.939,38.1901,0,0.000885,0,0
0:2:51.601,300.406,38.2521,0,0.000885,0,0
0:2:51.801,300.936,38.3142,0,0.000885,0,0
0:2:52.002,301.407,38.3762,0,0.000885,0,0
0:2:52.202,301.287,38.3624,0,0.000885,0,0
0:2:52.402,302.226,38.4796,0,0.000885,0,0
0:2:52.603,302.519,38.521,0,0.000885,0,0
0:2:52.809,303.106,38.59,0,0.000885,0,0
0:2:53.006,303.516,38.6451,0,0.000885,0,0
0:2:53.207,304.16,38.7279,0,0.000885,0,0
0:2:53.402,304.69,38.7968,0,0.000885,0,0
0:2:53.602,304.512,38.7692,0,0.000885,0,0
0:2:53.808,305.157,38.852,0,0.000885,0,0
0:2:54.002,305.864,38.9416,0,0.000885,0,0
0:2:54.203,306.331,39.0036,0,0.000885,0,0
0:2:54.397,306.389,39.0105,0,0.000885,0,0
0:2:54.594,306.509,39.0243,0,0.000885,0,0
0:2:54.793,307.385,39.1346,0,0.000885,0,0
0:2:55.008,307.621,39.1691,0,0.000885,0,0
0:2:55.210,307.857,39.1967,0,0.000885,0,0
0:2:55.406,308.324,39.2587,0,0.000885,0,0
0:2:55.603,308.796,39.3139,0,0.000885,0,0
0:2:55.803,309.031,39.3484,0,0.000885,0,0
0:2:56.005,309.325,39.3829,0,0.000885,0,0
0:2:56.206,309.556,39.4173,0,0.000885,0,0
0:2:56.406,309.614,39.4242,0,0.000885,0,0
0:2:56.608,310.086,39.4794,0,0.000885,0,0
0:2:56.809,310.615,39.5483,0,0.000885,0,0
0:2:57.009,311.198,39.6242,0,0.000885,0,0
0:2:57.209,311.727,39.6931,0,0.000885,0,0
0:2:57.411,312.256,39.7552,0,0.000885,0,0
0:2:57.609,312.372,39.7759,0,0.000885,0,0
0:2:57.811,313.426,39.9069,0,0.000885,0,0
0:2:58.004,313.017,39.8517,0,0.000885,0,0
0:2:58.204,313.662,39.9344,0,0.000885,0,0
0:2:58.402,314.485,40.0448,0,0.000885,0,0
0:2:58.606,314.6,40.0585,0,0.000885,0,0
0:2:58.807,315.303,40.1482,0,0.000885,0,0
0:2:59.003,315.303,40.1482,0,0.000885,0,0
0:2:59.197,315.659,40.1895,0,0.000885,0,0
0:2:59.397,316.242,40.2654,0,0.000885,0,0
0:2:59.592,316.535,40.2999,0,0.000885,0,0
0:2:59.791,317.18,40.3826,0,0.000885,0,0
0:2:59.988,317.358,40.4102,0,0.000885,0,0
0:3:0.183,317.243,40.3895,0,0.000885,0,0
0:3:0.382,317.825,40.4653,0,0.000885,0,0
0:3:0.578,318.177,40.5136,0,0.000885,0,0
0:3:0.775,318.47,40.5481,0,0.000885,0,0
0:3:0.976,319.236,40.6446,0,0.000885,0,0
0:3:1.178,319.115,40.6308,0,0.000885,0,0
0:3:1.379,319.996,40.7411,0,0.000885,0,0
0:3:1.580,319.938,40.7342,0,0.000885,0,0
0:3:1.780,320.468,40.8032,0,0.000885,0,0
0:3:1.978,320.993,40.8721,0,0.000885,0,0
0:3:2.179,321.638,40.9549,0,0.000885,0,0
0:3:2.379,322.225,41.0238,0,0.000885,0,0
0:3:2.576,322.46,41.0583,0,0.000885,0,0
0:3:2.772,322.99,41.1272,0,0.000885,0,0
0:3:2.973,323.75,41.2238,0,0.000885,0,0
0:3:3.166,323.457,41.1824,0,0.000885,0,0
0:3:3.365,323.928,41.2444,0,0.000885,0,0
0:3:3.563,324.338,41.2927,0,0.000885,0,0
0:3:3.759,325.218,41.4099,0,0.000885,0,0
0:3:3.960,325.276,41.4168,0,0.000885,0,0
0:3:4.156,324.983,41.3754,0,0.000885,0,0
0:3:4.352,325.392,41.4306,0,0.000885,0,0
0:3:4.551,326.157,41.5271,0,0.000885,0,0
0:3:4.744,326.33,41.5478,0,0.000885,0,0
0:3:4.944,326.388,41.5547,0,0.000885,0,0
0:3:5.143,327.327,41.6788,0,0.000885,0,0
0:3:5.339,327.62,41.7133,0,0.000885,0,0
0:3:5.539,327.856,41.7409,0,0.000885,0,0
0:3:5.733,328.386,41.8098,0,0.000885,0,0
0:3:5.930,329.382,41.9408,0,0.000885,0,0
0:3:6.131,329.324,41.9339,0,0.000885,0,0
0:3:6.333,329.675,41.9753,0,0.000885,0,0
0:3:6.533,330.027,42.0235,0,0.000885,0,0
0:3:6.734,330.263,42.0511,0,0.000885,0,0
0:3:6.936,330.908,42.1339,0,0.000885,0,0
0:3:7.135,331.259,42.1752,0,0.000885,0,0
0:3:7.335,331.553,42.2166,0,0.000885,0,0
0:3:7.537,332.078,42.2787,0,0.000885,0,0
0:3:7.733,332.429,42.3269,0,0.000885,0,0
0:3:7.929,332.607,42.3476,0,0.000885,0,0
0:3:8.130,333.545,42.4717,0,0.000885,0,0
0:3:8.325,333.723,42.4924,0,0.000885,0,0
0:3:8.524,334.542,42.5958,0,0.000885,0,0
0:3:8.723,334.778,42.6234,0,0.000885,0,0
0:3:8.916,335.48,42.713,0,0.000885,0,0
0:3:9.116,335.48,42.713,0,0.000885,0,0
0:3:9.312,335.658,42.7337,0,0.000885,0,0
0:3:9.509,335.716,42.7475,0,0.000885,0,0
0:3:9.709,336.535,42.8509,0,0.000885,0,0
0:3:9.911,336.419,42.8371,0,0.000885,0,0
0:3:10.112,337.006,42.9061,0,0.000885,0,0
0:3:10.309,337.122,42.9268,0,0.000885,0,0
0:3:10.504,337.415,42.9612,0,0.000885,0,0
0:3:10.706,338.06,43.044,0,0.000885,0,0
0:3:10.908,338.354,43.0784,0,0.000885,0,0
0:3:11.108,338.825,43.1405,0,0.000885,0,0
0:3:11.307,339.35,43.2094,0,0.000885,0,0
0:3:11.510,339.88,43.2715,0,0.000885,0,0
0:3:11.711,340.64,43.3749,0,0.000885,0,0
0:3:11.912,340.76,43.3887,0,0.000885,0,0
0:3:12.111,340.818,43.3956,0,0.000885,0,0
0:3:12.312,341.579,43.4921,0,0.000885,0,0
0:3:12.512,341.641,43.499,0,0.000885,0,0
0:3:12.712,342.402,43.5956,0,0.000885,0,0
0:3:12.909,342.224,43.5749,0,0.000885,0,0
0:3:13.105,342.695,43.63,0,0.000885,0,0
0:3:13.304,342.753,43.6438,0,0.000885,0,0
0:3:13.509,343.514,43.7403,0,0.000885,0,0
0:3:13.708,344.101,43.8093,0,0.000885,0,0
0:3:13.904,343.807,43.7748,0,0.000885,0,0
0:3:14.097,344.808,43.8989,0,0.000885,0,0
0:3:14.297,344.808,43.8989,0,0.000885,0,0
0:3:14.493,345.511,43.9886,0,0.000885,0,0
0:3:14.691,345.627,44.0092,0,0.000885,0,0
0:3:14.890,346.392,44.1058,0,0.000885,0,0
0:3:15.085,346.743,44.1471,0,0.000885,0,0
0:3:15.284,347.446,44.2368,0,0.000885,0,0
0:3:15.481,347.388,44.2299,0,0.000885,0,0
0:3:15.678,348.149,44.3264,0,0.000885,0,0
0:3:15.877,348.385,44.3609,0,0.000885,0,0
0:3:16.078,348.736,44.4022,0,0.000885,0,0
0:3:16.281,348.972,44.4298,0,0.000885,0,0
0:3:16.483,349.559,44.5057,0,0.000885,0,0
0:3:16.680,350.32,44.6022,0,0.000885,0,0
0:3:16.881,350.262,44.5953,0,0.000885,0,0
0:3:17.081,350.787,44.6642,0,0.000885,0,0
0:3:17.281,351.2,44.7194,0,0.000885,0,0
0:3:17.488,351.258,44.7263,0,0.000885,0,0
0:3:17.684,351.668,44.7746,0,0.000885,0,0
0:3:17.885,352.37,44.8642,0,0.000885,0,0
0:3:18.080,352.37,44.8642,0,0.000885,0,0
0:3:18.278,353.309,44.9883,0,0.000885,0,0
0:3:18.478,353.429,45.0021,0,0.000885,0,0
0:3:18.672,354.132,45.0917,0,0.000885,0,0
0:3:18.872,354.247,45.1055,0,0.000885,0,0
0:3:19.070,354.541,45.14,0,0.000885,0,0
0:3:19.264,354.835,45.1813,0,0.000885,0,0
0:3:19.464,355.186,45.2227,0,0.000885,0,0
0:3:19.658,355.715,45.2917,0,0.000885,0,0
0:3:19.859,356.418,45.3813,0,0.000885,0,0
0:3:20.057,356.712,45.4158,0,0.000885,0,0
0:3:20.251,356.596,45.402,0,0.000885,0,0
0:3:20.452,357.415,45.5054,0,0.000885,0,0
0:3:20.647,357.593,45.533,0,0.000885,0,0
0:3:20.845,358.295,45.6226,0,0.000885,0,0
0:3:21.045,358.705,45.6709,0,0.000885,0,0
0:3:21.245,358.767,45.6778,0,0.000885,0,0
0:3:21.447,358.883,45.6916,0,0.000885,0,0
0:3:21.648,359.821,45.8157,0,0.000885,0,0
0:3:21.849,359.643,45.7881,0,0.000885,0,0
0:3:22.049,360.35,45.8777,0,0.000885,0,0
0:3:22.250,360.702,45.926,0,0.000885,0,0
0:3:22.451,361.227,45.9949,0,0.000885,0,0
0:3:22.647,361.578,46.0363,0,0.000885,0,0
0:3:22.843,362.05,46.0983,0,0.000885,0,0
0:3:23.044,362.401,46.1397,0,0.000885,0,0
0:3:23.239,363.046,46.2225,0,0.000885,0,0
0:3:23.438,363.046,46.2225,0,0.000885,0,0
0:3:23.636,363.282,46.2569,0,0.000885,0,0
0:3:23.829,364.278,46.381,0,0.000885,0,0
0:3:24.030,364.572,46.4155,0,0.000885,0,0
0:3:24.228,365.039,46.4776,0,0.000885,0,0
0:3:24.424,365.159,46.4913,0,0.000885,0,0
0:3:24.622,365.453,46.5327,0,0.000885,0,0
0:3:24.817,365.92,46.5879,0,0.000885,0,0
0:3:25.017,366.507,46.6637,0,0.000885,0,0
0:3:25.214,366.271,46.6361,0,0.000885,0,0
0:3:25.408,366.213,46.6292,0,0.000885,0,0
0:3:25.609,366.916,46.7189,0,0.000885,0,0
0:3:25.813,367.681,46.8154,0,0.000885,0,0
0:3:26.012,367.681,46.8154,0,0.000885,0,0
0:3:26.213,368.268,46.8912,0,0.000885,0,0
0:3:26.414,368.62,46.9326,0,0.000885,0,0
0:3:26.614,369.029,46.9878,0,0.000885,0,0
0:3:26.814,369.732,47.0774,0,0.000885,0,0
0:3:27.015,369.91,47.0981,0,0.000885,0,0
0:3:27.217,370.203,47.1326,0,0.000885,0,0
0:3:27.416,370.319,47.1532,0,0.000885,0,0
0:3:27.617,370.555,47.1808,0,0.000885,0,0
0:3:27.815,371.142,47.2567,0,0.000885,0,0
0:3:28.010,370.964,47.236,0,0.000885,0,0
0:3:28.210,371.902,47.3532,0,0.000885,0,0
0:3:28.406,372.018,47.367,0,0.000885,0,0
0:3:28.602,371.902,47.3532,0,0.000885,0,0
0:3:28.801,372.957,47.4842,0,0.000885,0,0
0:3:29.007,373.077,47.5049,0,0.000885,0,0
0:3:29.209,373.37,47.5394,0,0.000885,0,0
0:3:29.405,373.544,47.56,0,0.000885,0,0
0:3:29.601,374.015,47.6221,0,0.000885,0,0
0:3:29.801,373.837,47.6014,0,0.000885,0,0
0:3:30.006,374.247,47.6497,0,0.000885,0,0
0:3:30.206,373.837,47.6014,0,0.000885,0,0
0:3:30.400,373.544,47.56,0,0.000885,0,0
0:3:30.596,373.25,47.5256,0,0.000885,0,0
0:3:30.797,372.725,47.4566,0,0.000885,0,0
0:3:30.997,371.257,47.2705,0,0.000885,0,0
0:3:31.199,369.438,47.036,0,0.000885,0,0
0:3:31.400,363.811,46.319,0,0.000885,0,0
0:3:31.600,359.528,45.7743,0,0.000885,0,0
0:3:31.801,352.433,44.8711,0,0.000885,0,0
0:3:32.001,349.617,44.5126,0,0.000885,0,0
0:3:32.201,342.402,43.5956,0,0.000885,0,0
0:3:32.399,338.296,43.0715,0,0.000885,0,0
0:3:32.603,330.2,42.0442,0,0.000885,0,0
0:3:32.805,326.624,41.5892,0,0.000885,0,0
0:3:32.999,318.942,40.6101,0,0.000885,0,0
0:3:33.196,315.01,40.1068,0,0.000885,0,0
0:3:33.395,306.331,39.0036,0,0.000885,0,0
0:3:33.598,302.226,38.4796,0,0.000885,0,0
0:3:33.797,294.134,37.4523,0,0.000885,0,0
0:3:34.006,290.028,36.9283,0,0.000885,0,0
0:3:34.212,278.53,35.4666,0,0.000885,0,0
0:3:34.412,271.319,34.5427,0,0.000885,0,0
0:3:34.594,263.753,33.5844,0,0.000885,0,0