File: DataFile2021-06-08_070336.csv
Test ID:,Date Tested:,Time:,Test Type:,Diameter Avg. (mm):,Cyl. Corr. Factor:,Height (mm):,Age (days):,Weight (kN):,Break Type:,Ramp Rate (MPa/s):,Load at Break (kN):,Stress at Break (MPa):
12,6/8/2021,07:03,Cylinder,100,1,200,0,3.6,3,0.23,214.02,27.25
Sample Time,Load (kN),Stress (MPa),Long. Strain,Trans. Strain,Chan1 Deflection (mm),Chan2 Deflection (mm)
0:0:5.071,6.15634,0.786002,0,0.000885,0,0
0:0:5.175,6.86361,0.875634,0,0.000885,0,0
0:0:5.270,7.27284,0.923897,0,0.000885,0,0
0:0:5.379,7.27284,0.923897,0,0.000885,0,0
0:0:5.477,7.21502,0.917003,0,0.000885,0,0
0:0:5.579,7.09491,0.903213,0,0.000885,0,0
0:0:5.679,7.21502,0.917003,0,0.000885,0,0
0:0:5.778,7.21502,0.917003,0,0.000885,0,0
0:0:5.876,7.03709,0.896318,0,0.000885,0,0
0:0:5.975,6.97926,0.889424,0,0.000885,0,0
0:0:6.076,6.97926,0.889424,0,0.000885,0,0
0:0:6.176,7.27284,0.923897,0,0.000885,0,0
0:0:6.272,7.21502,0.917003,0,0.000885,0,0
0:0:6.381,7.03709,0.896318,0,0.000885,0,0
0:0:6.480,7.03709,0.896318,0,0.000885,0,0
0:0:6.583,7.21502,0.917003,0,0.000885,0,0
0:0:6.683,7.3885,0.937687,0,0.000885,0,0
0:0:6.781,8.26924,1.0549,0,0.000885,0,0
0:0:6.878,8.26924,1.0549,0,0.000885,0,0
0:0:6.978,8.62065,1.09627,0,0.000885,0,0
0:0:7.079,8.91424,1.13763,0,0.000885,0,0
0:0:7.180,9.32347,1.1859,0,0.000885,0,0
0:0:7.278,9.32347,1.1859,0,0.000885,0,0
0:0:7.385,9.26565,1.179,0,0.000885,0,0
0:0:7.483,9.73716,1.24106,0,0.000885,0,0
0:0:7.585,9.85281,1.25485,0,0.000885,0,0
0:0:7.685,9.85281,1.25485,0,0.000885,0,0
0:0:7.785,9.67933,1.23416,0,0.000885,0,0
0:0:7.883,10.1464,1.28932,0,0.000885,0,0
0:0:7.979,10.4978,1.33758,0,0.000885,0,0
0:0:8.080,10.4978,1.33758,0,0.000885,0,0
0:0:8.181,10.6757,1.35827,0,0.000885,0,0
0:0:8.281,11.2629,1.43411,0,0.000885,0,0
0:0:8.379,11.2629,1.43411,0,0.000885,0,0
0:0:8.476,11.4364,1.45479,0,0.000885,0,0
0:0:8.577,11.9657,1.52374,0,0.000885,0,0
0:0:8.678,12.0235,1.53064,0,0.000885,0,0
0:0:8.779,12.0235,1.53064,0,0.000885,0,0
0:0:8.877,12.2593,1.55822,0,0.000885,0,0
0:0:8.986,12.7264,1.62027,0,0.000885,0,0
0:0:9.086,13.2557,1.68922,0,0.000885,0,0
0:0:9.186,13.2557,1.68922,0,0.000885,0,0
0:0:9.287,13.2557,1.68922,0,0.000885,0,0
0:0:9.384,13.2557,1.68922,0,0.000885,0,0
0:0:9.480,13.4292,1.7099,0,0.000885,0,0
0:0:9.580,13.4292,1.7099,0,0.000885,0,0
0:0:9.681,13.8429,1.76506,0,0.000885,0,0
0:0:9.781,14.1943,1.80643,0,0.000885,0,0
0:0:9.881,14.5457,1.85469,0,0.000885,0,0
0:0:9.978,14.5457,1.85469,0,0.000885,0,0
0:0:10.077,14.43,1.83401,0,0.000885,0,0
0:0:10.179,14.4879,1.84779,0,0.000885,0,0
0:0:10.279,14.8971,1.89606,0,0.000885,0,0
0:0:10.380,14.8971,1.89606,0,0.000885,0,0
0:0:10.481,15.9513,2.03395,0,0.000885,0,0
0:0:10.585,15.72,1.99948,0,0.000885,0,0
0:0:10.686,16.365,2.08222,0,0.000885,0,0
0:0:10.788,16.365,2.08222,0,0.000885,0,0
0:0:10.889,16.7164,2.13048,0,0.000885,0,0
0:0:10.990,16.365,2.08222,0,0.000885,0,0
0:0:11.089,16.7164,2.13048,0,0.000885,0,0
0:0:11.190,16.7164,2.13048,0,0.000885,0,0
0:0:11.291,17.3036,2.20632,0,0.000885,0,0
0:0:11.391,16.7742,2.13737,0,0.000885,0,0
0:0:11.492,16.7742,2.13737,0,0.000885,0,0
0:0:11.592,17.5349,2.2339,0,0.000885,0,0
0:0:11.694,17.8285,2.26838,0,0.000885,0,0
0:0:11.795,18.1799,2.31664,0,0.000885,0,0
0:0:11.894,18.1799,2.31664,0,0.000885,0,0
0:0:11.991,18.4735,2.35111,0,0.000885,0,0
0:0:12.091,18.8871,2.40627,0,0.000885,0,0
0:0:12.191,18.8249,2.39938,0,0.000885,0,0
0:0:12.292,18.8249,2.39938,0,0.000885,0,0
0:0:12.391,19.2386,2.44764,0,0.000885,0,0
0:0:12.489,19.6478,2.5028,0,0.000885,0,0
0:0:12.588,19.8257,2.52348,0,0.000885,0,0
0:0:12.689,19.8257,2.52348,0,0.000885,0,0
0:0:12.790,20.4084,2.59932,0,0.000885,0,0
0:0:12.888,20.5285,2.61311,0,0.000885,0,0
0:0:12.986,20.6442,2.6269,0,0.000885,0,0
0:0:13.085,20.6442,2.6269,0,0.000885,0,0
0:0:13.186,20.5864,2.62001,0,0.000885,0,0
0:0:13.287,21.1735,2.69585,0,0.000885,0,0
0:0:13.387,21.1735,2.69585,0,0.000885,0,0
0:0:13.485,21.4671,2.73032,0,0.000885,0,0
0:0:13.583,21.9342,2.79238,0,0.000885,0,0
0:0:13.685,22.1699,2.81996,0,0.000885,0,0
0:0:13.784,22.1699,2.81996,0,0.000885,0,0
0:0:13.884,22.637,2.88201,0,0.000885,0,0
0:0:13.981,22.9306,2.91648,0,0.000885,0,0
0:0:14.080,23.4021,2.97854,0,0.000885,0,0
0:0:14.180,23.4021,2.97854,0,0.000885,0,0
0:0:14.283,23.4021,2.97854,0,0.000885,0,0
0:0:14.383,23.5756,2.99922,0,0.000885,0,0
0:0:14.480,24.4563,3.11643,0,0.000885,0,0
0:0:14.577,24.4563,3.11643,0,0.000885,0,0
0:0:14.678,24.6921,3.14401,0,0.000885,0,0
0:0:14.779,24.8077,3.1578,0,0.000885,0,0
0:0:14.879,24.9857,3.17848,0,0.000885,0,0
0:0:14.977,24.9857,3.17848,0,0.000885,0,0
0:0:15.086,25.3371,3.22675,0,0.000885,0,0
0:0:15.186,25.6885,3.26811,0,0.000885,0,0
0:0:15.287,26.0399,3.31638,0,0.000885,0,0
0:0:15.388,26.0399,3.31638,0,0.000885,0,0
0:0:15.489,26.5692,3.38533,0,0.000885,0,0
0:0:15.591,26.8628,3.4198,0,0.000885,0,0
0:0:15.693,26.8628,3.4198,0,0.000885,0,0
0:0:15.794,26.8628,3.4198,0,0.000885,0,0
0:0:15.895,27.0986,3.44738,0,0.000885,0,0
0:0:15.997,27.2142,3.46806,0,0.000885,0,0
0:0:16.098,27.5656,3.50943,0,0.000885,0,0
0:0:16.198,27.5656,3.50943,0,0.000885,0,0
0:0:16.299,27.917,3.55769,0,0.000885,0,0
0:0:16.400,27.9749,3.56459,0,0.000885,0,0
0:0:16.501,28.2106,3.59217,0,0.000885,0,0
0:0:16.601,28.2106,3.59217,0,0.000885,0,0
0:0:16.703,28.3886,3.61285,0,0.000885,0,0
0:0:16.803,28.9134,3.6818,0,0.000885,0,0
0:0:16.904,28.7978,3.66801,0,0.000885,0,0
0:0:17.002,28.7978,3.66801,0,0.000885,0,0
0:0:17.100,28.9713,3.6887,0,0.000885,0,0
0:0:17.201,29.5006,3.75764,0,0.000885,0,0
0:0:17.302,29.5006,3.75764,0,0.000885,0,0
0:0:17.404,29.852,3.79901,0,0.000885,0,0
0:0:17.501,29.9721,3.8128,0,0.000885,0,0
0:0:17.599,30.1456,3.84038,0,0.000885,0,0
0:0:17.700,30.1456,3.84038,0,0.000885,0,0
0:0:17.801,30.2034,3.84727,0,0.000885,0,0
0:0:17.902,30.5548,3.88864,0,0.000885,0,0
0:0:18.000,30.6171,3.89554,0,0.000885,0,0
0:0:18.098,30.6171,3.89554,0,0.000885,0,0
0:0:18.197,30.7906,3.92312,0,0.000885,0,0
0:0:18.299,31.0263,3.9507,0,0.000885,0,0
0:0:18.399,31.2043,3.97138,0,0.000885,0,0
0:0:18.499,31.2043,3.97138,0,0.000885,0,0
0:0:18.596,31.7292,4.04033,0,0.000885,0,0
0:0:18.695,31.9071,4.06101,0,0.000885,0,0
0:0:18.797,31.9071,4.06101,0,0.000885,0,0
0:0:18.897,31.787,4.04722,0,0.000885,0,0
0:0:18.996,32.2585,4.10928,0,0.000885,0,0
0:0:19.092,32.7256,4.16443,0,0.000885,0,0
0:0:19.191,32.7256,4.16443,0,0.000885,0,0
0:0:19.293,32.7878,4.17133,0,0.000885,0,0
0:0:19.394,33.1971,4.22649,0,0.000885,0,0
0:0:19.494,33.5485,4.27475,0,0.000885,0,0
0:0:19.590,33.5485,4.27475,0,0.000885,0,0
0:0:19.690,34.0156,4.32991,0,0.000885,0,0
0:0:19.791,34.2513,4.36438,0,0.000885,0,0
0:0:19.893,34.4871,4.39196,0,0.000885,0,0
0:0:19.991,34.4871,4.39196,0,0.000885,0,0
0:0:20.089,34.6027,4.40575,0,0.000885,0,0
0:0:20.187,35.2477,4.48849,0,0.000885,0,0
0:0:20.289,35.0164,4.46091,0,0.000885,0,0
0:0:20.389,35.0164,4.46091,0,0.000885,0,0
0:0:20.490,35.4256,4.50917,0,0.000885,0,0
0:0:20.591,35.8927,4.57122,0,0.000885,0,0
0:0:20.694,35.777,4.55743,0,0.000885,0,0
0:0:20.794,35.777,4.55743,0,0.000885,0,0
0:0:20.895,36.0706,4.59191,0,0.000885,0,0
0:0:20.996,36.5377,4.65396,0,0.000885,0,0
0:0:21.098,36.7734,4.68154,0,0.000885,0,0
0:0:21.198,36.7734,4.68154,0,0.000885,0,0
0:0:21.300,37.245,4.74359,0,0.000885,0,0
0:0:21.400,37.3028,4.75049,0,0.000885,0,0
0:0:21.502,37.7698,4.81254,0,0.000885,0,0
0:0:21.601,37.7698,4.81254,0,0.000885,0,0
0:0:21.703,37.6542,4.79186,0,0.000885,0,0
0:0:21.803,38.0634,4.84701,0,0.000885,0,0
0:0:21.904,38.5928,4.91596,0,0.000885,0,0
0:0:22.004,38.5928,4.91596,0,0.000885,0,0
0:0:22.103,38.8864,4.95044,0,0.000885,0,0
0:0:22.200,38.8864,4.95044,0,0.000885,0,0
0:0:22.301,38.8864,4.95044,0,0.000885,0,0
0:0:22.402,39.3534,5.01249,0,0.000885,0,0
0:0:22.501,39.8249,5.06765,0,0.000885,0,0
0:0:22.599,39.9984,5.09523,0,0.000885,0,0
0:0:22.698,39.9984,5.09523,0,0.000885,0,0
0:0:22.799,40.292,5.1297,0,0.000885,0,0
0:0:22.901,40.5277,5.15728,0,0.000885,0,0
0:0:23.001,40.7012,5.18486,0,0.000885,0,0
0:0:23.098,40.7012,5.18486,0,0.000885,0,0
0:0:23.197,41.0571,5.22623,0,0.000885,0,0
0:0:23.298,41.6398,5.30207,0,0.000885,0,0
0:0:23.399,41.4663,5.28138,0,0.000885,0,0
0:0:23.498,41.4663,5.28138,0,0.000885,0,0
0:0:23.596,42.0535,5.35723,0,0.000885,0,0
0:0:23.695,41.9334,5.33654,0,0.000885,0,0
0:0:23.796,41.9334,5.33654,0,0.000885,0,0
0:0:23.898,42.5206,5.41238,0,0.000885,0,0
0:0:23.997,42.6985,5.43307,0,0.000885,0,0
0:0:24.095,43.1077,5.48823,0,0.000885,0,0
0:0:24.193,43.1077,5.48823,0,0.000885,0,0
0:0:24.294,43.2234,5.50202,0,0.000885,0,0
0:0:24.395,43.6949,5.56407,0,0.000885,0,0
0:0:24.495,43.5792,5.55028,0,0.000885,0,0
0:0:24.592,43.5792,5.55028,0,0.000885,0,0
0:0:24.690,44.0463,5.60544,0,0.000885,0,0
0:0:24.792,44.2242,5.63302,0,0.000885,0,0
0:0:24.893,44.2242,5.63302,0,0.000885,0,0
0:0:24.993,44.2242,5.63302,0,0.000885,0,0
0:0:25.090,44.5756,5.67439,0,0.000885,0,0
0:0:25.187,44.5756,5.67439,0,0.000885,0,0
0:0:25.287,44.5756,5.67439,0,0.000885,0,0
0:0:25.389,44.8069,5.70196,0,0.000885,0,0
0:0:25.489,45.2784,5.76402,0,0.000885,0,0
0:0:25.591,45.572,5.80539,0,0.000885,0,0
0:0:25.693,45.572,5.80539,0,0.000885,0,0
0:0:25.795,45.6877,5.81918,0,0.000885,0,0
0:0:25.895,45.572,5.80539,0,0.000885,0,0
0:0:25.997,45.8078,5.83296,0,0.000885,0,0
0:0:26.097,45.8078,5.83296,0,0.000885,0,0
0:0:26.199,46.3905,5.90881,0,0.000885,0,0
0:0:26.300,46.862,5.96397,0,0.000885,0,0
0:0:26.401,47.1556,6.00533,0,0.000885,0,0
0:0:26.501,47.1556,6.00533,0,0.000885,0,0
0:0:26.603,47.4492,6.03981,0,0.000885,0,0
0:0:26.702,47.6849,6.07428,0,0.000885,0,0
0:0:26.803,47.9741,6.10875,0,0.000885,0,0
0:0:26.904,47.9741,6.10875,0,0.000885,0,0
0:0:27.005,47.9741,6.10875,0,0.000885,0,0
0:0:27.106,48.3878,6.16391,0,0.000885,0,0
0:0:27.202,48.9126,6.22597,0,0.000885,0,0
0:0:27.301,48.9126,6.22597,0,0.000885,0,0
0:0:27.403,49.0906,6.25354,0,0.000885,0,0
0:0:27.504,49.5576,6.3087,0,0.000885,0,0
0:0:27.603,49.6199,6.3156,0,0.000885,0,0
0:0:27.699,49.6199,6.3156,0,0.000885,0,0
0:0:27.799,49.9713,6.36386,0,0.000885,0,0
0:0:27.900,50.2649,6.39833,0,0.000885,0,0
0:0:28.001,50.3806,6.41212,0,0.000885,0,0
0:0:28.101,50.3806,6.41212,0,0.000885,0,0
0:0:28.199,51.0834,6.50176,0,0.000885,0,0
0:0:28.296,51.4971,6.55691,0,0.000885,0,0
0:0:28.398,51.4971,6.55691,0,0.000885,0,0
0:0:28.498,51.2035,6.52244,0,0.000885,0,0
0:0:28.597,51.4971,6.55691,0,0.000885,0,0
0:0:28.695,52.0798,6.63276,0,0.000885,0,0
0:0:28.794,52.0798,6.63276,0,0.000885,0,0
0:0:28.896,52.1421,6.63965,0,0.000885,0,0
0:0:28.995,52.0798,6.63276,0,0.000885,0,0
0:0:29.096,52.3734,6.66723,0,0.000885,0,0
0:0:29.194,52.3734,6.66723,0,0.000885,0,0
0:0:29.292,52.6669,6.7086,0,0.000885,0,0
0:0:29.393,52.9027,6.73618,0,0.000885,0,0
0:0:29.495,53.0806,6.75686,0,0.000885,0,0
0:0:29.594,53.0806,6.75686,0,0.000885,0,0
0:0:29.691,53.3119,6.79134,0,0.000885,0,0
0:0:29.790,53.6633,6.8327,0,0.000885,0,0
0:0:29.890,53.5477,6.81891,0,0.000885,0,0
0:0:29.992,53.5477,6.81891,0,0.000885,0,0
0:0:30.092,53.8413,6.85339,0,0.000885,0,0
0:0:30.190,54.4284,6.92923,0,0.000885,0,0
0:0:30.287,54.4284,6.92923,0,0.000885,0,0
0:0:30.389,54.8377,6.98439,0,0.000885,0,0
0:0:30.490,55.3092,7.03955,0,0.000885,0,0
0:0:30.591,55.367,7.04644,0,0.000885,0,0
0:0:30.691,55.367,7.04644,0,0.000885,0,0
0:0:30.794,55.6028,7.08092,0,0.000885,0,0
0:0:30.895,55.6606,7.08781,0,0.000885,0,0
0:0:30.996,56.2478,7.16365,0,0.000885,0,0
0:0:31.098,56.2478,7.16365,0,0.000885,0,0
0:0:31.199,56.7148,7.21881,0,0.000885,0,0
0:0:31.299,57.1241,7.27397,0,0.000885,0,0
0:0:31.401,57.302,7.29465,0,0.000885,0,0
0:0:31.501,57.302,7.29465,0,0.000885,0,0
0:0:31.602,57.302,7.29465,0,0.000885,0,0
0:0:31.703,57.1863,7.28086,0,0.000885,0,0
0:0:31.805,57.5956,7.33602,0,0.000885,0,0
0:0:31.905,57.5956,7.33602,0,0.000885,0,0
0:0:32.007,57.8892,7.3705,0,0.000885,0,0
0:0:32.107,58.414,7.43944,0,0.000885,0,0
0:0:32.207,58.4763,7.44634,0,0.000885,0,0
0:0:32.304,58.4763,7.44634,0,0.000885,0,0
0:0:32.405,59.0012,7.51529,0,0.000885,0,0
0:0:32.505,59.237,7.54286,0,0.000885,0,0
0:0:32.606,59.237,7.54286,0,0.000885,0,0
0:0:32.703,59.237,7.54286,0,0.000885,0,0
0:0:32.801,59.7663,7.61181,0,0.000885,0,0
0:0:32.900,60.527,7.70834,0,0.000885,0,0
0:0:33.001,60.2912,7.67386,0,0.000885,0,0
0:0:33.102,60.2912,7.67386,0,0.000885,0,0
0:0:33.201,60.6426,7.72213,0,0.000885,0,0
0:0:33.298,60.9362,7.7566,0,0.000885,0,0
0:0:33.398,60.9362,7.7566,0,0.000885,0,0
0:0:33.500,60.8784,7.74971,0,0.000885,0,0
0:0:33.601,61.1141,7.78418,0,0.000885,0,0
0:0:33.699,61.5234,7.83244,0,0.000885,0,0
0:0:33.797,61.5234,7.83244,0,0.000885,0,0
0:0:33.895,61.5234,7.83244,0,0.000885,0,0
0:0:33.996,62.2884,7.92897,0,0.000885,0,0
0:0:34.098,62.582,7.97034,0,0.000885,0,0
0:0:34.196,62.582,7.97034,0,0.000885,0,0
0:0:34.295,62.7555,7.99102,0,0.000885,0,0
0:0:34.394,62.8712,8.00481,0,0.000885,0,0
0:0:34.495,63.3427,8.06687,0,0.000885,0,0
0:0:34.596,63.3427,8.06687,0,0.000885,0,0
0:0:34.695,63.6363,8.10134,0,0.000885,0,0
0:0:34.792,63.9877,8.1496,0,0.000885,0,0
0:0:34.890,63.9877,8.1496,0,0.000885,0,0
0:0:34.992,64.2813,8.18408,0,0.000885,0,0
0:0:35.092,64.517,8.21166,0,0.000885,0,0
0:0:35.191,64.4547,8.20476,0,0.000885,0,0
0:0:35.290,64.4547,8.20476,0,0.000885,0,0
0:0:35.388,64.6905,8.23923,0,0.000885,0,0
0:0:35.489,64.7483,8.24613,0,0.000885,0,0
0:0:35.590,65.3355,8.32197,0,0.000885,0,0
0:0:35.690,65.3355,8.32197,0,0.000885,0,0
0:0:35.791,65.162,8.29439,0,0.000885,0,0
0:0:35.892,65.2777,8.30818,0,0.000885,0,0
0:0:35.995,65.6869,8.36334,0,0.000885,0,0
0:0:36.096,65.6869,8.36334,0,0.000885,0,0
0:0:36.198,65.9805,8.39781,0,0.000885,0,0
0:0:36.298,66.2741,8.43918,0,0.000885,0,0
0:0:36.400,66.5676,8.47366,0,0.000885,0,0
0:0:36.499,66.5676,8.47366,0,0.000885,0,0
0:0:36.600,66.8612,8.51503,0,0.000885,0,0
0:0:36.700,67.2126,8.55639,0,0.000885,0,0
0:0:36.802,67.742,8.62534,0,0.000885,0,0
0:0:36.903,67.742,8.62534,0,0.000885,0,0
0:0:37.003,68.209,8.68739,0,0.000885,0,0
0:0:37.105,68.0934,8.66671,0,0.000885,0,0
0:0:37.204,68.7962,8.75634,0,0.000885,0,0
0:0:37.302,68.7962,8.75634,0,0.000885,0,0
0:0:37.399,68.7384,8.74945,0,0.000885,0,0
0:0:37.500,69.1476,8.80461,0,0.000885,0,0
0:0:37.601,69.2677,8.81839,0,0.000885,0,0
0:0:37.702,69.2677,8.81839,0,0.000885,0,0
0:0:37.801,69.4412,8.83908,0,0.000885,0,0
0:0:37.899,69.8549,8.89424,0,0.000885,0,0
0:0:37.997,69.8549,8.89424,0,0.000885,0,0
0:0:38.098,69.7348,8.88045,0,0.000885,0,0
0:0:38.200,70.3798,8.96318,0,0.000885,0,0
0:0:38.298,70.5577,8.98387,0,0.000885,0,0
0:0:38.395,70.5577,8.98387,0,0.000885,0,0
0:0:38.494,70.8513,9.01834,0,0.000885,0,0
0:0:38.595,70.9091,9.02524,0,0.000885,0,0
0:0:38.696,71.3183,9.0804,0,0.000885,0,0
0:0:38.797,71.3183,9.0804,0,0.000885,0,0
0:0:38.895,71.6119,9.11487,0,0.000885,0,0
0:0:38.993,72.0834,9.17692,0,0.000885,0,0
0:0:39.094,72.3147,9.2045,0,0.000885,0,0
0:0:39.195,72.3147,9.2045,0,0.000885,0,0
0:0:39.294,72.1991,9.19071,0,0.000885,0,0
0:0:39.392,72.7863,9.26655,0,0.000885,0,0
0:0:39.488,72.7863,9.26655,0,0.000885,0,0
0:0:39.589,72.6083,9.24587,0,0.000885,0,0
0:0:39.690,73.3734,9.3424,0,0.000885,0,0
0:0:39.791,73.3734,9.3424,0,0.000885,0,0
0:0:39.889,73.3734,9.3424,0,0.000885,0,0
0:0:39.986,73.9561,9.41824,0,0.000885,0,0
0:0:40.086,74.1341,9.43892,0,0.000885,0,0
0:0:40.188,74.5433,9.49408,0,0.000885,0,0
0:0:40.289,74.5433,9.49408,0,0.000885,0,0
0:0:40.390,74.4855,9.48719,0,0.000885,0,0
0:0:40.490,75.0148,9.54924,0,0.000885,0,0
0:0:40.593,75.3662,9.5975,0,0.000885,0,0
0:0:40.694,75.3662,9.5975,0,0.000885,0,0
0:0:40.795,75.1883,9.57682,0,0.000885,0,0
0:0:40.896,75.2506,9.58371,0,0.000885,0,0
0:0:40.996,75.4819,9.61129,0,0.000885,0,0
0:0:41.097,75.4819,9.61129,0,0.000885,0,0
0:0:41.199,76.1269,9.69403,0,0.000885,0,0
0:0:41.300,76.1891,9.70092,0,0.000885,0,0
0:0:41.400,76.714,9.76987,0,0.000885,0,0
0:0:41.500,76.714,9.76987,0,0.000885,0,0
0:0:41.600,76.5984,9.75608,0,0.000885,0,0
0:0:41.702,77.0076,9.80434,0,0.000885,0,0
0:0:41.803,77.3012,9.84571,0,0.000885,0,0
0:0:41.903,77.3012,9.84571,0,0.000885,0,0
0:0:42.000,77.359,9.85261,0,0.000885,0,0
0:0:42.099,77.7104,9.89398,0,0.000885,0,0
0:0:42.201,77.6526,9.88708,0,0.000885,0,0
0:0:42.300,77.6526,9.88708,0,0.000885,0,0
0:0:42.399,78.4177,9.98361,0,0.000885,0,0
0:0:42.497,79.0004,10.0595,0,0.000885,0,0
0:0:42.596,79.0004,10.0595,0,0.000885,0,0
0:0:42.697,79.2362,10.087,0,0.000885,0,0
0:0:42.799,79.6454,10.1422,0,0.000885,0,0
0:0:42.897,79.5876,10.1353,0,0.000885,0,0
0:0:42.995,79.5876,10.1353,0,0.000885,0,0
0:0:43.093,79.6454,10.1422,0,0.000885,0,0
0:0:43.195,79.8812,10.1698,0,0.000885,0,0
0:0:43.296,80.1169,10.1973,0,0.000885,0,0
0:0:43.395,80.1169,10.1973,0,0.000885,0,0
0:0:43.493,80.7041,10.2732,0,0.000885,0,0
0:0:43.591,80.8776,10.3008,0,0.000885,0,0
0:0:43.690,81.4647,10.3697,0,0.000885,0,0
0:0:43.792,81.4647,10.3697,0,0.000885,0,0
0:0:43.891,81.3491,10.3559,0,0.000885,0,0
0:0:43.990,81.5226,10.3766,0,0.000885,0,0
0:0:44.087,81.5226,10.3766,0,0.000885,0,0
0:0:44.187,82.0519,10.4456,0,0.000885,0,0
0:0:44.288,81.8161,10.418,0,0.000885,0,0
0:0:44.389,82.5234,10.5076,0,0.000885,0,0
0:0:44.486,82.5234,10.5076,0,0.000885,0,0
0:0:44.584,82.4033,10.4938,0,0.000885,0,0
0:0:44.682,82.7547,10.5352,0,0.000885,0,0
0:0:44.784,83.2262,10.5972,0,0.000885,0,0
0:0:44.885,83.2262,10.5972,0,0.000885,0,0
0:0:44.985,83.6355,10.6455,0,0.000885,0,0
0:0:45.081,83.8712,10.68,0,0.000885,0,0
0:0:45.180,84.2805,10.7282,0,0.000885,0,0
0:0:45.281,84.2805,10.7282,0,0.000885,0,0
0:0:45.383,84.107,10.7076,0,0.000885,0,0
0:0:45.484,84.3383,10.7351,0,0.000885,0,0
0:0:45.584,84.8676,10.8041,0,0.000885,0,0
0:0:45.686,84.8676,10.8041,0,0.000885,0,0
0:0:45.788,85.1612,10.8455,0,0.000885,0,0
0:0:45.890,85.4548,10.8799,0,0.000885,0,0
0:0:45.992,86.042,10.9558,0,0.000885,0,0
0:0:46.093,86.042,10.9558,0,0.000885,0,0
0:0:46.193,85.864,10.9351,0,0.000885,0,0
0:0:46.293,86.3355,10.9902,0,0.000885,0,0
0:0:46.395,87.3319,11.1212,0,0.000885,0,0
0:0:46.495,87.3319,11.1212,0,0.000885,0,0
0:0:46.596,87.2741,11.1143,0,0.000885,0,0
0:0:46.696,87.2118,11.1075,0,0.000885,0,0
0:0:46.797,87.2118,11.1075,0,0.000885,0,0
0:0:46.898,87.4476,11.135,0,0.000885,0,0
0:0:46.998,87.5632,11.1488,0,0.000885,0,0
0:0:47.096,87.8568,11.1833,0,0.000885,0,0
0:0:47.196,87.8568,11.1833,0,0.000885,0,0
0:0:47.295,87.9769,11.204,0,0.000885,0,0
0:0:47.397,88.6219,11.2867,0,0.000885,0,0
0:0:47.497,89.0312,11.335,0,0.000885,0,0
0:0:47.596,89.0312,11.335,0,0.000885,0,0
0:0:47.693,88.9155,11.3212,0,0.000885,0,0
0:0:47.791,89.0312,11.335,0,0.000885,0,0
0:0:47.891,89.2091,11.3557,0,0.000885,0,0
0:0:47.993,89.2091,11.3557,0,0.000885,0,0
0:0:48.091,89.3826,11.3832,0,0.000885,0,0
0:0:48.189,89.7918,11.4315,0,0.000885,0,0
0:0:48.288,89.9119,11.4453,0,0.000885,0,0
0:0:48.389,89.9119,11.4453,0,0.000885,0,0
0:0:48.490,90.4412,11.5142,0,0.000885,0,0
0:0:48.590,90.2633,11.4936,0,0.000885,0,0
0:0:48.687,90.2633,11.4936,0,0.000885,0,0
0:0:48.785,90.4991,11.5211,0,0.000885,0,0
0:0:48.886,90.7927,11.5625,0,0.000885,0,0
0:0:48.988,91.3175,11.6246,0,0.000885,0,0
0:0:49.087,91.3175,11.6246,0,0.000885,0,0
0:0:49.185,91.8469,11.6935,0,0.000885,0,0
0:0:49.285,92.0826,11.7211,0,0.000885,0,0
0:0:49.385,92.434,11.7694,0,0.000885,0,0
0:0:49.486,92.434,11.7694,0,0.000885,0,0
0:0:49.586,92.6698,11.7969,0,0.000885,0,0
0:0:49.684,93.079,11.8521,0,0.000885,0,0
0:0:49.781,93.0212,11.8452,0,0.000885,0,0
0:0:49.881,93.0212,11.8452,0,0.000885,0,0
0:0:49.983,93.6662,11.9279,0,0.000885,0,0
0:0:50.082,93.6084,11.921,0,0.000885,0,0
0:0:50.189,94.0754,11.9762,0,0.000885,0,0
0:0:50.289,94.0754,11.9762,0,0.000885,0,0
0:0:50.390,94.3112,12.0107,0,0.000885,0,0
0:0:50.491,95.014,12.1003,0,0.000885,0,0
0:0:50.593,95.1919,12.121,0,0.000885,0,0
0:0:50.691,95.1919,12.121,0,0.000885,0,0
0:0:50.794,95.2498,12.1279,0,0.000885,0,0
0:0:50.896,95.4232,12.1486,0,0.000885,0,0
0:0:50.998,95.9526,12.2175,0,0.000885,0,0
0:0:51.099,95.9526,12.2175,0,0.000885,0,0
0:0:51.201,95.8369,12.2037,0,0.000885,0,0
0:0:51.301,96.1883,12.2451,0,0.000885,0,0
0:0:51.402,96.3618,12.2727,0,0.000885,0,0
0:0:51.503,96.3618,12.2727,0,0.000885,0,0
0:0:51.604,96.5398,12.2934,0,0.000885,0,0
0:0:51.705,96.7755,12.3209,0,0.000885,0,0
0:0:51.805,96.6554,12.3071,0,0.000885,0,0
0:0:51.906,96.6554,12.3071,0,0.000885,0,0
0:0:52.008,97.0646,12.3623,0,0.000885,0,0
0:0:52.109,97.2426,12.383,0,0.000885,0,0
0:0:52.207,97.8876,12.4657,0,0.000885,0,0
0:0:52.303,97.8876,12.4657,0,0.000885,0,0
0:0:52.403,98.0655,12.4864,0,0.000885,0,0
0:0:52.504,98.1811,12.5002,0,0.000885,0,0
0:0:52.606,98.7683,12.576,0,0.000885,0,0
0:0:52.705,98.7683,12.576,0,0.000885,0,0
0:0:52.802,99.2354,12.6381,0,0.000885,0,0
0:0:52.900,99.5868,12.6795,0,0.000885,0,0
0:0:53.001,99.5868,12.6795,0,0.000885,0,0
0:0:53.103,99.8225,12.707,0,0.000885,0,0
0:0:53.203,100.294,12.7691,0,0.000885,0,0
0:0:53.300,100.294,12.7691,0,0.000885,0,0
0:0:53.397,100.294,12.7691,0,0.000885,0,0
0:0:53.498,100.232,12.7622,0,0.000885,0,0
0:0:53.599,100.877,12.8449,0,0.000885,0,0
0:0:53.700,100.939,12.8518,0,0.000885,0,0
0:0:53.798,100.939,12.8518,0,0.000885,0,0
0:0:53.895,101.055,12.8656,0,0.000885,0,0
0:0:53.996,101.233,12.8863,0,0.000885,0,0
0:0:54.096,101.113,12.8725,0,0.000885,0,0
0:0:54.197,101.113,12.8725,0,0.000885,0,0
0:0:54.294,101.464,12.9208,0,0.000885,0,0
0:0:54.391,102.051,12.9966,0,0.000885,0,0
0:0:54.490,102.051,12.9966,0,0.000885,0,0
0:0:54.592,101.993,12.9828,0,0.000885,0,0
0:0:54.693,102.345,13.0311,0,0.000885,0,0
0:0:54.792,102.403,13.038,0,0.000885,0,0
0:0:54.889,102.403,13.038,0,0.000885,0,0
0:0:54.989,102.816,13.0931,0,0.000885,0,0
0:0:55.090,103.283,13.1483,0,0.000885,0,0
0:0:55.191,103.692,13.2035,0,0.000885,0,0
0:0:55.290,103.692,13.2035,0,0.000885,0,0
0:0:55.387,103.986,13.2379,0,0.000885,0,0
0:0:55.485,104.28,13.2793,0,0.000885,0,0
0:0:55.586,104.982,13.3689,0,0.000885,0,0
0:0:55.687,104.982,13.3689,0,0.000885,0,0
0:0:55.788,105.103,13.3827,0,0.000885,0,0
0:0:55.888,105.103,13.3827,0,0.000885,0,0
0:0:55.991,105.218,13.3965,0,0.000885,0,0
0:0:56.092,105.218,13.3965,0,0.000885,0,0
0:0:56.193,105.218,13.3965,0,0.000885,0,0
0:0:56.295,105.512,13.431,0,0.000885,0,0
0:0:56.396,105.512,13.431,0,0.000885,0,0
0:0:56.496,106.041,13.4999,0,0.000885,0,0
0:0:56.597,106.393,13.5482,0,0.000885,0,0
0:0:56.698,106.628,13.5758,0,0.000885,0,0
0:0:56.799,106.628,13.5758,0,0.000885,0,0
0:0:56.899,106.744,13.5896,0,0.000885,0,0
0:0:56.999,107.447,13.6792,0,0.000885,0,0
0:0:57.101,107.798,13.7275,0,0.000885,0,0
0:0:57.203,107.798,13.7275,0,0.000885,0,0
0:0:57.304,108.092,13.7619,0,0.000885,0,0
0:0:57.402,108.15,13.7688,0,0.000885,0,0
0:0:57.500,108.505,13.8171,0,0.000885,0,0
0:0:57.600,108.505,13.8171,0,0.000885,0,0
0:0:57.700,108.505,13.8171,0,0.000885,0,0
0:0:57.801,108.621,13.8309,0,0.000885,0,0
0:0:57.900,108.795,13.8516,0,0.000885,0,0
0:0:57.996,108.795,13.8516,0,0.000885,0,0
0:0:58.096,109.324,13.9205,0,0.000885,0,0
0:0:58.198,109.56,13.9481,0,0.000885,0,0
0:0:58.299,110.147,14.0239,0,0.000885,0,0
0:0:58.396,110.147,14.0239,0,0.000885,0,0
0:0:58.494,110.378,14.0515,0,0.000885,0,0
0:0:58.593,110.672,14.0929,0,0.000885,0,0
0:0:58.694,110.672,14.0929,0,0.000885,0,0
0:0:58.796,110.85,14.1136,0,0.000885,0,0
0:0:58.895,110.85,14.1136,0,0.000885,0,0
0:0:58.992,111.317,14.1756,0,0.000885,0,0
0:0:59.090,111.317,14.1756,0,0.000885,0,0
0:0:59.193,111.379,14.1825,0,0.000885,0,0
0:0:59.293,111.846,14.2377,0,0.000885,0,0
0:0:59.392,112.255,14.2928,0,0.000885,0,0
0:0:59.488,112.255,14.2928,0,0.000885,0,0
0:0:59.587,112.375,14.3066,0,0.000885,0,0
0:0:59.688,112.607,14.3411,0,0.000885,0,0
0:0:59.789,112.607,14.3411,0,0.000885,0,0
0:0:59.889,112.607,14.3411,0,0.000885,0,0
0:0:59.987,112.963,14.3825,0,0.000885,0,0
0:1:0.085,113.194,14.41,0,0.000885,0,0
0:1:0.186,113.723,14.479,0,0.000885,0,0
0:1:0.288,113.723,14.479,0,0.000885,0,0
0:1:0.388,113.959,14.5066,0,0.000885,0,0
0:1:0.490,114.075,14.5273,0,0.000885,0,0
0:1:0.591,114.426,14.5686,0,0.000885,0,0
0:1:0.694,114.426,14.5686,0,0.000885,0,0
0:1:0.795,114.484,14.5755,0,0.000885,0,0
0:1:0.897,114.72,14.61,0,0.000885,0,0
0:1:0.997,114.84,14.6238,0,0.000885,0,0
0:1:1.098,114.84,14.6238,0,0.000885,0,0
0:1:1.199,115.013,14.6445,0,0.000885,0,0
0:1:1.301,115.249,14.672,0,0.000885,0,0
0:1:1.401,115.422,14.6996,0,0.000885,0,0
0:1:1.502,115.422,14.6996,0,0.000885,0,0
0:1:1.603,115.952,14.7617,0,0.000885,0,0
0:1:1.702,116.597,14.8444,0,0.000885,0,0
0:1:1.803,116.597,14.8444,0,0.000885,0,0
0:1:1.904,116.539,14.8375,0,0.000885,0,0
0:1:2.002,116.89,14.8858,0,0.000885,0,0
0:1:2.101,117.068,14.9065,0,0.000885,0,0
0:1:2.200,117.068,14.9065,0,0.000885,0,0
0:1:2.301,117.478,14.9547,0,0.000885,0,0
0:1:2.401,117.829,15.003,0,0.000885,0,0
0:1:2.501,118.065,15.0306,0,0.000885,0,0
0:1:2.598,118.065,15.0306,0,0.000885,0,0
0:1:2.696,118.358,15.0719,0,0.000885,0,0
0:1:2.798,118.59,15.0995,0,0.000885,0,0
0:1:2.899,119.119,15.1685,0,0.000885,0,0
0:1:2.998,119.119,15.1685,0,0.000885,0,0
0:1:3.097,119.061,15.1616,0,0.000885,0,0
0:1:3.195,119.177,15.1754,0,0.000885,0,0
0:1:3.297,120,15.2788,0,0.000885,0,0
0:1:3.398,120,15.2788,0,0.000885,0,0
0:1:3.497,120.818,15.3822,0,0.000885,0,0
0:1:3.595,120.88,15.3891,0,0.000885,0,0
0:1:3.691,120.88,15.3891,0,0.000885,0,0
0:1:3.792,120.88,15.3891,0,0.000885,0,0
0:1:3.893,120.818,15.3822,0,0.000885,0,0
0:1:3.994,121.347,15.4512,0,0.000885,0,0
0:1:4.090,121.347,15.4512,0,0.000885,0,0
0:1:4.189,121.699,15.4925,0,0.000885,0,0
0:1:4.290,121.877,15.5201,0,0.000885,0,0
0:1:4.390,121.757,15.4994,0,0.000885,0,0
0:1:4.491,121.757,15.4994,0,0.000885,0,0
0:1:4.589,121.819,15.5132,0,0.000885,0,0
0:1:4.686,121.877,15.5201,0,0.000885,0,0
0:1:4.785,122.464,15.589,0,0.000885,0,0
0:1:4.887,122.464,15.589,0,0.000885,0,0
0:1:4.987,122.58,15.6097,0,0.000885,0,0
0:1:5.086,122.873,15.6442,0,0.000885,0,0
0:1:5.185,122.873,15.6442,0,0.000885,0,0
0:1:5.284,122.989,15.658,0,0.000885,0,0
0:1:5.385,123.692,15.7476,0,0.000885,0,0
0:1:5.486,123.754,15.7545,0,0.000885,0,0
0:1:5.586,123.754,15.7545,0,0.000885,0,0
0:1:5.689,124.105,15.8028,0,0.000885,0,0
0:1:5.790,124.457,15.8442,0,0.000885,0,0
0:1:5.891,124.75,15.8855,0,0.000885,0,0
0:1:5.993,124.75,15.8855,0,0.000885,0,0
0:1:6.094,125.338,15.9614,0,0.000885,0,0
0:1:6.195,125.338,15.9614,0,0.000885,0,0
0:1:6.296,125.631,15.9958,0,0.000885,0,0
0:1:6.395,125.631,15.9958,0,0.000885,0,0
0:1:6.497,126.156,16.0648,0,0.000885,0,0
0:1:6.597,126.334,16.0855,0,0.000885,0,0
0:1:6.699,126.685,16.1268,0,0.000885,0,0
0:1:6.799,126.685,16.1268,0,0.000885,0,0
0:1:6.901,126.921,16.1613,0,0.000885,0,0
0:1:7.001,127.037,16.1751,0,0.000885,0,0
0:1:7.101,127.508,16.2372,0,0.000885,0,0
0:1:7.199,127.508,16.2372,0,0.000885,0,0
0:1:7.297,127.74,16.2647,0,0.000885,0,0
0:1:7.398,127.797,16.2716,0,0.000885,0,0
0:1:7.499,127.918,16.2854,0,0.000885,0,0
0:1:7.599,127.918,16.2854,0,0.000885,0,0
0:1:7.698,128.153,16.3199,0,0.000885,0,0
0:1:7.795,128.563,16.3682,0,0.000885,0,0
0:1:7.896,128.563,16.3682,0,0.000885,0,0
0:1:7.997,128.62,16.375,0,0.000885,0,0
0:1:8.098,128.914,16.4164,0,0.000885,0,0
0:1:8.194,128.798,16.3957,0,0.000885,0,0
0:1:8.292,128.798,16.3957,0,0.000885,0,0
0:1:8.392,128.678,16.3819,0,0.000885,0,0
0:1:8.493,129.207,16.4509,0,0.000885,0,0
0:1:8.594,129.559,16.4992,0,0.000885,0,0
0:1:8.693,129.559,16.4992,0,0.000885,0,0
0:1:8.790,130.146,16.5681,0,0.000885,0,0
0:1:8.890,130.32,16.5957,0,0.000885,0,0
0:1:8.990,130.613,16.6302,0,0.000885,0,0
0:1:9.092,130.613,16.6302,0,0.000885,0,0
0:1:9.190,130.733,16.6439,0,0.000885,0,0
0:1:9.287,130.907,16.6646,0,0.000885,0,0
0:1:9.386,131.378,16.7267,0,0.000885,0,0
0:1:9.488,131.378,16.7267,0,0.000885,0,0
0:1:9.588,132.081,16.8163,0,0.000885,0,0
0:1:9.688,132.081,16.8163,0,0.000885,0,0
0:1:9.785,132.081,16.8163,0,0.000885,0,0
0:1:9.884,132.784,16.9059,0,0.000885,0,0
0:1:9.984,133.077,16.9473,0,0.000885,0,0
0:1:10.086,133.313,16.9749,0,0.000885,0,0
0:1:10.186,133.313,16.9749,0,0.000885,0,0
0:1:10.282,133.429,16.9887,0,0.000885,0,0
0:1:10.390,133.843,17.0438,0,0.000885,0,0
0:1:10.491,133.9,17.0507,0,0.000885,0,0
0:1:10.591,133.9,17.0507,0,0.000885,0,0
0:1:10.692,134.252,17.0921,0,0.000885,0,0
0:1:10.794,134.367,17.1059,0,0.000885,0,0
0:1:10.896,134.897,17.1748,0,0.000885,0,0
0:1:10.998,134.897,17.1748,0,0.000885,0,0
0:1:11.098,134.719,17.1542,0,0.000885,0,0
0:1:11.200,134.603,17.1404,0,0.000885,0,0
0:1:11.301,135.306,17.23,0,0.000885,0,0
0:1:11.401,135.306,17.23,0,0.000885,0,0
0:1:11.502,135.426,17.2438,0,0.000885,0,0
0:1:11.604,135.426,17.2438,0,0.000885,0,0
0:1:11.704,135.6,17.2645,0,0.000885,0,0
0:1:11.805,135.6,17.2645,0,0.000885,0,0
0:1:11.905,135.778,17.2852,0,0.000885,0,0
0:1:12.007,136.129,17.3334,0,0.000885,0,0
0:1:12.108,136.48,17.3748,0,0.000885,0,0
0:1:12.208,136.48,17.3748,0,0.000885,0,0
0:1:12.306,136.947,17.4368,0,0.000885,0,0
0:1:12.404,137.419,17.4989,0,0.000885,0,0
0:1:12.504,137.712,17.5334,0,0.000885,0,0
0:1:12.605,137.712,17.5334,0,0.000885,0,0
0:1:12.707,138.064,17.5816,0,0.000885,0,0
0:1:12.806,138.237,17.6023,0,0.000885,0,0
0:1:12.903,138.882,17.6851,0,0.000885,0,0
0:1:13.001,138.882,17.6851,0,0.000885,0,0
0:1:13.103,139.118,17.7126,0,0.000885,0,0
0:1:13.204,139.47,17.7609,0,0.000885,0,0
0:1:13.303,139.47,17.7609,0,0.000885,0,0
0:1:13.400,139.705,17.7885,0,0.000885,0,0
0:1:13.499,139.59,17.7747,0,0.000885,0,0
0:1:13.601,139.883,17.8092,0,0.000885,0,0
0:1:13.701,139.883,17.8092,0,0.000885,0,0
0:1:13.801,139.821,17.8023,0,0.000885,0,0
0:1:13.898,140.292,17.8643,0,0.000885,0,0
0:1:13.997,140.586,17.8988,0,0.000885,0,0
0:1:14.098,140.586,17.8988,0,0.000885,0,0
0:1:14.199,140.88,17.9402,0,0.000885,0,0
0:1:14.299,141.111,17.9677,0,0.000885,0,0
0:1:14.396,141.64,18.0367,0,0.000885,0,0
0:1:14.494,141.64,18.0367,0,0.000885,0,0
0:1:14.595,141.818,18.0574,0,0.000885,0,0
0:1:14.696,141.992,18.0781,0,0.000885,0,0
0:1:14.797,141.992,18.0781,0,0.000885,0,0
0:1:14.895,142.227,18.1056,0,0.000885,0,0
0:1:14.992,142.637,18.1608,0,0.000885,0,0
0:1:15.092,143.166,18.2297,0,0.000885,0,0
0:1:15.194,143.166,18.2297,0,0.000885,0,0
0:1:15.294,143.633,18.2849,0,0.000885,0,0
0:1:15.395,143.224,18.2366,0,0.000885,0,0
0:1:15.496,143.108,18.2228,0,0.000885,0,0
0:1:15.599,143.108,18.2228,0,0.000885,0,0
0:1:15.700,143.344,18.2504,0,0.000885,0,0
0:1:15.802,143.695,18.2987,0,0.000885,0,0
0:1:15.903,144.398,18.3883,0,0.000885,0,0
0:1:16.003,144.398,18.3883,0,0.000885,0,0
0:1:16.104,144.75,18.4297,0,0.000885,0,0
0:1:16.206,144.985,18.4573,0,0.000885,0,0
0:1:16.306,144.807,18.4366,0,0.000885,0,0
0:1:16.407,144.807,18.4366,0,0.000885,0,0
0:1:16.507,145.337,18.5055,0,0.000885,0,0
0:1:16.609,145.452,18.5193,0,0.000885,0,0
0:1:16.710,145.688,18.5469,0,0.000885,0,0
0:1:16.810,145.688,18.5469,0,0.000885,0,0
0:1:16.909,145.924,18.5814,0,0.000885,0,0
0:1:17.008,146.275,18.6227,0,0.000885,0,0
0:1:17.107,146.569,18.6641,0,0.000885,0,0
0:1:17.209,146.569,18.6641,0,0.000885,0,0
0:1:17.310,147.036,18.7193,0,0.000885,0,0
0:1:17.410,147.272,18.7537,0,0.000885,0,0
0:1:17.506,147.681,18.802,0,0.000885,0,0
0:1:17.605,147.681,18.802,0,0.000885,0,0
0:1:17.705,147.975,18.8434,0,0.000885,0,0
0:1:17.807,148.268,18.8778,0,0.000885,0,0
0:1:17.907,148.562,18.9123,0,0.000885,0,0
0:1:18.005,148.562,18.9123,0,0.000885,0,0
0:1:18.103,148.74,18.9399,0,0.000885,0,0
0:1:18.204,149.029,18.9744,0,0.000885,0,0
0:1:18.305,149.029,18.9744,0,0.000885,0,0
0:1:18.405,149.091,18.9813,0,0.000885,0,0
0:1:18.503,149.5,19.0364,0,0.000885,0,0
0:1:18.600,150.087,19.1123,0,0.000885,0,0
0:1:18.699,150.087,19.1123,0,0.000885,0,0
0:1:18.800,149.794,19.0709,0,0.000885,0,0
0:1:18.900,149.91,19.0847,0,0.000885,0,0
0:1:18.998,150.612,19.1743,0,0.000885,0,0
0:1:19.097,150.612,19.1743,0,0.000885,0,0
0:1:19.196,151.084,19.2364,0,0.000885,0,0
0:1:19.298,151.142,19.2433,0,0.000885,0,0
0:1:19.399,151.493,19.2915,0,0.000885,0,0
0:1:19.498,151.493,19.2915,0,0.000885,0,0
0:1:19.596,151.551,19.2984,0,0.000885,0,0
0:1:19.693,151.551,19.2984,0,0.000885,0,0
0:1:19.794,151.551,19.2984,0,0.000885,0,0
0:1:19.895,152.08,19.3605,0,0.000885,0,0
0:1:19.995,151.844,19.3329,0,0.000885,0,0
0:1:20.094,152.61,19.4294,0,0.000885,0,0
0:1:20.191,152.61,19.4294,0,0.000885,0,0
0:1:20.293,152.961,19.4777,0,0.000885,0,0
0:1:20.394,153.019,19.4846,0,0.000885,0,0
0:1:20.496,153.664,19.5673,0,0.000885,0,0
0:1:20.596,153.664,19.5673,0,0.000885,0,0
0:1:20.700,153.842,19.588,0,0.000885,0,0
0:1:20.800,154.251,19.6432,0,0.000885,0,0
0:1:20.901,154.073,19.6156,0,0.000885,0,0
0:1:21.002,154.073,19.6156,0,0.000885,0,0
0:1:21.104,154.073,19.6156,0,0.000885,0,0
0:1:21.204,154.66,19.6914,0,0.000885,0,0
0:1:21.305,154.954,19.7328,0,0.000885,0,0
0:1:21.405,154.954,19.7328,0,0.000885,0,0
0:1:21.506,155.483,19.7948,0,0.000885,0,0
0:1:21.607,155.719,19.8293,0,0.000885,0,0
0:1:21.708,155.835,19.8431,0,0.000885,0,0
0:1:21.809,155.835,19.8431,0,0.000885,0,0
0:1:21.910,155.892,19.85,0,0.000885,0,0
0:1:22.011,156.244,19.8914,0,0.000885,0,0
0:1:22.108,156.422,19.919,0,0.000885,0,0
0:1:22.206,156.422,19.919,0,0.000885,0,0
0:1:22.307,156.947,19.981,0,0.000885,0,0
0:1:22.408,156.947,19.981,0,0.000885,0,0
0:1:22.509,157.009,19.9879,0,0.000885,0,0
0:1:22.606,157.009,19.9879,0,0.000885,0,0
0:1:22.704,157.302,20.0293,0,0.000885,0,0
0:1:22.804,157.712,20.0775,0,0.000885,0,0
0:1:22.906,157.712,20.0775,0,0.000885,0,0
0:1:23.006,157.885,20.1051,0,0.000885,0,0
0:1:23.104,158.357,20.1603,0,0.000885,0,0
0:1:23.201,158.592,20.1947,0,0.000885,0,0
0:1:23.301,158.592,20.1947,0,0.000885,0,0
0:1:23.403,159.002,20.243,0,0.000885,0,0
0:1:23.504,159.117,20.2568,0,0.000885,0,0
0:1:23.602,159.002,20.243,0,0.000885,0,0
0:1:23.700,159.002,20.243,0,0.000885,0,0
0:1:23.798,159.295,20.2844,0,0.000885,0,0
0:1:23.900,159.295,20.2844,0,0.000885,0,0
0:1:24.001,159.825,20.3464,0,0.000885,0,0
0:1:24.099,159.825,20.3464,0,0.000885,0,0
0:1:24.197,160.349,20.4154,0,0.000885,0,0
0:1:24.297,160.821,20.4774,0,0.000885,0,0
0:1:24.397,160.821,20.4774,0,0.000885,0,0
0:1:24.498,161.052,20.505,0,0.000885,0,0
0:1:24.599,161.466,20.5602,0,0.000885,0,0
0:1:24.697,161.524,20.5671,0,0.000885,0,0
0:1:24.793,161.524,20.5671,0,0.000885,0,0
0:1:24.894,161.817,20.6015,0,0.000885,0,0
0:1:24.995,162.053,20.636,0,0.000885,0,0
0:1:25.096,162.698,20.7119,0,0.000885,0,0
0:1:25.192,162.698,20.7119,0,0.000885,0,0
0:1:25.290,162.814,20.7325,0,0.000885,0,0
0:1:25.391,163.05,20.7601,0,0.000885,0,0
0:1:25.492,163.281,20.7877,0,0.000885,0,0
0:1:25.592,163.281,20.7877,0,0.000885,0,0
0:1:25.693,163.05,20.7601,0,0.000885,0,0
0:1:25.793,163.459,20.8153,0,0.000885,0,0
0:1:25.895,163.574,20.8291,0,0.000885,0,0
0:1:25.996,163.574,20.8291,0,0.000885,0,0
0:1:26.099,164.162,20.9049,0,0.000885,0,0
0:1:26.200,164.455,20.9394,0,0.000885,0,0
0:1:26.301,164.985,21.0083,0,0.000885,0,0
0:1:26.401,164.985,21.0083,0,0.000885,0,0
0:1:26.502,165.394,21.0566,0,0.000885,0,0
0:1:26.603,165.394,21.0566,0,0.000885,0,0
0:1:26.704,165.803,21.1117,0,0.000885,0,0
0:1:26.804,165.803,21.1117,0,0.000885,0,0
0:1:26.903,165.452,21.0635,0,0.000885,0,0
0:1:27.005,165.923,21.1255,0,0.000885,0,0
0:1:27.105,165.923,21.1255,0,0.000885,0,0
0:1:27.207,166.568,21.2083,0,0.000885,0,0
0:1:27.303,166.51,21.2014,0,0.000885,0,0
0:1:27.401,166.626,21.2152,0,0.000885,0,0
0:1:27.504,166.626,21.2152,0,0.000885,0,0
0:1:27.604,167.271,21.2979,0,0.000885,0,0
0:1:27.705,167.329,21.3048,0,0.000885,0,0
0:1:27.801,167.329,21.3048,0,0.000885,0,0
0:1:27.899,167.329,21.3048,0,0.000885,0,0
0:1:28.000,167.68,21.3531,0,0.000885,0,0
0:1:28.101,167.974,21.3875,0,0.000885,0,0
0:1:28.201,167.858,21.3737,0,0.000885,0,0
0:1:28.298,167.858,21.3737,0,0.000885,0,0
0:1:28.396,168.445,21.4496,0,0.000885,0,0
0:1:28.497,168.619,21.4703,0,0.000885,0,0
0:1:28.599,168.619,21.4703,0,0.000885,0,0
0:1:28.699,169.264,21.553,0,0.000885,0,0
0:1:28.797,169.384,21.5668,0,0.000885,0,0
0:1:28.895,169.442,21.5737,0,0.000885,0,0
0:1:28.994,169.442,21.5737,0,0.000885,0,0
0:1:29.096,169.971,21.6426,0,0.000885,0,0
0:1:29.197,170.202,21.6702,0,0.000885,0,0
0:1:29.295,170.38,21.6909,0,0.000885,0,0
0:1:29.392,170.38,21.6909,0,0.000885,0,0
0:1:29.491,171.141,21.7874,0,0.000885,0,0
0:1:29.593,171.199,21.8012,0,0.000885,0,0
0:1:29.695,171.555,21.8426,0,0.000885,0,0
0:1:29.793,171.555,21.8426,0,0.000885,0,0
0:1:29.891,171.67,21.8564,0,0.000885,0,0
0:1:29.989,172.373,21.946,0,0.000885,0,0
0:1:30.091,172.493,21.9598,0,0.000885,0,0
0:1:30.191,172.493,21.9598,0,0.000885,0,0
0:1:30.291,172.551,21.9667,0,0.000885,0,0
0:1:30.389,172.609,21.9805,0,0.000885,0,0
0:1:30.486,172.609,21.9805,0,0.000885,0,0
0:1:30.588,172.782,22.0012,0,0.000885,0,0
0:1:30.689,173.138,22.0425,0,0.000885,0,0
0:1:30.790,173.547,22.0977,0,0.000885,0,0
0:1:30.891,173.547,22.0977,0,0.000885,0,0
0:1:30.994,173.841,22.1322,0,0.000885,0,0
0:1:31.094,174.014,22.1597,0,0.000885,0,0
0:1:31.196,174.25,22.1873,0,0.000885,0,0
0:1:31.297,174.25,22.1873,0,0.000885,0,0
0:1:31.398,174.895,22.2701,0,0.000885,0,0
0:1:31.499,174.602,22.2287,0,0.000885,0,0
0:1:31.599,175.304,22.3183,0,0.000885,0,0
0:1:31.700,175.304,22.3183,0,0.000885,0,0
0:1:31.801,175.834,22.3873,0,0.000885,0,0
0:1:31.901,175.834,22.3873,0,0.000885,0,0
0:1:32.003,176.479,22.47,0,0.000885,0,0
0:1:32.104,176.479,22.47,0,0.000885,0,0
0:1:32.206,176.599,22.4838,0,0.000885,0,0
0:1:32.306,176.83,22.5183,0,0.000885,0,0
0:1:32.403,177.124,22.5528,0,0.000885,0,0
0:1:32.500,177.124,22.5528,0,0.000885,0,0
0:1:32.600,177.827,22.6424,0,0.000885,0,0
0:1:32.701,177.711,22.6286,0,0.000885,0,0
0:1:32.802,178.182,22.6838,0,0.000885,0,0
0:1:32.900,178.182,22.6838,0,0.000885,0,0
0:1:32.998,178.414,22.7182,0,0.000885,0,0
0:1:33.098,178.356,22.7113,0,0.000885,0,0
0:1:33.199,178.649,22.7458,0,0.000885,0,0
0:1:33.300,178.649,22.7458,0,0.000885,0,0
0:1:33.399,179.117,22.8079,0,0.000885,0,0
0:1:33.495,179.117,22.8079,0,0.000885,0,0
0:1:33.594,179.117,22.8079,0,0.000885,0,0
0:1:33.696,179.294,22.8285,0,0.000885,0,0
0:1:33.796,179.588,22.863,0,0.000885,0,0
0:1:33.897,179.997,22.9182,0,0.000885,0,0
0:1:33.994,179.997,22.9182,0,0.000885,0,0
0:1:34.092,179.882,22.9044,0,0.000885,0,0
0:1:34.194,180.291,22.9526,0,0.000885,0,0
0:1:34.295,180.411,22.9733,0,0.000885,0,0
0:1:34.394,180.411,22.9733,0,0.000885,0,0
0:1:34.491,180.878,23.0285,0,0.000885,0,0
0:1:34.589,180.878,23.0285,0,0.000885,0,0
0:1:34.690,180.994,23.0423,0,0.000885,0,0
0:1:34.791,180.994,23.0423,0,0.000885,0,0
0:1:34.891,181.581,23.1181,0,0.000885,0,0
0:1:34.988,181.523,23.1112,0,0.000885,0,0
0:1:35.087,182.168,23.194,0,0.000885,0,0
0:1:35.188,182.168,23.194,0,0.000885,0,0
0:1:35.288,182.168,23.194,0,0.000885,0,0
0:1:35.390,182.052,23.1802,0,0.000885,0,0
0:1:35.489,182.052,23.1802,0,0.000885,0,0
0:1:35.592,182.64,23.256,0,0.000885,0,0
0:1:35.694,182.991,23.2974,0,0.000885,0,0
0:1:35.796,182.933,23.2905,0,0.000885,0,0
0:1:35.896,182.933,23.2905,0,0.000885,0,0
0:1:35.998,183.578,23.3732,0,0.000885,0,0
0:1:36.099,183.636,23.3801,0,0.000885,0,0
0:1:36.201,183.987,23.4284,0,0.000885,0,0
0:1:36.301,183.987,23.4284,0,0.000885,0,0
0:1:36.402,184.339,23.4698,0,0.000885,0,0
0:1:36.502,184.512,23.4904,0,0.000885,0,0
0:1:36.604,184.806,23.5318,0,0.000885,0,0
0:1:36.704,184.806,23.5318,0,0.000885,0,0
0:1:36.806,185.451,23.6145,0,0.000885,0,0
0:1:36.907,185.571,23.6283,0,0.000885,0,0
0:1:37.005,186.216,23.7111,0,0.000885,0,0
0:1:37.103,186.216,23.7111,0,0.000885,0,0
0:1:37.202,185.744,23.649,0,0.000885,0,0
0:1:37.303,186.216,23.7111,0,0.000885,0,0
0:1:37.405,186.274,23.718,0,0.000885,0,0
0:1:37.503,186.274,23.718,0,0.000885,0,0
0:1:37.600,187.034,23.8145,0,0.000885,0,0
0:1:37.698,186.803,23.7869,0,0.000885,0,0
0:1:37.800,187.506,23.8765,0,0.000885,0,0
0:1:37.900,187.506,23.8765,0,0.000885,0,0
0:1:37.999,187.39,23.8559,0,0.000885,0,0
0:1:38.098,188.035,23.9386,0,0.000885,0,0
0:1:38.195,188.035,23.9386,0,0.000885,0,0
0:1:38.297,188.035,23.9386,0,0.000885,0,0
0:1:38.398,188.56,24.0075,0,0.000885,0,0
0:1:38.497,188.68,24.0213,0,0.000885,0,0
0:1:38.594,188.68,24.0213,0,0.000885,0,0
0:1:38.692,189.147,24.0834,0,0.000885,0,0
0:1:38.793,189.032,24.0696,0,0.000885,0,0
0:1:38.895,189.734,24.1592,0,0.000885,0,0
0:1:38.994,189.734,24.1592,0,0.000885,0,0
0:1:39.090,189.677,24.1523,0,0.000885,0,0
0:1:39.190,190.322,24.2351,0,0.000885,0,0
0:1:39.291,190.264,24.2282,0,0.000885,0,0
0:1:39.392,190.264,24.2282,0,0.000885,0,0
0:1:39.492,190.846,24.2971,0,0.000885,0,0
0:1:39.589,190.731,24.2833,0,0.000885,0,0
0:1:39.687,191.14,24.3385,0,0.000885,0,0
0:1:39.788,191.14,24.3385,0,0.000885,0,0
0:1:39.888,190.846,24.2971,0,0.000885,0,0
0:1:39.989,191.434,24.373,0,0.000885,0,0
0:1:40.085,191.434,24.373,0,0.000885,0,0
0:1:40.192,191.434,24.373,0,0.000885,0,0
0:1:40.293,191.727,24.4143,0,0.000885,0,0
0:1:40.395,191.905,24.435,0,0.000885,0,0
0:1:40.496,192.314,24.4833,0,0.000885,0,0
0:1:40.596,192.314,24.4833,0,0.000885,0,0
0:1:40.698,192.43,24.504,0,0.000885,0,0
0:1:40.801,192.55,24.5178,0,0.000885,0,0
0:1:40.900,192.902,24.5591,0,0.000885,0,0
0:1:41.001,192.902,24.5591,0,0.000885,0,0
0:1:41.101,193.369,24.6212,0,0.000885,0,0
0:1:41.201,193.431,24.6281,0,0.000885,0,0
0:1:41.302,193.431,24.6281,0,0.000885,0,0
0:1:41.402,193.604,24.6488,0,0.000885,0,0
0:1:41.503,193.956,24.697,0,0.000885,0,0
0:1:41.603,193.782,24.6763,0,0.000885,0,0
0:1:41.701,193.782,24.6763,0,0.000885,0,0
0:1:41.801,194.134,24.7177,0,0.000885,0,0
0:1:41.902,194.543,24.7729,0,0.000885,0,0
0:1:42.003,194.721,24.7935,0,0.000885,0,0
0:1:42.101,194.721,24.7935,0,0.000885,0,0
0:1:42.198,195.188,24.8556,0,0.000885,0,0
0:1:42.297,195.188,24.8556,0,0.000885,0,0
0:1:42.399,195.659,24.9108,0,0.000885,0,0
0:1:42.498,195.659,24.9108,0,0.000885,0,0
0:1:42.597,195.833,24.9314,0,0.000885,0,0
0:1:42.693,196.247,24.9866,0,0.000885,0,0
0:1:42.792,196.247,24.9866,0,0.000885,0,0
0:1:42.892,196.478,25.0142,0,0.000885,0,0
0:1:42.993,197.181,25.1038,0,0.000885,0,0
0:1:43.090,196.949,25.0762,0,0.000885,0,0
0:1:43.186,196.949,25.0762,0,0.000885,0,0
0:1:43.295,197.537,25.1521,0,0.000885,0,0
0:1:43.395,197.71,25.1728,0,0.000885,0,0
0:1:43.496,198.182,25.2348,0,0.000885,0,0
0:1:43.593,198.182,25.2348,0,0.000885,0,0
0:1:43.690,198.182,25.2348,0,0.000885,0,0
0:1:43.787,198.413,25.2624,0,0.000885,0,0
0:1:43.888,198.355,25.2555,0,0.000885,0,0
0:1:43.988,198.355,25.2555,0,0.000885,0,0
0:1:44.087,198.707,25.2969,0,0.000885,0,0
0:1:44.181,199.178,25.3589,0,0.000885,0,0
0:1:44.292,199.178,25.3589,0,0.000885,0,0
0:1:44.391,199.178,25.3589,0,0.000885,0,0
0:1:44.492,199.294,25.3727,0,0.000885,0,0
0:1:44.590,199.587,25.4141,0,0.000885,0,0
0:1:44.687,199.587,25.4141,0,0.000885,0,0
0:1:44.786,199.823,25.4417,0,0.000885,0,0
0:1:44.886,200.117,25.4761,0,0.000885,0,0
0:1:44.982,199.996,25.4623,0,0.000885,0,0
0:1:45.093,199.996,25.4623,0,0.000885,0,0
0:1:45.190,200.117,25.4761,0,0.000885,0,0
0:1:45.287,200.762,25.5589,0,0.000885,0,0
0:1:45.387,200.762,25.5589,0,0.000885,0,0
0:1:45.488,200.762,25.5589,0,0.000885,0,0
0:1:45.588,200.997,25.5933,0,0.000885,0,0
0:1:45.687,201.055,25.6002,0,0.000885,0,0
0:1:45.789,200.935,25.5864,0,0.000885,0,0
0:1:45.890,200.935,25.5864,0,0.000885,0,0
0:1:45.990,200.935,25.5864,0,0.000885,0,0
0:1:46.091,201.113,25.6071,0,0.000885,0,0
0:1:46.191,201.286,25.6278,0,0.000885,0,0
0:1:46.291,201.286,25.6278,0,0.000885,0,0
0:1:46.391,201.229,25.6209,0,0.000885,0,0
0:1:46.491,201.113,25.6071,0,0.000885,0,0
0:1:46.592,201.464,25.6485,0,0.000885,0,0
0:1:46.692,201.464,25.6485,0,0.000885,0,0
0:1:46.790,201.464,25.6485,0,0.000885,0,0
0:1:46.890,201.055,25.6002,0,0.000885,0,0
0:1:46.991,201.58,25.6692,0,0.000885,0,0
0:1:47.091,201.58,25.6692,0,0.000885,0,0
0:1:47.189,201.7,25.683,0,0.000885,0,0
0:1:47.286,201.994,25.7174,0,0.000885,0,0
0:1:47.382,201.994,25.7174,0,0.000885,0,0
0:1:47.482,201.931,25.7105,0,0.000885,0,0
0:1:47.582,202.109,25.7312,0,0.000885,0,0
0:1:47.679,202.167,25.7381,0,0.000885,0,0
0:1:47.777,202.167,25.7381,0,0.000885,0,0
0:1:47.875,202.519,25.7864,0,0.000885,0,0
0:1:47.977,202.87,25.8278,0,0.000885,0,0
0:1:48.077,203.226,25.876,0,0.000885,0,0
0:1:48.187,203.226,25.876,0,0.000885,0,0
0:1:48.293,203.226,25.876,0,0.000885,0,0
0:1:48.394,203.342,25.8898,0,0.000885,0,0
0:1:48.495,203.515,25.9105,0,0.000885,0,0
0:1:48.594,203.515,25.9105,0,0.000885,0,0
0:1:48.691,203.693,25.9381,0,0.000885,0,0
0:1:48.790,203.809,25.9519,0,0.000885,0,0
0:1:48.889,204.222,26.0001,0,0.000885,0,0
0:1:48.990,204.222,26.0001,0,0.000885,0,0
0:1:49.090,204.454,26.0346,0,0.000885,0,0
0:1:49.187,204.689,26.0622,0,0.000885,0,0
0:1:49.293,205.099,26.1173,0,0.000885,0,0
0:1:49.392,205.099,26.1173,0,0.000885,0,0
0:1:49.493,205.099,26.1173,0,0.000885,0,0
0:1:49.593,205.512,26.1656,0,0.000885,0,0
0:1:49.691,205.512,26.1656,0,0.000885,0,0
0:1:49.788,206.157,26.2483,0,0.000885,0,0
0:1:49.888,206.331,26.269,0,0.000885,0,0
0:1:49.988,207.505,26.4207,0,0.000885,0,0
0:1:50.089,207.505,26.4207,0,0.000885,0,0
0:1:50.186,208.034,26.4897,0,0.000885,0,0
0:1:50.292,208.737,26.5793,0,0.000885,0,0
0:1:50.389,209.089,26.6207,0,0.000885,0,0
0:1:50.490,209.089,26.6207,0,0.000885,0,0
0:1:50.590,209.56,26.6827,0,0.000885,0,0
0:1:50.691,210.205,26.7654,0,0.000885,0,0
0:1:50.792,210.557,26.8068,0,0.000885,0,0
0:1:50.894,210.557,26.8068,0,0.000885,0,0
0:1:50.992,211.495,26.9309,0,0.000885,0,0
0:1:51.094,211.611,26.9447,0,0.000885,0,0
0:1:51.195,211.259,26.8964,0,0.000885,0,0
0:1:51.295,211.259,26.8964,0,0.000885,0,0
0:1:51.396,211.789,26.9654,0,0.000885,0,0
0:1:51.496,212.02,26.993,0,0.000885,0,0
0:1:51.595,212.727,27.0826,0,0.000885,0,0
0:1:51.696,212.727,27.0826,0,0.000885,0,0
0:1:51.796,213.252,27.1516,0,0.000885,0,0
0:1:51.896,213.724,27.2136,0,0.000885,0,0
0:1:51.996,214.017,27.2481,0,0.000885,0,0
0:1:52.095,214.017,27.2481,0,0.000885,0,0
0:1:52.196,214.133,27.2619,0,0.000885,0,0
0:1:52.294,214.133,27.2619,0,0.000885,0,0
0:1:52.391,214.133,27.2619,0,0.000885,0,0
0:1:52.490,213.839,27.2274,0,0.000885,0,0
0:1:52.591,213.372,27.1653,0,0.000885,0,0
0:1:52.690,212.959,27.1171,0,0.000885,0,0
0:1:52.787,212.959,27.1171,0,0.000885,0,0
0:1:52.893,212.727,27.0826,0,0.000885,0,0
0:1:52.991,212.665,27.0757,0,0.000885,0,0
0:1:53.092,212.371,27.0412,0,0.000885,0,0
0:1:53.192,212.371,27.0412,0,0.000885,0,0
0:1:53.290,212.198,27.0206,0,0.000885,0,0
0:1:53.387,211.317,26.9033,0,0.000885,0,0
0:1:53.495,210.614,26.8137,0,0.000885,0,0
0:1:53.595,210.614,26.8137,0,0.000885,0,0
0:1:53.695,210.73,26.8344,0,0.000885,0,0
0:1:53.792,210.614,26.8137,0,0.000885,0,0
0:1:53.888,210.614,26.8137,0,0.000885,0,0
0:1:53.986,210.908,26.8551,0,0.000885,0,0
0:1:54.087,211.081,26.8758,0,0.000885,0,0
0:1:54.186,210.908,26.8551,0,0.000885,0,0
0:1:54.286,210.908,26.8551,0,0.000885,0,0
0:1:54.392,210.966,26.862,0,0.000885,0,0
0:1:54.489,210.908,26.8551,0,0.000885,0,0
0:1:54.590,210.614,26.8137,0,0.000885,0,0
0:1:54.689,210.614,26.8137,0,0.000885,0,0
0:1:54.788,210.499,26.7999,0,0.000885,0,0
0:1:54.894,210.672,26.8206,0,0.000885,0,0
0:1:54.991,210.263,26.7723,0,0.000885,0,0
0:1:55.091,210.263,26.7723,0,0.000885,0,0
0:1:55.192,210.085,26.7517,0,0.000885,0,0
0:1:55.290,209.498,26.6758,0,0.000885,0,0
0:1:55.391,209.146,26.6276,0,0.000885,0,0
0:1:55.492,209.146,26.6276,0,0.000885,0,0
0:1:55.593,208.444,26.5379,0,0.000885,0,0
0:1:55.693,207.683,26.4414,0,0.000885,0,0
0:1:55.794,206.976,26.3518,0,0.000885,0,0
0:1:55.894,206.976,26.3518,0,0.000885,0,0
0:1:55.993,206.331,26.269,0,0.000885,0,0
0:1:56.093,205.219,26.1311,0,0.000885,0,0
0:1:56.195,204.338,26.0139,0,0.000885,0,0
0:1:56.294,204.338,26.0139,0,0.000885,0,0
0:1:56.394,202.932,25.8347,0,0.000885,0,0
0:1:56.492,201.874,25.7037,0,0.000885,0,0
0:1:56.592,201.874,25.7037,0,0.000885,0,0
0:1:56.692,200.41,25.5175,0,0.000885,0,0
0:1:56.793,198.942,25.3313,0,0.000885,0,0
0:1:56.890,197.123,25.0969,0,0.000885,0,0
0:1:56.987,197.123,25.0969,0,0.000885,0,0
0:1:57.082,195.246,24.8625,0,0.000885,0,0
0:1:57.182,193.662,24.6557,0,0.000885,0,0
0:1:57.287,191.496,24.3799,0,0.000885,0,0
0:1:57.382,191.496,24.3799,0,0.000885,0,0
0:1:57.492,189.677,24.1523,0,0.000885,0,0
0:1:57.591,188.151,23.9593,0,0.000885,0,0
0:1:57.692,185.629,23.6352,0,0.000885,0,0
0:1:57.793,185.629,23.6352,0,0.000885,0,0
0:1:57.890,182.871,23.2836,0,0.000885,0,0
0:1:57.988,180.291,22.9526,0,0.000885,0,0
0:1:58.086,176.95,22.5321,0,0.000885,0,0
0:1:58.188,176.95,22.5321,0,0.000885,0,0
0:1:58.288,173.841,22.1322,0,0.000885,0,0
0:1:58.388,170.967,21.7667,0,0.000885,0,0
0:1:58.494,168.032,21.3944,0,0.000885,0,0
0:1:58.592,168.032,21.3944,0,0.000885,0,0
0:1:58.693,164.985,21.0083,0,0.000885,0,0
0:1:58.794,161.991,20.6222,0,0.000885,0,0
0:1:58.894,161.991,20.6222,0,0.000885,0,0
0:1:58.991,158.063,20.1258,0,0.000885,0,0
0:1:59.088,154.896,19.719,0,0.000885,0,0
0:1:59.189,151.965,19.3467,0,0.000885,0,0
0:1:59.290,151.965,19.3467,0,0.000885,0,0
0:1:59.301,151.965,19.3467,0,0.000885,0,0