File: DataFile2021-06-29_073530.csv
Test ID:,Date Tested:,Time:,Test Type:,Diameter Avg. (mm):,Cyl. Corr. Factor:,Height (mm):,Age (days):,Weight (kN):,Break Type:,Ramp Rate (MPa/s):,Load at Break (kN):,Stress at Break (MPa):
12,6/29/2021,07:35,Cylinder,150,1,300,0,3.6,3,0.24,646.02,36.56
Sample Time,Load (kN),Stress (MPa),Long. Strain,Trans. Strain,Chan1 Deflection (mm),Chan2 Deflection (mm)
0:0:19.948,5.15994,0.28958,0,0.000885,0,0
0:0:20.148,7.80218,0.441264,0,0.000885,0,0
0:0:20.347,13.3714,0.758423,0,0.000885,0,0
0:0:20.554,13.7228,0.779108,0,0.000885,0,0
0:0:20.755,13.3714,0.758423,0,0.000885,0,0
0:0:20.950,13.3135,0.751529,0,0.000885,0,0
0:0:21.150,12.7842,0.72395,0,0.000885,0,0
0:0:21.348,12.9043,0.730844,0,0.000885,0,0
0:0:21.554,12.6685,0.717055,0,0.000885,0,0
0:0:21.756,13.1356,0.744634,0,0.000885,0,0
0:0:21.952,13.0778,0.737739,0,0.000885,0,0
0:0:22.152,13.3714,0.758423,0,0.000885,0,0
0:0:22.351,13.9585,0.792897,0,0.000885,0,0
0:0:22.555,15.3063,0.868739,0,0.000885,0,0
0:0:22.757,16.1871,0.917003,0,0.000885,0,0
0:0:22.954,16.7164,0.944582,0,0.000885,0,0
0:0:23.153,18.1799,1.02732,0,0.000885,0,0
0:0:23.355,18.8249,1.06869,0,0.000885,0,0
0:0:23.550,20.4084,1.15832,0,0.000885,0,0
0:0:23.751,20.5864,1.16521,0,0.000885,0,0
0:0:23.951,22.0543,1.24795,0,0.000885,0,0
0:0:24.147,22.9306,1.29621,0,0.000885,0,0
0:0:24.350,24.6921,1.39964,0,0.000885,0,0
0:0:24.542,25.1591,1.42721,0,0.000885,0,0
0:0:24.743,26.4536,1.49616,0,0.000885,0,0
0:0:24.943,27.9749,1.58579,0,0.000885,0,0
0:0:25.152,28.562,1.61337,0,0.000885,0,0
0:0:25.354,30.1456,1.70301,0,0.000885,0,0
0:0:25.556,31.0263,1.75816,0,0.000885,0,0
0:0:25.760,32.6099,1.84779,0,0.000885,0,0
0:0:25.964,33.3127,1.88227,0,0.000885,0,0
0:0:26.165,34.5449,1.95811,0,0.000885,0,0
0:0:26.366,34.9541,1.9788,0,0.000885,0,0
0:0:26.568,36.2441,2.04774,0,0.000885,0,0
0:0:26.771,36.3064,2.05464,0,0.000885,0,0
0:0:26.972,36.7156,2.07532,0,0.000885,0,0
0:0:27.169,37.067,2.09601,0,0.000885,0,0
0:0:27.372,38.0634,2.15116,0,0.000885,0,0
0:0:27.568,38.4727,2.17874,0,0.000885,0,0
0:0:27.766,39.4112,2.22701,0,0.000885,0,0
0:0:27.969,40.0562,2.26838,0,0.000885,0,0
0:0:28.165,41.1727,2.33043,0,0.000885,0,0
0:0:28.366,41.9334,2.3718,0,0.000885,0,0
0:0:28.564,43.3435,2.45453,0,0.000885,0,0
0:0:28.762,43.7527,2.47522,0,0.000885,0,0
0:0:28.964,45.2206,2.55795,0,0.000885,0,0
0:0:29.161,46.1592,2.61311,0,0.000885,0,0
0:0:29.362,47.6849,2.69585,0,0.000885,0,0
0:0:29.562,48.2098,2.73032,0,0.000885,0,0
0:0:29.757,48.6191,2.75101,0,0.000885,0,0
0:0:29.960,49.6199,2.80617,0,0.000885,0,0
0:0:30.158,50.3227,2.84753,0,0.000885,0,0
0:0:30.357,51.8485,2.93717,0,0.000885,0,0
0:0:30.559,52.5513,2.97164,0,0.000885,0,0
0:0:30.762,53.7834,3.04059,0,0.000885,0,0
0:0:30.964,54.4284,3.08196,0,0.000885,0,0
0:0:31.167,55.4248,3.13711,0,0.000885,0,0
0:0:31.370,55.7184,3.1509,0,0.000885,0,0
0:0:31.570,57.0662,3.22675,0,0.000885,0,0
0:0:31.772,57.3598,3.24743,0,0.000885,0,0
0:0:31.974,58.6498,3.31638,0,0.000885,0,0
0:0:32.173,59.4149,3.36464,0,0.000885,0,0
0:0:32.371,60.1755,3.40601,0,0.000885,0,0
0:0:32.574,60.6426,3.43359,0,0.000885,0,0
0:0:32.769,61.937,3.50254,0,0.000885,0,0
0:0:32.970,62.6399,3.54391,0,0.000885,0,0
0:0:33.169,63.9298,3.61975,0,0.000885,0,0
0:0:33.366,64.3969,3.64733,0,0.000885,0,0
0:0:33.569,65.6869,3.71627,0,0.000885,0,0
0:0:33.766,66.0383,3.73696,0,0.000885,0,0
0:0:33.964,67.742,3.83349,0,0.000885,0,0
0:0:34.165,68.2713,3.86106,0,0.000885,0,0
0:0:34.362,69.0898,3.90933,0,0.000885,0,0
0:0:34.564,70.2063,3.97138,0,0.000885,0,0
0:0:34.762,70.6733,3.99896,0,0.000885,0,0
0:0:34.960,71.5541,4.04722,0,0.000885,0,0
0:0:35.162,72.1413,4.0817,0,0.000885,0,0
0:0:35.366,73.1377,4.13685,0,0.000885,0,0
0:0:35.567,73.8983,4.18512,0,0.000885,0,0
0:0:35.771,75.3084,4.26096,0,0.000885,0,0
0:0:35.973,75.7755,4.28854,0,0.000885,0,0
0:0:36.174,76.4204,4.32301,0,0.000885,0,0
0:0:36.376,77.4791,4.38507,0,0.000885,0,0
0:0:36.577,78.8848,4.46091,0,0.000885,0,0
0:0:36.779,79.4719,4.49538,0,0.000885,0,0
0:0:36.976,80.4683,4.55054,0,0.000885,0,0
0:0:37.177,81.5848,4.61949,0,0.000885,0,0
0:0:37.375,82.5812,4.67465,0,0.000885,0,0
0:0:37.575,82.9326,4.69533,0,0.000885,0,0
0:0:37.775,84.574,4.78496,0,0.000885,0,0
0:0:37.972,85.1612,4.81944,0,0.000885,0,0
0:0:38.174,85.9218,4.8608,0,0.000885,0,0
0:0:38.371,86.509,4.89528,0,0.000885,0,0
0:0:38.570,87.9769,4.97801,0,0.000885,0,0
0:0:38.771,88.6797,5.01938,0,0.000885,0,0
0:0:38.968,89.734,5.07454,0,0.000885,0,0
0:0:39.169,90.0854,5.09523,0,0.000885,0,0
0:0:39.367,91.4376,5.17107,0,0.000885,0,0
0:0:39.565,92.1405,5.21244,0,0.000885,0,0
0:0:39.767,92.7855,5.25381,0,0.000885,0,0
0:0:39.964,93.8397,5.30896,0,0.000885,0,0
0:0:40.164,94.2534,5.33654,0,0.000885,0,0
0:0:40.366,95.4232,5.39859,0,0.000885,0,0
0:0:40.570,95.9526,5.43307,0,0.000885,0,0
0:0:40.774,97.1847,5.50202,0,0.000885,0,0
0:0:40.975,97.7096,5.5296,0,0.000885,0,0
0:0:41.177,99.4711,5.62612,0,0.000885,0,0
0:0:41.377,100,5.6606,0,0.000885,0,0
0:0:41.580,101.055,5.71575,0,0.000885,0,0
0:0:41.782,101.7,5.75712,0,0.000885,0,0
0:0:41.981,103.399,5.85365,0,0.000885,0,0
0:0:42.180,103.986,5.88123,0,0.000885,0,0
0:0:42.381,104.573,5.9157,0,0.000885,0,0
0:0:42.577,104.925,5.93639,0,0.000885,0,0
0:0:42.779,106.157,6.00533,0,0.000885,0,0
0:0:42.978,106.566,6.03291,0,0.000885,0,0
0:0:43.176,108.15,6.12254,0,0.000885,0,0
0:0:43.376,108.505,6.14323,0,0.000885,0,0
0:0:43.572,109.853,6.21907,0,0.000885,0,0
0:0:43.773,110.556,6.25354,0,0.000885,0,0
0:0:43.973,111.673,6.32249,0,0.000885,0,0
0:0:44.171,112.318,6.35697,0,0.000885,0,0
0:0:44.374,113.372,6.41212,0,0.000885,0,0
0:0:44.569,114.017,6.45349,0,0.000885,0,0
0:0:44.769,114.662,6.48797,0,0.000885,0,0
0:0:44.968,115.6,6.54312,0,0.000885,0,0
0:0:45.165,116.245,6.5776,0,0.000885,0,0
0:0:45.368,118.238,6.68791,0,0.000885,0,0
0:0:45.569,118.416,6.7017,0,0.000885,0,0
0:0:45.773,119.764,6.77755,0,0.000885,0,0
0:0:45.976,120.173,6.79823,0,0.000885,0,0
0:0:46.178,121.347,6.86718,0,0.000885,0,0
0:0:46.379,121.819,6.89476,0,0.000885,0,0
0:0:46.582,123.047,6.9637,0,0.000885,0,0
0:0:46.784,123.46,6.98439,0,0.000885,0,0
0:0:46.985,124.63,7.05334,0,0.000885,0,0
0:0:47.181,125.338,7.09471,0,0.000885,0,0
0:0:47.383,126.276,7.14297,0,0.000885,0,0
0:0:47.581,127.152,7.19813,0,0.000885,0,0
0:0:47.778,128.62,7.28086,0,0.000885,0,0
0:0:47.980,129.092,7.30155,0,0.000885,0,0
0:0:48.178,130.44,7.38429,0,0.000885,0,0
0:0:48.377,130.849,7.40497,0,0.000885,0,0
0:0:48.579,132.023,7.47392,0,0.000885,0,0
0:0:48.775,132.317,7.48771,0,0.000885,0,0
0:0:48.976,133.665,7.56355,0,0.000885,0,0
0:0:49.175,134.777,7.6256,0,0.000885,0,0
0:0:49.375,135.893,7.68765,0,0.000885,0,0
0:0:49.576,136.187,7.70834,0,0.000885,0,0
0:0:49.771,136.716,7.73592,0,0.000885,0,0
0:0:49.973,137.77,7.79797,0,0.000885,0,0
0:0:50.170,138.237,7.82555,0,0.000885,0,0
0:0:50.369,139.883,7.91518,0,0.000885,0,0
0:0:50.570,140.177,7.92897,0,0.000885,0,0
0:0:50.773,141.467,8.00481,0,0.000885,0,0
0:0:50.976,141.582,8.01171,0,0.000885,0,0
0:0:51.180,143.344,8.10823,0,0.000885,0,0
0:0:51.382,143.633,8.12892,0,0.000885,0,0
0:0:51.585,145.217,8.21855,0,0.000885,0,0
0:0:51.786,145.862,8.25302,0,0.000885,0,0
0:0:51.988,146.569,8.29439,0,0.000885,0,0
0:0:52.189,147.507,8.34955,0,0.000885,0,0
0:0:52.384,148.971,8.43229,0,0.000885,0,0
0:0:52.586,149.442,8.45987,0,0.000885,0,0
0:0:52.785,150.612,8.52192,0,0.000885,0,0
0:0:52.984,151.435,8.57018,0,0.000885,0,0
0:0:53.185,152.725,8.63913,0,0.000885,0,0
0:0:53.380,153.312,8.6736,0,0.000885,0,0
0:0:53.582,154.429,8.73566,0,0.000885,0,0
0:0:53.781,154.66,8.74945,0,0.000885,0,0
0:0:53.978,156.128,8.83218,0,0.000885,0,0
0:0:54.180,156.831,8.87355,0,0.000885,0,0
0:0:54.375,157.182,8.89424,0,0.000885,0,0
0:0:54.576,158.357,8.96318,0,0.000885,0,0
0:0:54.777,158.886,8.99076,0,0.000885,0,0
0:0:54.973,160.056,9.05971,0,0.000885,0,0
0:0:55.175,160.821,9.10108,0,0.000885,0,0
0:0:55.377,161.991,9.17003,0,0.000885,0,0
0:0:55.580,162.462,9.19071,0,0.000885,0,0
0:0:55.783,164.046,9.28034,0,0.000885,0,0
0:0:55.985,164.633,9.31482,0,0.000885,0,0
0:0:56.186,165.803,9.38376,0,0.000885,0,0
0:0:56.388,166.039,9.39755,0,0.000885,0,0
0:0:56.590,167.565,9.48029,0,0.000885,0,0
0:0:56.791,168.387,9.52855,0,0.000885,0,0
0:0:56.988,169.148,9.56992,0,0.000885,0,0
0:0:57.190,169.557,9.5975,0,0.000885,0,0
0:0:57.389,170.732,9.65955,0,0.000885,0,0
0:0:57.586,171.377,9.70092,0,0.000885,0,0
0:0:57.789,172.079,9.7354,0,0.000885,0,0
0:0:57.986,172.667,9.76987,0,0.000885,0,0
0:0:58.187,174.135,9.85261,0,0.000885,0,0
0:0:58.387,174.837,9.89398,0,0.000885,0,0
0:0:58.584,176.127,9.96982,0,0.000885,0,0
0:0:58.786,176.772,10.0043,0,0.000885,0,0
0:0:58.983,177.827,10.0663,0,0.000885,0,0
0:0:59.183,178.707,10.1146,0,0.000885,0,0
0:0:59.384,179.646,10.1629,0,0.000885,0,0
0:0:59.578,180.527,10.218,0,0.000885,0,0
0:0:59.780,181.287,10.2594,0,0.000885,0,0
0:0:59.980,182.052,10.3008,0,0.000885,0,0
0:1:0.176,182.933,10.349,0,0.000885,0,0
0:1:0.379,183.867,10.4042,0,0.000885,0,0
0:1:0.582,184.223,10.4249,0,0.000885,0,0
0:1:0.786,185.513,10.5007,0,0.000885,0,0
0:1:0.989,186.038,10.5283,0,0.000885,0,0
0:1:1.191,187.448,10.6041,0,0.000885,0,0
0:1:1.393,187.915,10.6317,0,0.000885,0,0
0:1:1.595,189.263,10.7076,0,0.000885,0,0
0:1:1.798,190.264,10.7696,0,0.000885,0,0
0:1:1.996,191.434,10.8317,0,0.000885,0,0
0:1:2.195,191.963,10.8661,0,0.000885,0,0
0:1:2.397,193.137,10.9282,0,0.000885,0,0
0:1:2.591,193.956,10.9765,0,0.000885,0,0
0:1:2.790,195.13,11.0454,0,0.000885,0,0
0:1:2.989,195.539,11.0661,0,0.000885,0,0
0:1:3.184,196.829,11.135,0,0.000885,0,0
0:1:3.386,197.243,11.1626,0,0.000885,0,0
0:1:3.581,198.475,11.2316,0,0.000885,0,0
0:1:3.778,198.942,11.2591,0,0.000885,0,0
0:1:3.979,200.232,11.3281,0,0.000885,0,0
0:1:4.173,200.41,11.3419,0,0.000885,0,0
0:1:4.374,201.229,11.3901,0,0.000885,0,0
0:1:4.571,202.519,11.4591,0,0.000885,0,0
0:1:4.766,202.754,11.4729,0,0.000885,0,0
0:1:4.968,204.044,11.5487,0,0.000885,0,0
0:1:5.162,204.983,11.597,0,0.000885,0,0
0:1:5.361,206.393,11.6797,0,0.000885,0,0
0:1:5.562,206.918,11.7073,0,0.000885,0,0
0:1:5.764,208.266,11.7831,0,0.000885,0,0
0:1:5.965,208.915,11.8245,0,0.000885,0,0
0:1:6.166,209.734,11.8659,0,0.000885,0,0
0:1:6.368,210.379,11.9072,0,0.000885,0,0
0:1:6.566,211.144,11.9486,0,0.000885,0,0
0:1:6.767,211.669,11.9762,0,0.000885,0,0
0:1:6.969,213.079,12.0589,0,0.000885,0,0
0:1:7.165,213.666,12.0934,0,0.000885,0,0
0:1:7.362,214.427,12.1348,0,0.000885,0,0
0:1:7.562,215.249,12.183,0,0.000885,0,0
0:1:7.759,216.01,12.2244,0,0.000885,0,0
0:1:7.957,217.358,12.3002,0,0.000885,0,0
0:1:8.156,217.887,12.3278,0,0.000885,0,0
0:1:8.348,219.062,12.3968,0,0.000885,0,0
0:1:8.551,219.644,12.4312,0,0.000885,0,0
0:1:8.745,220.645,12.4864,0,0.000885,0,0
0:1:8.953,220.997,12.5071,0,0.000885,0,0
0:1:9.153,222.58,12.5967,0,0.000885,0,0
0:1:9.346,223.75,12.6588,0,0.000885,0,0
0:1:9.546,225.04,12.7346,0,0.000885,0,0
0:1:9.744,225.685,12.7691,0,0.000885,0,0
0:1:9.940,226.566,12.8242,0,0.000885,0,0
0:1:10.141,227.037,12.8449,0,0.000885,0,0
0:1:10.343,227.856,12.8932,0,0.000885,0,0
0:1:10.544,228.501,12.9277,0,0.000885,0,0
0:1:10.746,229.733,13.0035,0,0.000885,0,0
0:1:10.947,230.556,13.0449,0,0.000885,0,0
0:1:11.146,231.73,13.1138,0,0.000885,0,0
0:1:11.347,232.375,13.1483,0,0.000885,0,0
0:1:11.548,232.9,13.1828,0,0.000885,0,0
0:1:11.746,234.074,13.2448,0,0.000885,0,0
0:1:11.953,234.835,13.2862,0,0.000885,0,0
0:1:12.154,236.303,13.3689,0,0.000885,0,0
0:1:12.359,236.77,13.3965,0,0.000885,0,0
0:1:12.556,238.122,13.4724,0,0.000885,0,0
0:1:12.755,238.589,13.4999,0,0.000885,0,0
0:1:12.949,239.586,13.5551,0,0.000885,0,0
0:1:13.151,240.293,13.5965,0,0.000885,0,0
0:1:13.346,241.289,13.6516,0,0.000885,0,0
0:1:13.554,241.992,13.693,0,0.000885,0,0
0:1:13.754,243.104,13.755,0,0.000885,0,0
0:1:13.948,243.634,13.7895,0,0.000885,0,0
0:1:14.147,244.866,13.8585,0,0.000885,0,0
0:1:14.345,245.511,13.8929,0,0.000885,0,0
0:1:14.540,246.801,13.9688,0,0.000885,0,0
0:1:14.741,247.33,13.9964,0,0.000885,0,0
0:1:14.936,248.678,14.0722,0,0.000885,0,0
0:1:15.134,249.265,14.1067,0,0.000885,0,0
0:1:15.334,249.674,14.1274,0,0.000885,0,0
0:1:15.535,250.791,14.1894,0,0.000885,0,0
0:1:15.737,251.258,14.217,0,0.000885,0,0
0:1:15.939,252.49,14.2859,0,0.000885,0,0
0:1:16.139,253.255,14.3342,0,0.000885,0,0
0:1:16.340,254.483,14.4031,0,0.000885,0,0
0:1:16.539,255.541,14.4583,0,0.000885,0,0
0:1:16.740,256.48,14.5135,0,0.000885,0,0
0:1:16.937,256.831,14.5341,0,0.000885,0,0
0:1:17.134,258.295,14.6169,0,0.000885,0,0
0:1:17.335,258.824,14.6445,0,0.000885,0,0
0:1:17.530,259.878,14.7065,0,0.000885,0,0
0:1:17.737,260.172,14.7203,0,0.000885,0,0
0:1:17.936,261.231,14.7824,0,0.000885,0,0
0:1:18.142,261.991,14.8237,0,0.000885,0,0
0:1:18.343,263.224,14.8927,0,0.000885,0,0
0:1:18.547,263.984,14.9409,0,0.000885,0,0
0:1:18.745,265.51,15.0237,0,0.000885,0,0
0:1:18.944,265.803,15.0444,0,0.000885,0,0
0:1:19.149,267.214,15.1202,0,0.000885,0,0
0:1:19.352,267.681,15.1478,0,0.000885,0,0
0:1:19.546,268.619,15.2029,0,0.000885,0,0
0:1:19.743,269.264,15.2374,0,0.000885,0,0
0:1:19.944,270.612,15.3133,0,0.000885,0,0
0:1:20.137,271.377,15.3546,0,0.000885,0,0
0:1:20.338,271.964,15.3891,0,0.000885,0,0
0:1:20.539,273.134,15.458,0,0.000885,0,0
0:1:20.742,273.957,15.4994,0,0.000885,0,0
0:1:20.945,274.66,15.5408,0,0.000885,0,0
0:1:21.145,275.714,15.6028,0,0.000885,0,0
0:1:21.345,276.653,15.658,0,0.000885,0,0
0:1:21.545,277.066,15.6787,0,0.000885,0,0
0:1:21.743,278.356,15.7545,0,0.000885,0,0
0:1:21.944,279.117,15.7959,0,0.000885,0,0
0:1:22.140,280.349,15.8648,0,0.000885,0,0
0:1:22.337,280.407,15.8648,0,0.000885,0,0
0:1:22.539,281.875,15.9476,0,0.000885,0,0
0:1:22.753,282.756,16.0027,0,0.000885,0,0
0:1:22.954,283.81,16.0579,0,0.000885,0,0
0:1:23.149,284.397,16.0924,0,0.000885,0,0
0:1:23.346,285.393,16.1475,0,0.000885,0,0
0:1:23.546,286.096,16.1889,0,0.000885,0,0
0:1:23.749,287.271,16.2578,0,0.000885,0,0
0:1:23.949,287.916,16.2923,0,0.000885,0,0
0:1:24.146,289.384,16.375,0,0.000885,0,0
0:1:24.353,289.735,16.3957,0,0.000885,0,0
0:1:24.554,290.611,16.444,0,0.000885,0,0
0:1:24.748,291.612,16.4992,0,0.000885,0,0
0:1:24.947,292.902,16.575,0,0.000885,0,0
0:1:25.145,293.489,16.6095,0,0.000885,0,0
0:1:25.340,294.192,16.6508,0,0.000885,0,0
0:1:25.540,295.304,16.7129,0,0.000885,0,0
0:1:25.741,295.776,16.7405,0,0.000885,0,0
0:1:25.944,296.594,16.7818,0,0.000885,0,0
0:1:26.145,297.239,16.8232,0,0.000885,0,0
0:1:26.346,298.413,16.8853,0,0.000885,0,0
0:1:26.546,299.058,16.9266,0,0.000885,0,0
0:1:26.746,300.526,17.0094,0,0.000885,0,0
0:1:26.947,301.465,17.0576,0,0.000885,0,0
0:1:27.147,302.461,17.1128,0,0.000885,0,0
0:1:27.353,302.928,17.1404,0,0.000885,0,0
0:1:27.554,304.218,17.2162,0,0.000885,0,0
0:1:27.762,304.574,17.2369,0,0.000885,0,0
0:1:27.957,306.095,17.3196,0,0.000885,0,0
0:1:28.158,306.567,17.3472,0,0.000885,0,0
0:1:28.350,307.563,17.4024,0,0.000885,0,0
0:1:28.549,308.324,17.4506,0,0.000885,0,0
0:1:28.749,309.383,17.5058,0,0.000885,0,0
0:1:28.955,310.028,17.5472,0,0.000885,0,0
0:1:29.156,311.376,17.623,0,0.000885,0,0
0:1:29.361,311.843,17.6437,0,0.000885,0,0
0:1:29.559,313.31,17.7264,0,0.000885,0,0
0:1:29.758,313.898,17.7609,0,0.000885,0,0
0:1:29.953,315.072,17.8298,0,0.000885,0,0
0:1:30.155,315.423,17.8505,0,0.000885,0,0
0:1:30.356,316.242,17.8988,0,0.000885,0,0
0:1:30.559,317.123,17.9471,0,0.000885,0,0
0:1:30.759,318.591,18.0298,0,0.000885,0,0
0:1:30.960,318.764,18.0367,0,0.000885,0,0
0:1:31.160,319.293,18.0712,0,0.000885,0,0
0:1:31.360,320.877,18.1608,0,0.000885,0,0
0:1:31.560,321.58,18.1953,0,0.000885,0,0
0:1:31.761,322.696,18.2642,0,0.000885,0,0
0:1:31.956,323.163,18.2849,0,0.000885,0,0
0:1:32.156,324.16,18.3469,0,0.000885,0,0
0:1:32.354,324.747,18.3745,0,0.000885,0,0
0:1:32.557,326.273,18.4642,0,0.000885,0,0
0:1:32.758,326.86,18.4986,0,0.000885,0,0
0:1:32.955,327.678,18.54,0,0.000885,0,0
0:1:33.150,328.323,18.5814,0,0.000885,0,0
0:1:33.351,329.618,18.6503,0,0.000885,0,0
0:1:33.555,330.263,18.6917,0,0.000885,0,0
0:1:33.757,331.317,18.7468,0,0.000885,0,0
0:1:33.950,331.904,18.7813,0,0.000885,0,0
0:1:34.148,332.843,18.8365,0,0.000885,0,0
0:1:34.349,333.603,18.8778,0,0.000885,0,0
0:1:34.555,335.129,18.9675,0,0.000885,0,0
0:1:34.754,335.658,18.9951,0,0.000885,0,0
0:1:34.961,336.183,19.0226,0,0.000885,0,0
0:1:35.159,336.948,19.064,0,0.000885,0,0
0:1:35.360,337.709,19.1123,0,0.000885,0,0
0:1:35.560,338.825,19.1743,0,0.000885,0,0
0:1:35.763,340.231,19.2502,0,0.000885,0,0
0:1:35.965,341.405,19.3191,0,0.000885,0,0
0:1:36.165,342.108,19.3605,0,0.000885,0,0
0:1:36.365,343.634,19.4432,0,0.000885,0,0
0:1:36.565,343.928,19.4639,0,0.000885,0,0
0:1:36.767,345.333,19.5397,0,0.000885,0,0
0:1:36.965,346.156,19.588,0,0.000885,0,0
0:1:37.159,346.623,19.6156,0,0.000885,0,0
0:1:37.360,347.153,19.6432,0,0.000885,0,0
0:1:37.557,348.62,19.7259,0,0.000885,0,0
0:1:37.755,349.203,19.7604,0,0.000885,0,0
0:1:37.955,350.262,19.8224,0,0.000885,0,0
0:1:38.159,350.555,19.8362,0,0.000885,0,0
0:1:38.357,351.845,19.9121,0,0.000885,0,0
0:1:38.556,352.312,19.9396,0,0.000885,0,0
0:1:38.750,353.309,19.9948,0,0.000885,0,0
0:1:38.951,354.31,20.05,0,0.000885,0,0
0:1:39.145,354.892,20.0844,0,0.000885,0,0
0:1:39.344,356.303,20.1603,0,0.000885,0,0
0:1:39.544,356.596,20.181,0,0.000885,0,0
0:1:39.738,357.183,20.2154,0,0.000885,0,0
0:1:39.939,357.944,20.2568,0,0.000885,0,0
0:1:40.135,359.292,20.3326,0,0.000885,0,0
0:1:40.332,360.35,20.3947,0,0.000885,0,0
0:1:40.533,361.347,20.4499,0,0.000885,0,0
0:1:40.735,361.934,20.4843,0,0.000885,0,0
0:1:40.938,363.162,20.5533,0,0.000885,0,0
0:1:41.139,364.1,20.6015,0,0.000885,0,0
0:1:41.340,364.572,20.6291,0,0.000885,0,0
0:1:41.541,365.395,20.6774,0,0.000885,0,0
0:1:41.741,366.8,20.7532,0,0.000885,0,0
0:1:41.942,367.388,20.7877,0,0.000885,0,0
0:1:42.141,368.442,20.8497,0,0.000885,0,0
0:1:42.346,369.322,20.898,0,0.000885,0,0
0:1:42.547,370.906,20.9876,0,0.000885,0,0
0:1:42.751,371.142,21.0014,0,0.000885,0,0
0:1:42.951,372.432,21.0773,0,0.000885,0,0
0:1:43.150,373.192,21.1186,0,0.000885,0,0
0:1:43.344,374.54,21.1945,0,0.000885,0,0
0:1:43.545,374.834,21.2083,0,0.000885,0,0
0:1:43.741,375.248,21.2359,0,0.000885,0,0
0:1:43.940,376.36,21.2979,0,0.000885,0,0
0:1:44.139,377.24,21.3462,0,0.000885,0,0
0:1:44.342,378.295,21.4082,0,0.000885,0,0
0:1:44.542,378.708,21.4289,0,0.000885,0,0
0:1:44.739,379.705,21.4841,0,0.000885,0,0
0:1:44.945,380.35,21.5254,0,0.000885,0,0
0:1:45.146,381.755,21.6013,0,0.000885,0,0
0:1:45.347,382.227,21.6289,0,0.000885,0,0
0:1:45.549,382.872,21.6633,0,0.000885,0,0
0:1:45.751,383.517,21.7047,0,0.000885,0,0
0:1:45.952,384.98,21.7874,0,0.000885,0,0
0:1:46.152,385.861,21.8357,0,0.000885,0,0
0:1:46.352,386.915,21.8977,0,0.000885,0,0
0:1:46.552,387.738,21.9391,0,0.000885,0,0
0:1:46.751,388.912,22.0081,0,0.000885,0,0
0:1:46.946,389.437,22.0356,0,0.000885,0,0
0:1:47.148,390.905,22.1184,0,0.000885,0,0
0:1:47.344,391.666,22.1666,0,0.000885,0,0
0:1:47.541,392.253,22.1942,0,0.000885,0,0
0:1:47.740,393.076,22.2425,0,0.000885,0,0
0:1:47.944,394.188,22.3045,0,0.000885,0,0
0:1:48.145,394.833,22.3459,0,0.000885,0,0
0:1:48.351,396.243,22.4218,0,0.000885,0,0
0:1:48.559,396.888,22.4562,0,0.000885,0,0
0:1:48.759,398.53,22.5528,0,0.000885,0,0
0:1:48.951,398.823,22.5665,0,0.000885,0,0
0:1:49.155,399.175,22.5872,0,0.000885,0,0
0:1:49.360,400.113,22.6424,0,0.000885,0,0
0:1:49.555,400.758,22.6769,0,0.000885,0,0
0:1:49.756,401.99,22.7458,0,0.000885,0,0
0:1:49.960,402.52,22.7803,0,0.000885,0,0
0:1:50.161,403.689,22.8423,0,0.000885,0,0
0:1:50.362,404.161,22.8699,0,0.000885,0,0
0:1:50.565,405.629,22.9526,0,0.000885,0,0
0:1:50.766,406.038,22.9802,0,0.000885,0,0
0:1:50.968,407.27,23.0492,0,0.000885,0,0
0:1:51.166,407.915,23.0836,0,0.000885,0,0
0:1:51.367,409.027,23.1457,0,0.000885,0,0
0:1:51.567,409.379,23.1664,0,0.000885,0,0
0:1:51.767,410.847,23.2491,0,0.000885,0,0
0:1:51.963,411.492,23.2836,0,0.000885,0,0
0:1:52.161,412.666,23.3525,0,0.000885,0,0
0:1:52.361,413.311,23.387,0,0.000885,0,0
0:1:52.556,414.601,23.4629,0,0.000885,0,0
0:1:52.755,415.01,23.4835,0,0.000885,0,0
0:1:52.952,416.358,23.5594,0,0.000885,0,0
0:1:53.157,416.887,23.5939,0,0.000885,0,0
0:1:53.359,418.413,23.6766,0,0.000885,0,0
0:1:53.556,419,23.7111,0,0.000885,0,0
0:1:53.751,419.294,23.7249,0,0.000885,0,0
0:1:53.951,420.464,23.7938,0,0.000885,0,0
0:1:54.156,420.935,23.8214,0,0.000885,0,0
0:1:54.357,422.283,23.8972,0,0.000885,0,0
0:1:54.553,423.279,23.9524,0,0.000885,0,0
0:1:54.749,424.747,24.0351,0,0.000885,0,0
0:1:54.950,425.214,24.0627,0,0.000885,0,0
0:1:55.143,426.682,24.1454,0,0.000885,0,0
0:1:55.343,427.327,24.1799,0,0.000885,0,0
0:1:55.543,428.208,24.2282,0,0.000885,0,0
0:1:55.746,428.559,24.2489,0,0.000885,0,0
0:1:55.948,429.614,24.3109,0,0.000885,0,0
0:1:56.147,430.259,24.3454,0,0.000885,0,0
0:1:56.349,431.549,24.4212,0,0.000885,0,0
0:1:56.549,431.784,24.435,0,0.000885,0,0
0:1:56.749,433.132,24.5109,0,0.000885,0,0
0:1:56.949,433.546,24.5315,0,0.000885,0,0
0:1:57.156,434.836,24.6074,0,0.000885,0,0
0:1:57.351,435.245,24.6281,0,0.000885,0,0
0:1:57.552,436.593,24.7039,0,0.000885,0,0
0:1:57.757,437.416,24.7522,0,0.000885,0,0
0:1:57.959,438.412,24.8073,0,0.000885,0,0
0:1:58.153,439.235,24.8556,0,0.000885,0,0
0:1:58.349,439.88,24.8901,0,0.000885,0,0
0:1:58.550,440.583,24.9314,0,0.000885,0,0
0:1:58.753,441.228,24.9659,0,0.000885,0,0
0:1:58.956,442.109,25.0211,0,0.000885,0,0
0:1:59.151,443.221,25.0831,0,0.000885,0,0
0:1:59.358,444.217,25.1383,0,0.000885,0,0
0:1:59.559,444.747,25.1659,0,0.000885,0,0
0:1:59.756,446.33,25.2555,0,0.000885,0,0
0:1:59.952,446.802,25.2831,0,0.000885,0,0
0:2:0.150,448.443,25.3796,0,0.000885,0,0
0:2:0.356,448.91,25.4003,0,0.000885,0,0
0:2:0.557,450.258,25.4761,0,0.000885,0,0
0:2:0.758,450.845,25.5106,0,0.000885,0,0
0:2:0.960,451.784,25.5658,0,0.000885,0,0
0:2:1.162,452.486,25.6071,0,0.000885,0,0
0:2:1.363,453.719,25.6761,0,0.000885,0,0
0:2:1.563,454.19,25.7037,0,0.000885,0,0
0:2:1.763,454.893,25.745,0,0.000885,0,0
0:2:1.963,455.596,25.7795,0,0.000885,0,0
0:2:2.165,457.237,25.876,0,0.000885,0,0
0:2:2.360,457.709,25.9036,0,0.000885,0,0
0:2:2.559,458.999,25.9726,0,0.000885,0,0
0:2:2.756,459.234,25.9863,0,0.000885,0,0
0:2:2.951,459.822,26.0208,0,0.000885,0,0
0:2:3.152,461.112,26.0967,0,0.000885,0,0
0:2:3.346,461.636,26.1242,0,0.000885,0,0
0:2:3.556,462.637,26.1794,0,0.000885,0,0
0:2:3.764,463.282,26.2139,0,0.000885,0,0
0:2:3.961,464.688,26.2966,0,0.000885,0,0
0:2:4.162,465.391,26.338,0,0.000885,0,0
0:2:4.357,466.916,26.4207,0,0.000885,0,0
0:2:4.553,467.152,26.4345,0,0.000885,0,0
0:2:4.754,468.736,26.5241,0,0.000885,0,0
0:2:4.948,469.087,26.5448,0,0.000885,0,0
0:2:5.149,469.617,26.5724,0,0.000885,0,0
0:2:5.350,470.377,26.6207,0,0.000885,0,0
0:2:5.551,471.783,26.6965,0,0.000885,0,0
0:2:5.753,472.548,26.7379,0,0.000885,0,0
0:2:5.956,473.366,26.7861,0,0.000885,0,0
0:2:6.154,474.483,26.8482,0,0.000885,0,0
0:2:6.354,475.715,26.9171,0,0.000885,0,0
0:2:6.553,476.476,26.9654,0,0.000885,0,0
0:2:6.754,477.592,27.0274,0,0.000885,0,0
0:2:6.949,478.237,27.0619,0,0.000885,0,0
0:2:7.146,478.882,27.0964,0,0.000885,0,0
0:2:7.347,480.052,27.1653,0,0.000885,0,0
0:2:7.541,480.408,27.186,0,0.000885,0,0
0:2:7.742,481.929,27.2688,0,0.000885,0,0
0:2:7.946,482.574,27.3101,0,0.000885,0,0
0:2:8.144,483.455,27.3584,0,0.000885,0,0
0:2:8.343,483.984,27.386,0,0.000885,0,0
0:2:8.558,485.159,27.4549,0,0.000885,0,0
0:2:8.759,485.804,27.4894,0,0.000885,0,0
0:2:8.954,486.916,27.5515,0,0.000885,0,0
0:2:9.163,487.681,27.5997,0,0.000885,0,0
0:2:9.364,488.793,27.6618,0,0.000885,0,0
0:2:9.558,489.202,27.6825,0,0.000885,0,0
0:2:9.759,490.434,27.7514,0,0.000885,0,0
0:2:9.954,491.257,27.7997,0,0.000885,0,0
0:2:10.148,492.018,27.841,0,0.000885,0,0
0:2:10.350,492.489,27.8686,0,0.000885,0,0
0:2:10.550,493.721,27.9376,0,0.000885,0,0
0:2:10.752,494.366,27.972,0,0.000885,0,0
0:2:10.955,495.83,28.0617,0,0.000885,0,0
0:2:11.154,496.181,28.0755,0,0.000885,0,0
0:2:11.357,497.356,28.1444,0,0.000885,0,0
0:2:11.557,498.058,28.1858,0,0.000885,0,0
0:2:11.757,499.411,28.2616,0,0.000885,0,0
0:2:11.959,499.936,28.2892,0,0.000885,0,0
0:2:12.152,500.523,28.3237,0,0.000885,0,0
0:2:12.352,502.106,28.4133,0,0.000885,0,0
0:2:12.548,502.751,28.4478,0,0.000885,0,0
0:2:12.746,504.219,28.5305,0,0.000885,0,0
0:2:12.946,504.744,28.565,0,0.000885,0,0
0:2:13.140,506.328,28.6546,0,0.000885,0,0
0:2:13.340,506.684,28.6753,0,0.000885,0,0
0:2:13.537,507.56,28.7236,0,0.000885,0,0
0:2:13.736,508.147,28.758,0,0.000885,0,0
0:2:13.936,509.143,28.8132,0,0.000885,0,0
0:2:14.148,509.788,28.8477,0,0.000885,0,0
0:2:14.349,510.847,28.9097,0,0.000885,0,0
0:2:14.554,511.666,28.9511,0,0.000885,0,0
0:2:14.753,512.489,28.9993,0,0.000885,0,0
0:2:14.953,513.191,29.0407,0,0.000885,0,0
0:2:15.157,513.836,29.0752,0,0.000885,0,0
0:2:15.357,514.366,29.1097,0,0.000885,0,0
0:2:15.558,516.243,29.2131,0,0.000885,0,0
0:2:15.761,516.888,29.2476,0,0.000885,0,0
0:2:15.962,518.293,29.3303,0,0.000885,0,0
0:2:16.163,518.938,29.3648,0,0.000885,0,0
0:2:16.364,519.761,29.413,0,0.000885,0,0
0:2:16.564,520.171,29.4337,0,0.000885,0,0
0:2:16.764,521.287,29.4958,0,0.000885,0,0
0:2:16.965,521.932,29.5371,0,0.000885,0,0
0:2:17.161,522.519,29.5716,0,0.000885,0,0
0:2:17.360,523.809,29.6406,0,0.000885,0,0
0:2:17.558,524.57,29.6819,0,0.000885,0,0
0:2:17.751,525.451,29.7371,0,0.000885,0,0
0:2:17.952,526.683,29.806,0,0.000885,0,0
0:2:18.149,527.853,29.8681,0,0.000885,0,0
0:2:18.347,528.088,29.8819,0,0.000885,0,0
0:2:18.546,529.205,29.9439,0,0.000885,0,0
0:2:18.749,530.023,29.9922,0,0.000885,0,0
0:2:18.951,531.549,30.0818,0,0.000885,0,0
0:2:19.146,531.549,30.0818,0,0.000885,0,0
0:2:19.344,532.839,30.1508,0,0.000885,0,0
0:2:19.544,532.955,30.1577,0,0.000885,0,0
0:2:19.746,534.365,30.2404,0,0.000885,0,0
0:2:19.947,535.303,30.2887,0,0.000885,0,0
0:2:20.144,535.833,30.3231,0,0.000885,0,0
0:2:20.350,537.416,30.4128,0,0.000885,0,0
0:2:20.551,538.061,30.4472,0,0.000885,0,0
0:2:20.754,538.822,30.4886,0,0.000885,0,0
0:2:20.954,539.525,30.53,0,0.000885,0,0
0:2:21.156,540.583,30.592,0,0.000885,0,0
0:2:21.359,541.402,30.6403,0,0.000885,0,0
0:2:21.559,542.576,30.7024,0,0.000885,0,0
0:2:21.759,542.928,30.723,0,0.000885,0,0
0:2:21.961,544.04,30.7851,0,0.000885,0,0
0:2:22.159,545.098,30.8471,0,0.000885,0,0
0:2:22.365,546.153,30.9092,0,0.000885,0,0
0:2:22.566,546.682,30.9368,0,0.000885,0,0
0:2:22.760,547.856,30.9988,0,0.000885,0,0
0:2:22.960,548.501,31.0402,0,0.000885,0,0
0:2:23.156,549.729,31.1091,0,0.000885,0,0
0:2:23.351,550.374,31.1436,0,0.000885,0,0
0:2:23.553,551.491,31.2057,0,0.000885,0,0
0:2:23.747,552.078,31.2401,0,0.000885,0,0
0:2:23.945,552.896,31.2884,0,0.000885,0,0
0:2:24.144,553.835,31.3436,0,0.000885,0,0
0:2:24.339,555.187,31.4194,0,0.000885,0,0
0:2:24.540,556.063,31.4677,0,0.000885,0,0
0:2:24.745,557.18,31.5297,0,0.000885,0,0
0:2:24.945,557.589,31.5504,0,0.000885,0,0
0:2:25.143,558.234,31.5918,0,0.000885,0,0
0:2:25.339,559.586,31.6676,0,0.000885,0,0
0:2:25.540,560.347,31.709,0,0.000885,0,0
0:2:25.741,560.876,31.7366,0,0.000885,0,0
0:2:25.942,561.401,31.771,0,0.000885,0,0
0:2:26.144,562.398,31.8262,0,0.000885,0,0
0:2:26.344,563.105,31.8676,0,0.000885,0,0
0:2:26.544,564.453,31.9434,0,0.000885,0,0
0:2:26.745,565.391,31.9917,0,0.000885,0,0
0:2:26.946,566.036,32.033,0,0.000885,0,0
0:2:27.146,566.566,32.0606,0,0.000885,0,0
0:2:27.341,567.971,32.1434,0,0.000885,0,0
0:2:27.540,568.732,32.1847,0,0.000885,0,0
0:2:27.747,569.906,32.2468,0,0.000885,0,0
0:2:27.954,570.609,32.2881,0,0.000885,0,0
0:2:28.155,571.668,32.3502,0,0.000885,0,0
0:2:28.368,572.135,32.3778,0,0.000885,0,0
0:2:28.569,573.838,32.4743,0,0.000885,0,0
0:2:28.767,573.954,32.4812,0,0.000885,0,0
0:2:28.964,575.244,32.5501,0,0.000885,0,0
0:2:29.164,575.538,32.5708,0,0.000885,0,0
0:2:29.367,577.006,32.6536,0,0.000885,0,0
0:2:29.566,577.588,32.688,0,0.000885,0,0
0:2:29.765,578.94,32.7639,0,0.000885,0,0
0:2:29.962,579.643,32.7984,0,0.000885,0,0
0:2:30.163,580.818,32.8673,0,0.000885,0,0
0:2:30.364,580.933,32.8742,0,0.000885,0,0
0:2:30.567,581.93,32.9294,0,0.000885,0,0
0:2:30.766,583.162,32.9983,0,0.000885,0,0
0:2:30.967,584.1,33.0535,0,0.000885,0,0
0:2:31.167,584.452,33.0742,0,0.000885,0,0
0:2:31.366,585.333,33.1224,0,0.000885,0,0
0:2:31.568,586.387,33.1845,0,0.000885,0,0
0:2:31.766,587.09,33.2258,0,0.000885,0,0
0:2:31.963,588.5,33.3017,0,0.000885,0,0
0:2:32.163,588.673,33.3155,0,0.000885,0,0
0:2:32.356,590.083,33.3913,0,0.000885,0,0
0:2:32.555,590.493,33.412,0,0.000885,0,0
0:2:32.755,591.96,33.4947,0,0.000885,0,0
0:2:32.952,592.548,33.5292,0,0.000885,0,0
0:2:33.154,593.9,33.605,0,0.000885,0,0
0:2:33.350,594.487,33.6395,0,0.000885,0,0
0:2:33.549,595.599,33.7016,0,0.000885,0,0
0:2:33.749,595.95,33.7223,0,0.000885,0,0
0:2:33.946,597.245,33.7981,0,0.000885,0,0
0:2:34.148,598.006,33.8395,0,0.000885,0,0
0:2:34.353,599.064,33.9015,0,0.000885,0,0
0:2:34.551,599.594,33.9291,0,0.000885,0,0
0:2:34.753,601.119,34.0187,0,0.000885,0,0
0:2:34.949,601.413,34.0325,0,0.000885,0,0
0:2:35.150,602.116,34.0739,0,0.000885,0,0
0:2:35.352,603.641,34.1566,0,0.000885,0,0
0:2:35.556,604.055,34.1842,0,0.000885,0,0
0:2:35.757,605.287,34.2532,0,0.000885,0,0
0:2:35.961,605.519,34.2669,0,0.000885,0,0
0:2:36.163,606.813,34.3359,0,0.000885,0,0
0:2:36.364,606.929,34.3428,0,0.000885,0,0
0:2:36.565,608.281,34.4186,0,0.000885,0,0
0:2:36.766,608.984,34.46,0,0.000885,0,0
0:2:36.962,609.98,34.5152,0,0.000885,0,0
0:2:37.162,610.158,34.5289,0,0.000885,0,0
0:2:37.362,611.568,34.6048,0,0.000885,0,0
0:2:37.560,612.622,34.6668,0,0.000885,0,0
0:2:37.761,613.912,34.7427,0,0.000885,0,0
0:2:37.964,614.326,34.7634,0,0.000885,0,0
0:2:38.165,615.794,34.8461,0,0.000885,0,0
0:2:38.365,616.439,34.8806,0,0.000885,0,0
0:2:38.561,617.671,34.9564,0,0.000885,0,0
0:2:38.762,618.143,34.9771,0,0.000885,0,0
0:2:38.956,618.961,35.0254,0,0.000885,0,0
0:2:39.156,619.9,35.0805,0,0.000885,0,0
0:2:39.356,621.074,35.1426,0,0.000885,0,0
0:2:39.551,621.546,35.1702,0,0.000885,0,0
0:2:39.753,623.013,35.2529,0,0.000885,0,0
0:2:39.950,623.716,35.2943,0,0.000885,0,0
0:2:40.150,624.01,35.3149,0,0.000885,0,0
0:2:40.351,625.126,35.377,0,0.000885,0,0
0:2:40.554,625.42,35.3908,0,0.000885,0,0
0:2:40.756,627.124,35.4873,0,0.000885,0,0
0:2:40.961,627.533,35.508,0,0.000885,0,0
0:2:41.162,628.881,35.5907,0,0.000885,0,0
0:2:41.364,628.943,35.5907,0,0.000885,0,0
0:2:41.565,630.704,35.6873,0,0.000885,0,0
0:2:41.766,631.056,35.7079,0,0.000885,0,0
0:2:41.964,632.524,35.7907,0,0.000885,0,0
0:2:42.161,632.991,35.8183,0,0.000885,0,0
0:2:42.363,633.578,35.8527,0,0.000885,0,0
0:2:42.557,634.165,35.8872,0,0.000885,0,0
0:2:42.758,635.046,35.9355,0,0.000885,0,0
0:2:42.956,635.633,35.9699,0,0.000885,0,0
0:2:43.152,636.923,36.0458,0,0.000885,0,0
0:2:43.354,637.217,36.0596,0,0.000885,0,0
0:2:43.550,638.217,36.1147,0,0.000885,0,0
0:2:43.751,638.92,36.1561,0,0.000885,0,0
0:2:43.950,640.095,36.2251,0,0.000885,0,0
0:2:44.145,640.21,36.2319,0,0.000885,0,0
0:2:44.346,640.975,36.2733,0,0.000885,0,0
0:2:44.544,641.856,36.3216,0,0.000885,0,0
0:2:44.743,642.03,36.3285,0,0.000885,0,0
0:2:44.943,643.324,36.4043,0,0.000885,0,0
0:2:45.138,644.143,36.4526,0,0.000885,0,0
0:2:45.340,644.556,36.4733,0,0.000885,0,0
0:2:45.540,644.378,36.4664,0,0.000885,0,0
0:2:45.743,645.317,36.5146,0,0.000885,0,0
0:2:45.946,645.495,36.5284,0,0.000885,0,0
0:2:46.148,645.788,36.5422,0,0.000885,0,0
0:2:46.349,646.024,36.556,0,0.000885,0,0
0:2:46.549,645.966,36.556,0,0.000885,0,0
0:2:46.750,645.788,36.5422,0,0.000885,0,0
0:2:46.952,645.553,36.5284,0,0.000885,0,0
0:2:47.158,644.498,36.4733,0,0.000885,0,0
0:2:47.357,642.323,36.3492,0,0.000885,0,0
0:2:47.556,640.037,36.2182,0,0.000885,0,0
0:2:47.752,632.817,35.8114,0,0.000885,0,0
0:2:47.954,627.061,35.4873,0,0.000885,0,0
0:2:48.150,610.981,34.5772,0,0.000885,0,0
0:2:48.356,600.239,33.9636,0,0.000885,0,0
0:2:48.555,572.606,32.4054,0,0.000885,0,0
0:2:48.750,554.364,31.3711,0,0.000885,0,0
0:2:48.949,531.607,30.0818,0,0.000885,0,0
0:2:49.080,495.479,28.041,0,0.000885,0,0