File: DataFile2021-06-07_080652.csv
Test ID:,Date Tested:,Time:,Test Type:,Diameter Avg. (mm):,Cyl. Corr. Factor:,Height (mm):,Age (days):,Weight (kN):,Break Type:,Ramp Rate (MPa/s):,Load at Break (kN):,Stress at Break (MPa):
12,6/7/2021,08:06,Cylinder,100,1,200,0,3.6,3,0.25,786.31,100.12
Sample Time,Load (kN),Stress (MPa),Long. Strain,Trans. Strain,Chan1 Deflection (mm),Chan2 Deflection (mm)
0:0:17.418,5.04428,0.641212,0,0.000885,0,0
0:0:17.811,7.45077,0.951477,0,0.000885,0,0
0:0:18.211,8.3849,1.06869,0,0.000885,0,0
0:0:18.609,9.91064,1.26174,0,0.000885,0,0
0:0:19.006,9.26565,1.179,0,0.000885,0,0
0:0:19.404,9.73716,1.24106,0,0.000885,0,0
0:0:19.798,10.3243,1.3169,0,0.000885,0,0
0:0:20.195,10.6179,1.35137,0,0.000885,0,0
0:0:20.594,10.7336,1.36516,0,0.000885,0,0
0:0:20.992,7.97566,1.01353,0,0.000885,0,0
0:0:21.388,10.8492,1.37895,0,0.000885,0,0
0:0:21.783,13.1356,1.67543,0,0.000885,0,0
0:0:22.183,14.9549,1.90295,0,0.000885,0,0
0:0:22.585,16.0714,2.04774,0,0.000885,0,0
0:0:22.991,17.5972,2.2408,0,0.000885,0,0
0:0:23.395,18.3,2.33043,0,0.000885,0,0
0:0:23.797,18.8871,2.40627,0,0.000885,0,0
0:0:24.199,19.5321,2.48901,0,0.000885,0,0
0:0:24.598,20.1193,2.55795,0,0.000885,0,0
0:0:24.995,20.5864,2.62001,0,0.000885,0,0
0:0:25.391,21.2892,2.70964,0,0.000885,0,0
0:0:25.790,20.88,2.66138,0,0.000885,0,0
0:0:26.188,21.7607,2.77169,0,0.000885,0,0
0:0:26.584,22.1699,2.81996,0,0.000885,0,0
0:0:26.981,23.6378,3.00611,0,0.000885,0,0
0:0:27.379,24.4563,3.11643,0,0.000885,0,0
0:0:27.781,25.515,3.24743,0,0.000885,0,0
0:0:28.186,26.5114,3.37843,0,0.000885,0,0
0:0:28.592,26.9206,3.42669,0,0.000885,0,0
0:0:28.995,27.8014,3.53701,0,0.000885,0,0
0:0:29.395,28.5042,3.62664,0,0.000885,0,0
0:0:29.796,29.7942,3.79212,0,0.000885,0,0
0:0:30.193,31.0263,3.9507,0,0.000885,0,0
0:0:30.588,31.5557,4.01964,0,0.000885,0,0
0:0:30.987,31.7292,4.04033,0,0.000885,0,0
0:0:31.386,32.6099,4.15064,0,0.000885,0,0
0:0:31.784,33.5485,4.27475,0,0.000885,0,0
0:0:32.183,34.3091,4.37128,0,0.000885,0,0
0:0:32.579,34.8963,4.44022,0,0.000885,0,0
0:0:32.983,35.5413,4.52296,0,0.000885,0,0
0:0:33.390,36.1285,4.5988,0,0.000885,0,0
0:0:33.795,37.1827,4.7367,0,0.000885,0,0
0:0:34.197,37.9478,4.83322,0,0.000885,0,0
0:0:34.594,38.8285,4.94354,0,0.000885,0,0
0:0:34.994,39.5892,5.04007,0,0.000885,0,0
0:0:35.395,40.5856,5.16417,0,0.000885,0,0
0:0:35.790,41.1727,5.24002,0,0.000885,0,0
0:0:36.187,42.0535,5.35723,0,0.000885,0,0
0:0:36.586,42.872,5.46065,0,0.000885,0,0
0:0:36.985,43.7527,5.57096,0,0.000885,0,0
0:0:37.385,44.8692,5.71575,0,0.000885,0,0
0:0:37.779,44.9849,5.72954,0,0.000885,0,0
0:0:38.184,45.4519,5.7847,0,0.000885,0,0
0:0:38.590,47.0355,5.99154,0,0.000885,0,0
0:0:38.993,47.3914,6.03291,0,0.000885,0,0
0:0:39.396,48.6191,6.19149,0,0.000885,0,0
0:0:39.791,49.0327,6.23976,0,0.000885,0,0
0:0:40.191,50.2026,6.39144,0,0.000885,0,0
0:0:40.593,50.732,6.46039,0,0.000885,0,0
0:0:40.989,51.377,6.54312,0,0.000885,0,0
0:0:41.384,52.022,6.62586,0,0.000885,0,0
0:0:41.782,52.6091,6.7017,0,0.000885,0,0
0:0:42.182,53.6055,6.82581,0,0.000885,0,0
0:0:42.581,54.7798,6.97749,0,0.000885,0,0
0:0:42.987,55.1313,7.01886,0,0.000885,0,0
0:0:43.393,56.3056,7.17055,0,0.000885,0,0
0:0:43.796,57.5956,7.33602,0,0.000885,0,0
0:0:44.198,58.1205,7.39807,0,0.000885,0,0
0:0:44.596,58.7699,7.48081,0,0.000885,0,0
0:0:44.993,59.059,7.52218,0,0.000885,0,0
0:0:45.389,59.704,7.60492,0,0.000885,0,0
0:0:45.791,60.527,7.70834,0,0.000885,0,0
0:0:46.189,61.2876,7.80487,0,0.000885,0,0
0:0:46.586,62.7555,7.99102,0,0.000885,0,0
0:0:46.982,63.3427,8.06687,0,0.000885,0,0
0:0:47.381,63.9298,8.14271,0,0.000885,0,0
0:0:47.783,64.7483,8.24613,0,0.000885,0,0
0:0:48.189,65.6869,8.36334,0,0.000885,0,0
0:0:48.593,66.3319,8.44608,0,0.000885,0,0
0:0:48.997,67.1548,8.5495,0,0.000885,0,0
0:0:49.399,68.3291,8.70118,0,0.000885,0,0
0:0:49.798,68.7962,8.75634,0,0.000885,0,0
0:0:50.195,69.1476,8.80461,0,0.000885,0,0
0:0:50.591,70.144,8.92871,0,0.000885,0,0
0:0:50.992,70.9669,9.03903,0,0.000885,0,0
0:0:51.392,71.6697,9.12866,0,0.000885,0,0
0:0:51.787,72.5505,9.23897,0,0.000885,0,0
0:0:52.185,73.3734,9.3424,0,0.000885,0,0
0:0:52.583,74.2497,9.45271,0,0.000885,0,0
0:0:52.985,75.0726,9.55613,0,0.000885,0,0
0:0:53.392,75.9534,9.67334,0,0.000885,0,0
0:0:53.796,76.3626,9.72161,0,0.000885,0,0
0:0:54.198,77.5948,9.88019,0,0.000885,0,0
0:0:54.600,78.1241,9.94913,0,0.000885,0,0
0:0:54.999,79.3563,10.1008,0,0.000885,0,0
0:0:55.397,79.6454,10.1422,0,0.000885,0,0
0:0:55.793,80.1747,10.2111,0,0.000885,0,0
0:0:56.189,80.9398,10.3077,0,0.000885,0,0
0:0:56.592,81.6427,10.3973,0,0.000885,0,0
0:0:56.991,83.1061,10.5835,0,0.000885,0,0
0:0:57.388,84.0447,10.7007,0,0.000885,0,0
0:0:57.785,84.6319,10.7765,0,0.000885,0,0
0:0:58.189,85.4548,10.8799,0,0.000885,0,0
0:0:58.596,85.864,10.9351,0,0.000885,0,0
0:0:58.999,87.0384,11.0799,0,0.000885,0,0
0:0:59.403,87.154,11.0937,0,0.000885,0,0
0:0:59.799,87.9191,11.1971,0,0.000885,0,0
0:1:0.199,88.8577,11.3143,0,0.000885,0,0
0:1:0.600,89.8541,11.4384,0,0.000885,0,0
0:1:0.998,90.8505,11.5694,0,0.000885,0,0
0:1:1.393,92.0826,11.7211,0,0.000885,0,0
0:1:1.791,92.4919,11.7762,0,0.000885,0,0
0:1:2.191,93.0212,11.8452,0,0.000885,0,0
0:1:2.590,93.3726,11.8866,0,0.000885,0,0
0:1:2.995,94.369,12.0176,0,0.000885,0,0
0:1:3.401,95.5434,12.1624,0,0.000885,0,0
0:1:3.804,95.9526,12.2175,0,0.000885,0,0
0:1:4.209,96.949,12.3416,0,0.000885,0,0
0:1:4.605,97.9454,12.4726,0,0.000885,0,0
0:1:5.002,98.9418,12.5967,0,0.000885,0,0
0:1:5.399,99.6491,12.6864,0,0.000885,0,0
0:1:5.800,99.9426,12.7277,0,0.000885,0,0
0:1:6.199,100.761,12.8311,0,0.000885,0,0
0:1:6.595,101.935,12.9759,0,0.000885,0,0
0:1:6.993,102.46,13.0449,0,0.000885,0,0
0:1:7.394,103.341,13.1552,0,0.000885,0,0
0:1:7.794,104.164,13.2655,0,0.000885,0,0
0:1:8.200,105.103,13.3827,0,0.000885,0,0
0:1:8.605,105.512,13.431,0,0.000885,0,0
0:1:9.008,106.157,13.5137,0,0.000885,0,0
0:1:9.409,106.98,13.624,0,0.000885,0,0
0:1:9.809,107.86,13.7344,0,0.000885,0,0
0:1:10.204,108.385,13.8033,0,0.000885,0,0
0:1:10.603,109.618,13.955,0,0.000885,0,0
0:1:11.000,110.378,14.0515,0,0.000885,0,0
0:1:11.400,111.259,14.1687,0,0.000885,0,0
0:1:11.799,112.375,14.3066,0,0.000885,0,0
0:1:12.194,112.549,14.3273,0,0.000885,0,0
0:1:12.591,113.256,14.4169,0,0.000885,0,0
0:1:12.996,113.901,14.4997,0,0.000885,0,0
0:1:13.404,115.249,14.672,0,0.000885,0,0
0:1:13.808,115.894,14.7548,0,0.000885,0,0
0:1:14.212,116.481,14.8306,0,0.000885,0,0
0:1:14.611,117.771,14.9961,0,0.000885,0,0
0:1:15.011,118.358,15.0719,0,0.000885,0,0
0:1:15.407,119.119,15.1685,0,0.000885,0,0
0:1:15.804,119.88,15.265,0,0.000885,0,0
0:1:16.202,120.76,15.3753,0,0.000885,0,0
0:1:16.603,121.583,15.4787,0,0.000885,0,0
0:1:17.001,122.108,15.5477,0,0.000885,0,0
0:1:17.399,123.167,15.6787,0,0.000885,0,0
0:1:17.795,123.518,15.7269,0,0.000885,0,0
0:1:18.200,124.279,15.8235,0,0.000885,0,0
0:1:18.605,125.102,15.9269,0,0.000885,0,0
0:1:19.009,126.156,16.0648,0,0.000885,0,0
0:1:19.411,126.859,16.1544,0,0.000885,0,0
0:1:19.808,127.682,16.2578,0,0.000885,0,0
0:1:20.207,128.505,16.3613,0,0.000885,0,0
0:1:20.605,128.736,16.3888,0,0.000885,0,0
0:1:21.005,130.026,16.5543,0,0.000885,0,0
0:1:21.401,131.085,16.6922,0,0.000885,0,0
0:1:21.798,131.903,16.7956,0,0.000885,0,0
0:1:22.200,132.375,16.8577,0,0.000885,0,0
0:1:22.596,133.313,16.9749,0,0.000885,0,0
0:1:23.002,133.607,17.0094,0,0.000885,0,0
0:1:23.408,134.603,17.1404,0,0.000885,0,0
0:1:23.811,135.542,17.2576,0,0.000885,0,0
0:1:24.215,136.129,17.3334,0,0.000885,0,0
0:1:24.613,137.419,17.4989,0,0.000885,0,0
0:1:25.008,138.064,17.5816,0,0.000885,0,0
0:1:25.408,138.767,17.6713,0,0.000885,0,0
0:1:25.807,139.176,17.7195,0,0.000885,0,0
0:1:26.205,140.35,17.8712,0,0.000885,0,0
0:1:26.603,141.231,17.9815,0,0.000885,0,0
0:1:26.999,141.698,18.0436,0,0.000885,0,0
0:1:27.400,142.227,18.1056,0,0.000885,0,0
0:1:27.799,142.637,18.1608,0,0.000885,0,0
0:1:28.205,143.633,18.2849,0,0.000885,0,0
0:1:28.609,144.75,18.4297,0,0.000885,0,0
0:1:29.013,145.573,18.5331,0,0.000885,0,0
0:1:29.416,146.391,18.6365,0,0.000885,0,0
0:1:29.815,147.156,18.7331,0,0.000885,0,0
0:1:30.210,148.032,18.8503,0,0.000885,0,0
0:1:30.608,148.797,18.9468,0,0.000885,0,0
0:1:31.008,149.852,19.0778,0,0.000885,0,0
0:1:31.407,150.381,19.1467,0,0.000885,0,0
0:1:31.804,151.377,19.2708,0,0.000885,0,0
0:1:32.201,151.965,19.3467,0,0.000885,0,0
0:1:32.601,153.019,19.4846,0,0.000885,0,0
0:1:33.004,153.49,19.5397,0,0.000885,0,0
0:1:33.411,154.429,19.6638,0,0.000885,0,0
0:1:33.815,154.838,19.7121,0,0.000885,0,0
0:1:34.217,155.657,19.8224,0,0.000885,0,0
0:1:34.618,156.595,19.9396,0,0.000885,0,0
0:1:35.018,157.596,20.0637,0,0.000885,0,0
0:1:35.415,158.415,20.1672,0,0.000885,0,0
0:1:35.812,159.589,20.3188,0,0.000885,0,0
0:1:36.209,159.762,20.3395,0,0.000885,0,0
0:1:36.609,160.643,20.4567,0,0.000885,0,0
0:1:37.007,161.582,20.574,0,0.000885,0,0
0:1:37.402,162.111,20.6429,0,0.000885,0,0
0:1:37.807,162.756,20.7256,0,0.000885,0,0
0:1:38.213,163.752,20.8497,0,0.000885,0,0
0:1:38.617,164.633,20.9601,0,0.000885,0,0
0:1:39.020,165.278,21.0428,0,0.000885,0,0
0:1:39.417,165.745,21.1049,0,0.000885,0,0
0:1:39.815,166.742,21.229,0,0.000885,0,0
0:1:40.215,167.449,21.3186,0,0.000885,0,0
0:1:40.613,168.094,21.4013,0,0.000885,0,0
0:1:41.010,169.148,21.5392,0,0.000885,0,0
0:1:41.406,170.202,21.6702,0,0.000885,0,0
0:1:41.806,170.91,21.7599,0,0.000885,0,0
0:1:42.205,171.844,21.8771,0,0.000885,0,0
0:1:42.602,172.315,21.9391,0,0.000885,0,0
0:1:43.009,173.018,22.0287,0,0.000885,0,0
0:1:43.414,174.077,22.1666,0,0.000885,0,0
0:1:43.817,174.895,22.2701,0,0.000885,0,0
0:1:44.218,175.718,22.3735,0,0.000885,0,0
0:1:44.615,176.127,22.4286,0,0.000885,0,0
0:1:45.012,177.302,22.5734,0,0.000885,0,0
0:1:45.413,178.298,22.7044,0,0.000885,0,0
0:1:45.812,179.179,22.8148,0,0.000885,0,0
0:1:46.208,180.233,22.9458,0,0.000885,0,0
0:1:46.604,180.411,22.9733,0,0.000885,0,0
0:1:47.001,181.287,23.0836,0,0.000885,0,0
0:1:47.403,181.759,23.1388,0,0.000885,0,0
0:1:47.800,181.932,23.1664,0,0.000885,0,0
0:1:48.207,183.049,23.3043,0,0.000885,0,0
0:1:48.612,183.694,23.387,0,0.000885,0,0
0:1:49.013,184.748,23.5249,0,0.000885,0,0
0:1:49.417,185.687,23.6421,0,0.000885,0,0
0:1:49.815,186.274,23.718,0,0.000885,0,0
0:1:50.211,187.742,23.9041,0,0.000885,0,0
0:1:50.611,188.387,23.9869,0,0.000885,0,0
0:1:51.010,188.796,24.0351,0,0.000885,0,0
0:1:51.408,189.267,24.0972,0,0.000885,0,0
0:1:51.805,190.144,24.2075,0,0.000885,0,0
0:1:52.201,190.673,24.2764,0,0.000885,0,0
0:1:52.603,192.021,24.4488,0,0.000885,0,0
0:1:53.000,192.608,24.5247,0,0.000885,0,0
0:1:53.404,193.724,24.6625,0,0.000885,0,0
0:1:53.805,194.427,24.7522,0,0.000885,0,0
0:1:54.206,194.952,24.8211,0,0.000885,0,0
0:1:54.604,196.011,24.959,0,0.000885,0,0
0:1:55.000,196.829,25.0624,0,0.000885,0,0
0:1:55.392,197.594,25.159,0,0.000885,0,0
0:1:55.787,198.355,25.2555,0,0.000885,0,0
0:1:56.185,199.472,25.4003,0,0.000885,0,0
0:1:56.580,199.587,25.4141,0,0.000885,0,0
0:1:56.974,200.117,25.4761,0,0.000885,0,0
0:1:57.368,201.286,25.6278,0,0.000885,0,0
0:1:57.767,201.758,25.6899,0,0.000885,0,0
0:1:58.170,202.754,25.814,0,0.000885,0,0
0:1:58.571,203.399,25.8967,0,0.000885,0,0
0:1:58.970,204.516,26.0415,0,0.000885,0,0
0:1:59.367,205.748,26.1932,0,0.000885,0,0
0:1:59.763,206.451,26.2828,0,0.000885,0,0
0:2:0.157,207.389,26.4069,0,0.000885,0,0
0:2:0.562,208.15,26.5034,0,0.000885,0,0
0:2:0.955,208.328,26.5241,0,0.000885,0,0
0:2:1.352,209.324,26.6551,0,0.000885,0,0
0:2:1.758,209.734,26.7034,0,0.000885,0,0
0:2:2.148,210.788,26.8413,0,0.000885,0,0
0:2:2.550,211.553,26.9378,0,0.000885,0,0
0:2:2.951,211.962,26.9861,0,0.000885,0,0
0:2:3.357,212.901,27.1102,0,0.000885,0,0
0:2:3.758,213.839,27.2274,0,0.000885,0,0
0:2:4.157,214.427,27.3032,0,0.000885,0,0
0:2:4.550,215.014,27.3791,0,0.000885,0,0
0:2:4.947,215.601,27.448,0,0.000885,0,0
0:2:5.351,216.597,27.579,0,0.000885,0,0
0:2:5.756,217.478,27.6893,0,0.000885,0,0
0:2:6.146,218.474,27.8135,0,0.000885,0,0
0:2:6.544,219.293,27.9238,0,0.000885,0,0
0:2:6.941,220.116,28.0272,0,0.000885,0,0
0:2:7.358,221.29,28.172,0,0.000885,0,0
0:2:7.761,222.287,28.303,0,0.000885,0,0
0:2:8.163,223.167,28.4133,0,0.000885,0,0
0:2:8.566,223.577,28.4685,0,0.000885,0,0
0:2:8.966,223.986,28.5167,0,0.000885,0,0
0:2:9.366,225.16,28.6684,0,0.000885,0,0
0:2:9.760,225.921,28.7649,0,0.000885,0,0
0:2:10.153,226.45,28.8339,0,0.000885,0,0
0:2:10.551,227.389,28.9511,0,0.000885,0,0
0:2:10.958,227.976,29.0269,0,0.000885,0,0
0:2:11.359,228.501,29.0959,0,0.000885,0,0
0:2:11.753,228.914,29.1441,0,0.000885,0,0
0:2:12.149,229.675,29.2407,0,0.000885,0,0
0:2:12.543,230.671,29.3717,0,0.000885,0,0
0:2:12.945,232.082,29.5509,0,0.000885,0,0
0:2:13.346,232.375,29.5854,0,0.000885,0,0
0:2:13.746,233.723,29.7578,0,0.000885,0,0
0:2:14.146,234.368,29.8405,0,0.000885,0,0
0:2:14.541,235.364,29.9646,0,0.000885,0,0
0:2:14.952,236.245,30.0818,0,0.000885,0,0
0:2:15.359,236.832,30.1508,0,0.000885,0,0
0:2:15.753,237.299,30.2128,0,0.000885,0,0
0:2:16.148,237.886,30.2887,0,0.000885,0,0
0:2:16.542,239.061,30.4404,0,0.000885,0,0
0:2:16.944,239.999,30.5576,0,0.000885,0,0
0:2:17.341,240.409,30.6127,0,0.000885,0,0
0:2:17.749,241.232,30.7161,0,0.000885,0,0
0:2:18.153,242.637,30.8954,0,0.000885,0,0
0:2:18.553,242.989,30.9368,0,0.000885,0,0
0:2:18.954,243.518,31.0057,0,0.000885,0,0
0:2:19.353,244.924,31.185,0,0.000885,0,0
0:2:19.761,244.866,31.1781,0,0.000885,0,0
0:2:20.153,246.098,31.3367,0,0.000885,0,0
0:2:20.559,246.979,31.447,0,0.000885,0,0
0:2:20.951,247.855,31.5573,0,0.000885,0,0
0:2:21.348,248.211,31.6056,0,0.000885,0,0
0:2:21.745,249.087,31.7159,0,0.000885,0,0
0:2:22.146,249.559,31.7779,0,0.000885,0,0
0:2:22.539,250.261,31.8676,0,0.000885,0,0
0:2:22.942,251.551,32.0261,0,0.000885,0,0
0:2:23.346,252.49,32.1503,0,0.000885,0,0
0:2:23.746,253.371,32.2606,0,0.000885,0,0
0:2:24.146,254.189,32.364,0,0.000885,0,0
0:2:24.549,254.954,32.4605,0,0.000885,0,0
0:2:24.958,255.835,32.5708,0,0.000885,0,0
0:2:25.363,256.244,32.626,0,0.000885,0,0
0:2:25.755,257.125,32.7363,0,0.000885,0,0
0:2:26.148,257.65,32.8053,0,0.000885,0,0
0:2:26.544,258.357,32.8949,0,0.000885,0,0
0:2:26.941,259.411,33.0259,0,0.000885,0,0
0:2:27.346,260.292,33.1431,0,0.000885,0,0
0:2:27.760,261.404,33.281,0,0.000885,0,0
0:2:28.161,262.169,33.3775,0,0.000885,0,0
0:2:28.562,263.046,33.4947,0,0.000885,0,0
0:2:28.964,263.166,33.5085,0,0.000885,0,0
0:2:29.365,264.456,33.674,0,0.000885,0,0
0:2:29.755,265.158,33.7636,0,0.000885,0,0
0:2:30.162,265.688,33.8257,0,0.000885,0,0
0:2:30.559,266.213,33.8946,0,0.000885,0,0
0:2:30.965,266.978,33.9912,0,0.000885,0,0
0:2:31.360,267.859,34.1015,0,0.000885,0,0
0:2:31.761,268.677,34.2118,0,0.000885,0,0
0:2:32.165,269.616,34.329,0,0.000885,0,0
0:2:32.564,270.496,34.4393,0,0.000885,0,0
0:2:32.958,271.319,34.5427,0,0.000885,0,0
0:2:33.361,272.253,34.6668,0,0.000885,0,0
0:2:33.763,272.841,34.7427,0,0.000885,0,0
0:2:34.165,273.837,34.8668,0,0.000885,0,0
0:2:34.565,274.66,34.9702,0,0.000885,0,0
0:2:34.968,275.011,35.0185,0,0.000885,0,0
0:2:35.361,276.128,35.1564,0,0.000885,0,0
0:2:35.753,277.182,35.2943,0,0.000885,0,0
0:2:36.151,277.711,35.3563,0,0.000885,0,0
0:2:36.547,278.588,35.4735,0,0.000885,0,0
0:2:36.949,279.353,35.5701,0,0.000885,0,0
0:2:37.343,279.882,35.6321,0,0.000885,0,0
0:2:37.745,280.527,35.7148,0,0.000885,0,0
0:2:38.148,281.523,35.8458,0,0.000885,0,0
0:2:38.547,282.342,35.9493,0,0.000885,0,0
0:2:38.946,282.987,36.032,0,0.000885,0,0
0:2:39.361,283.752,36.1285,0,0.000885,0,0
0:2:39.759,284.984,36.2871,0,0.000885,0,0
0:2:40.164,284.984,36.2871,0,0.000885,0,0
0:2:40.554,285.571,36.3629,0,0.000885,0,0
0:2:40.957,286.448,36.4733,0,0.000885,0,0
0:2:41.364,287.093,36.556,0,0.000885,0,0
0:2:41.762,288.209,36.6939,0,0.000885,0,0
0:2:42.154,289.028,36.7973,0,0.000885,0,0
0:2:42.557,290.028,36.9283,0,0.000885,0,0
0:2:42.956,291.256,37.0869,0,0.000885,0,0
0:2:43.362,292.079,37.1903,0,0.000885,0,0
0:2:43.762,292.96,37.3006,0,0.000885,0,0
0:2:44.162,293.311,37.3489,0,0.000885,0,0
0:2:44.555,294.25,37.4661,0,0.000885,0,0
0:2:44.953,295.011,37.5626,0,0.000885,0,0
0:2:45.361,295.655,37.6454,0,0.000885,0,0
0:2:45.751,296.127,37.7005,0,0.000885,0,0
0:2:46.145,296.945,37.8108,0,0.000885,0,0
0:2:46.540,298.24,37.9694,0,0.000885,0,0
0:2:46.938,298.649,38.0246,0,0.000885,0,0
0:2:47.343,299.352,38.1142,0,0.000885,0,0
0:2:47.744,300.175,38.2176,0,0.000885,0,0
0:2:48.146,301.051,38.328,0,0.000885,0,0
0:2:48.549,301.816,38.4314,0,0.000885,0,0
0:2:48.951,302.871,38.5624,0,0.000885,0,0
0:2:49.352,303.693,38.6658,0,0.000885,0,0
0:2:49.746,304.863,38.8175,0,0.000885,0,0
0:2:50.142,305.157,38.852,0,0.000885,0,0
0:2:50.547,305.571,38.9071,0,0.000885,0,0
0:2:50.952,305.864,38.9416,0,0.000885,0,0
0:2:51.346,306.74,39.0588,0,0.000885,0,0
0:2:51.741,307.679,39.176,0,0.000885,0,0
0:2:52.147,308.618,39.2932,0,0.000885,0,0
0:2:52.545,309.383,39.3897,0,0.000885,0,0
0:2:52.947,310.379,39.5207,0,0.000885,0,0
0:2:53.350,310.966,39.5966,0,0.000885,0,0
0:2:53.749,311.843,39.7069,0,0.000885,0,0
0:2:54.147,312.55,39.7965,0,0.000885,0,0
0:2:54.544,313.426,39.9069,0,0.000885,0,0
0:2:54.946,314.307,40.0172,0,0.000885,0,0
0:2:55.350,315.13,40.1206,0,0.000885,0,0
0:2:55.757,315.948,40.2309,0,0.000885,0,0
0:2:56.165,316.42,40.2861,0,0.000885,0,0
0:2:56.568,317.594,40.4378,0,0.000885,0,0
0:2:56.962,318.706,40.5756,0,0.000885,0,0
0:2:57.354,319.293,40.6515,0,0.000885,0,0
0:2:57.754,320.41,40.7963,0,0.000885,0,0
0:2:58.156,321.17,40.8928,0,0.000885,0,0
0:2:58.556,321.522,40.9342,0,0.000885,0,0
0:2:58.957,321.873,40.9824,0,0.000885,0,0
0:2:59.354,322.518,41.0652,0,0.000885,0,0
0:2:59.750,323.399,41.1755,0,0.000885,0,0
0:3:0.143,324.511,41.3203,0,0.000885,0,0
0:3:0.546,325.392,41.4306,0,0.000885,0,0
0:3:0.942,326.388,41.5547,0,0.000885,0,0
0:3:1.339,327.096,41.6443,0,0.000885,0,0
0:3:1.733,327.972,41.7615,0,0.000885,0,0
0:3:2.126,329.146,41.9063,0,0.000885,0,0
0:3:2.521,329.849,41.996,0,0.000885,0,0
0:3:2.920,330.614,42.0925,0,0.000885,0,0
0:3:3.322,331.139,42.1614,0,0.000885,0,0
0:3:3.724,332.198,42.2993,0,0.000885,0,0
0:3:4.125,332.665,42.3545,0,0.000885,0,0
0:3:4.523,333.43,42.451,0,0.000885,0,0
0:3:4.919,333.723,42.4924,0,0.000885,0,0
0:3:5.324,334.484,42.5889,0,0.000885,0,0
0:3:5.717,335.245,42.6854,0,0.000885,0,0
0:3:6.112,336.068,42.7889,0,0.000885,0,0
0:3:6.509,336.713,42.8716,0,0.000885,0,0
0:3:6.905,338.118,43.0509,0,0.000885,0,0
0:3:7.298,339.057,43.1681,0,0.000885,0,0
0:3:7.701,339.88,43.2715,0,0.000885,0,0
0:3:8.104,340.76,43.3887,0,0.000885,0,0
0:3:8.505,341.285,43.4508,0,0.000885,0,0
0:3:8.905,341.993,43.5404,0,0.000885,0,0
0:3:9.298,342.811,43.6507,0,0.000885,0,0
0:3:9.695,343.87,43.7817,0,0.000885,0,0
0:3:10.091,343.985,43.7955,0,0.000885,0,0
0:3:10.485,345.16,43.9472,0,0.000885,0,0
0:3:10.879,345.391,43.9748,0,0.000885,0,0
0:3:11.272,345.978,44.0506,0,0.000885,0,0
0:3:11.671,346.681,44.1402,0,0.000885,0,0
0:3:12.067,348.033,44.3126,0,0.000885,0,0
0:3:12.458,348.736,44.4022,0,0.000885,0,0
0:3:12.859,349.79,44.5401,0,0.000885,0,0
0:3:13.260,349.968,44.5608,0,0.000885,0,0
0:3:13.663,351.023,44.6918,0,0.000885,0,0
0:3:14.065,352.077,44.8297,0,0.000885,0,0
0:3:14.467,352.726,44.9124,0,0.000885,0,0
0:3:14.872,353.487,45.009,0,0.000885,0,0
0:3:15.268,354.247,45.1055,0,0.000885,0,0
0:3:15.664,355.013,45.202,0,0.000885,0,0
0:3:16.066,355.658,45.2848,0,0.000885,0,0
0:3:16.457,356.77,45.4227,0,0.000885,0,0
0:3:16.854,357.415,45.5054,0,0.000885,0,0
0:3:17.259,357.593,45.533,0,0.000885,0,0
0:3:17.654,358.883,45.6916,0,0.000885,0,0
0:3:18.056,359.879,45.8226,0,0.000885,0,0
0:3:18.457,360.582,45.9122,0,0.000885,0,0
0:3:18.858,361.053,45.9673,0,0.000885,0,0
0:3:19.258,361.872,46.0777,0,0.000885,0,0
0:3:19.660,362.988,46.2156,0,0.000885,0,0
0:3:20.053,363.985,46.3466,0,0.000885,0,0
0:3:20.458,364.514,46.4086,0,0.000885,0,0
0:3:20.855,365.159,46.4913,0,0.000885,0,0
0:3:21.271,366.213,46.6292,0,0.000885,0,0
0:3:21.664,366.685,46.6844,0,0.000885,0,0
0:3:22.056,367.503,46.7947,0,0.000885,0,0
0:3:22.454,368.384,46.905,0,0.000885,0,0
0:3:22.848,369.674,47.0705,0,0.000885,0,0
0:3:23.252,369.852,47.0912,0,0.000885,0,0
0:3:23.654,370.67,47.1946,0,0.000885,0,0
0:3:24.054,371.373,47.2842,0,0.000885,0,0
0:3:24.455,371.551,47.3049,0,0.000885,0,0
0:3:24.857,372.783,47.4635,0,0.000885,0,0
0:3:25.261,374.015,47.6221,0,0.000885,0,0
0:3:25.666,374.603,47.6979,0,0.000885,0,0
0:3:26.061,375.83,47.8496,0,0.000885,0,0
0:3:26.457,376.538,47.9392,0,0.000885,0,0
0:3:26.850,377.125,48.0151,0,0.000885,0,0
0:3:27.264,377.77,48.0978,0,0.000885,0,0
0:3:27.665,379.117,48.2702,0,0.000885,0,0
0:3:28.069,379.82,48.3598,0,0.000885,0,0
0:3:28.468,379.705,48.346,0,0.000885,0,0
0:3:28.869,381.052,48.5184,0,0.000885,0,0
0:3:29.261,381.582,48.5874,0,0.000885,0,0
0:3:29.659,382.52,48.7046,0,0.000885,0,0
0:3:30.056,383.045,48.7735,0,0.000885,0,0
0:3:30.459,383.984,48.8907,0,0.000885,0,0
0:3:30.862,384.571,48.9666,0,0.000885,0,0
0:3:31.268,385.981,49.1458,0,0.000885,0,0
0:3:31.667,387.209,49.3044,0,0.000885,0,0
0:3:32.069,387.738,49.3665,0,0.000885,0,0
0:3:32.460,388.147,49.4216,0,0.000885,0,0
0:3:32.862,388.677,49.4906,0,0.000885,0,0
0:3:33.266,389.731,49.6216,0,0.000885,0,0
0:3:33.667,391.021,49.787,0,0.000885,0,0
0:3:34.066,391.377,49.8284,0,0.000885,0,0
0:3:34.470,391.492,49.8491,0,0.000885,0,0
0:3:34.865,392.253,49.9456,0,0.000885,0,0
0:3:35.259,393.605,50.118,0,0.000885,0,0
0:3:35.666,394.015,50.1663,0,0.000885,0,0
0:3:36.058,395.247,50.3248,0,0.000885,0,0
0:3:36.449,396.065,50.4283,0,0.000885,0,0
0:3:36.846,396.946,50.5386,0,0.000885,0,0
0:3:37.243,397.591,50.6213,0,0.000885,0,0
0:3:37.655,397.769,50.642,0,0.000885,0,0
0:3:38.056,398.939,50.7937,0,0.000885,0,0
0:3:38.457,399.82,50.904,0,0.000885,0,0
0:3:38.857,400.642,51.0143,0,0.000885,0,0
0:3:39.257,401.639,51.1384,0,0.000885,0,0
0:3:39.659,401.754,51.1522,0,0.000885,0,0
0:3:40.062,403.044,51.3177,0,0.000885,0,0
0:3:40.459,404.045,51.4418,0,0.000885,0,0
0:3:40.866,404.455,51.4969,0,0.000885,0,0
0:3:41.259,405.509,51.6279,0,0.000885,0,0
0:3:41.651,406.505,51.7589,0,0.000885,0,0
0:3:42.063,406.505,51.7589,0,0.000885,0,0
0:3:42.462,407.622,51.8968,0,0.000885,0,0
0:3:42.870,408.676,52.0347,0,0.000885,0,0
0:3:43.272,408.969,52.0692,0,0.000885,0,0
0:3:43.674,410.317,52.2416,0,0.000885,0,0
0:3:44.073,410.259,52.2347,0,0.000885,0,0
0:3:44.471,411.549,52.4002,0,0.000885,0,0
0:3:44.868,412.252,52.4898,0,0.000885,0,0
0:3:45.271,413.547,52.6553,0,0.000885,0,0
0:3:45.662,414.365,52.7587,0,0.000885,0,0
0:3:46.069,415.068,52.8483,0,0.000885,0,0
0:3:46.467,415.655,52.9242,0,0.000885,0,0
0:3:46.859,416.3,53.0069,0,0.000885,0,0
0:3:47.260,416.887,53.0827,0,0.000885,0,0
0:3:47.663,417.942,53.2137,0,0.000885,0,0
0:3:48.067,419.058,53.3585,0,0.000885,0,0
0:3:48.463,419,53.3516,0,0.000885,0,0
0:3:48.867,420.699,53.5654,0,0.000885,0,0
0:3:49.258,420.815,53.5792,0,0.000885,0,0
0:3:49.663,421.522,53.6688,0,0.000885,0,0
0:3:50.061,422.225,53.7584,0,0.000885,0,0
0:3:50.469,423.337,53.9032,0,0.000885,0,0
0:3:50.872,423.924,53.9791,0,0.000885,0,0
0:3:51.263,425.041,54.1169,0,0.000885,0,0
0:3:51.658,425.508,54.179,0,0.000885,0,0
0:3:52.057,426.567,54.31,0,0.000885,0,0
0:3:52.460,427.563,54.441,0,0.000885,0,0
0:3:52.861,428.675,54.5789,0,0.000885,0,0
0:3:53.263,428.675,54.5789,0,0.000885,0,0
0:3:53.664,430.085,54.7582,0,0.000885,0,0
0:3:54.068,430.379,54.7995,0,0.000885,0,0
0:3:54.471,431.375,54.9236,0,0.000885,0,0
0:3:54.862,431.549,54.9443,0,0.000885,0,0
0:3:55.260,432.901,55.1167,0,0.000885,0,0
0:3:55.667,433.719,55.2201,0,0.000885,0,0
0:3:56.072,434.6,55.3373,0,0.000885,0,0
0:3:56.463,435.067,55.3925,0,0.000885,0,0
0:3:56.870,435.597,55.4614,0,0.000885,0,0
0:3:57.268,436.535,55.5786,0,0.000885,0,0
0:3:57.659,436.829,55.62,0,0.000885,0,0
0:3:58.064,438.47,55.8268,0,0.000885,0,0
0:3:58.465,438.942,55.8889,0,0.000885,0,0
0:3:58.864,439.702,55.9854,0,0.000885,0,0
0:3:59.268,440.877,56.1371,0,0.000885,0,0
0:3:59.660,441.637,56.2336,0,0.000885,0,0
0:4:0.062,442.634,56.3577,0,0.000885,0,0
0:4:0.459,443.341,56.4474,0,0.000885,0,0
0:4:0.864,443.75,56.5025,0,0.000885,0,0
0:4:1.259,444.747,56.6266,0,0.000885,0,0
0:4:1.654,445.334,56.7025,0,0.000885,0,0
0:4:2.048,445.979,56.7852,0,0.000885,0,0
0:4:2.445,447.269,56.9507,0,0.000885,0,0
0:4:2.842,447.504,56.9783,0,0.000885,0,0
0:4:3.246,448.501,57.1024,0,0.000885,0,0
0:4:3.648,449.675,57.2541,0,0.000885,0,0
0:4:4.047,449.969,57.2885,0,0.000885,0,0
0:4:4.445,450.2,57.323,0,0.000885,0,0
0:4:4.851,451.904,57.5367,0,0.000885,0,0
0:4:5.263,452.607,57.6264,0,0.000885,0,0
0:4:5.657,453.194,57.7022,0,0.000885,0,0
0:4:6.055,454.07,57.8125,0,0.000885,0,0
0:4:6.462,454.364,57.8539,0,0.000885,0,0
0:4:6.856,455.422,57.9849,0,0.000885,0,0
0:4:7.257,456.712,58.1504,0,0.000885,0,0
0:4:7.661,457.531,58.2538,0,0.000885,0,0
0:4:8.064,457.651,58.2676,0,0.000885,0,0
0:4:8.465,458.354,58.3572,0,0.000885,0,0
0:4:8.866,459.35,58.4882,0,0.000885,0,0
0:4:9.271,460.346,58.6123,0,0.000885,0,0
0:4:9.669,461.405,58.7502,0,0.000885,0,0
0:4:10.065,461.988,58.8192,0,0.000885,0,0
0:4:10.459,462.926,58.9433,0,0.000885,0,0
0:4:10.859,463.807,59.0536,0,0.000885,0,0
0:4:11.256,464.043,59.0812,0,0.000885,0,0
0:4:11.654,464.688,59.1639,0,0.000885,0,0
0:4:12.057,465.511,59.2673,0,0.000885,0,0
0:4:12.450,466.329,59.3776,0,0.000885,0,0
0:4:12.853,466.916,59.4466,0,0.000885,0,0
0:4:13.258,468.322,59.6259,0,0.000885,0,0
0:4:13.657,469.087,59.7293,0,0.000885,0,0
0:4:14.056,469.906,59.8327,0,0.000885,0,0
0:4:14.451,470.555,59.9154,0,0.000885,0,0
0:4:14.856,471.08,59.9775,0,0.000885,0,0
0:4:15.265,472.134,60.1154,0,0.000885,0,0
0:4:15.670,473.015,60.2257,0,0.000885,0,0
0:4:16.073,473.429,60.2809,0,0.000885,0,0
0:4:16.465,474.599,60.4257,0,0.000885,0,0
0:4:16.873,475.244,60.5084,0,0.000885,0,0
0:4:17.267,475.889,60.5911,0,0.000885,0,0
0:4:17.673,476.534,60.6739,0,0.000885,0,0
0:4:18.077,477.356,60.7773,0,0.000885,0,0
0:4:18.478,478.295,60.9014,0,0.000885,0,0
0:4:18.879,479.056,60.9979,0,0.000885,0,0
0:4:19.278,479.585,61.06,0,0.000885,0,0
0:4:19.673,480.581,61.191,0,0.000885,0,0
0:4:20.075,481.462,61.3013,0,0.000885,0,0
0:4:20.473,482.223,61.3978,0,0.000885,0,0
0:4:20.870,483.339,61.5426,0,0.000885,0,0
0:4:21.275,484.158,61.646,0,0.000885,0,0
0:4:21.667,485.159,61.7701,0,0.000885,0,0
0:4:22.061,485.51,61.8184,0,0.000885,0,0
0:4:22.459,486.213,61.908,0,0.000885,0,0
0:4:22.862,486.858,61.9908,0,0.000885,0,0
0:4:23.263,487.503,62.0735,0,0.000885,0,0
0:4:23.665,488.384,62.1838,0,0.000885,0,0
0:4:24.074,489.264,62.2941,0,0.000885,0,0
0:4:24.471,489.616,62.3424,0,0.000885,0,0
0:4:24.877,490.728,62.4803,0,0.000885,0,0
0:4:25.268,492.076,62.6527,0,0.000885,0,0
0:4:25.662,493.014,62.7699,0,0.000885,0,0
0:4:26.060,493.895,62.8871,0,0.000885,0,0
0:4:26.455,493.953,62.894,0,0.000885,0,0
0:4:26.847,494.598,62.9767,0,0.000885,0,0
0:4:27.242,495.714,63.1146,0,0.000885,0,0
0:4:27.641,496.008,63.156,0,0.000885,0,0
0:4:28.045,496.711,63.2456,0,0.000885,0,0
0:4:28.446,497.943,63.3973,0,0.000885,0,0
0:4:28.847,498.703,63.4938,0,0.000885,0,0
0:4:29.244,499.878,63.6455,0,0.000885,0,0
0:4:29.640,500.816,63.7627,0,0.000885,0,0
0:4:30.034,501.226,63.8179,0,0.000885,0,0
0:4:30.428,501.813,63.8937,0,0.000885,0,0
0:4:30.822,502.458,63.9765,0,0.000885,0,0
0:4:31.220,503.223,64.073,0,0.000885,0,0
0:4:31.616,504.219,64.1971,0,0.000885,0,0
0:4:32.009,504.806,64.2729,0,0.000885,0,0
0:4:32.402,505.976,64.4246,0,0.000885,0,0
0:4:32.804,506.799,64.528,0,0.000885,0,0
0:4:33.208,507.386,64.6039,0,0.000885,0,0
0:4:33.610,508.031,64.6866,0,0.000885,0,0
0:4:34.008,508.619,64.7625,0,0.000885,0,0
0:4:34.406,510.318,64.9762,0,0.000885,0,0
0:4:34.803,510.26,64.9693,0,0.000885,0,0
0:4:35.196,511.021,65.0658,0,0.000885,0,0
0:4:35.591,512.431,65.2451,0,0.000885,0,0
0:4:35.985,512.724,65.2796,0,0.000885,0,0
0:4:36.384,513.601,65.3968,0,0.000885,0,0
0:4:36.779,514.481,65.5071,0,0.000885,0,0
0:4:37.168,514.659,65.5278,0,0.000885,0,0
0:4:37.572,515.713,65.6657,0,0.000885,0,0
0:4:37.976,516.358,65.7415,0,0.000885,0,0
0:4:38.378,517.124,65.8449,0,0.000885,0,0
0:4:38.777,518.351,65.9966,0,0.000885,0,0
0:4:39.169,519.29,66.1207,0,0.000885,0,0
0:4:39.567,520.349,66.2517,0,0.000885,0,0
0:4:39.963,520.522,66.2724,0,0.000885,0,0
0:4:40.358,521.461,66.3965,0,0.000885,0,0
0:4:40.752,521.754,66.431,0,0.000885,0,0
0:4:41.165,522.928,66.5827,0,0.000885,0,0
0:4:41.564,523.689,66.6792,0,0.000885,0,0
0:4:41.972,524.392,66.7688,0,0.000885,0,0
0:4:42.374,525.099,66.8585,0,0.000885,0,0
0:4:42.777,525.86,66.955,0,0.000885,0,0
0:4:43.178,526.976,67.0998,0,0.000885,0,0
0:4:43.579,527.621,67.1756,0,0.000885,0,0
0:4:43.979,528.618,67.3066,0,0.000885,0,0
0:4:44.373,529.085,67.3687,0,0.000885,0,0
0:4:44.777,530.375,67.5273,0,0.000885,0,0
0:4:45.174,531.607,67.6858,0,0.000885,0,0
0:4:45.579,532.31,67.7755,0,0.000885,0,0
0:4:45.974,532.781,67.8375,0,0.000885,0,0
0:4:46.364,532.959,67.8582,0,0.000885,0,0
0:4:46.761,533.778,67.9616,0,0.000885,0,0
0:4:47.158,534.481,68.0513,0,0.000885,0,0
0:4:47.552,535.303,68.1547,0,0.000885,0,0
0:4:47.953,535.655,68.2029,0,0.000885,0,0
0:4:48.356,536.829,68.3477,0,0.000885,0,0
0:4:48.757,537.532,68.4374,0,0.000885,0,0
0:4:49.157,538.706,68.589,0,0.000885,0,0
0:4:49.552,539.525,68.6925,0,0.000885,0,0
0:4:49.954,540.406,68.8097,0,0.000885,0,0
0:4:50.354,541.286,68.92,0,0.000885,0,0
0:4:50.750,541.811,68.9889,0,0.000885,0,0
0:4:51.143,542.812,69.113,0,0.000885,0,0
0:4:51.538,543.751,69.2303,0,0.000885,0,0
0:4:51.932,544.218,69.2923,0,0.000885,0,0
0:4:52.330,545.041,69.3957,0,0.000885,0,0
0:4:52.726,545.743,69.4854,0,0.000885,0,0
0:4:53.129,546.21,69.5474,0,0.000885,0,0
0:4:53.533,547.033,69.6508,0,0.000885,0,0
0:4:53.934,548.208,69.8025,0,0.000885,0,0
0:4:54.336,549.084,69.9128,0,0.000885,0,0
0:4:54.729,549.262,69.9335,0,0.000885,0,0
0:4:55.123,550.201,70.0507,0,0.000885,0,0
0:4:55.519,551.023,70.1611,0,0.000885,0,0
0:4:55.915,551.958,70.2783,0,0.000885,0,0
0:4:56.312,552.545,70.3541,0,0.000885,0,0
0:4:56.707,553.719,70.4989,0,0.000885,0,0
0:4:57.101,553.955,70.5334,0,0.000885,0,0
0:4:57.503,554.951,70.6575,0,0.000885,0,0
0:4:57.908,555.832,70.7678,0,0.000885,0,0
0:4:58.308,556.65,70.8781,0,0.000885,0,0
0:4:58.709,557.647,71.0022,0,0.000885,0,0
0:4:59.102,558.234,71.0781,0,0.000885,0,0
0:4:59.498,558.706,71.1332,0,0.000885,0,0
0:4:59.897,559.586,71.2504,0,0.000885,0,0
0:5:0.291,560.289,71.3401,0,0.000885,0,0
0:5:0.684,560.814,71.4021,0,0.000885,0,0
0:5:1.079,562.108,71.5676,0,0.000885,0,0
0:5:1.476,562.985,71.6848,0,0.000885,0,0
0:5:1.870,563.75,71.7813,0,0.000885,0,0
0:5:2.265,564.688,71.8985,0,0.000885,0,0
0:5:2.669,565.213,71.9675,0,0.000885,0,0
0:5:3.070,565.858,72.0502,0,0.000885,0,0
0:5:3.470,566.566,72.1398,0,0.000885,0,0
0:5:3.875,567.442,72.2502,0,0.000885,0,0
0:5:4.266,568.265,72.3536,0,0.000885,0,0
0:5:4.659,569.025,72.4501,0,0.000885,0,0
0:5:5.067,570.258,72.6087,0,0.000885,0,0
0:5:5.475,570.96,72.6983,0,0.000885,0,0
0:5:5.867,571.841,72.8086,0,0.000885,0,0
0:5:6.261,572.37,72.8776,0,0.000885,0,0
0:5:6.666,573.193,72.981,0,0.000885,0,0
0:5:7.063,573.545,73.0224,0,0.000885,0,0
0:5:7.471,574.599,73.1603,0,0.000885,0,0
0:5:7.874,575.36,73.2568,0,0.000885,0,0
0:5:8.277,575.947,73.3326,0,0.000885,0,0
0:5:8.677,577.415,73.5188,0,0.000885,0,0
0:5:9.076,577.53,73.5326,0,0.000885,0,0
0:5:9.472,578.469,73.6498,0,0.000885,0,0
0:5:9.865,578.94,73.7119,0,0.000885,0,0
0:5:10.259,579.759,73.8153,0,0.000885,0,0
0:5:10.656,580.818,73.9532,0,0.000885,0,0
0:5:11.052,581.52,74.0428,0,0.000885,0,0
0:5:11.449,582.575,74.1738,0,0.000885,0,0
0:5:11.842,583.34,74.2703,0,0.000885,0,0
0:5:12.234,583.691,74.3186,0,0.000885,0,0
0:5:12.635,584.745,74.4496,0,0.000885,0,0
0:5:13.038,585.568,74.5599,0,0.000885,0,0
0:5:13.440,586.507,74.6771,0,0.000885,0,0
0:5:13.838,586.916,74.7254,0,0.000885,0,0
0:5:14.235,587.855,74.8495,0,0.000885,0,0
0:5:14.633,588.615,74.946,0,0.000885,0,0
0:5:15.027,589.554,75.0632,0,0.000885,0,0
0:5:15.419,590.257,75.1529,0,0.000885,0,0
0:5:15.816,591.373,75.2976,0,0.000885,0,0
0:5:16.215,591.725,75.339,0,0.000885,0,0
0:5:16.613,592.312,75.4149,0,0.000885,0,0
0:5:17.008,592.957,75.4976,0,0.000885,0,0
0:5:17.402,594.016,75.6355,0,0.000885,0,0
0:5:17.805,594.718,75.7251,0,0.000885,0,0
0:5:18.210,595.719,75.8492,0,0.000885,0,0
0:5:18.613,596.6,75.9595,0,0.000885,0,0
0:5:19.017,597.539,76.0836,0,0.000885,0,0
0:5:19.413,598.241,76.1733,0,0.000885,0,0
0:5:19.812,598.886,76.256,0,0.000885,0,0
0:5:20.212,599.3,76.3043,0,0.000885,0,0
0:5:20.607,600.47,76.456,0,0.000885,0,0
0:5:21.004,601.235,76.5525,0,0.000885,0,0
0:5:21.402,602.231,76.6766,0,0.000885,0,0
0:5:21.799,602.645,76.7318,0,0.000885,0,0
0:5:22.195,603.877,76.8903,0,0.000885,0,0
0:5:22.600,604.051,76.911,0,0.000885,0,0
0:5:23.005,605.052,77.0351,0,0.000885,0,0
0:5:23.406,606.226,77.1868,0,0.000885,0,0
0:5:23.808,606.342,77.2006,0,0.000885,0,0
0:5:24.203,607.107,77.2971,0,0.000885,0,0
0:5:24.600,608.103,77.4281,0,0.000885,0,0
0:5:24.997,609.099,77.5522,0,0.000885,0,0
0:5:25.397,609.922,77.6557,0,0.000885,0,0
0:5:25.793,610.745,77.7591,0,0.000885,0,0
0:5:26.186,611.155,77.8142,0,0.000885,0,0
0:5:26.584,611.92,77.9108,0,0.000885,0,0
0:5:26.984,612.916,78.0418,0,0.000885,0,0
0:5:27.380,613.855,78.159,0,0.000885,0,0
0:5:27.784,613.855,78.159,0,0.000885,0,0
0:5:28.187,615.207,78.3313,0,0.000885,0,0
0:5:28.590,615.852,78.4141,0,0.000885,0,0
0:5:28.995,616.906,78.5451,0,0.000885,0,0
0:5:29.390,617.965,78.683,0,0.000885,0,0
0:5:29.785,618.552,78.7588,0,0.000885,0,0
0:5:30.181,618.961,78.8071,0,0.000885,0,0
0:5:30.581,620.256,78.9725,0,0.000885,0,0
0:5:30.978,620.665,79.0277,0,0.000885,0,0
0:5:31.370,621.252,79.1036,0,0.000885,0,0
0:5:31.768,622.542,79.2621,0,0.000885,0,0
0:5:32.166,622.836,79.3035,0,0.000885,0,0
0:5:32.564,624.126,79.469,0,0.000885,0,0
0:5:32.967,624.361,79.4966,0,0.000885,0,0
0:5:33.369,625.656,79.662,0,0.000885,0,0
0:5:33.773,626.652,79.7861,0,0.000885,0,0
0:5:34.175,626.826,79.8068,0,0.000885,0,0
0:5:34.571,627.826,79.9378,0,0.000885,0,0
0:5:34.967,628.236,79.993,0,0.000885,0,0
0:5:35.362,629.41,80.1378,0,0.000885,0,0
0:5:35.761,629.939,80.2067,0,0.000885,0,0
0:5:36.168,631.114,80.3584,0,0.000885,0,0
0:5:36.563,631.287,80.3791,0,0.000885,0,0
0:5:36.959,631.937,80.4618,0,0.000885,0,0
0:5:37.363,633.111,80.6066,0,0.000885,0,0
0:5:37.768,634.165,80.7445,0,0.000885,0,0
0:5:38.169,634.637,80.8066,0,0.000885,0,0
0:5:38.570,635.811,80.9513,0,0.000885,0,0
0:5:38.965,636.514,81.041,0,0.000885,0,0
0:5:39.366,637.452,81.1651,0,0.000885,0,0
0:5:39.764,637.862,81.2133,0,0.000885,0,0
0:5:40.160,638.862,81.3443,0,0.000885,0,0
0:5:40.565,639.387,81.4064,0,0.000885,0,0
0:5:40.963,640.21,81.5167,0,0.000885,0,0
0:5:41.363,641.327,81.6546,0,0.000885,0,0
0:5:41.780,641.62,81.696,0,0.000885,0,0
0:5:42.173,642.91,81.8615,0,0.000885,0,0
0:5:42.575,643.675,81.958,0,0.000885,0,0
0:5:42.982,643.911,81.9856,0,0.000885,0,0
0:5:43.385,645.023,82.1303,0,0.000885,0,0
0:5:43.787,645.668,82.2062,0,0.000885,0,0
0:5:44.184,646.669,82.3372,0,0.000885,0,0
0:5:44.582,647.492,82.4406,0,0.000885,0,0
0:5:44.979,648.955,82.6268,0,0.000885,0,0
0:5:45.373,648.955,82.6268,0,0.000885,0,0
0:5:45.769,649.369,82.6819,0,0.000885,0,0
0:5:46.173,650.895,82.875,0,0.000885,0,0
0:5:46.573,651.949,83.006,0,0.000885,0,0
0:5:46.971,652.185,83.0405,0,0.000885,0,0
0:5:47.375,653.008,83.1439,0,0.000885,0,0
0:5:47.780,653.537,83.2128,0,0.000885,0,0
0:5:48.184,654.124,83.2887,0,0.000885,0,0
0:5:48.587,655.414,83.4472,0,0.000885,0,0
0:5:48.990,656.179,83.5438,0,0.000885,0,0
0:5:49.385,656.531,83.592,0,0.000885,0,0
0:5:49.781,657.291,83.6886,0,0.000885,0,0
0:5:50.177,658.466,83.8402,0,0.000885,0,0
0:5:50.575,659.524,83.9712,0,0.000885,0,0
0:5:50.982,660.579,84.1091,0,0.000885,0,0
0:5:51.374,660.872,84.1436,0,0.000885,0,0
0:5:51.775,661.695,84.247,0,0.000885,0,0
0:5:52.173,662.754,84.3849,0,0.000885,0,0
0:5:52.577,663.399,84.4677,0,0.000885,0,0
0:5:52.980,664.102,84.5573,0,0.000885,0,0
0:5:53.382,664.511,84.6056,0,0.000885,0,0
0:5:53.781,665.454,84.7297,0,0.000885,0,0
0:5:54.181,666.45,84.8538,0,0.000885,0,0
0:5:54.576,667.273,84.9572,0,0.000885,0,0
0:5:54.971,667.683,85.0124,0,0.000885,0,0
0:5:55.377,668.679,85.1365,0,0.000885,0,0
0:5:55.775,669.386,85.2261,0,0.000885,0,0
0:5:56.173,669.973,85.3019,0,0.000885,0,0
0:5:56.568,670.561,85.3778,0,0.000885,0,0
0:5:56.962,671.379,85.4812,0,0.000885,0,0
0:5:57.366,672.086,85.5708,0,0.000885,0,0
0:5:57.771,673.318,85.7294,0,0.000885,0,0
0:5:58.173,674.141,85.8328,0,0.000885,0,0
0:5:58.576,675.138,85.9638,0,0.000885,0,0
0:5:58.972,676.192,86.0948,0,0.000885,0,0
0:5:59.371,676.548,86.1431,0,0.000885,0,0
0:5:59.781,677.366,86.2465,0,0.000885,0,0
0:6:0.185,677.896,86.3155,0,0.000885,0,0
0:6:0.582,678.598,86.4051,0,0.000885,0,0
0:6:0.976,679.012,86.4534,0,0.000885,0,0
0:6:1.377,680.244,86.6119,0,0.000885,0,0
0:6:1.785,680.654,86.6671,0,0.000885,0,0
0:6:2.177,681.712,86.7981,0,0.000885,0,0
0:6:2.584,682.473,86.8946,0,0.000885,0,0
0:6:2.988,683.647,87.0463,0,0.000885,0,0
0:6:3.390,684.297,87.129,0,0.000885,0,0
0:6:3.790,685.173,87.2394,0,0.000885,0,0
0:6:4.185,685.76,87.3152,0,0.000885,0,0
0:6:4.584,686.347,87.391,0,0.000885,0,0
0:6:4.983,687.228,87.5014,0,0.000885,0,0
0:6:5.390,688.109,87.6117,0,0.000885,0,0
0:6:5.786,689.755,87.8254,0,0.000885,0,0
0:6:6.178,690.106,87.8668,0,0.000885,0,0
0:6:6.577,690.929,87.9702,0,0.000885,0,0
0:6:6.977,691.632,88.0598,0,0.000885,0,0
0:6:7.373,692.335,88.1495,0,0.000885,0,0
0:6:7.775,692.69,88.1977,0,0.000885,0,0
0:6:8.181,693.567,88.3081,0,0.000885,0,0
0:6:8.583,693.98,88.3632,0,0.000885,0,0
0:6:8.985,694.803,88.4666,0,0.000885,0,0
0:6:9.381,695.978,88.6114,0,0.000885,0,0
0:6:9.774,697.619,88.8252,0,0.000885,0,0
0:6:10.173,698.264,88.9079,0,0.000885,0,0
0:6:10.583,697.97,88.8665,0,0.000885,0,0
0:6:10.990,698.736,88.9631,0,0.000885,0,0
0:6:11.385,700.555,89.1975,0,0.000885,0,0
0:6:11.778,701.2,89.2802,0,0.000885,0,0
0:6:12.175,701.2,89.2802,0,0.000885,0,0
0:6:12.576,702.783,89.4802,0,0.000885,0,0
0:6:12.984,703.958,89.6318,0,0.000885,0,0
0:6:13.388,704.487,89.7008,0,0.000885,0,0
0:6:13.790,704.896,89.7491,0,0.000885,0,0
0:6:14.190,705.835,89.8732,0,0.000885,0,0
0:6:14.589,706.542,89.9628,0,0.000885,0,0
0:6:14.984,707.539,90.0869,0,0.000885,0,0
0:6:15.389,708.535,90.211,0,0.000885,0,0
0:6:15.783,708.01,90.149,0,0.000885,0,0
0:6:16.184,708.891,90.2593,0,0.000885,0,0
0:6:16.582,710.417,90.4523,0,0.000885,0,0
0:6:16.986,711.707,90.6178,0,0.000885,0,0
0:6:17.382,712.058,90.6592,0,0.000885,0,0
0:6:17.786,712.236,90.6867,0,0.000885,0,0
0:6:18.192,712.823,90.7626,0,0.000885,0,0
0:6:18.594,713.819,90.8867,0,0.000885,0,0
0:6:18.997,714.936,91.0315,0,0.000885,0,0
0:6:19.392,715.287,91.0728,0,0.000885,0,0
0:6:19.789,716.64,91.2452,0,0.000885,0,0
0:6:20.188,717.694,91.3762,0,0.000885,0,0
0:6:20.586,717.872,91.4038,0,0.000885,0,0
0:6:20.989,719.162,91.5693,0,0.000885,0,0
0:6:21.385,719.865,91.6589,0,0.000885,0,0
0:6:21.785,720.22,91.7003,0,0.000885,0,0
0:6:22.183,721.92,91.9209,0,0.000885,0,0
0:6:22.589,721.978,91.9278,0,0.000885,0,0
0:6:22.993,723.503,92.1209,0,0.000885,0,0
0:6:23.396,724.384,92.2312,0,0.000885,0,0
0:6:23.797,724.326,92.2243,0,0.000885,0,0
0:6:24.195,725.149,92.3277,0,0.000885,0,0
0:6:24.590,726.79,92.5414,0,0.000885,0,0
0:6:24.984,726.145,92.4587,0,0.000885,0,0
0:6:25.379,727.849,92.6724,0,0.000885,0,0
0:6:25.780,728.436,92.7483,0,0.000885,0,0
0:6:26.176,728.143,92.7069,0,0.000885,0,0
0:6:26.570,730.256,92.9758,0,0.000885,0,0
0:6:26.987,729.962,92.9413,0,0.000885,0,0
0:6:27.390,732.311,93.2378,0,0.000885,0,0
0:6:27.796,731.724,93.1689,0,0.000885,0,0
0:6:28.198,733.779,93.4309,0,0.000885,0,0
0:6:28.600,734.481,93.5205,0,0.000885,0,0
0:6:28.996,734.366,93.4998,0,0.000885,0,0
0:6:29.397,735.362,93.6308,0,0.000885,0,0
0:6:29.793,736.537,93.7756,0,0.000885,0,0
0:6:30.188,736.652,93.7963,0,0.000885,0,0
0:6:30.584,738.182,93.9893,0,0.000885,0,0
0:6:30.984,738.827,94.0721,0,0.000885,0,0
0:6:31.380,739.237,94.1203,0,0.000885,0,0
0:6:31.775,740.295,94.2582,0,0.000885,0,0
0:6:32.170,740.527,94.2858,0,0.000885,0,0
0:6:32.575,742.288,94.5133,0,0.000885,0,0
0:6:32.978,741.995,94.472,0,0.000885,0,0
0:6:33.384,743.462,94.6581,0,0.000885,0,0
0:6:33.786,743.934,94.7202,0,0.000885,0,0
0:6:34.180,745.34,94.8994,0,0.000885,0,0
0:6:34.580,745.633,94.9339,0,0.000885,0,0
0:6:34.988,745.927,94.9753,0,0.000885,0,0
0:6:35.386,747.688,95.1959,0,0.000885,0,0
0:6:35.789,747.395,95.1614,0,0.000885,0,0
0:6:36.187,748.689,95.3269,0,0.000885,0,0
0:6:36.587,750.33,95.5338,0,0.000885,0,0
0:6:36.981,750.451,95.5475,0,0.000885,0,0
0:6:37.387,750.918,95.6096,0,0.000885,0,0
0:6:37.791,751.62,95.6992,0,0.000885,0,0
0:6:38.196,753.324,95.913,0,0.000885,0,0
0:6:38.599,753.151,95.8923,0,0.000885,0,0
0:6:39.001,754.383,96.0509,0,0.000885,0,0
0:6:39.395,755.379,96.175,0,0.000885,0,0
0:6:39.795,755.321,96.1681,0,0.000885,0,0
0:6:40.194,757.314,96.4232,0,0.000885,0,0
0:6:40.589,757.199,96.4094,0,0.000885,0,0
0:6:40.985,758.431,96.568,0,0.000885,0,0
0:6:41.380,759.369,96.6852,0,0.000885,0,0
0:6:41.779,759.076,96.6507,0,0.000885,0,0
0:6:42.177,760.544,96.8369,0,0.000885,0,0
0:6:42.585,761.954,97.0161,0,0.000885,0,0
0:6:42.989,761.602,96.9679,0,0.000885,0,0
0:6:43.391,763.128,97.1678,0,0.000885,0,0
0:6:43.795,764.36,97.3195,0,0.000885,0,0
0:6:44.190,763.479,97.2092,0,0.000885,0,0
0:6:44.582,764.538,97.3471,0,0.000885,0,0
0:6:44.990,765.828,97.5057,0,0.000885,0,0
0:6:45.389,766.589,97.6022,0,0.000885,0,0
0:6:45.788,767.647,97.7401,0,0.000885,0,0
0:6:46.181,768.47,97.8435,0,0.000885,0,0
0:6:46.587,769.582,97.9883,0,0.000885,0,0
0:6:46.987,770.641,98.1193,0,0.000885,0,0
0:6:47.387,771.464,98.2227,0,0.000885,0,0
0:6:47.791,771.464,98.2227,0,0.000885,0,0
0:6:48.195,772.576,98.3675,0,0.000885,0,0
0:6:48.597,773.457,98.4778,0,0.000885,0,0
0:6:48.995,772.638,98.3744,0,0.000885,0,0
0:6:49.395,774.28,98.5812,0,0.000885,0,0
0:6:49.790,775.338,98.7191,0,0.000885,0,0
0:6:50.186,776.219,98.8295,0,0.000885,0,0
0:6:50.583,777.038,98.9329,0,0.000885,0,0
0:6:50.981,777.861,99.0432,0,0.000885,0,0
0:6:51.390,778.977,99.1811,0,0.000885,0,0
0:6:51.783,779.035,99.188,0,0.000885,0,0
0:6:52.181,780.151,99.3328,0,0.000885,0,0
0:6:52.582,781.619,99.5189,0,0.000885,0,0
0:6:52.989,781.557,99.512,0,0.000885,0,0
0:6:53.391,782.909,99.6844,0,0.000885,0,0
0:6:53.795,783.554,99.7671,0,0.000885,0,0
0:6:54.192,784.257,99.8568,0,0.000885,0,0
0:6:54.591,784.906,99.9395,0,0.000885,0,0
0:6:54.987,785.609,100.029,0,0.000885,0,0
0:6:55.379,786.139,100.091,0,0.000885,0,0
0:6:55.776,786.312,100.119,0,0.000885,0,0
0:6:55.945,786.548,100.146,0,0.000885,0,0