File: DataFile2021-07-17_043308.csv
Test ID:,Date Tested:,Time:,Test Type:,Diameter Avg. (mm):,Cyl. Corr. Factor:,Height (mm):,Age (days):,Weight (kN):,Break Type:,Ramp Rate (MPa/s):,Load at Break (kN):,Stress at Break (MPa):
12,7/17/2021,04:33,Cylinder,100,1,200,0,3.6,3,0.25,1225.03,155.97
Sample Time,Load (kN),Stress (MPa),Long. Strain,Trans. Strain,Chan1 Deflection (mm),Chan2 Deflection (mm)
0:0:19.131,5.21776,0.661897,0,0.000885,0,0
0:0:19.723,8.74076,1.11006,0,0.000885,0,0
0:0:20.333,8.97206,1.14453,0,0.000885,0,0
0:0:20.926,9.14999,1.16521,0,0.000885,0,0
0:0:21.534,9.67933,1.23416,0,0.000885,0,0
0:0:22.126,10.2042,1.29621,0,0.000885,0,0
0:0:22.732,11.6143,1.47548,0,0.000885,0,0
0:0:23.327,12.9621,1.64785,0,0.000885,0,0
0:0:23.935,14.43,1.83401,0,0.000885,0,0
0:0:24.533,15.1328,1.92364,0,0.000885,0,0
0:0:25.141,16.0136,2.04085,0,0.000885,0,0
0:0:25.745,16.8899,2.15116,0,0.000885,0,0
0:0:26.346,18.767,2.39248,0,0.000885,0,0
0:0:26.943,20.057,2.55106,0,0.000885,0,0
0:0:27.542,21.7607,2.77169,0,0.000885,0,0
0:0:28.140,23.2242,2.95785,0,0.000885,0,0
0:0:28.737,24.5141,3.12333,0,0.000885,0,0
0:0:29.333,25.5728,3.25433,0,0.000885,0,0
0:0:29.938,26.5114,3.37843,0,0.000885,0,0
0:0:30.545,27.6235,3.51633,0,0.000885,0,0
0:0:31.151,29.3271,3.73696,0,0.000885,0,0
0:0:31.748,29.6785,3.77833,0,0.000885,0,0
0:0:32.342,30.9685,3.9438,0,0.000885,0,0
0:0:32.939,32.3163,4.11617,0,0.000885,0,0
0:0:33.537,33.1971,4.22649,0,0.000885,0,0
0:0:34.135,34.6605,4.41264,0,0.000885,0,0
0:0:34.741,35.5991,4.52986,0,0.000885,0,0
0:0:35.347,36.5377,4.65396,0,0.000885,0,0
0:0:35.951,38.0634,4.84701,0,0.000885,0,0
0:0:36.549,39.1221,4.97801,0,0.000885,0,0
0:0:37.146,40.6434,5.17796,0,0.000885,0,0
0:0:37.744,42.1113,5.36412,0,0.000885,0,0
0:0:38.341,42.872,5.46065,0,0.000885,0,0
0:0:38.939,43.8105,5.57786,0,0.000885,0,0
0:0:39.538,45.0427,5.73644,0,0.000885,0,0
0:0:40.145,46.1014,5.86744,0,0.000885,0,0
0:0:40.751,47.8584,6.09497,0,0.000885,0,0
0:0:41.348,48.9749,6.23286,0,0.000885,0,0
0:0:41.945,49.9713,6.36386,0,0.000885,0,0
0:0:42.543,51.0255,6.49486,0,0.000885,0,0
0:0:43.140,52.1421,6.63965,0,0.000885,0,0
0:0:43.735,52.9027,6.73618,0,0.000885,0,0
0:0:44.328,54.8955,6.99128,0,0.000885,0,0
0:0:44.938,56.3056,7.17055,0,0.000885,0,0
0:0:45.543,57.3598,7.30155,0,0.000885,0,0
0:0:46.148,58.6498,7.46702,0,0.000885,0,0
0:0:46.746,59.704,7.60492,0,0.000885,0,0
0:0:47.339,60.3535,7.68076,0,0.000885,0,0
0:0:47.936,61.5812,7.83934,0,0.000885,0,0
0:0:48.536,62.582,7.97034,0,0.000885,0,0
0:0:49.143,63.9877,8.1496,0,0.000885,0,0
0:0:49.741,65.7492,8.37024,0,0.000885,0,0
0:0:50.351,66.7456,8.50124,0,0.000885,0,0
0:0:50.955,67.3906,8.57708,0,0.000885,0,0
0:0:51.552,68.6805,8.74255,0,0.000885,0,0
0:0:52.151,69.6191,8.86666,0,0.000885,0,0
0:0:52.749,71.4384,9.09418,0,0.000885,0,0
0:0:53.348,72.0834,9.17692,0,0.000885,0,0
0:0:53.944,73.1955,9.32171,0,0.000885,0,0
0:0:54.543,74.3698,9.4665,0,0.000885,0,0
0:0:55.152,75.424,9.6044,0,0.000885,0,0
0:0:55.759,77.4168,9.8595,0,0.000885,0,0
0:0:56.358,78.1241,9.94913,0,0.000885,0,0
0:0:56.955,79.8233,10.1629,0,0.000885,0,0
0:0:57.550,80.584,10.2594,0,0.000885,0,0
0:0:58.147,81.5848,10.3904,0,0.000885,0,0
0:0:58.742,82.1675,10.4593,0,0.000885,0,0
0:0:59.340,84.107,10.7076,0,0.000885,0,0
0:0:59.948,85.5126,10.8868,0,0.000885,0,0
0:1:0.555,86.4512,11.004,0,0.000885,0,0
0:1:1.157,87.6255,11.1557,0,0.000885,0,0
0:1:1.753,88.6219,11.2867,0,0.000885,0,0
0:1:2.350,89.9119,11.4453,0,0.000885,0,0
0:1:2.949,91.2597,11.6177,0,0.000885,0,0
0:1:3.548,92.1405,11.7349,0,0.000885,0,0
0:1:4.144,94.0176,11.9693,0,0.000885,0,0
0:1:4.743,94.6048,12.0451,0,0.000885,0,0
0:1:5.352,95.659,12.183,0,0.000885,0,0
0:1:5.957,96.949,12.3416,0,0.000885,0,0
0:1:6.556,98.4747,12.5416,0,0.000885,0,0
0:1:7.153,99.1775,12.6243,0,0.000885,0,0
0:1:7.750,100,12.7346,0,0.000885,0,0
0:1:8.348,102.229,13.0173,0,0.000885,0,0
0:1:8.943,103.168,13.1345,0,0.000885,0,0
0:1:9.546,104.164,13.2655,0,0.000885,0,0
0:1:10.152,105.276,13.4034,0,0.000885,0,0
0:1:10.756,106.566,13.5689,0,0.000885,0,0
0:1:11.355,107.389,13.6723,0,0.000885,0,0
0:1:11.950,108.563,13.824,0,0.000885,0,0
0:1:12.547,109.618,13.955,0,0.000885,0,0
0:1:13.142,111.259,14.1687,0,0.000885,0,0
0:1:13.741,112.549,14.3273,0,0.000885,0,0
0:1:14.340,113.314,14.4307,0,0.000885,0,0
0:1:14.949,114.84,14.6238,0,0.000885,0,0
0:1:15.554,115.894,14.7548,0,0.000885,0,0
0:1:16.154,117.357,14.9409,0,0.000885,0,0
0:1:16.750,118.123,15.0375,0,0.000885,0,0
0:1:17.349,119.47,15.2098,0,0.000885,0,0
0:1:17.947,120.467,15.3408,0,0.000885,0,0
0:1:18.546,121.757,15.4994,0,0.000885,0,0
0:1:19.141,123.047,15.6649,0,0.000885,0,0
0:1:19.742,123.985,15.789,0,0.000885,0,0
0:1:20.350,125.338,15.9614,0,0.000885,0,0
0:1:20.956,126.098,16.0579,0,0.000885,0,0
0:1:21.554,127.797,16.2716,0,0.000885,0,0
0:1:22.153,128.856,16.4095,0,0.000885,0,0
0:1:22.751,130.32,16.5957,0,0.000885,0,0
0:1:23.346,131.61,16.7543,0,0.000885,0,0
0:1:23.941,132.081,16.8163,0,0.000885,0,0
0:1:24.539,133.9,17.0507,0,0.000885,0,0
0:1:25.146,134.367,17.1059,0,0.000885,0,0
0:1:25.753,135.07,17.1955,0,0.000885,0,0
0:1:26.358,137.535,17.5127,0,0.000885,0,0
0:1:26.953,138.3,17.6092,0,0.000885,0,0
0:1:27.549,139.705,17.7885,0,0.000885,0,0
0:1:28.147,140.528,17.8919,0,0.000885,0,0
0:1:28.745,141.347,17.9953,0,0.000885,0,0
0:1:29.343,142.872,18.1884,0,0.000885,0,0
0:1:29.951,143.633,18.2849,0,0.000885,0,0
0:1:30.557,145.63,18.54,0,0.000885,0,0
0:1:31.156,146.627,18.671,0,0.000885,0,0
0:1:31.754,147.975,18.8434,0,0.000885,0,0
0:1:32.353,149.442,19.0295,0,0.000885,0,0
0:1:32.949,149.616,19.0502,0,0.000885,0,0
0:1:33.548,151.142,19.2433,0,0.000885,0,0
0:1:34.142,152.08,19.3605,0,0.000885,0,0
0:1:34.746,153.019,19.4846,0,0.000885,0,0
0:1:35.353,154.896,19.719,0,0.000885,0,0
0:1:35.957,156.422,19.919,0,0.000885,0,0
0:1:36.554,157.125,20.0086,0,0.000885,0,0
0:1:37.149,158.415,20.1672,0,0.000885,0,0
0:1:37.746,159.411,20.2982,0,0.000885,0,0
0:1:38.340,160.176,20.3947,0,0.000885,0,0
0:1:38.940,161.582,20.574,0,0.000885,0,0
0:1:39.536,162.929,20.7463,0,0.000885,0,0
0:1:40.144,164.162,20.9049,0,0.000885,0,0
0:1:40.749,165.278,21.0428,0,0.000885,0,0
0:1:41.350,166.684,21.2221,0,0.000885,0,0
0:1:41.949,167.271,21.2979,0,0.000885,0,0
0:1:42.547,168.854,21.4979,0,0.000885,0,0
0:1:43.145,170.265,21.6771,0,0.000885,0,0
0:1:43.740,171.319,21.815,0,0.000885,0,0
0:1:44.346,172.724,21.9943,0,0.000885,0,0
0:1:44.951,173.547,22.0977,0,0.000885,0,0
0:1:45.556,174.659,22.2356,0,0.000885,0,0
0:1:46.161,176.012,22.408,0,0.000885,0,0
0:1:46.758,177.182,22.5596,0,0.000885,0,0
0:1:47.354,178.414,22.7182,0,0.000885,0,0
0:1:47.948,179.53,22.8561,0,0.000885,0,0
0:1:48.547,180.7,23.0078,0,0.000885,0,0
0:1:49.145,182.052,23.1802,0,0.000885,0,0
0:1:49.744,182.64,23.256,0,0.000885,0,0
0:1:50.353,183.987,23.4284,0,0.000885,0,0
0:1:50.958,185.393,23.6076,0,0.000885,0,0
0:1:51.558,186.509,23.7455,0,0.000885,0,0
0:1:52.155,187.742,23.9041,0,0.000885,0,0
0:1:52.753,188.974,24.0627,0,0.000885,0,0
0:1:53.351,190.322,24.2351,0,0.000885,0,0
0:1:53.944,191.496,24.3799,0,0.000885,0,0
0:1:54.547,191.785,24.4212,0,0.000885,0,0
0:1:55.152,193.195,24.6005,0,0.000885,0,0
0:1:55.753,194.663,24.7867,0,0.000885,0,0
0:1:56.347,196.011,24.959,0,0.000885,0,0
0:1:56.936,196.949,25.0762,0,0.000885,0,0
0:1:57.527,198.413,25.2624,0,0.000885,0,0
0:1:58.129,199.939,25.4554,0,0.000885,0,0
0:1:58.725,200.584,25.5382,0,0.000885,0,0
0:1:59.329,202.167,25.7381,0,0.000885,0,0
0:1:59.933,203.515,25.9105,0,0.000885,0,0
0:2:0.533,204.044,25.9794,0,0.000885,0,0
0:2:1.148,205.628,26.1794,0,0.000885,0,0
0:2:1.742,206.393,26.2759,0,0.000885,0,0
0:2:2.333,207.683,26.4414,0,0.000885,0,0
0:2:2.936,208.853,26.5931,0,0.000885,0,0
0:2:3.538,210.379,26.7861,0,0.000885,0,0
0:2:4.130,211.789,26.9654,0,0.000885,0,0
0:2:4.730,212.371,27.0412,0,0.000885,0,0
0:2:5.333,214.249,27.2826,0,0.000885,0,0
0:2:5.934,214.427,27.3032,0,0.000885,0,0
0:2:6.549,215.774,27.4756,0,0.000885,0,0
0:2:7.138,217.416,27.6825,0,0.000885,0,0
0:2:7.730,218.296,27.7928,0,0.000885,0,0
0:2:8.342,219.471,27.9445,0,0.000885,0,0
0:2:8.946,220.997,28.1375,0,0.000885,0,0
0:2:9.538,222.109,28.2823,0,0.000885,0,0
0:2:10.144,223.692,28.4822,0,0.000885,0,0
0:2:10.743,224.337,28.565,0,0.000885,0,0
0:2:11.337,225.218,28.6753,0,0.000885,0,0
0:2:11.937,226.686,28.8615,0,0.000885,0,0
0:2:12.531,227.624,28.9787,0,0.000885,0,0
0:2:13.133,228.736,29.1235,0,0.000885,0,0
0:2:13.738,230.378,29.3303,0,0.000885,0,0
0:2:14.338,231.259,29.4475,0,0.000885,0,0
0:2:14.935,232.669,29.6268,0,0.000885,0,0
0:2:15.540,234.368,29.8405,0,0.000885,0,0
0:2:16.138,235.129,29.937,0,0.000885,0,0
0:2:16.743,235.422,29.9784,0,0.000885,0,0
0:2:17.347,237.829,30.2818,0,0.000885,0,0
0:2:17.938,238.589,30.3783,0,0.000885,0,0
0:2:18.528,239.47,30.4886,0,0.000885,0,0
0:2:19.138,240.876,30.6679,0,0.000885,0,0
0:2:19.743,241.699,30.7713,0,0.000885,0,0
0:2:20.345,242.815,30.9161,0,0.000885,0,0
0:2:20.944,244.163,31.0885,0,0.000885,0,0
0:2:21.545,245.395,31.247,0,0.000885,0,0
0:2:22.145,245.982,31.316,0,0.000885,0,0
0:2:22.734,247.681,31.5366,0,0.000885,0,0
0:2:23.339,248.442,31.6331,0,0.000885,0,0
0:2:23.939,249.968,31.8262,0,0.000885,0,0
0:2:24.534,251.258,31.9917,0,0.000885,0,0
0:2:25.138,252.548,32.1571,0,0.000885,0,0
0:2:25.738,253.606,32.2881,0,0.000885,0,0
0:2:26.335,254.776,32.4398,0,0.000885,0,0
0:2:26.937,255.835,32.5708,0,0.000885,0,0
0:2:27.552,257.183,32.7432,0,0.000885,0,0
0:2:28.146,258.531,32.9156,0,0.000885,0,0
0:2:28.737,259.296,33.0121,0,0.000885,0,0
0:2:29.336,261.168,33.2534,0,0.000885,0,0
0:2:29.933,262.463,33.4189,0,0.000885,0,0
0:2:30.537,262.988,33.4878,0,0.000885,0,0
0:2:31.137,264.046,33.6188,0,0.000885,0,0
0:2:31.730,265.101,33.7567,0,0.000885,0,0
0:2:32.325,266.448,33.9222,0,0.000885,0,0
0:2:32.936,267.565,34.067,0,0.000885,0,0
0:2:33.547,269.5,34.3152,0,0.000885,0,0
0:2:34.150,270.906,34.4945,0,0.000885,0,0
0:2:34.753,271.141,34.522,0,0.000885,0,0
0:2:35.354,272.609,34.7082,0,0.000885,0,0
0:2:35.953,273.428,34.8116,0,0.000885,0,0
0:2:36.553,275.247,35.0461,0,0.000885,0,0
0:2:37.146,275.892,35.1288,0,0.000885,0,0
0:2:37.750,277.24,35.3012,0,0.000885,0,0
0:2:38.345,278.65,35.4804,0,0.000885,0,0
0:2:38.946,280.171,35.6735,0,0.000885,0,0
0:2:39.539,280.994,35.7769,0,0.000885,0,0
0:2:40.145,281.875,35.8872,0,0.000885,0,0
0:2:40.742,283.401,36.0803,0,0.000885,0,0
0:2:41.348,284.633,36.2388,0,0.000885,0,0
0:2:41.951,285.278,36.3216,0,0.000885,0,0
0:2:42.552,286.096,36.425,0,0.000885,0,0
0:2:43.151,287.8,36.6456,0,0.000885,0,0
0:2:43.740,288.854,36.7766,0,0.000885,0,0
0:2:44.334,289.557,36.8663,0,0.000885,0,0
0:2:44.938,290.905,37.0386,0,0.000885,0,0
0:2:45.539,292.195,37.2041,0,0.000885,0,0
0:2:46.148,293.605,37.3834,0,0.000885,0,0
0:2:46.748,294.895,37.5488,0,0.000885,0,0
0:2:47.350,295.891,37.673,0,0.000885,0,0
0:2:47.943,297.181,37.8384,0,0.000885,0,0
0:2:48.536,298.591,38.0177,0,0.000885,0,0
0:2:49.148,299.468,38.128,0,0.000885,0,0
0:2:49.754,301.407,38.3762,0,0.000885,0,0
0:2:50.356,301.345,38.3693,0,0.000885,0,0
0:2:50.958,303.106,38.59,0,0.000885,0,0
0:2:51.550,303.809,38.6796,0,0.000885,0,0
0:2:52.151,305.864,38.9416,0,0.000885,0,0
0:2:52.739,306.74,39.0588,0,0.000885,0,0
0:2:53.353,307.915,39.2036,0,0.000885,0,0
0:2:53.943,310.086,39.4794,0,0.000885,0,0
0:2:54.547,310.846,39.5759,0,0.000885,0,0
0:2:55.150,311.669,39.6862,0,0.000885,0,0
0:2:55.750,312.078,39.7345,0,0.000885,0,0
0:2:56.355,313.546,39.9206,0,0.000885,0,0
0:2:56.944,314.721,40.0723,0,0.000885,0,0
0:2:57.550,315.659,40.1895,0,0.000885,0,0
0:2:58.141,317.768,40.4584,0,0.000885,0,0
0:2:58.734,318.764,40.5894,0,0.000885,0,0
0:2:59.344,319.293,40.6515,0,0.000885,0,0
0:2:59.956,321.113,40.8859,0,0.000885,0,0
0:3:0.555,322.109,41.01,0,0.000885,0,0
0:3:1.156,323.515,41.1893,0,0.000885,0,0
0:3:1.749,324.044,41.2582,0,0.000885,0,0
0:3:2.348,325.743,41.472,0,0.000885,0,0
0:3:2.949,326.802,41.6099,0,0.000885,0,0
0:3:3.551,327.798,41.734,0,0.000885,0,0
0:3:4.143,328.853,41.8719,0,0.000885,0,0
0:3:4.744,330.2,42.0442,0,0.000885,0,0
0:3:5.350,331.433,42.2028,0,0.000885,0,0
0:3:5.951,333.074,42.4097,0,0.000885,0,0
0:3:6.554,333.723,42.4924,0,0.000885,0,0
0:3:7.145,334.484,42.5889,0,0.000885,0,0
0:3:7.749,335.832,42.7613,0,0.000885,0,0
0:3:8.352,337.709,42.9957,0,0.000885,0,0
0:3:8.954,338.999,43.1612,0,0.000885,0,0
0:3:9.544,339.293,43.2025,0,0.000885,0,0
0:3:10.151,340.996,43.4163,0,0.000885,0,0
0:3:10.752,341.873,43.5266,0,0.000885,0,0
0:3:11.345,342.869,43.6576,0,0.000885,0,0
0:3:11.937,343.87,43.7817,0,0.000885,0,0
0:3:12.531,346.036,44.0575,0,0.000885,0,0
0:3:13.129,346.45,44.1127,0,0.000885,0,0
0:3:13.719,348.327,44.3471,0,0.000885,0,0
0:3:14.311,348.678,44.3953,0,0.000885,0,0
0:3:14.913,350.026,44.5677,0,0.000885,0,0
0:3:15.517,351.374,44.7401,0,0.000885,0,0
0:3:16.117,352.197,44.8435,0,0.000885,0,0
0:3:16.710,353.723,45.0366,0,0.000885,0,0
0:3:17.300,355.244,45.2296,0,0.000885,0,0
0:3:17.891,356.303,45.3675,0,0.000885,0,0
0:3:18.483,357.828,45.5606,0,0.000885,0,0
0:3:19.076,358.295,45.6226,0,0.000885,0,0
0:3:19.670,359.763,45.8088,0,0.000885,0,0
0:3:20.275,360.35,45.8777,0,0.000885,0,0
0:3:20.876,361.992,46.0915,0,0.000885,0,0
0:3:21.470,363.046,46.2225,0,0.000885,0,0
0:3:22.063,364.865,46.4569,0,0.000885,0,0
0:3:22.657,365.684,46.5603,0,0.000885,0,0
0:3:23.252,366.565,46.6706,0,0.000885,0,0
0:3:23.854,368.148,46.8775,0,0.000885,0,0
0:3:24.446,369.265,47.0153,0,0.000885,0,0
0:3:25.054,369.732,47.0774,0,0.000885,0,0
0:3:25.653,370.964,47.236,0,0.000885,0,0
0:3:26.247,372.018,47.367,0,0.000885,0,0
0:3:26.851,374.247,47.6497,0,0.000885,0,0
0:3:27.456,374.776,47.7186,0,0.000885,0,0
0:3:28.044,376.124,47.891,0,0.000885,0,0
0:3:28.656,377.65,48.084,0,0.000885,0,0
0:3:29.246,378.882,48.2426,0,0.000885,0,0
0:3:29.853,378.94,48.2495,0,0.000885,0,0
0:3:30.454,380.701,48.4701,0,0.000885,0,0
0:3:31.053,381.697,48.6011,0,0.000885,0,0
0:3:31.644,382.814,48.739,0,0.000885,0,0
0:3:32.235,383.926,48.8838,0,0.000885,0,0
0:3:32.836,385.688,49.1045,0,0.000885,0,0
0:3:33.439,386.977,49.2699,0,0.000885,0,0
0:3:34.042,387.796,49.3734,0,0.000885,0,0
0:3:34.638,389.028,49.5319,0,0.000885,0,0
0:3:35.242,390.438,49.7112,0,0.000885,0,0
0:3:35.842,391.083,49.7939,0,0.000885,0,0
0:3:36.434,391.902,49.8974,0,0.000885,0,0
0:3:37.028,393.957,50.1594,0,0.000885,0,0
0:3:37.622,394.717,50.2559,0,0.000885,0,0
0:3:38.216,396.007,50.4214,0,0.000885,0,0
0:3:38.807,396.946,50.5386,0,0.000885,0,0
0:3:39.401,397.942,50.6696,0,0.000885,0,0
0:3:40.006,398.587,50.7523,0,0.000885,0,0
0:3:40.607,399.877,50.9109,0,0.000885,0,0
0:3:41.202,401.99,51.1798,0,0.000885,0,0
0:3:41.795,403.107,51.3246,0,0.000885,0,0
0:3:42.390,404.397,51.49,0,0.000885,0,0
0:3:42.980,405.567,51.6417,0,0.000885,0,0
0:3:43.571,406.096,51.7038,0,0.000885,0,0
0:3:44.163,407.857,51.9313,0,0.000885,0,0
0:3:44.766,408.734,52.0416,0,0.000885,0,0
0:3:45.370,409.966,52.2002,0,0.000885,0,0
0:3:45.970,410.904,52.3174,0,0.000885,0,0
0:3:46.563,412.608,52.5381,0,0.000885,0,0
0:3:47.154,413.484,52.6484,0,0.000885,0,0
0:3:47.755,414.192,52.738,0,0.000885,0,0
0:3:48.347,415.833,52.9448,0,0.000885,0,0
0:3:48.941,417.065,53.1034,0,0.000885,0,0
0:3:49.537,418.119,53.2344,0,0.000885,0,0
0:3:50.141,419.409,53.3999,0,0.000885,0,0
0:3:50.742,420.112,53.4895,0,0.000885,0,0
0:3:51.344,421.58,53.6757,0,0.000885,0,0
0:3:51.945,422.519,53.7998,0,0.000885,0,0
0:3:52.547,424.102,53.9997,0,0.000885,0,0
0:3:53.142,425.157,54.1307,0,0.000885,0,0
0:3:53.744,426.74,54.3376,0,0.000885,0,0
0:3:54.347,427.269,54.3996,0,0.000885,0,0
0:3:54.953,428.733,54.5858,0,0.000885,0,0
0:3:55.553,429.672,54.7099,0,0.000885,0,0
0:3:56.147,430.61,54.8271,0,0.000885,0,0
0:3:56.740,432.487,55.0684,0,0.000885,0,0
0:3:57.354,433.777,55.2339,0,0.000885,0,0
0:3:57.956,434.778,55.358,0,0.000885,0,0
0:3:58.545,435.597,55.4614,0,0.000885,0,0
0:3:59.137,436.829,55.62,0,0.000885,0,0
0:3:59.742,438.412,55.82,0,0.000885,0,0
0:4:0.343,439.644,55.9785,0,0.000885,0,0
0:4:0.941,440.232,56.0544,0,0.000885,0,0
0:4:1.534,441.873,56.2612,0,0.000885,0,0
0:4:2.126,443.047,56.4129,0,0.000885,0,0
0:4:2.718,443.808,56.5094,0,0.000885,0,0
0:4:3.312,444.804,56.6335,0,0.000885,0,0
0:4:3.906,446.566,56.8611,0,0.000885,0,0
0:4:4.502,447.856,57.0196,0,0.000885,0,0
0:4:5.104,448.616,57.1231,0,0.000885,0,0
0:4:5.707,449.675,57.2541,0,0.000885,0,0
0:4:6.301,450.965,57.4195,0,0.000885,0,0
0:4:6.895,452.135,57.5712,0,0.000885,0,0
0:4:7.487,453.425,57.7298,0,0.000885,0,0
0:4:8.082,454.835,57.9091,0,0.000885,0,0
0:4:8.676,455.774,58.0332,0,0.000885,0,0
0:4:9.270,456.654,58.1435,0,0.000885,0,0
0:4:9.873,458.118,58.3296,0,0.000885,0,0
0:4:10.474,459.234,58.4744,0,0.000885,0,0
0:4:11.069,460.698,58.6606,0,0.000885,0,0
0:4:11.661,461.169,58.7158,0,0.000885,0,0
0:4:12.251,462.459,58.8812,0,0.000885,0,0
0:4:12.863,463.571,59.026,0,0.000885,0,0
0:4:13.455,465.097,59.2191,0,0.000885,0,0
0:4:14.047,466.156,59.3501,0,0.000885,0,0
0:4:14.650,467.326,59.5018,0,0.000885,0,0
0:4:15.252,468.851,59.6948,0,0.000885,0,0
0:4:15.851,469.968,59.8396,0,0.000885,0,0
0:4:16.453,470.671,59.9292,0,0.000885,0,0
0:4:17.056,472.254,60.1292,0,0.000885,0,0
0:4:17.659,473.309,60.2671,0,0.000885,0,0
0:4:18.252,474.541,60.4188,0,0.000885,0,0
0:4:18.858,475.657,60.5635,0,0.000885,0,0
0:4:19.449,477.179,60.7566,0,0.000885,0,0
0:4:20.057,477.766,60.8324,0,0.000885,0,0
0:4:20.659,479.349,61.0324,0,0.000885,0,0
0:4:21.260,480.346,61.1565,0,0.000885,0,0
0:4:21.853,481.578,61.3151,0,0.000885,0,0
0:4:22.447,482.516,61.4392,0,0.000885,0,0
0:4:23.051,483.869,61.6047,0,0.000885,0,0
0:4:23.643,485.274,61.7839,0,0.000885,0,0
0:4:24.252,486.506,61.9425,0,0.000885,0,0
0:4:24.858,488.09,62.1424,0,0.000885,0,0
0:4:25.460,488.851,62.2459,0,0.000885,0,0
0:4:26.063,489.496,62.3217,0,0.000885,0,0
0:4:26.657,491.493,62.5768,0,0.000885,0,0
0:4:27.245,492.254,62.6733,0,0.000885,0,0
0:4:27.838,493.428,62.825,0,0.000885,0,0
0:4:28.430,494.304,62.9353,0,0.000885,0,0
0:4:29.026,496.008,63.156,0,0.000885,0,0
0:4:29.631,496.768,63.2525,0,0.000885,0,0
0:4:30.232,498.058,63.418,0,0.000885,0,0
0:4:30.829,499.642,63.6179,0,0.000885,0,0
0:4:31.424,500.287,63.7007,0,0.000885,0,0
0:4:32.018,501.577,63.8661,0,0.000885,0,0
0:4:32.612,502.929,64.0316,0,0.000885,0,0
0:4:33.205,503.223,64.073,0,0.000885,0,0
0:4:33.796,504.744,64.266,0,0.000885,0,0
0:4:34.395,506.448,64.4798,0,0.000885,0,0
0:4:34.999,507.444,64.6108,0,0.000885,0,0
0:4:35.603,508.792,64.7831,0,0.000885,0,0
0:4:36.199,509.909,64.921,0,0.000885,0,0
0:4:36.792,511.492,65.1279,0,0.000885,0,0
0:4:37.385,511.901,65.1761,0,0.000885,0,0
0:4:37.976,513.543,65.383,0,0.000885,0,0
0:4:38.572,514.539,65.514,0,0.000885,0,0
0:4:39.165,515.42,65.6243,0,0.000885,0,0
0:4:39.770,517.181,65.8518,0,0.000885,0,0
0:4:40.373,518.236,65.9828,0,0.000885,0,0
0:4:40.971,519.704,66.169,0,0.000885,0,0
0:4:41.562,519.997,66.2104,0,0.000885,0,0
0:4:42.163,521.051,66.3414,0,0.000885,0,0
0:4:42.758,522.577,66.5344,0,0.000885,0,0
0:4:43.351,523.631,66.6723,0,0.000885,0,0
0:4:43.946,524.979,66.8447,0,0.000885,0,0
0:4:44.551,526.269,67.0101,0,0.000885,0,0
0:4:45.152,527.559,67.1687,0,0.000885,0,0
0:4:45.755,528.854,67.3342,0,0.000885,0,0
0:4:46.362,529.788,67.4583,0,0.000885,0,0
0:4:46.965,531.14,67.6238,0,0.000885,0,0
0:4:47.560,532.194,67.7617,0,0.000885,0,0
0:4:48.161,533.311,67.8996,0,0.000885,0,0
0:4:48.761,534.249,68.0237,0,0.000885,0,0
0:4:49.365,535.655,68.2029,0,0.000885,0,0
0:4:49.965,536.829,68.3477,0,0.000885,0,0
0:4:50.567,538.177,68.5201,0,0.000885,0,0
0:4:51.160,539.116,68.6442,0,0.000885,0,0
0:4:51.760,540.406,68.8097,0,0.000885,0,0
0:4:52.363,541.228,68.9131,0,0.000885,0,0
0:4:52.953,542.105,69.0234,0,0.000885,0,0
0:4:53.548,544.218,69.2923,0,0.000885,0,0
0:4:54.141,545.272,69.4233,0,0.000885,0,0
0:4:54.744,546.331,69.5612,0,0.000885,0,0
0:4:55.345,547.327,69.6853,0,0.000885,0,0
0:4:55.942,548.208,69.8025,0,0.000885,0,0
0:4:56.535,549.671,69.9887,0,0.000885,0,0
0:4:57.127,551.255,70.1886,0,0.000885,0,0
0:4:57.723,552.545,70.3541,0,0.000885,0,0
0:4:58.315,553.252,70.4437,0,0.000885,0,0
0:4:58.912,554.191,70.5609,0,0.000885,0,0
0:4:59.516,555.538,70.7333,0,0.000885,0,0
0:5:0.117,556.241,70.8229,0,0.000885,0,0
0:5:0.710,558.118,71.0643,0,0.000885,0,0
0:5:1.305,559.408,71.2228,0,0.000885,0,0
0:5:1.899,560.405,71.3538,0,0.000885,0,0
0:5:2.493,561.695,71.5193,0,0.000885,0,0
0:5:3.084,563.105,71.6986,0,0.000885,0,0
0:5:3.674,563.63,71.7606,0,0.000885,0,0
0:5:4.275,564.453,71.8709,0,0.000885,0,0
0:5:4.879,565.507,72.002,0,0.000885,0,0
0:5:5.481,567.268,72.2295,0,0.000885,0,0
0:5:6.074,568.501,72.3812,0,0.000885,0,0
0:5:6.666,569.733,72.5397,0,0.000885,0,0
0:5:7.257,571.08,72.7121,0,0.000885,0,0
0:5:7.847,571.841,72.8086,0,0.000885,0,0
0:5:8.452,573.073,72.9672,0,0.000885,0,0
0:5:9.046,574.363,73.1327,0,0.000885,0,0
0:5:9.650,575.538,73.2775,0,0.000885,0,0
0:5:10.251,576.476,73.4016,0,0.000885,0,0
0:5:10.848,577.588,73.5395,0,0.000885,0,0
0:5:11.452,578.878,73.705,0,0.000885,0,0
0:5:12.045,580.11,73.8635,0,0.000885,0,0
0:5:12.641,581.756,74.0704,0,0.000885,0,0
0:5:13.233,582.868,74.2152,0,0.000885,0,0
0:5:13.826,583.985,74.3531,0,0.000885,0,0
0:5:14.422,584.567,74.4289,0,0.000885,0,0
0:5:15.027,586.271,74.6495,0,0.000885,0,0
0:5:15.627,587.09,74.753,0,0.000885,0,0
0:5:16.222,587.913,74.8564,0,0.000885,0,0
0:5:16.818,589.674,75.077,0,0.000885,0,0
0:5:17.413,590.613,75.2011,0,0.000885,0,0
0:5:18.009,591.729,75.339,0,0.000885,0,0
0:5:18.603,592.783,75.4769,0,0.000885,0,0
0:5:19.209,594.367,75.6769,0,0.000885,0,0
0:5:19.814,595.777,75.8561,0,0.000885,0,0
0:5:20.419,596.186,75.9113,0,0.000885,0,0
0:5:21.014,597.481,76.0768,0,0.000885,0,0
0:5:21.607,598.655,76.2215,0,0.000885,0,0
0:5:22.204,600.296,76.4353,0,0.000885,0,0
0:5:22.802,602.116,76.6628,0,0.000885,0,0
0:5:23.398,602.587,76.7249,0,0.000885,0,0
0:5:23.993,603.997,76.9041,0,0.000885,0,0
0:5:24.603,605.167,77.0558,0,0.000885,0,0
0:5:25.205,606.11,77.173,0,0.000885,0,0
0:5:25.805,606.871,77.2695,0,0.000885,0,0
0:5:26.401,607.987,77.4143,0,0.000885,0,0
0:5:26.997,609.335,77.5798,0,0.000885,0,0
0:5:27.591,610.394,77.7177,0,0.000885,0,0
0:5:28.184,612.155,77.9452,0,0.000885,0,0
0:5:28.780,613.094,78.0624,0,0.000885,0,0
0:5:29.388,614.148,78.1934,0,0.000885,0,0
0:5:29.993,615.091,78.3175,0,0.000885,0,0
0:5:30.596,616.439,78.4899,0,0.000885,0,0
0:5:31.200,618.085,78.6968,0,0.000885,0,0
0:5:31.794,619.259,78.8484,0,0.000885,0,0
0:5:32.391,620.429,78.9932,0,0.000885,0,0
0:5:32.990,621.252,79.1036,0,0.000885,0,0
0:5:33.585,622.191,79.2208,0,0.000885,0,0
0:5:34.184,623.716,79.4138,0,0.000885,0,0
0:5:34.793,625.242,79.6069,0,0.000885,0,0
0:5:35.398,625.891,79.6896,0,0.000885,0,0
0:5:35.995,627.004,79.8344,0,0.000885,0,0
0:5:36.592,628.356,80.0068,0,0.000885,0,0
0:5:37.188,628.943,80.0826,0,0.000885,0,0
0:5:37.780,630.647,80.2963,0,0.000885,0,0
0:5:38.375,631.643,80.4204,0,0.000885,0,0
0:5:38.971,632.639,80.5514,0,0.000885,0,0
0:5:39.579,634.107,80.7376,0,0.000885,0,0
0:5:40.185,635.339,80.8962,0,0.000885,0,0
0:5:40.785,636.634,81.0617,0,0.000885,0,0
0:5:41.380,638.097,81.2478,0,0.000885,0,0
0:5:41.975,639.156,81.3788,0,0.000885,0,0
0:5:42.572,639.628,81.4409,0,0.000885,0,0
0:5:43.169,641.211,81.6408,0,0.000885,0,0
0:5:43.767,642.208,81.7718,0,0.000885,0,0
0:5:44.374,643.56,81.9373,0,0.000885,0,0
0:5:44.979,645.086,82.1372,0,0.000885,0,0
0:5:45.577,645.788,82.2269,0,0.000885,0,0
0:5:46.174,647.256,82.413,0,0.000885,0,0
0:5:46.771,648.488,82.5716,0,0.000885,0,0
0:5:47.365,649.721,82.7233,0,0.000885,0,0
0:5:47.970,650.837,82.8681,0,0.000885,0,0
0:5:48.561,651.718,82.9784,0,0.000885,0,0
0:5:49.167,653.537,83.2128,0,0.000885,0,0
0:5:49.774,653.831,83.2473,0,0.000885,0,0
0:5:50.376,655.414,83.4472,0,0.000885,0,0
0:5:50.972,656.882,83.6403,0,0.000885,0,0
0:5:51.569,657.883,83.7644,0,0.000885,0,0
0:5:52.161,658.879,83.8885,0,0.000885,0,0
0:5:52.755,659.996,84.0333,0,0.000885,0,0
0:5:53.374,661.58,84.2332,0,0.000885,0,0
0:5:53.970,662.167,84.3091,0,0.000885,0,0
0:5:54.578,664.044,84.5504,0,0.000885,0,0
0:5:55.183,664.689,84.6331,0,0.000885,0,0
0:5:55.783,666.45,84.8538,0,0.000885,0,0
0:5:56.378,667.038,84.9296,0,0.000885,0,0
0:5:56.975,667.976,85.0468,0,0.000885,0,0
0:5:57.572,669.738,85.2744,0,0.000885,0,0
0:5:58.168,670.734,85.3985,0,0.000885,0,0
0:5:58.767,671.908,85.5501,0,0.000885,0,0
0:5:59.375,673.376,85.7363,0,0.000885,0,0
0:5:59.978,674.084,85.8259,0,0.000885,0,0
0:6:0.576,675.316,85.9845,0,0.000885,0,0
0:6:1.173,676.841,86.1776,0,0.000885,0,0
0:6:1.769,677.722,86.2879,0,0.000885,0,0
0:6:2.362,679.19,86.474,0,0.000885,0,0
0:6:2.958,680.364,86.6257,0,0.000885,0,0
0:6:3.551,681.183,86.7292,0,0.000885,0,0
0:6:4.157,682.299,86.8739,0,0.000885,0,0
0:6:4.762,683.474,87.0256,0,0.000885,0,0
0:6:5.368,684.648,87.1704,0,0.000885,0,0
0:6:5.962,686.058,87.3497,0,0.000885,0,0
0:6:6.556,686.939,87.4669,0,0.000885,0,0
0:6:7.149,688.58,87.6737,0,0.000885,0,0
0:6:7.745,689.639,87.8047,0,0.000885,0,0
0:6:8.343,690.635,87.9357,0,0.000885,0,0
0:6:8.940,691.867,88.0943,0,0.000885,0,0
0:6:9.547,693.042,88.2391,0,0.000885,0,0
0:6:10.150,694.394,88.4115,0,0.000885,0,0
0:6:10.759,695.858,88.5976,0,0.000885,0,0
0:6:11.355,696.68,88.7011,0,0.000885,0,0
0:6:11.951,697.913,88.8596,0,0.000885,0,0
0:6:12.548,698.736,88.9631,0,0.000885,0,0
0:6:13.152,699.616,89.0803,0,0.000885,0,0
0:6:13.756,701.493,89.3147,0,0.000885,0,0
0:6:14.368,702.432,89.4388,0,0.000885,0,0
0:6:14.974,703.664,89.5905,0,0.000885,0,0
0:6:15.578,704.607,89.7146,0,0.000885,0,0
0:6:16.175,706.075,89.9007,0,0.000885,0,0
0:6:16.771,707.539,90.0869,0,0.000885,0,0
0:6:17.363,708.597,90.2248,0,0.000885,0,0
0:6:17.958,710.007,90.4041,0,0.000885,0,0
0:6:18.565,710.301,90.4385,0,0.000885,0,0
0:6:19.176,711.769,90.6247,0,0.000885,0,0
0:6:19.779,713.001,90.7833,0,0.000885,0,0
0:6:20.382,714.233,90.9418,0,0.000885,0,0
0:6:20.977,715.287,91.0728,0,0.000885,0,0
0:6:21.571,717.107,91.3073,0,0.000885,0,0
0:6:22.166,717.93,91.4107,0,0.000885,0,0
0:6:22.762,718.753,91.5141,0,0.000885,0,0
0:6:23.359,720.163,91.6934,0,0.000885,0,0
0:6:23.955,721.043,91.8037,0,0.000885,0,0
0:6:24.564,722.685,92.0174,0,0.000885,0,0
0:6:25.169,723.566,92.1277,0,0.000885,0,0
0:6:25.764,724.682,92.2725,0,0.000885,0,0
0:6:26.363,726.088,92.4518,0,0.000885,0,0
0:6:26.958,727.324,92.6035,0,0.000885,0,0
0:6:27.564,728.436,92.7483,0,0.000885,0,0
0:6:28.159,729.375,92.8655,0,0.000885,0,0
0:6:28.753,731.314,93.1137,0,0.000885,0,0
0:6:29.357,731.666,93.162,0,0.000885,0,0
0:6:29.961,733.076,93.3412,0,0.000885,0,0
0:6:30.564,734.072,93.4653,0,0.000885,0,0
0:6:31.159,735.54,93.6515,0,0.000885,0,0
0:6:31.755,736.888,93.8239,0,0.000885,0,0
0:6:32.350,737.711,93.9273,0,0.000885,0,0
0:6:32.943,739.063,94.0996,0,0.000885,0,0
0:6:33.541,740.469,94.2789,0,0.000885,0,0
0:6:34.148,741.643,94.4306,0,0.000885,0,0
0:6:34.753,742.35,94.5202,0,0.000885,0,0
0:6:35.353,743.169,94.6236,0,0.000885,0,0
0:6:35.948,745.224,94.8856,0,0.000885,0,0
0:6:36.543,745.931,94.9753,0,0.000885,0,0
0:6:37.140,747.279,95.1477,0,0.000885,0,0
0:6:37.735,748.573,95.3131,0,0.000885,0,0
0:6:38.332,749.806,95.4648,0,0.000885,0,0
0:6:38.929,750.98,95.6165,0,0.000885,0,0
0:6:39.537,751.798,95.7199,0,0.000885,0,0
0:6:40.140,753.324,95.9199,0,0.000885,0,0
0:6:40.738,754.792,96.106,0,0.000885,0,0
0:6:41.335,755.499,96.1957,0,0.000885,0,0
0:6:41.931,756.554,96.3267,0,0.000885,0,0
0:6:42.526,757.261,96.4163,0,0.000885,0,0
0:6:43.121,759.254,96.6714,0,0.000885,0,0
0:6:43.715,760.37,96.8162,0,0.000885,0,0
0:6:44.321,761.544,96.961,0,0.000885,0,0
0:6:44.927,762.425,97.0782,0,0.000885,0,0
0:6:45.532,763.422,97.2023,0,0.000885,0,0
0:6:46.127,764.947,97.3953,0,0.000885,0,0
0:6:46.720,765.828,97.5057,0,0.000885,0,0
0:6:47.318,766.887,97.6436,0,0.000885,0,0
0:6:47.915,768.764,97.8849,0,0.000885,0,0
0:6:48.513,769.938,98.0297,0,0.000885,0,0
0:6:49.109,771.17,98.1882,0,0.000885,0,0
0:6:49.718,772.167,98.3123,0,0.000885,0,0
0:6:50.323,773.341,98.464,0,0.000885,0,0
0:6:50.921,774.515,98.6157,0,0.000885,0,0
0:6:51.519,775.516,98.7398,0,0.000885,0,0
0:6:52.115,776.571,98.8777,0,0.000885,0,0
0:6:52.711,777.509,98.9949,0,0.000885,0,0
0:6:53.304,778.919,99.1742,0,0.000885,0,0
0:6:53.901,780.151,99.3328,0,0.000885,0,0
0:6:54.508,781.441,99.4982,0,0.000885,0,0
0:6:55.113,782.322,99.6086,0,0.000885,0,0
0:6:55.716,783.91,99.8085,0,0.000885,0,0
0:6:56.311,785.142,99.9671,0,0.000885,0,0
0:6:56.905,786.668,100.16,0,0.000885,0,0
0:6:57.502,787.255,100.236,0,0.000885,0,0
0:6:58.097,788.487,100.395,0,0.000885,0,0
0:6:58.695,789.604,100.532,0,0.000885,0,0
0:6:59.303,790.542,100.657,0,0.000885,0,0
0:6:59.906,791.654,100.794,0,0.000885,0,0
0:7:0.503,793.652,101.05,0,0.000885,0,0
0:7:1.100,794.59,101.174,0,0.000885,0,0
0:7:1.697,795.298,101.263,0,0.000885,0,0
0:7:2.293,796.765,101.449,0,0.000885,0,0
0:7:2.887,797.468,101.539,0,0.000885,0,0
0:7:3.482,799.172,101.753,0,0.000885,0,0
0:7:4.090,800.635,101.939,0,0.000885,0,0
0:7:4.694,801.4,102.036,0,0.000885,0,0
0:7:5.299,802.868,102.222,0,0.000885,0,0
0:7:5.893,803.691,102.332,0,0.000885,0,0
0:7:6.485,804.746,102.463,0,0.000885,0,0
0:7:7.080,805.453,102.553,0,0.000885,0,0
0:7:7.677,806.916,102.739,0,0.000885,0,0
0:7:8.274,808.736,102.973,0,0.000885,0,0
0:7:8.868,809.559,103.077,0,0.000885,0,0
0:7:9.480,810.969,103.256,0,0.000885,0,0
0:7:10.084,812.259,103.421,0,0.000885,0,0
0:7:10.682,812.904,103.504,0,0.000885,0,0
0:7:11.280,814.372,103.69,0,0.000885,0,0
0:7:11.876,815.31,103.807,0,0.000885,0,0
0:7:12.468,817.072,104.035,0,0.000885,0,0
0:7:13.062,817.779,104.125,0,0.000885,0,0
0:7:13.656,819.011,104.276,0,0.000885,0,0
0:7:14.262,820.359,104.449,0,0.000885,0,0
0:7:14.866,821.475,104.593,0,0.000885,0,0
0:7:15.470,822.178,104.683,0,0.000885,0,0
0:7:16.076,823.53,104.855,0,0.000885,0,0
0:7:16.669,825.114,105.055,0,0.000885,0,0
0:7:17.264,825.585,105.117,0,0.000885,0,0
0:7:17.869,827.405,105.345,0,0.000885,0,0
0:7:18.466,828.228,105.455,0,0.000885,0,0
0:7:19.062,829.576,105.628,0,0.000885,0,0
0:7:19.669,830.928,105.8,0,0.000885,0,0
0:7:20.274,832.04,105.938,0,0.000885,0,0
0:7:20.881,833.392,106.11,0,0.000885,0,0
0:7:21.478,834.389,106.234,0,0.000885,0,0
0:7:22.085,835.389,106.365,0,0.000885,0,0
0:7:22.681,836.501,106.51,0,0.000885,0,0
0:7:23.274,838.089,106.71,0,0.000885,0,0
0:7:23.883,838.792,106.8,0,0.000885,0,0
0:7:24.490,840.202,106.979,0,0.000885,0,0
0:7:25.094,841.314,107.117,0,0.000885,0,0
0:7:25.691,842.724,107.296,0,0.000885,0,0
0:7:26.289,843.721,107.427,0,0.000885,0,0
0:7:26.883,845.131,107.606,0,0.000885,0,0
0:7:27.476,846.127,107.731,0,0.000885,0,0
0:7:28.069,847.186,107.868,0,0.000885,0,0
0:7:28.666,848.24,107.999,0,0.000885,0,0
0:7:29.271,849.415,108.151,0,0.000885,0,0
0:7:29.878,850.531,108.296,0,0.000885,0,0
0:7:30.479,851.821,108.455,0,0.000885,0,0
0:7:31.072,853.351,108.654,0,0.000885,0,0
0:7:31.666,854.348,108.779,0,0.000885,0,0
0:7:32.262,855.638,108.944,0,0.000885,0,0
0:7:32.881,856.518,109.054,0,0.000885,0,0
0:7:33.479,857.399,109.165,0,0.000885,0,0
0:7:34.072,858.867,109.358,0,0.000885,0,0
0:7:34.684,860.277,109.537,0,0.000885,0,0
0:7:35.286,861.331,109.668,0,0.000885,0,0
0:7:35.883,862.741,109.847,0,0.000885,0,0
0:7:36.480,864.267,110.04,0,0.000885,0,0
0:7:37.085,864.912,110.123,0,0.000885,0,0
0:7:37.681,865.913,110.254,0,0.000885,0,0
0:7:38.273,867.554,110.461,0,0.000885,0,0
0:7:38.878,868.32,110.557,0,0.000885,0,0
0:7:39.484,869.845,110.75,0,0.000885,0,0
0:7:40.089,870.784,110.875,0,0.000885,0,0
0:7:40.683,872.074,111.033,0,0.000885,0,0
0:7:41.278,873.426,111.206,0,0.000885,0,0
0:7:41.870,874.129,111.295,0,0.000885,0,0
0:7:42.464,875.712,111.502,0,0.000885,0,0
0:7:43.060,876.3,111.571,0,0.000885,0,0
0:7:43.655,877.474,111.723,0,0.000885,0,0
0:7:44.263,879.351,111.964,0,0.000885,0,0
0:7:44.866,880.058,112.054,0,0.000885,0,0
0:7:45.467,881.878,112.281,0,0.000885,0,0
0:7:46.061,882.523,112.364,0,0.000885,0,0
0:7:46.679,884.106,112.571,0,0.000885,0,0
0:7:47.274,885.045,112.688,0,0.000885,0,0
0:7:47.869,886.339,112.853,0,0.000885,0,0
0:7:48.463,887.336,112.977,0,0.000885,0,0
0:7:49.062,888.101,113.074,0,0.000885,0,0
0:7:49.667,889.684,113.281,0,0.000885,0,0
0:7:50.273,890.565,113.391,0,0.000885,0,0
0:7:50.870,892.269,113.605,0,0.000885,0,0
0:7:51.469,893.852,113.812,0,0.000885,0,0
0:7:52.070,894.555,113.901,0,0.000885,0,0
0:7:52.684,895.378,114.005,0,0.000885,0,0
0:7:53.281,897.019,114.212,0,0.000885,0,0
0:7:53.874,897.669,114.294,0,0.000885,0,0
0:7:54.483,898.959,114.46,0,0.000885,0,0
0:7:55.087,900.485,114.653,0,0.000885,0,0
0:7:55.690,901.543,114.791,0,0.000885,0,0
0:7:56.281,902.362,114.894,0,0.000885,0,0
0:7:56.887,904.123,115.115,0,0.000885,0,0
0:7:57.484,905.769,115.329,0,0.000885,0,0
0:7:58.079,906,115.356,0,0.000885,0,0
0:7:58.673,906.881,115.467,0,0.000885,0,0
0:7:59.282,908.349,115.653,0,0.000885,0,0
0:7:59.885,909.759,115.832,0,0.000885,0,0
0:8:0.484,911.227,116.018,0,0.000885,0,0
0:8:1.081,911.814,116.094,0,0.000885,0,0
0:8:1.687,913.282,116.28,0,0.000885,0,0
0:8:2.282,914.163,116.397,0,0.000885,0,0
0:8:2.885,915.511,116.57,0,0.000885,0,0
0:8:3.479,916.569,116.701,0,0.000885,0,0
0:8:4.085,918.037,116.887,0,0.000885,0,0
0:8:4.691,918.562,116.956,0,0.000885,0,0
0:8:5.296,919.972,117.135,0,0.000885,0,0
0:8:5.889,922.085,117.404,0,0.000885,0,0
0:8:6.483,923.317,117.563,0,0.000885,0,0
0:8:7.088,924.082,117.659,0,0.000885,0,0
0:8:7.686,925.137,117.79,0,0.000885,0,0
0:8:8.282,925.96,117.893,0,0.000885,0,0
0:8:8.889,927.018,118.031,0,0.000885,0,0
0:8:9.496,928.193,118.183,0,0.000885,0,0
0:8:10.100,929.305,118.321,0,0.000885,0,0
0:8:10.697,930.657,118.493,0,0.000885,0,0
0:8:11.294,932.183,118.686,0,0.000885,0,0
0:8:11.889,933.299,118.831,0,0.000885,0,0
0:8:12.483,935.118,119.066,0,0.000885,0,0
0:8:13.087,935.643,119.128,0,0.000885,0,0
0:8:13.684,936.644,119.259,0,0.000885,0,0
0:8:14.291,938.464,119.486,0,0.000885,0,0
0:8:14.895,939.58,119.631,0,0.000885,0,0
0:8:15.495,940.519,119.748,0,0.000885,0,0
0:8:16.089,941.515,119.879,0,0.000885,0,0
0:8:16.685,942.632,120.017,0,0.000885,0,0
0:8:17.281,943.806,120.169,0,0.000885,0,0
0:8:17.888,945.154,120.341,0,0.000885,0,0
0:8:18.484,946.034,120.451,0,0.000885,0,0
0:8:19.090,947.502,120.638,0,0.000885,0,0
0:8:19.698,948.855,120.81,0,0.000885,0,0
0:8:20.301,949.735,120.927,0,0.000885,0,0
0:8:20.896,950.674,121.044,0,0.000885,0,0
0:8:21.493,952.022,121.217,0,0.000885,0,0
0:8:22.090,953.432,121.396,0,0.000885,0,0
0:8:22.684,954.722,121.561,0,0.000885,0,0
0:8:23.277,955.545,121.665,0,0.000885,0,0
0:8:23.883,956.541,121.789,0,0.000885,0,0
0:8:24.489,958.245,122.01,0,0.000885,0,0
0:8:25.095,959.886,122.216,0,0.000885,0,0
0:8:25.698,960.416,122.285,0,0.000885,0,0
0:8:26.292,961.474,122.416,0,0.000885,0,0
0:8:26.885,962.355,122.534,0,0.000885,0,0
0:8:27.478,963.409,122.665,0,0.000885,0,0
0:8:28.086,965.349,122.913,0,0.000885,0,0
0:8:28.683,966.639,123.078,0,0.000885,0,0
0:8:29.291,967.577,123.196,0,0.000885,0,0
0:8:29.894,968.574,123.32,0,0.000885,0,0
0:8:30.493,969.926,123.492,0,0.000885,0,0
0:8:31.087,971.1,123.644,0,0.000885,0,0
0:8:31.684,972.448,123.816,0,0.000885,0,0
0:8:32.290,973.507,123.954,0,0.000885,0,0
0:8:32.887,974.387,124.064,0,0.000885,0,0
0:8:33.491,975.677,124.23,0,0.000885,0,0
0:8:34.090,976.736,124.361,0,0.000885,0,0
0:8:34.697,978.142,124.54,0,0.000885,0,0
0:8:35.303,979.61,124.726,0,0.000885,0,0
0:8:35.901,980.61,124.857,0,0.000885,0,0
0:8:36.496,981.723,124.995,0,0.000885,0,0
0:8:37.090,982.603,125.112,0,0.000885,0,0
0:8:37.684,984.129,125.305,0,0.000885,0,0
0:8:38.288,984.836,125.395,0,0.000885,0,0
0:8:38.884,986.362,125.588,0,0.000885,0,0
0:8:39.490,987.71,125.76,0,0.000885,0,0
0:8:40.094,988.711,125.884,0,0.000885,0,0
0:8:40.695,989.529,125.988,0,0.000885,0,0
0:8:41.290,991.233,126.209,0,0.000885,0,0
0:8:41.883,992.407,126.36,0,0.000885,0,0
0:8:42.489,992.879,126.415,0,0.000885,0,0
0:8:43.086,994.169,126.581,0,0.000885,0,0
0:8:43.692,995.752,126.781,0,0.000885,0,0
0:8:44.301,996.984,126.939,0,0.000885,0,0
0:8:44.905,998.866,127.181,0,0.000885,0,0
0:8:45.501,1000.1,127.339,0,0.000885,0,0
0:8:46.096,1000.45,127.381,0,0.000885,0,0
0:8:46.693,1001.27,127.484,0,0.000885,0,0
0:8:47.289,1002.45,127.636,0,0.000885,0,0
0:8:47.883,1003.27,127.739,0,0.000885,0,0
0:8:48.488,1005.15,127.98,0,0.000885,0,0
0:8:49.091,1006.26,128.118,0,0.000885,0,0
0:8:49.696,1008.08,128.353,0,0.000885,0,0
0:8:50.300,1008.49,128.408,0,0.000885,0,0
0:8:50.896,1010.02,128.601,0,0.000885,0,0
0:8:51.488,1011.01,128.725,0,0.000885,0,0
0:8:52.092,1011.43,128.78,0,0.000885,0,0
0:8:52.687,1013.3,129.015,0,0.000885,0,0
0:8:53.293,1015.01,129.235,0,0.000885,0,0
0:8:53.889,1016.12,129.373,0,0.000885,0,0
0:8:54.496,1017.24,129.518,0,0.000885,0,0
0:8:55.101,1017.77,129.587,0,0.000885,0,0
0:8:55.700,1019.41,129.794,0,0.000885,0,0
0:8:56.294,1020.58,129.945,0,0.000885,0,0
0:8:56.891,1021.88,130.111,0,0.000885,0,0
0:8:57.488,1022.87,130.235,0,0.000885,0,0
0:8:58.093,1024.05,130.387,0,0.000885,0,0
0:8:58.689,1024.87,130.49,0,0.000885,0,0
0:8:59.286,1026.81,130.738,0,0.000885,0,0
0:8:59.893,1027.39,130.814,0,0.000885,0,0
0:9:0.496,1028.86,131,0,0.000885,0,0
0:9:1.094,1029.8,131.118,0,0.000885,0,0
0:9:1.692,1031.03,131.276,0,0.000885,0,0
0:9:2.286,1032.44,131.455,0,0.000885,0,0
0:9:2.889,1033.38,131.573,0,0.000885,0,0
0:9:3.482,1034.55,131.724,0,0.000885,0,0
0:9:4.089,1035.9,131.897,0,0.000885,0,0
0:9:4.695,1037.08,132.041,0,0.000885,0,0
0:9:5.301,1038.84,132.269,0,0.000885,0,0
0:9:5.893,1039.42,132.345,0,0.000885,0,0
0:9:6.486,1040.48,132.476,0,0.000885,0,0
0:9:7.090,1041.36,132.593,0,0.000885,0,0
0:9:7.688,1042.83,132.779,0,0.000885,0,0
0:9:8.293,1043.89,132.91,0,0.000885,0,0
0:9:8.888,1044.95,133.048,0,0.000885,0,0
0:9:9.496,1046.64,133.262,0,0.000885,0,0
0:9:10.099,1047.35,133.352,0,0.000885,0,0
0:9:10.696,1048.82,133.538,0,0.000885,0,0
0:9:11.292,1050.4,133.745,0,0.000885,0,0
0:9:11.887,1051.11,133.834,0,0.000885,0,0
0:9:12.494,1051.75,133.91,0,0.000885,0,0
0:9:13.090,1053.22,134.103,0,0.000885,0,0
0:9:13.690,1054.86,134.31,0,0.000885,0,0
0:9:14.292,1056.1,134.468,0,0.000885,0,0
0:9:14.899,1057.44,134.641,0,0.000885,0,0
0:9:15.503,1057.97,134.703,0,0.000885,0,0
0:9:16.100,1059.38,134.882,0,0.000885,0,0
0:9:16.695,1060.56,135.034,0,0.000885,0,0
0:9:17.290,1061.79,135.192,0,0.000885,0,0
0:9:17.893,1062.55,135.289,0,0.000885,0,0
0:9:18.490,1063.73,135.441,0,0.000885,0,0
0:9:19.097,1065.84,135.71,0,0.000885,0,0
0:9:19.703,1066.31,135.765,0,0.000885,0,0
0:9:20.305,1067.84,135.958,0,0.000885,0,0
0:9:20.897,1068.48,136.04,0,0.000885,0,0
0:9:21.492,1070.13,136.254,0,0.000885,0,0
0:9:22.089,1071.36,136.413,0,0.000885,0,0
0:9:22.696,1072.83,136.599,0,0.000885,0,0
0:9:23.293,1073.82,136.723,0,0.000885,0,0
0:9:23.898,1074.59,136.82,0,0.000885,0,0
0:9:24.508,1075.94,136.992,0,0.000885,0,0
0:9:25.110,1077.52,137.192,0,0.000885,0,0
0:9:25.709,1078.28,137.288,0,0.000885,0,0
0:9:26.307,1079.34,137.426,0,0.000885,0,0
0:9:26.902,1080.75,137.606,0,0.000885,0,0
0:9:27.494,1081.57,137.709,0,0.000885,0,0
0:9:28.090,1082.69,137.854,0,0.000885,0,0
0:9:28.689,1084.33,138.061,0,0.000885,0,0
0:9:29.296,1085.33,138.192,0,0.000885,0,0
0:9:29.901,1086.86,138.385,0,0.000885,0,0
0:9:30.502,1087.5,138.467,0,0.000885,0,0
0:9:31.095,1088.97,138.654,0,0.000885,0,0
0:9:31.692,1089.97,138.778,0,0.000885,0,0
0:9:32.299,1091.32,138.95,0,0.000885,0,0
0:9:32.895,1092.26,139.067,0,0.000885,0,0
0:9:33.489,1093.31,139.205,0,0.000885,0,0
0:9:34.099,1094.89,139.405,0,0.000885,0,0
0:9:34.707,1096.6,139.626,0,0.000885,0,0
0:9:35.310,1096.95,139.667,0,0.000885,0,0
0:9:35.908,1098.12,139.819,0,0.000885,0,0
0:9:36.503,1099.06,139.936,0,0.000885,0,0
0:9:37.095,1100.24,140.088,0,0.000885,0,0
0:9:37.690,1101.41,140.239,0,0.000885,0,0
0:9:38.296,1103,140.439,0,0.000885,0,0
0:9:38.893,1104.29,140.605,0,0.000885,0,0
0:9:39.502,1105.52,140.756,0,0.000885,0,0
0:9:40.106,1106.22,140.846,0,0.000885,0,0
0:9:40.705,1107.93,141.067,0,0.000885,0,0
0:9:41.299,1109.1,141.218,0,0.000885,0,0
0:9:41.897,1109.98,141.329,0,0.000885,0,0
0:9:42.494,1111.1,141.467,0,0.000885,0,0
0:9:43.089,1112.57,141.653,0,0.000885,0,0
0:9:43.693,1113.97,141.839,0,0.000885,0,0
0:9:44.296,1114.15,141.86,0,0.000885,0,0
0:9:44.904,1116.21,142.122,0,0.000885,0,0
0:9:45.507,1117.79,142.322,0,0.000885,0,0
0:9:46.102,1118.2,142.377,0,0.000885,0,0
0:9:46.697,1119.79,142.577,0,0.000885,0,0
0:9:47.291,1120.43,142.659,0,0.000885,0,0
0:9:47.895,1121.55,142.797,0,0.000885,0,0
0:9:48.492,1122.84,142.963,0,0.000885,0,0
0:9:49.099,1124.13,143.128,0,0.000885,0,0
0:9:49.704,1125.24,143.273,0,0.000885,0,0
0:9:50.307,1126.65,143.452,0,0.000885,0,0
0:9:50.901,1127.82,143.597,0,0.000885,0,0
0:9:51.494,1129,143.749,0,0.000885,0,0
0:9:52.090,1130.35,143.921,0,0.000885,0,0
0:9:52.686,1131.58,144.08,0,0.000885,0,0
0:9:53.294,1132.35,144.176,0,0.000885,0,0
0:9:53.891,1133.34,144.3,0,0.000885,0,0
0:9:54.500,1134.34,144.431,0,0.000885,0,0
0:9:55.102,1135.64,144.59,0,0.000885,0,0
0:9:55.698,1137.16,144.79,0,0.000885,0,0
0:9:56.294,1138.22,144.921,0,0.000885,0,0
0:9:56.901,1139.51,145.086,0,0.000885,0,0
0:9:57.496,1140.97,145.273,0,0.000885,0,0
0:9:58.100,1142.27,145.438,0,0.000885,0,0
0:9:58.693,1142.91,145.521,0,0.000885,0,0
0:9:59.299,1144.14,145.679,0,0.000885,0,0
0:9:59.904,1145.2,145.81,0,0.000885,0,0
0:10:0.510,1146.32,145.955,0,0.000885,0,0
0:10:1.105,1148.2,146.19,0,0.000885,0,0
0:10:1.697,1149.37,146.341,0,0.000885,0,0
0:10:2.299,1150.43,146.479,0,0.000885,0,0
0:10:2.894,1150.78,146.52,0,0.000885,0,0
0:10:3.492,1152.25,146.707,0,0.000885,0,0
0:10:4.097,1153.54,146.872,0,0.000885,0,0
0:10:4.704,1154.77,147.031,0,0.000885,0,0
0:10:5.307,1156.36,147.231,0,0.000885,0,0
0:10:5.905,1157.29,147.348,0,0.000885,0,0
0:10:6.501,1157.94,147.431,0,0.000885,0,0
0:10:7.098,1159.58,147.644,0,0.000885,0,0
0:10:7.694,1160.7,147.782,0,0.000885,0,0
0:10:8.298,1161.99,147.948,0,0.000885,0,0
0:10:8.898,1163.28,148.113,0,0.000885,0,0
0:10:9.506,1164.4,148.258,0,0.000885,0,0
0:10:10.109,1165.28,148.368,0,0.000885,0,0
0:10:10.707,1166.8,148.561,0,0.000885,0,0
0:10:11.302,1167.86,148.699,0,0.000885,0,0
0:10:11.896,1169.15,148.858,0,0.000885,0,0
0:10:12.498,1170.32,149.009,0,0.000885,0,0
0:10:13.102,1171.32,149.14,0,0.000885,0,0
0:10:13.698,1172.56,149.292,0,0.000885,0,0
0:10:14.306,1173.73,149.444,0,0.000885,0,0
0:10:14.911,1175.66,149.692,0,0.000885,0,0
0:10:15.511,1175.96,149.727,0,0.000885,0,0
0:10:16.106,1177.48,149.92,0,0.000885,0,0
0:10:16.698,1178.49,150.051,0,0.000885,0,0
0:10:17.294,1179.54,150.182,0,0.000885,0,0
0:10:17.889,1180.48,150.306,0,0.000885,0,0
0:10:18.486,1181.36,150.416,0,0.000885,0,0
0:10:19.082,1182.88,150.609,0,0.000885,0,0
0:10:19.689,1184.35,150.795,0,0.000885,0,0
0:10:20.294,1186,151.009,0,0.000885,0,0
0:10:20.901,1186.47,151.064,0,0.000885,0,0
0:10:21.498,1187.41,151.188,0,0.000885,0,0
0:10:22.096,1188.87,151.374,0,0.000885,0,0
0:10:22.690,1190.05,151.519,0,0.000885,0,0
0:10:23.295,1191.34,151.685,0,0.000885,0,0
0:10:23.907,1192.28,151.809,0,0.000885,0,0
0:10:24.513,1195.39,152.202,0,0.000885,0,0
0:10:25.116,1195.39,152.202,0,0.000885,0,0
0:10:25.713,1195.68,152.236,0,0.000885,0,0
0:10:26.307,1196.62,152.36,0,0.000885,0,0
0:10:26.899,1197.62,152.484,0,0.000885,0,0
0:10:27.494,1198.97,152.657,0,0.000885,0,0
0:10:28.101,1199.91,152.774,0,0.000885,0,0
0:10:28.698,1202.14,153.064,0,0.000885,0,0
0:10:29.305,1203.67,153.257,0,0.000885,0,0
0:10:29.909,1204.13,153.319,0,0.000885,0,0
0:10:30.507,1205.6,153.505,0,0.000885,0,0
0:10:31.103,1206.42,153.608,0,0.000885,0,0
0:10:31.698,1207.36,153.726,0,0.000885,0,0
0:10:32.304,1208.07,153.815,0,0.000885,0,0
0:10:32.899,1209.42,153.988,0,0.000885,0,0
0:10:33.504,1210.71,154.153,0,0.000885,0,0
0:10:34.104,1210.01,154.063,0,0.000885,0,0
0:10:34.709,1211.77,154.284,0,0.000885,0,0
0:10:35.314,1214.23,154.601,0,0.000885,0,0
0:10:35.911,1216.82,154.932,0,0.000885,0,0
0:10:36.507,1218.23,155.111,0,0.000885,0,0
0:10:37.102,1219.57,155.284,0,0.000885,0,0
0:10:37.703,1220.51,155.401,0,0.000885,0,0
0:10:38.297,1219.75,155.304,0,0.000885,0,0
0:10:38.904,1220.81,155.435,0,0.000885,0,0
0:10:39.511,1221.8,155.566,0,0.000885,0,0
0:10:40.115,1223.21,155.746,0,0.000885,0,0
0:10:40.715,1223.86,155.828,0,0.000885,0,0
0:10:41.309,1225.03,155.973,0,0.000885,0,0
0:10:41.905,1197.15,152.429,0,0.000885,0,0
0:10:42.073,888.919,113.184,0,0.000885,0,0