File: DataFile2021-06-09_073949.csv
Test ID:,Date Tested:,Time:,Test Type:,Diameter Avg. (mm):,Cyl. Corr. Factor:,Height (mm):,Age (days):,Weight (kN):,Break Type:,Ramp Rate (MPa/s):,Load at Break (kN):,Stress at Break (MPa):
12,6/9/2021,07:39,Cylinder,100,1,200,0,3.6,3,0.25,535.54,68.19
Sample Time,Load (kN),Stress (MPa),Long. Strain,Trans. Strain,Chan1 Deflection (mm),Chan2 Deflection (mm)
0:0:13.831,5.10211,0.648107,0,0.000885,0,0
0:0:14.127,10.3243,1.3169,0,0.000885,0,0
0:0:14.428,12.6685,1.61337,0,0.000885,0,0
0:0:14.723,11.7878,1.50306,0,0.000885,0,0
0:0:15.023,11.4364,1.45479,0,0.000885,0,0
0:0:15.317,11.2006,1.42721,0,0.000885,0,0
0:0:15.617,11.085,1.41343,0,0.000885,0,0
0:0:15.915,10.44,1.33069,0,0.000885,0,0
0:0:16.209,10.262,1.31,0,0.000885,0,0
0:0:16.510,10.7336,1.36516,0,0.000885,0,0
0:0:16.804,10.8492,1.37895,0,0.000885,0,0
0:0:17.105,11.8456,1.50995,0,0.000885,0,0
0:0:17.401,11.4942,1.46169,0,0.000885,0,0
0:0:17.699,11.7878,1.50306,0,0.000885,0,0
0:0:17.997,12.1392,1.54443,0,0.000885,0,0
0:0:18.302,12.7842,1.62716,0,0.000885,0,0
0:0:18.604,13.6071,1.73058,0,0.000885,0,0
0:0:18.899,13.8429,1.76506,0,0.000885,0,0
0:0:19.203,15.8357,2.01327,0,0.000885,0,0
0:0:19.507,16.0136,2.04085,0,0.000885,0,0
0:0:19.811,16.6586,2.12359,0,0.000885,0,0
0:0:20.115,17.01,2.16495,0,0.000885,0,0
0:0:20.418,18.1221,2.30974,0,0.000885,0,0
0:0:20.719,19.0606,2.42695,0,0.000885,0,0
0:0:21.017,19.2386,2.44764,0,0.000885,0,0
0:0:21.315,20.3506,2.59243,0,0.000885,0,0
0:0:21.615,20.9378,2.66827,0,0.000885,0,0
0:0:21.911,21.6406,2.7579,0,0.000885,0,0
0:0:22.214,22.1121,2.81306,0,0.000885,0,0
0:0:22.509,22.4635,2.86132,0,0.000885,0,0
0:0:22.810,23.1663,2.95096,0,0.000885,0,0
0:0:23.108,23.5756,2.99922,0,0.000885,0,0
0:0:23.404,24.1049,3.06817,0,0.000885,0,0
0:0:23.705,24.6343,3.13711,0,0.000885,0,0
0:0:24.001,24.87,3.16469,0,0.000885,0,0
0:0:24.305,25.7463,3.27501,0,0.000885,0,0
0:0:24.609,26.3335,3.35085,0,0.000885,0,0
0:0:24.914,27.3299,3.48185,0,0.000885,0,0
0:0:25.216,27.5078,3.50254,0,0.000885,0,0
0:0:25.519,27.8014,3.53701,0,0.000885,0,0
0:0:25.822,29.207,3.71627,0,0.000885,0,0
0:0:26.119,29.5584,3.76454,0,0.000885,0,0
0:0:26.418,30.0878,3.83349,0,0.000885,0,0
0:0:26.716,30.497,3.88175,0,0.000885,0,0
0:0:27.014,31.142,3.96449,0,0.000885,0,0
0:0:27.317,32.2585,4.10928,0,0.000885,0,0
0:0:27.611,32.432,4.12996,0,0.000885,0,0
0:0:27.913,33.0191,4.2058,0,0.000885,0,0
0:0:28.210,33.7842,4.30233,0,0.000885,0,0
0:0:28.507,34.4871,4.39196,0,0.000885,0,0
0:0:28.808,34.7228,4.41954,0,0.000885,0,0
0:0:29.102,35.2477,4.48849,0,0.000885,0,0
0:0:29.406,35.8927,4.57122,0,0.000885,0,0
0:0:29.711,36.4799,4.64707,0,0.000885,0,0
0:0:30.013,36.8313,4.68843,0,0.000885,0,0
0:0:30.315,37.6542,4.79186,0,0.000885,0,0
0:0:30.618,38.2414,4.8677,0,0.000885,0,0
0:0:30.922,38.9442,4.95733,0,0.000885,0,0
0:0:31.216,39.5313,5.03317,0,0.000885,0,0
0:0:31.519,40.292,5.1297,0,0.000885,0,0
0:0:31.816,40.5277,5.15728,0,0.000885,0,0
0:0:32.114,41.1727,5.24002,0,0.000885,0,0
0:0:32.413,41.6398,5.30207,0,0.000885,0,0
0:0:32.708,42.1113,5.36412,0,0.000885,0,0
0:0:33.010,42.872,5.46065,0,0.000885,0,0
0:0:33.305,43.4013,5.5227,0,0.000885,0,0
0:0:33.607,43.8684,5.58475,0,0.000885,0,0
0:0:33.905,44.7491,5.69507,0,0.000885,0,0
0:0:34.208,45.1005,5.74333,0,0.000885,0,0
0:0:34.513,45.6299,5.81228,0,0.000885,0,0
0:0:34.816,46.217,5.88123,0,0.000885,0,0
0:0:35.118,46.9198,5.97086,0,0.000885,0,0
0:0:35.421,47.7428,6.08118,0,0.000885,0,0
0:0:35.720,48.3878,6.16391,0,0.000885,0,0
0:0:36.020,48.9126,6.22597,0,0.000885,0,0
0:0:36.314,49.442,6.29491,0,0.000885,0,0
0:0:36.616,49.4998,6.30181,0,0.000885,0,0
0:0:36.912,50.6741,6.45349,0,0.000885,0,0
0:0:37.213,51.0255,6.49486,0,0.000885,0,0
0:0:37.512,51.8485,6.59828,0,0.000885,0,0
0:0:37.808,52.3155,6.66034,0,0.000885,0,0
0:0:38.111,52.4935,6.68102,0,0.000885,0,0
0:0:38.405,53.8991,6.86028,0,0.000885,0,0
0:0:38.707,54.3083,6.91544,0,0.000885,0,0
0:0:39.005,54.8377,6.98439,0,0.000885,0,0
0:0:39.309,55.0156,7.00507,0,0.000885,0,0
0:0:39.613,56.0698,7.13607,0,0.000885,0,0
0:0:39.917,56.3056,7.17055,0,0.000885,0,0
0:0:40.220,56.7727,7.22571,0,0.000885,0,0
0:0:40.523,57.1241,7.27397,0,0.000885,0,0
0:0:40.820,58.414,7.43944,0,0.000885,0,0
0:0:41.122,59.1791,7.53597,0,0.000885,0,0
0:0:41.417,59.8241,7.61871,0,0.000885,0,0
0:0:41.719,60.2912,7.67386,0,0.000885,0,0
0:0:42.015,60.527,7.70834,0,0.000885,0,0
0:0:42.316,61.4077,7.81865,0,0.000885,0,0
0:0:42.615,61.8169,7.87381,0,0.000885,0,0
0:0:42.909,62.1105,7.90829,0,0.000885,0,0
0:0:43.212,62.4619,7.94966,0,0.000885,0,0
0:0:43.509,63.6363,8.10134,0,0.000885,0,0
0:0:43.808,64.0455,8.1565,0,0.000885,0,0
0:0:44.107,64.5748,8.21855,0,0.000885,0,0
0:0:44.411,65.2198,8.30129,0,0.000885,0,0
0:0:44.716,65.9805,8.39781,0,0.000885,0,0
0:0:45.020,66.7456,8.50124,0,0.000885,0,0
0:0:45.321,67.2126,8.55639,0,0.000885,0,0
0:0:45.625,67.564,8.60466,0,0.000885,0,0
0:0:45.922,68.2713,8.69429,0,0.000885,0,0
0:0:46.225,68.7962,8.75634,0,0.000885,0,0
0:0:46.520,69.6191,8.86666,0,0.000885,0,0
0:0:46.820,69.9705,8.90803,0,0.000885,0,0
0:0:47.117,70.3219,8.95629,0,0.000885,0,0
0:0:47.417,71.0826,9.05282,0,0.000885,0,0
0:0:47.719,72.0834,9.17692,0,0.000885,0,0
0:0:48.013,72.6083,9.24587,0,0.000885,0,0
0:0:48.316,73.2533,9.32861,0,0.000885,0,0
0:0:48.613,73.3734,9.3424,0,0.000885,0,0
0:0:48.909,74.1341,9.43892,0,0.000885,0,0
0:0:49.210,74.7212,9.51477,0,0.000885,0,0
0:0:49.514,75.2506,9.58371,0,0.000885,0,0
0:0:49.819,75.4819,9.61129,0,0.000885,0,0
0:0:50.122,76.069,9.68713,0,0.000885,0,0
0:0:50.425,77.359,9.85261,0,0.000885,0,0
0:0:50.728,77.537,9.87329,0,0.000885,0,0
0:0:51.024,78.1241,9.94913,0,0.000885,0,0
0:0:51.327,78.9426,10.0526,0,0.000885,0,0
0:0:51.624,79.3563,10.1008,0,0.000885,0,0
0:0:51.924,80.0591,10.1905,0,0.000885,0,0
0:0:52.222,80.7041,10.2732,0,0.000885,0,0
0:0:52.519,81.1711,10.3352,0,0.000885,0,0
0:0:52.822,81.6427,10.3973,0,0.000885,0,0
0:0:53.117,82.9905,10.5697,0,0.000885,0,0
0:0:53.417,83.1684,10.5903,0,0.000885,0,0
0:0:53.715,83.1684,10.5903,0,0.000885,0,0
0:0:54.012,84.107,10.7076,0,0.000885,0,0
0:0:54.314,84.4584,10.7558,0,0.000885,0,0
0:0:54.620,85.3347,10.8661,0,0.000885,0,0
0:0:54.923,86.2733,10.9833,0,0.000885,0,0
0:0:55.225,86.6247,11.0316,0,0.000885,0,0
0:0:55.528,87.3319,11.1212,0,0.000885,0,0
0:0:55.829,87.5054,11.1419,0,0.000885,0,0
0:0:56.126,88.3283,11.2453,0,0.000885,0,0
0:0:56.427,89.2091,11.3557,0,0.000885,0,0
0:0:56.724,89.5605,11.4039,0,0.000885,0,0
0:0:57.024,90.0276,11.466,0,0.000885,0,0
0:0:57.324,90.379,11.5073,0,0.000885,0,0
0:0:57.618,90.8505,11.5694,0,0.000885,0,0
0:0:57.921,91.669,11.6728,0,0.000885,0,0
0:0:58.217,92.3139,11.7556,0,0.000885,0,0
0:0:58.515,93.1369,11.859,0,0.000885,0,0
0:0:58.815,93.6662,11.9279,0,0.000885,0,0
0:0:59.111,94.369,12.0176,0,0.000885,0,0
0:0:59.413,94.6048,12.0451,0,0.000885,0,0
0:0:59.719,95.4811,12.1555,0,0.000885,0,0
0:1:0.022,95.8948,12.2106,0,0.000885,0,0
0:1:0.326,96.4819,12.2865,0,0.000885,0,0
0:1:0.628,96.7755,12.3209,0,0.000885,0,0
0:1:0.931,97.7719,12.4519,0,0.000885,0,0
0:1:1.228,98.239,12.5071,0,0.000885,0,0
0:1:1.528,98.6482,12.5622,0,0.000885,0,0
0:1:1.827,99.8225,12.707,0,0.000885,0,0
0:1:2.124,99.7069,12.6932,0,0.000885,0,0
0:1:2.425,100.468,12.7898,0,0.000885,0,0
0:1:2.720,101.17,12.8794,0,0.000885,0,0
0:1:3.019,101.642,12.9415,0,0.000885,0,0
0:1:3.318,102.696,13.0725,0,0.000885,0,0
0:1:3.615,102.874,13.1,0,0.000885,0,0
0:1:3.916,103.283,13.1483,0,0.000885,0,0
0:1:4.223,104.164,13.2655,0,0.000885,0,0
0:1:4.526,104.925,13.362,0,0.000885,0,0
0:1:4.829,105.57,13.4448,0,0.000885,0,0
0:1:5.131,105.863,13.4793,0,0.000885,0,0
0:1:5.434,106.566,13.5689,0,0.000885,0,0
0:1:5.729,107.625,13.6999,0,0.000885,0,0
0:1:6.031,107.798,13.7275,0,0.000885,0,0
0:1:6.327,108.679,13.8378,0,0.000885,0,0
0:1:6.628,109.266,13.9136,0,0.000885,0,0
0:1:6.924,109.324,13.9205,0,0.000885,0,0
0:1:7.221,110.263,14.0377,0,0.000885,0,0
0:1:7.521,110.614,14.086,0,0.000885,0,0
0:1:7.818,110.614,14.086,0,0.000885,0,0
0:1:8.119,111.904,14.2515,0,0.000885,0,0
0:1:8.415,112.255,14.2928,0,0.000885,0,0
0:1:8.715,112.9,14.3756,0,0.000885,0,0
0:1:9.013,113.839,14.4928,0,0.000885,0,0
0:1:9.316,113.959,14.5066,0,0.000885,0,0
0:1:9.622,114.253,14.5479,0,0.000885,0,0
0:1:9.925,115.894,14.7548,0,0.000885,0,0
0:1:10.227,115.894,14.7548,0,0.000885,0,0
0:1:10.530,116.423,14.8237,0,0.000885,0,0
0:1:10.828,117.126,14.9134,0,0.000885,0,0
0:1:11.129,117.713,14.9892,0,0.000885,0,0
0:1:11.423,118.474,15.0857,0,0.000885,0,0
0:1:11.725,118.883,15.134,0,0.000885,0,0
0:1:12.021,119.413,15.2029,0,0.000885,0,0
0:1:12.321,119.88,15.265,0,0.000885,0,0
0:1:12.621,120.88,15.3891,0,0.000885,0,0
0:1:12.917,121.112,15.4236,0,0.000885,0,0
0:1:13.220,121.819,15.5132,0,0.000885,0,0
0:1:13.513,122.815,15.6373,0,0.000885,0,0
0:1:13.815,123.109,15.6718,0,0.000885,0,0
0:1:14.113,123.167,15.6787,0,0.000885,0,0
0:1:14.416,123.692,15.7476,0,0.000885,0,0
0:1:14.722,124.63,15.8717,0,0.000885,0,0
0:1:15.024,125.102,15.9269,0,0.000885,0,0
0:1:15.327,126.507,16.1062,0,0.000885,0,0
0:1:15.630,127.095,16.182,0,0.000885,0,0
0:1:15.928,127.446,16.2303,0,0.000885,0,0
0:1:16.229,127.86,16.2785,0,0.000885,0,0
0:1:16.525,128.211,16.3268,0,0.000885,0,0
0:1:16.827,128.736,16.3888,0,0.000885,0,0
0:1:17.123,129.443,16.4785,0,0.000885,0,0
0:1:17.423,129.617,16.506,0,0.000885,0,0
0:1:17.721,130.32,16.5957,0,0.000885,0,0
0:1:18.017,130.965,16.6784,0,0.000885,0,0
0:1:18.319,132.081,16.8163,0,0.000885,0,0
0:1:18.614,132.432,16.8646,0,0.000885,0,0
0:1:18.916,132.962,16.9266,0,0.000885,0,0
0:1:19.212,133.665,17.0163,0,0.000885,0,0
0:1:19.515,134.31,17.099,0,0.000885,0,0
0:1:19.820,134.488,17.1266,0,0.000885,0,0
0:1:20.124,135.19,17.2162,0,0.000885,0,0
0:1:20.427,135.835,17.2921,0,0.000885,0,0
0:1:20.729,136.009,17.3196,0,0.000885,0,0
0:1:21.029,137.361,17.492,0,0.000885,0,0
0:1:21.326,137.886,17.5541,0,0.000885,0,0
0:1:21.625,138.651,17.6506,0,0.000885,0,0
0:1:21.925,138.767,17.6713,0,0.000885,0,0
0:1:22.219,139.354,17.7402,0,0.000885,0,0
0:1:22.522,140.292,17.8643,0,0.000885,0,0
0:1:22.819,140.822,17.9264,0,0.000885,0,0
0:1:23.118,140.995,17.9539,0,0.000885,0,0
0:1:23.416,141.347,17.9953,0,0.000885,0,0
0:1:23.712,141.934,18.0712,0,0.000885,0,0
0:1:24.014,143.166,18.2297,0,0.000885,0,0
0:1:24.319,143.517,18.2711,0,0.000885,0,0
0:1:24.623,144.278,18.3676,0,0.000885,0,0
0:1:24.927,144.865,18.4435,0,0.000885,0,0
0:1:25.229,145.746,18.5538,0,0.000885,0,0
0:1:25.532,146.449,18.6434,0,0.000885,0,0
0:1:25.827,146.511,18.6572,0,0.000885,0,0
0:1:26.130,147.507,18.7813,0,0.000885,0,0
0:1:26.425,147.975,18.8434,0,0.000885,0,0
0:1:26.726,148.677,18.933,0,0.000885,0,0
0:1:27.024,148.677,18.933,0,0.000885,0,0
0:1:27.321,149.385,19.0226,0,0.000885,0,0
0:1:27.623,149.794,19.0709,0,0.000885,0,0
0:1:27.918,150.612,19.1743,0,0.000885,0,0
0:1:28.220,150.968,19.2226,0,0.000885,0,0
0:1:28.515,151.377,19.2708,0,0.000885,0,0
0:1:28.815,152.783,19.4501,0,0.000885,0,0
0:1:29.113,153.019,19.4846,0,0.000885,0,0
0:1:29.418,153.722,19.5742,0,0.000885,0,0
0:1:29.722,154.135,19.6225,0,0.000885,0,0
0:1:30.025,154.718,19.6983,0,0.000885,0,0
0:1:30.328,155.247,19.7673,0,0.000885,0,0
0:1:30.633,156.07,19.8707,0,0.000885,0,0
0:1:30.929,156.595,19.9396,0,0.000885,0,0
0:1:31.232,157.182,20.0155,0,0.000885,0,0
0:1:31.525,157.654,20.0706,0,0.000885,0,0
0:1:31.828,158.824,20.2223,0,0.000885,0,0
0:1:32.126,159.18,20.2637,0,0.000885,0,0
0:1:32.425,159.705,20.3326,0,0.000885,0,0
0:1:32.723,160.349,20.4154,0,0.000885,0,0
0:1:33.019,160.937,20.4912,0,0.000885,0,0
0:1:33.321,160.937,20.4912,0,0.000885,0,0
0:1:33.615,161.875,20.6084,0,0.000885,0,0
0:1:33.916,162.227,20.6567,0,0.000885,0,0
0:1:34.213,162.756,20.7256,0,0.000885,0,0
0:1:34.517,163.223,20.7808,0,0.000885,0,0
0:1:34.823,164.219,20.9118,0,0.000885,0,0
0:1:35.126,164.691,20.967,0,0.000885,0,0
0:1:35.429,165.572,21.0842,0,0.000885,0,0
0:1:35.732,166.332,21.1807,0,0.000885,0,0
0:1:36.029,167.271,21.2979,0,0.000885,0,0
0:1:36.330,167.8,21.3669,0,0.000885,0,0
0:1:36.625,167.858,21.3737,0,0.000885,0,0
0:1:36.927,168.325,21.4289,0,0.000885,0,0
0:1:37.221,168.503,21.4565,0,0.000885,0,0
0:1:37.523,169.851,21.6289,0,0.000885,0,0
0:1:37.820,170.202,21.6702,0,0.000885,0,0
0:1:38.117,170.616,21.7254,0,0.000885,0,0
0:1:38.417,170.91,21.7599,0,0.000885,0,0
0:1:38.713,171.906,21.8909,0,0.000885,0,0
0:1:39.017,172.667,21.9874,0,0.000885,0,0
0:1:39.322,173.138,22.0425,0,0.000885,0,0
0:1:39.626,173.841,22.1322,0,0.000885,0,0
0:1:39.930,174.544,22.2218,0,0.000885,0,0
0:1:40.231,175.304,22.3183,0,0.000885,0,0
0:1:40.534,176.012,22.408,0,0.000885,0,0
0:1:40.828,176.012,22.408,0,0.000885,0,0
0:1:41.129,176.479,22.47,0,0.000885,0,0
0:1:41.426,177.066,22.5459,0,0.000885,0,0
0:1:41.725,177.947,22.6562,0,0.000885,0,0
0:1:42.024,178.472,22.7251,0,0.000885,0,0
0:1:42.320,178.414,22.7182,0,0.000885,0,0
0:1:42.621,178.943,22.7803,0,0.000885,0,0
0:1:42.919,180.233,22.9458,0,0.000885,0,0
0:1:43.218,180.7,23.0078,0,0.000885,0,0
0:1:43.517,181.759,23.1388,0,0.000885,0,0
0:1:43.812,182.052,23.1802,0,0.000885,0,0
0:1:44.114,182.346,23.2146,0,0.000885,0,0
0:1:44.420,183.107,23.3112,0,0.000885,0,0
0:1:44.723,183.516,23.3663,0,0.000885,0,0
0:1:45.026,183.987,23.4284,0,0.000885,0,0
0:1:45.329,185.219,23.5801,0,0.000885,0,0
0:1:45.632,185.393,23.6076,0,0.000885,0,0
0:1:45.927,186.038,23.6904,0,0.000885,0,0
0:1:46.229,186.745,23.78,0,0.000885,0,0
0:1:46.525,187.39,23.8559,0,0.000885,0,0
0:1:46.824,187.742,23.9041,0,0.000885,0,0
0:1:47.124,188.444,23.9938,0,0.000885,0,0
0:1:47.419,188.444,23.9938,0,0.000885,0,0
0:1:47.721,189.619,24.1454,0,0.000885,0,0
0:1:48.017,189.97,24.1868,0,0.000885,0,0
0:1:48.319,190.846,24.2971,0,0.000885,0,0
0:1:48.617,191.376,24.3661,0,0.000885,0,0
0:1:48.914,191.847,24.4281,0,0.000885,0,0
0:1:49.216,192.372,24.4971,0,0.000885,0,0
0:1:49.517,193.195,24.6005,0,0.000885,0,0
0:1:49.820,194.014,24.7039,0,0.000885,0,0
0:1:50.121,194.307,24.7384,0,0.000885,0,0
0:1:50.422,195.246,24.8625,0,0.000885,0,0
0:1:50.722,195.891,24.9452,0,0.000885,0,0
0:1:51.016,196.536,25.0211,0,0.000885,0,0
0:1:51.316,196.949,25.0762,0,0.000885,0,0
0:1:51.610,197.652,25.1659,0,0.000885,0,0
0:1:51.908,197.888,25.1934,0,0.000885,0,0
0:1:52.204,198.355,25.2555,0,0.000885,0,0
0:1:52.497,199,25.3382,0,0.000885,0,0
0:1:52.807,199.823,25.4417,0,0.000885,0,0
0:1:53.109,200.232,25.4968,0,0.000885,0,0
0:1:53.409,200.877,25.5795,0,0.000885,0,0
0:1:53.712,201.113,25.6071,0,0.000885,0,0
0:1:54.009,201.464,25.6485,0,0.000885,0,0
0:1:54.306,202.697,25.8071,0,0.000885,0,0
0:1:54.605,202.99,25.8484,0,0.000885,0,0
0:1:54.908,203.515,25.9105,0,0.000885,0,0
0:1:55.209,204.338,26.0139,0,0.000885,0,0
0:1:55.509,204.747,26.0691,0,0.000885,0,0
0:1:55.810,205.161,26.1242,0,0.000885,0,0
0:1:56.106,206.037,26.2346,0,0.000885,0,0
0:1:56.413,206.744,26.3242,0,0.000885,0,0
0:1:56.708,207.212,26.3862,0,0.000885,0,0
0:1:57.009,208.092,26.4966,0,0.000885,0,0
0:1:57.299,208.622,26.5655,0,0.000885,0,0
0:1:57.597,208.915,26.6,0,0.000885,0,0
0:1:57.893,209.267,26.6413,0,0.000885,0,0
0:1:58.198,210.436,26.793,0,0.000885,0,0
0:1:58.495,210.672,26.8206,0,0.000885,0,0
0:1:58.789,211.259,26.8964,0,0.000885,0,0
0:1:59.090,211.962,26.9861,0,0.000885,0,0
0:1:59.394,212.843,27.1033,0,0.000885,0,0
0:1:59.695,213.252,27.1516,0,0.000885,0,0
0:1:59.997,213.666,27.2067,0,0.000885,0,0
0:2:0.297,213.666,27.2067,0,0.000885,0,0
0:2:0.596,214.484,27.3101,0,0.000885,0,0
0:2:0.888,215.129,27.3929,0,0.000885,0,0
0:2:1.187,215.832,27.4825,0,0.000885,0,0
0:2:1.482,216.361,27.5515,0,0.000885,0,0
0:2:1.777,217.536,27.6962,0,0.000885,0,0
0:2:2.077,217.767,27.7238,0,0.000885,0,0
0:2:2.369,218.354,27.7997,0,0.000885,0,0
0:2:2.669,218.884,27.8686,0,0.000885,0,0
0:2:2.962,219.471,27.9445,0,0.000885,0,0
0:2:3.260,220.352,28.0548,0,0.000885,0,0
0:2:3.556,220.876,28.1237,0,0.000885,0,0
0:2:3.851,221.521,28.2065,0,0.000885,0,0
0:2:4.150,221.642,28.2202,0,0.000885,0,0
0:2:4.453,222.811,28.3719,0,0.000885,0,0
0:2:4.755,223.225,28.4202,0,0.000885,0,0
0:2:5.056,223.456,28.4547,0,0.000885,0,0
0:2:5.356,224.164,28.5443,0,0.000885,0,0
0:2:5.658,224.982,28.6477,0,0.000885,0,0
0:2:5.951,225.04,28.6546,0,0.000885,0,0
0:2:6.250,225.979,28.7718,0,0.000885,0,0
0:2:6.544,226.392,28.827,0,0.000885,0,0
0:2:6.841,227.269,28.9373,0,0.000885,0,0
0:2:7.138,227.562,28.9718,0,0.000885,0,0
0:2:7.434,228.149,29.0476,0,0.000885,0,0
0:2:7.732,229.03,29.1579,0,0.000885,0,0
0:2:8.024,229.502,29.22,0,0.000885,0,0
0:2:8.325,229.791,29.2613,0,0.000885,0,0
0:2:8.618,230.204,29.3096,0,0.000885,0,0
0:2:8.916,231.201,29.4406,0,0.000885,0,0
0:2:9.212,231.846,29.5165,0,0.000885,0,0
0:2:9.513,232.313,29.5785,0,0.000885,0,0
0:2:9.815,232.842,29.6475,0,0.000885,0,0
0:2:10.117,233.487,29.7302,0,0.000885,0,0
0:2:10.417,234.426,29.8474,0,0.000885,0,0
0:2:10.717,234.777,29.8957,0,0.000885,0,0
0:2:11.014,235.071,29.9301,0,0.000885,0,0
0:2:11.311,235.542,29.9922,0,0.000885,0,0
0:2:11.606,236.481,30.1094,0,0.000885,0,0
0:2:11.903,237.126,30.1921,0,0.000885,0,0
0:2:12.209,237.709,30.268,0,0.000885,0,0
0:2:12.507,238.474,30.3645,0,0.000885,0,0
0:2:12.800,238.941,30.4197,0,0.000885,0,0
0:2:13.107,239.354,30.4748,0,0.000885,0,0
0:2:13.402,239.821,30.5369,0,0.000885,0,0
0:2:13.697,240.524,30.6265,0,0.000885,0,0
0:2:13.997,241.169,30.7092,0,0.000885,0,0
0:2:14.301,241.992,30.8127,0,0.000885,0,0
0:2:14.601,242.17,30.8334,0,0.000885,0,0
0:2:14.902,243.634,31.0195,0,0.000885,0,0
0:2:15.201,243.691,31.0264,0,0.000885,0,0
0:2:15.501,243.985,31.0678,0,0.000885,0,0
0:2:15.795,245.337,31.2401,0,0.000885,0,0
0:2:16.094,245.804,31.2953,0,0.000885,0,0
0:2:16.398,245.804,31.2953,0,0.000885,0,0
0:2:16.693,246.391,31.3711,0,0.000885,0,0
0:2:16.992,246.801,31.4263,0,0.000885,0,0
0:2:17.285,247.739,31.5435,0,0.000885,0,0
0:2:17.585,248.148,31.5987,0,0.000885,0,0
0:2:17.878,248.5,31.64,0,0.000885,0,0
0:2:18.177,248.914,31.6952,0,0.000885,0,0
0:2:18.472,249.732,31.7986,0,0.000885,0,0
0:2:18.768,250.319,31.8745,0,0.000885,0,0
0:2:19.068,251.258,31.9917,0,0.000885,0,0
0:2:19.371,252.139,32.102,0,0.000885,0,0
0:2:19.672,252.196,32.1089,0,0.000885,0,0
0:2:19.973,252.139,32.102,0,0.000885,0,0
0:2:20.272,253.606,32.2881,0,0.000885,0,0
0:2:20.572,253.606,32.2881,0,0.000885,0,0
0:2:20.865,254.545,32.4123,0,0.000885,0,0
0:2:21.166,255.364,32.5157,0,0.000885,0,0
0:2:21.459,255.893,32.5846,0,0.000885,0,0
0:2:21.758,256.831,32.7018,0,0.000885,0,0
0:2:22.053,257.183,32.7432,0,0.000885,0,0
0:2:22.349,257.419,32.7777,0,0.000885,0,0
0:2:22.646,258.006,32.8466,0,0.000885,0,0
0:2:22.940,258.531,32.9156,0,0.000885,0,0
0:2:23.240,259.705,33.0673,0,0.000885,0,0
0:2:23.532,260.114,33.1155,0,0.000885,0,0
0:2:23.830,260.466,33.1638,0,0.000885,0,0
0:2:24.126,260.701,33.1914,0,0.000885,0,0
0:2:24.425,261.168,33.2534,0,0.000885,0,0
0:2:24.730,262.169,33.3775,0,0.000885,0,0
0:2:25.032,262.93,33.474,0,0.000885,0,0
0:2:25.332,263.401,33.5361,0,0.000885,0,0
0:2:25.632,263.575,33.5568,0,0.000885,0,0
0:2:25.930,264.923,33.7292,0,0.000885,0,0
0:2:26.227,265.274,33.7774,0,0.000885,0,0
0:2:26.521,265.981,33.867,0,0.000885,0,0
0:2:26.821,266.506,33.936,0,0.000885,0,0
0:2:27.113,266.684,33.9567,0,0.000885,0,0
0:2:27.411,267.445,34.0532,0,0.000885,0,0
0:2:27.705,267.974,34.1222,0,0.000885,0,0
0:2:28.011,268.677,34.2118,0,0.000885,0,0
0:2:28.310,269.442,34.3083,0,0.000885,0,0
0:2:28.602,269.794,34.3497,0,0.000885,0,0
0:2:28.901,270.087,34.391,0,0.000885,0,0
0:2:29.205,270.963,34.5014,0,0.000885,0,0
0:2:29.508,271.435,34.5634,0,0.000885,0,0
0:2:29.808,271.902,34.6186,0,0.000885,0,0
0:2:30.109,273.018,34.7634,0,0.000885,0,0
0:2:30.408,273.899,34.8737,0,0.000885,0,0
0:2:30.712,274.486,34.9495,0,0.000885,0,0
0:2:31.011,274.251,34.9219,0,0.000885,0,0
0:2:31.304,275.069,35.0254,0,0.000885,0,0
0:2:31.611,275.541,35.0805,0,0.000885,0,0
0:2:31.911,276.186,35.1633,0,0.000885,0,0
0:2:32.213,276.715,35.2322,0,0.000885,0,0
0:2:32.512,277.36,35.3149,0,0.000885,0,0
0:2:32.804,277.654,35.3494,0,0.000885,0,0
0:2:33.103,278.708,35.4873,0,0.000885,0,0
0:2:33.410,279.237,35.5563,0,0.000885,0,0
0:2:33.703,280.113,35.6666,0,0.000885,0,0
0:2:34.001,280.465,35.7079,0,0.000885,0,0
0:2:34.304,280.936,35.77,0,0.000885,0,0
0:2:34.606,281.755,35.8734,0,0.000885,0,0
0:2:34.905,282.813,36.0113,0,0.000885,0,0
0:2:35.209,283.281,36.0665,0,0.000885,0,0
0:2:35.508,283.516,36.1009,0,0.000885,0,0
0:2:35.811,284.219,36.1906,0,0.000885,0,0
0:2:36.112,284.455,36.2182,0,0.000885,0,0
0:2:36.415,284.984,36.2871,0,0.000885,0,0
0:2:36.712,285.509,36.3492,0,0.000885,0,0
0:2:37.006,286.39,36.4664,0,0.000885,0,0
0:2:37.303,287.271,36.5767,0,0.000885,0,0
0:2:37.601,287.68,36.6318,0,0.000885,0,0
0:2:37.894,287.916,36.6594,0,0.000885,0,0
0:2:38.195,288.676,36.756,0,0.000885,0,0
0:2:38.488,289.615,36.8732,0,0.000885,0,0
0:2:38.785,289.966,36.9214,0,0.000885,0,0
0:2:39.081,290.202,36.949,0,0.000885,0,0
0:2:39.383,290.847,37.0317,0,0.000885,0,0
0:2:39.687,291.318,37.0938,0,0.000885,0,0
0:2:39.988,291.906,37.1696,0,0.000885,0,0
0:2:40.289,292.551,37.2455,0,0.000885,0,0
0:2:40.589,293.605,37.3834,0,0.000885,0,0
0:2:40.884,293.841,37.411,0,0.000885,0,0
0:2:41.183,294.423,37.4868,0,0.000885,0,0
0:2:41.476,295.482,37.6247,0,0.000885,0,0
0:2:41.776,295.718,37.6523,0,0.000885,0,0
0:2:42.069,296.243,37.7212,0,0.000885,0,0
0:2:42.368,296.536,37.7557,0,0.000885,0,0
0:2:42.664,297.417,37.866,0,0.000885,0,0
0:2:42.958,298.004,37.9418,0,0.000885,0,0
0:2:43.257,298.943,38.0591,0,0.000885,0,0
0:2:43.550,298.823,38.0453,0,0.000885,0,0
0:2:43.850,299.881,38.1832,0,0.000885,0,0
0:2:44.153,300.642,38.2797,0,0.000885,0,0
0:2:44.456,301.229,38.3555,0,0.000885,0,0
0:2:44.756,301.581,38.3969,0,0.000885,0,0
0:2:45.056,302.11,38.4659,0,0.000885,0,0
0:2:45.356,302.755,38.5486,0,0.000885,0,0
0:2:45.649,303.636,38.6589,0,0.000885,0,0
0:2:45.948,303.516,38.6451,0,0.000885,0,0
0:2:46.242,304.396,38.7554,0,0.000885,0,0
0:2:46.540,305.099,38.8451,0,0.000885,0,0
0:2:46.837,305.802,38.9347,0,0.000885,0,0
0:2:47.130,306.567,39.0312,0,0.000885,0,0
0:2:47.430,306.447,39.0174,0,0.000885,0,0
0:2:47.723,307.212,39.114,0,0.000885,0,0
0:2:48.019,308.093,39.2243,0,0.000885,0,0
0:2:48.316,308.969,39.3415,0,0.000885,0,0
0:2:48.611,309.147,39.3622,0,0.000885,0,0
0:2:48.907,309.383,39.3897,0,0.000885,0,0
0:2:49.211,310.321,39.5139,0,0.000885,0,0
0:2:49.515,311.082,39.6104,0,0.000885,0,0
0:2:49.814,311.553,39.6655,0,0.000885,0,0
0:2:50.115,312.021,39.7276,0,0.000885,0,0
0:2:50.414,312.723,39.8172,0,0.000885,0,0
0:2:50.707,313.488,39.9137,0,0.000885,0,0
0:2:51.007,313.782,39.9551,0,0.000885,0,0
0:2:51.300,313.955,39.9758,0,0.000885,0,0
0:2:51.598,315.13,40.1206,0,0.000885,0,0
0:2:51.893,315.481,40.1689,0,0.000885,0,0
0:2:52.199,316.126,40.2516,0,0.000885,0,0
0:2:52.506,316.535,40.2999,0,0.000885,0,0
0:2:52.811,317.301,40.3964,0,0.000885,0,0
0:2:53.112,317.532,40.4309,0,0.000885,0,0
0:2:53.405,318.533,40.555,0,0.000885,0,0
0:2:53.701,319.293,40.6515,0,0.000885,0,0
0:2:53.997,319.881,40.7273,0,0.000885,0,0
0:2:54.299,320.29,40.7825,0,0.000885,0,0
0:2:54.603,320.935,40.8652,0,0.000885,0,0
0:2:54.903,322.109,41.01,0,0.000885,0,0
0:2:55.203,321.873,40.9824,0,0.000885,0,0
0:2:55.503,323.105,41.141,0,0.000885,0,0
0:2:55.800,323.635,41.2031,0,0.000885,0,0
0:2:56.096,323.986,41.2513,0,0.000885,0,0
0:2:56.392,324.453,41.3134,0,0.000885,0,0
0:2:56.690,324.395,41.3065,0,0.000885,0,0
0:2:56.982,325.161,41.403,0,0.000885,0,0
0:2:57.282,325.921,41.4995,0,0.000885,0,0
0:2:57.578,326.388,41.5547,0,0.000885,0,0
0:2:57.874,327.447,41.6926,0,0.000885,0,0
0:2:58.173,328.15,41.7822,0,0.000885,0,0
0:2:58.466,328.265,41.796,0,0.000885,0,0
0:2:58.766,329.031,41.8925,0,0.000885,0,0
0:2:59.069,329.555,41.9615,0,0.000885,0,0
0:2:59.371,330.436,42.0718,0,0.000885,0,0
0:2:59.672,331.023,42.1477,0,0.000885,0,0
0:2:59.971,331.259,42.1752,0,0.000885,0,0
0:3:0.273,332.14,42.2924,0,0.000885,0,0
0:3:0.566,332.491,42.3338,0,0.000885,0,0
0:3:0.865,333.252,42.4303,0,0.000885,0,0
0:3:1.160,333.43,42.451,0,0.000885,0,0
0:3:1.457,334.075,42.5338,0,0.000885,0,0
0:3:1.752,334.72,42.6165,0,0.000885,0,0
0:3:2.046,335.245,42.6854,0,0.000885,0,0
0:3:2.346,336.303,42.8164,0,0.000885,0,0
0:3:2.640,336.948,42.8992,0,0.000885,0,0
0:3:2.939,337.536,42.975,0,0.000885,0,0
0:3:3.233,338.238,43.0647,0,0.000885,0,0
0:3:3.528,338.238,43.0647,0,0.000885,0,0
0:3:3.827,338.763,43.1336,0,0.000885,0,0
0:3:4.129,339.822,43.2646,0,0.000885,0,0
0:3:4.432,340.058,43.2991,0,0.000885,0,0
0:3:4.731,340.76,43.3887,0,0.000885,0,0
0:3:5.033,342.05,43.5542,0,0.000885,0,0
0:3:5.334,342.05,43.5542,0,0.000885,0,0
0:3:5.627,342.402,43.5956,0,0.000885,0,0
0:3:5.927,343.047,43.6783,0,0.000885,0,0
0:3:6.219,343.514,43.7403,0,0.000885,0,0
0:3:6.518,344.279,43.8369,0,0.000885,0,0
0:3:6.814,345.333,43.9679,0,0.000885,0,0
0:3:7.108,345.453,43.9817,0,0.000885,0,0
0:3:7.405,345.863,44.0368,0,0.000885,0,0
0:3:7.719,346.392,44.1058,0,0.000885,0,0
0:3:8.021,347.388,44.2299,0,0.000885,0,0
0:3:8.314,348.033,44.3126,0,0.000885,0,0
0:3:8.612,348.091,44.3195,0,0.000885,0,0
0:3:8.905,348.852,44.416,0,0.000885,0,0
0:3:9.206,349.145,44.4574,0,0.000885,0,0
0:3:9.512,350.378,44.6091,0,0.000885,0,0
0:3:9.814,351.08,44.6987,0,0.000885,0,0
0:3:10.112,351.08,44.6987,0,0.000885,0,0
0:3:10.412,351.552,44.7608,0,0.000885,0,0
0:3:10.708,351.845,44.7952,0,0.000885,0,0
0:3:11.015,352.842,44.9262,0,0.000885,0,0
0:3:11.309,353.78,45.0434,0,0.000885,0,0
0:3:11.608,354.19,45.0986,0,0.000885,0,0
0:3:11.902,354.599,45.1469,0,0.000885,0,0
0:3:12.201,355.422,45.2503,0,0.000885,0,0
0:3:12.496,356.182,45.3537,0,0.000885,0,0
0:3:12.791,356.245,45.3606,0,0.000885,0,0
0:3:13.089,357.477,45.5123,0,0.000885,0,0
0:3:13.383,357.535,45.5192,0,0.000885,0,0
0:3:13.684,358.353,45.6295,0,0.000885,0,0
0:3:13.987,359.292,45.7467,0,0.000885,0,0
0:3:14.289,359.879,45.8226,0,0.000885,0,0
0:3:14.590,360.115,45.8501,0,0.000885,0,0
0:3:14.890,360.582,45.9122,0,0.000885,0,0
0:3:15.190,361.289,46.0018,0,0.000885,0,0
0:3:15.484,361.872,46.0777,0,0.000885,0,0
0:3:15.782,362.637,46.1742,0,0.000885,0,0
0:3:16.079,362.637,46.1742,0,0.000885,0,0
0:3:16.374,363.749,46.3121,0,0.000885,0,0
0:3:16.674,364.163,46.3672,0,0.000885,0,0
0:3:16.967,365.039,46.4776,0,0.000885,0,0
0:3:17.264,365.039,46.4776,0,0.000885,0,0
0:3:17.561,365.684,46.5603,0,0.000885,0,0
0:3:17.857,366.271,46.6361,0,0.000885,0,0
0:3:18.157,367.561,46.8016,0,0.000885,0,0
0:3:18.449,367.855,46.8361,0,0.000885,0,0
0:3:18.750,368.5,46.9188,0,0.000885,0,0
0:3:19.054,369.207,47.0085,0,0.000885,0,0
0:3:19.355,369.732,47.0774,0,0.000885,0,0
0:3:19.656,370.145,47.1257,0,0.000885,0,0
0:3:19.956,370.906,47.2222,0,0.000885,0,0
0:3:20.259,371.435,47.2911,0,0.000885,0,0
0:3:20.550,371.373,47.2842,0,0.000885,0,0
0:3:20.850,372.432,47.4221,0,0.000885,0,0
0:3:21.146,372.841,47.4704,0,0.000885,0,0
0:3:21.439,373.722,47.5807,0,0.000885,0,0
0:3:21.739,373.664,47.5738,0,0.000885,0,0
0:3:22.031,374.66,47.7048,0,0.000885,0,0
0:3:22.331,375.248,47.7807,0,0.000885,0,0
0:3:22.625,376.124,47.891,0,0.000885,0,0
0:3:22.921,376.769,47.9737,0,0.000885,0,0
0:3:23.220,376.653,47.9599,0,0.000885,0,0
0:3:23.510,377.414,48.0565,0,0.000885,0,0
0:3:23.811,377.943,48.1185,0,0.000885,0,0
0:3:24.115,378.997,48.2564,0,0.000885,0,0
0:3:24.417,379.291,48.2909,0,0.000885,0,0
0:3:24.718,379.936,48.3736,0,0.000885,0,0
0:3:25.019,380.292,48.4219,0,0.000885,0,0
0:3:25.319,380.643,48.4632,0,0.000885,0,0
0:3:25.614,381.697,48.6011,0,0.000885,0,0
0:3:25.910,382.458,48.6977,0,0.000885,0,0
0:3:26.208,382.752,48.7321,0,0.000885,0,0
0:3:26.512,383.575,48.8356,0,0.000885,0,0
0:3:26.810,383.575,48.8356,0,0.000885,0,0
0:3:27.104,384.629,48.9735,0,0.000885,0,0
0:3:27.403,385.043,49.0217,0,0.000885,0,0
0:3:27.718,385.625,49.0976,0,0.000885,0,0
0:3:28.015,386.039,49.1527,0,0.000885,0,0
0:3:28.311,387.329,49.3182,0,0.000885,0,0
0:3:28.606,387.916,49.394,0,0.000885,0,0
0:3:28.904,388.032,49.4078,0,0.000885,0,0
0:3:29.207,389.086,49.5388,0,0.000885,0,0
0:3:29.508,389.264,49.5595,0,0.000885,0,0
0:3:29.809,389.909,49.6423,0,0.000885,0,0
0:3:30.109,390.202,49.6836,0,0.000885,0,0
0:3:30.409,391.257,49.8146,0,0.000885,0,0
0:3:30.703,391.786,49.8836,0,0.000885,0,0
0:3:31.002,392.253,49.9456,0,0.000885,0,0
0:3:31.306,393.312,50.0766,0,0.000885,0,0
0:3:31.603,393.543,50.1111,0,0.000885,0,0
0:3:31.900,394.188,50.1869,0,0.000885,0,0
0:3:32.194,394.833,50.2697,0,0.000885,0,0
0:3:32.494,395.482,50.3524,0,0.000885,0,0
0:3:32.787,395.772,50.3938,0,0.000885,0,0
0:3:33.086,396.359,50.4627,0,0.000885,0,0
0:3:33.382,397.004,50.5455,0,0.000885,0,0
0:3:33.683,397.297,50.5868,0,0.000885,0,0
0:3:33.986,398.236,50.704,0,0.000885,0,0
0:3:34.287,398.707,50.7661,0,0.000885,0,0
0:3:34.587,399.352,50.8488,0,0.000885,0,0
0:3:34.888,399.82,50.904,0,0.000885,0,0
0:3:35.186,400.233,50.9592,0,0.000885,0,0
0:3:35.484,401.167,51.0764,0,0.000885,0,0
0:3:35.778,401.754,51.1522,0,0.000885,0,0
0:3:36.078,402.342,51.228,0,0.000885,0,0
0:3:36.371,402.693,51.2694,0,0.000885,0,0
0:3:36.670,403.28,51.3453,0,0.000885,0,0
0:3:36.968,404.277,51.4763,0,0.000885,0,0
0:3:37.261,404.57,51.5107,0,0.000885,0,0
0:3:37.561,405.215,51.5935,0,0.000885,0,0
0:3:37.855,405.802,51.6693,0,0.000885,0,0
0:3:38.153,406.274,51.7314,0,0.000885,0,0
0:3:38.448,406.741,51.7865,0,0.000885,0,0
0:3:38.750,407.444,51.8762,0,0.000885,0,0
0:3:39.053,407.915,51.9382,0,0.000885,0,0
0:3:39.354,408.44,52.0072,0,0.000885,0,0
0:3:39.653,408.969,52.0692,0,0.000885,0,0
0:3:39.955,410.259,52.2347,0,0.000885,0,0
0:3:40.252,410.904,52.3174,0,0.000885,0,0
0:3:40.550,411.549,52.4002,0,0.000885,0,0
0:3:40.844,411.785,52.4277,0,0.000885,0,0
0:3:41.143,412.137,52.476,0,0.000885,0,0
0:3:41.435,413.133,52.6001,0,0.000885,0,0
0:3:41.733,413.605,52.6622,0,0.000885,0,0
0:3:42.030,413.956,52.7035,0,0.000885,0,0
0:3:42.325,414.423,52.7656,0,0.000885,0,0
0:3:42.623,414.895,52.8276,0,0.000885,0,0
0:3:42.925,416.064,52.9724,0,0.000885,0,0
0:3:43.226,416.358,53.0138,0,0.000885,0,0
0:3:43.519,416.714,53.0552,0,0.000885,0,0
0:3:43.821,417.532,53.1586,0,0.000885,0,0
0:3:44.124,417.71,53.1862,0,0.000885,0,0
0:3:44.425,418.88,53.3309,0,0.000885,0,0
0:3:44.724,419.409,53.3999,0,0.000885,0,0
0:3:45.024,419.761,53.4482,0,0.000885,0,0
0:3:45.324,420.054,53.4826,0,0.000885,0,0
0:3:45.618,420.699,53.5654,0,0.000885,0,0
0:3:45.923,421.402,53.655,0,0.000885,0,0
0:3:46.221,421.932,53.7239,0,0.000885,0,0
0:3:46.516,422.399,53.7791,0,0.000885,0,0
0:3:46.813,423.164,53.8756,0,0.000885,0,0
0:3:47.106,424.045,53.9928,0,0.000885,0,0
0:3:47.406,424.512,54.048,0,0.000885,0,0
0:3:47.701,424.863,54.0963,0,0.000885,0,0
0:3:47.997,426.095,54.2548,0,0.000885,0,0
0:3:48.295,426.037,54.248,0,0.000885,0,0
0:3:48.589,426.918,54.3583,0,0.000885,0,0
0:3:48.889,427.327,54.4065,0,0.000885,0,0
0:3:49.193,428.15,54.5168,0,0.000885,0,0
0:3:49.493,428.502,54.5582,0,0.000885,0,0
0:3:49.794,428.853,54.6065,0,0.000885,0,0
0:3:50.095,429.907,54.7375,0,0.000885,0,0
0:3:50.395,430.788,54.8478,0,0.000885,0,0
0:3:50.690,430.846,54.8547,0,0.000885,0,0
0:3:50.987,431.375,54.9236,0,0.000885,0,0
0:3:51.284,431.784,54.9788,0,0.000885,0,0
0:3:51.579,432.839,55.1098,0,0.000885,0,0
0:3:51.878,433.426,55.1856,0,0.000885,0,0
0:3:52.171,433.84,55.2408,0,0.000885,0,0
0:3:52.469,434.071,55.2684,0,0.000885,0,0
0:3:52.764,435.067,55.3925,0,0.000885,0,0
0:3:53.062,435.832,55.489,0,0.000885,0,0
0:3:53.358,435.948,55.5097,0,0.000885,0,0
0:3:53.659,436.299,55.5511,0,0.000885,0,0
0:3:53.963,437.3,55.6752,0,0.000885,0,0
0:3:54.264,438.119,55.7855,0,0.000885,0,0
0:3:54.563,438.822,55.8751,0,0.000885,0,0
0:3:54.864,439.529,55.9647,0,0.000885,0,0
0:3:55.160,440.054,56.0268,0,0.000885,0,0
0:3:55.457,440.289,56.0613,0,0.000885,0,0
0:3:55.750,440.583,56.0957,0,0.000885,0,0
0:3:56.050,441.464,56.2061,0,0.000885,0,0
0:3:56.343,442.34,56.3233,0,0.000885,0,0
0:3:56.641,442.812,56.3784,0,0.000885,0,0
0:3:56.938,443.047,56.4129,0,0.000885,0,0
0:3:57.231,443.866,56.5163,0,0.000885,0,0
0:3:57.530,444.569,56.606,0,0.000885,0,0
0:3:57.824,444.924,56.6473,0,0.000885,0,0
0:3:58.124,445.627,56.737,0,0.000885,0,0
0:3:58.418,446.388,56.8335,0,0.000885,0,0
0:3:58.718,446.802,56.8886,0,0.000885,0,0
0:3:59.022,447.384,56.9645,0,0.000885,0,0
0:3:59.324,447.736,57.0059,0,0.000885,0,0
0:3:59.624,448.323,57.0817,0,0.000885,0,0
0:3:59.924,448.737,57.1369,0,0.000885,0,0
0:4:0.223,449.261,57.1989,0,0.000885,0,0
0:4:0.518,450.436,57.3506,0,0.000885,0,0
0:4:0.823,450.845,57.4057,0,0.000885,0,0
0:4:1.121,451.259,57.454,0,0.000885,0,0
0:4:1.423,451.49,57.4885,0,0.000885,0,0
0:4:1.723,452.429,57.6057,0,0.000885,0,0
0:4:2.025,453.252,57.7091,0,0.000885,0,0
0:4:2.323,453.839,57.785,0,0.000885,0,0
0:4:2.619,454.657,57.8884,0,0.000885,0,0
0:4:2.922,454.542,57.8746,0,0.000885,0,0
0:4:3.221,455.716,58.0263,0,0.000885,0,0
0:4:3.524,456.592,58.1366,0,0.000885,0,0
0:4:3.825,456.77,58.1573,0,0.000885,0,0
0:4:4.129,457.473,58.2469,0,0.000885,0,0
0:4:4.430,458.469,58.371,0,0.000885,0,0
0:4:4.730,458.532,58.3848,0,0.000885,0,0
0:4:5.028,458.821,58.4193,0,0.000885,0,0
0:4:5.330,459.177,58.4606,0,0.000885,0,0
0:4:5.623,460.053,58.5779,0,0.000885,0,0
0:4:5.921,460.991,58.6951,0,0.000885,0,0
0:4:6.225,461.463,58.7571,0,0.000885,0,0
0:4:6.521,462.05,58.833,0,0.000885,0,0
0:4:6.819,462.281,58.8605,0,0.000885,0,0
0:4:7.122,463.047,58.9571,0,0.000885,0,0
0:4:7.423,463.865,59.0605,0,0.000885,0,0
0:4:7.727,464.337,59.1225,0,0.000885,0,0
0:4:8.023,464.688,59.1639,0,0.000885,0,0
0:4:8.321,465.217,59.2329,0,0.000885,0,0
0:4:8.621,465.626,59.288,0,0.000885,0,0
0:4:8.924,466.565,59.4052,0,0.000885,0,0
0:4:9.226,467.384,59.5087,0,0.000885,0,0
0:4:9.525,467.913,59.5776,0,0.000885,0,0
0:4:9.827,467.913,59.5776,0,0.000885,0,0
0:4:10.122,469.087,59.7293,0,0.000885,0,0
0:4:10.421,469.848,59.8258,0,0.000885,0,0
0:4:10.724,470.377,59.8879,0,0.000885,0,0
0:4:11.024,470.729,59.9361,0,0.000885,0,0
0:4:11.327,471.2,59.9982,0,0.000885,0,0
0:4:11.625,471.783,60.0671,0,0.000885,0,0
0:4:11.921,473.015,60.2257,0,0.000885,0,0
0:4:12.225,473.366,60.274,0,0.000885,0,0
0:4:12.523,473.602,60.3015,0,0.000885,0,0
0:4:12.816,474.247,60.3843,0,0.000885,0,0
0:4:13.125,474.776,60.4532,0,0.000885,0,0
0:4:13.422,475.537,60.5498,0,0.000885,0,0
0:4:13.721,476.182,60.6325,0,0.000885,0,0
0:4:14.025,476.654,60.6877,0,0.000885,0,0
0:4:14.325,477.414,60.7842,0,0.000885,0,0
0:4:14.626,478.059,60.8669,0,0.000885,0,0
0:4:14.927,478.762,60.9565,0,0.000885,0,0
0:4:15.224,479.118,61.0048,0,0.000885,0,0
0:4:15.521,479.701,61.0807,0,0.000885,0,0
0:4:15.825,480.346,61.1565,0,0.000885,0,0
0:4:16.125,480.524,61.1841,0,0.000885,0,0
0:4:16.415,481.462,61.3013,0,0.000885,0,0
0:4:16.727,481.991,61.3702,0,0.000885,0,0
0:4:17.023,483.046,61.5012,0,0.000885,0,0
0:4:17.326,483.575,61.5702,0,0.000885,0,0
0:4:17.625,484.1,61.6391,0,0.000885,0,0
0:4:17.928,484.394,61.6736,0,0.000885,0,0
0:4:18.228,485.039,61.7563,0,0.000885,0,0
0:4:18.522,485.804,61.8529,0,0.000885,0,0
0:4:18.823,486.213,61.908,0,0.000885,0,0
0:4:19.127,486.564,61.9494,0,0.000885,0,0
0:4:19.428,487.267,62.039,0,0.000885,0,0
0:4:19.729,487.854,62.1149,0,0.000885,0,0
0:4:20.029,488.499,62.1976,0,0.000885,0,0
0:4:20.328,488.677,62.2183,0,0.000885,0,0
0:4:20.623,489.264,62.2941,0,0.000885,0,0
0:4:20.916,489.789,62.3631,0,0.000885,0,0
0:4:21.214,490.319,62.432,0,0.000885,0,0
0:4:21.521,491.315,62.5561,0,0.000885,0,0
0:4:21.820,491.96,62.6389,0,0.000885,0,0
0:4:22.125,492.663,62.7285,0,0.000885,0,0
0:4:22.421,493.134,62.7906,0,0.000885,0,0
0:4:22.728,493.601,62.8457,0,0.000885,0,0
0:4:23.022,494.073,62.9078,0,0.000885,0,0
0:4:23.320,494.718,62.9905,0,0.000885,0,0
0:4:23.624,495.479,63.087,0,0.000885,0,0
0:4:23.926,496.711,63.2456,0,0.000885,0,0
0:4:24.226,496.768,63.2525,0,0.000885,0,0
0:4:24.526,497.356,63.3283,0,0.000885,0,0
0:4:24.826,497.885,63.3904,0,0.000885,0,0
0:4:25.120,498.294,63.4456,0,0.000885,0,0
0:4:25.420,498.997,63.5352,0,0.000885,0,0
0:4:25.723,499.584,63.611,0,0.000885,0,0
0:4:26.029,500.229,63.6938,0,0.000885,0,0
0:4:26.326,500.229,63.6938,0,0.000885,0,0
0:4:26.621,501.577,63.8661,0,0.000885,0,0
0:4:26.917,501.871,63.9006,0,0.000885,0,0
0:4:27.222,502.4,63.9696,0,0.000885,0,0
0:4:27.521,503.396,64.0937,0,0.000885,0,0
0:4:27.828,503.868,64.1557,0,0.000885,0,0
0:4:28.122,504.628,64.2522,0,0.000885,0,0
0:4:28.430,505.273,64.335,0,0.000885,0,0
0:4:28.730,505.625,64.3763,0,0.000885,0,0
0:4:29.033,506.096,64.4384,0,0.000885,0,0
0:4:29.335,507.329,64.597,0,0.000885,0,0
0:4:29.635,507.502,64.6177,0,0.000885,0,0
0:4:29.935,508.267,64.7142,0,0.000885,0,0
0:4:30.229,508.205,64.7073,0,0.000885,0,0
0:4:30.529,508.556,64.7487,0,0.000885,0,0
0:4:30.821,509.966,64.9279,0,0.000885,0,0
0:4:31.130,510.14,64.9555,0,0.000885,0,0
0:4:31.426,510.727,65.0314,0,0.000885,0,0
0:4:31.722,511.786,65.1624,0,0.000885,0,0
0:4:32.029,512.137,65.2106,0,0.000885,0,0
0:4:32.322,512.604,65.2658,0,0.000885,0,0
0:4:32.622,513.191,65.3416,0,0.000885,0,0
0:4:32.927,514.13,65.4588,0,0.000885,0,0
0:4:33.223,514.891,65.5554,0,0.000885,0,0
0:4:33.529,515.184,65.5967,0,0.000885,0,0
0:4:33.829,515.949,65.6932,0,0.000885,0,0
0:4:34.133,516.065,65.707,0,0.000885,0,0
0:4:34.433,516.474,65.7622,0,0.000885,0,0
0:4:34.733,517.003,65.8242,0,0.000885,0,0
0:4:35.034,518.236,65.9828,0,0.000885,0,0
0:4:35.330,518.236,65.9828,0,0.000885,0,0
0:4:35.628,519.116,66.0931,0,0.000885,0,0
0:4:35.930,519.41,66.1345,0,0.000885,0,0
0:4:36.231,520.291,66.2448,0,0.000885,0,0
0:4:36.524,520.758,66.3069,0,0.000885,0,0
0:4:36.829,521.403,66.3896,0,0.000885,0,0
0:4:37.127,522.226,66.493,0,0.000885,0,0
0:4:37.422,522.871,66.5758,0,0.000885,0,0
0:4:37.718,523.044,66.5965,0,0.000885,0,0
0:4:38.023,523.867,66.6999,0,0.000885,0,0
0:4:38.322,524.686,66.8033,0,0.000885,0,0
0:4:38.628,524.863,66.8309,0,0.000885,0,0
0:4:38.929,525.802,66.9481,0,0.000885,0,0
0:4:39.231,525.976,66.9688,0,0.000885,0,0
0:4:39.533,526.683,67.0584,0,0.000885,0,0
0:4:39.834,526.976,67.0998,0,0.000885,0,0
0:4:40.134,527.386,67.148,0,0.000885,0,0
0:4:40.431,528.146,67.2446,0,0.000885,0,0
0:4:40.729,528.618,67.3066,0,0.000885,0,0
0:4:41.023,529.908,67.4721,0,0.000885,0,0
0:4:41.322,530.375,67.5273,0,0.000885,0,0
0:4:41.625,530.904,67.5962,0,0.000885,0,0
0:4:41.923,531.665,67.6927,0,0.000885,0,0
0:4:42.228,532.194,67.7617,0,0.000885,0,0
0:4:42.523,533.133,67.8789,0,0.000885,0,0
0:4:42.822,533.542,67.934,0,0.000885,0,0
0:4:43.124,534.129,68.0099,0,0.000885,0,0
0:4:43.425,534.538,68.0581,0,0.000885,0,0
0:4:43.729,535.539,68.1891,0,0.000885,0,0
0:4:44.029,534.187,68.0168,0,0.000885,0,0
0:4:44.330,529.73,67.4445,0,0.000885,0,0
0:4:44.628,529.672,67.4376,0,0.000885,0,0
0:4:44.930,530.726,67.5755,0,0.000885,0,0
0:4:45.219,531.901,67.7272,0,0.000885,0,0
0:4:45.528,531.958,67.7341,0,0.000885,0,0
0:4:45.824,532.666,67.8237,0,0.000885,0,0
0:4:46.128,534.013,67.9892,0,0.000885,0,0
0:4:46.427,535.303,68.1547,0,0.000885,0,0
0:4:46.728,535.833,68.2236,0,0.000885,0,0
0:4:47.028,499.055,63.5421,0,0.000885,0,0
0:4:47.329,491.137,62.5354,0,0.000885,0,0
0:4:47.626,490.554,62.4596,0,0.000885,0,0
0:4:47.923,490.906,62.501,0,0.000885,0,0
0:4:48.225,491.137,62.5354,0,0.000885,0,0
0:4:48.524,491.431,62.5699,0,0.000885,0,0
0:4:48.825,491.844,62.6251,0,0.000885,0,0
0:4:49.127,478.646,60.9428,0,0.000885,0,0
0:4:49.426,477.299,60.7704,0,0.000885,0,0
0:4:49.725,477.005,60.7359,0,0.000885,0,0
0:4:50.025,477.063,60.7428,0,0.000885,0,0
0:4:50.328,477.414,60.7842,0,0.000885,0,0
0:4:50.627,476.654,60.6877,0,0.000885,0,0
0:4:50.918,475.951,60.598,0,0.000885,0,0
0:4:51.227,466.974,59.4604,0,0.000885,0,0
0:4:51.520,413.836,52.6897,0,0.000885,0,0
0:4:51.826,412.137,52.476,0,0.000885,0,0
0:4:52.124,404.57,51.5107,0,0.000885,0,0
0:4:52.427,401.697,51.1453,0,0.000885,0,0
0:4:52.725,392.667,49.9939,0,0.000885,0,0
0:4:53.029,379.353,48.2978,0,0.000885,0,0
0:4:53.325,377.356,48.0496,0,0.000885,0,0
0:4:53.632,376.124,47.891,0,0.000885,0,0
0:4:53.672,376.124,47.891,0,0.000885,0,0