File: DataFile2021-06-08_041450.csv
Test ID:,Date Tested:,Time:,Test Type:,Diameter Avg. (mm):,Cyl. Corr. Factor:,Height (mm):,Age (days):,Weight (kN):,Break Type:,Ramp Rate (MPa/s):,Load at Break (kN):,Stress at Break (MPa):
12,6/8/2021,04:14,Cylinder,100,1,200,0,3.6,3,0.25,944.57,120.27
Sample Time,Load (kN),Stress (MPa),Long. Strain,Trans. Strain,Chan1 Deflection (mm),Chan2 Deflection (mm)
0:0:14.694,6.04068,0.772213,0,0.000885,0,0
0:0:15.191,12.0814,1.53753,0,0.000885,0,0
0:0:15.688,11.3207,1.441,0,0.000885,0,0
0:0:16.183,10.5556,1.34448,0,0.000885,0,0
0:0:16.679,10.0307,1.27553,0,0.000885,0,0
0:0:17.175,9.91064,1.26174,0,0.000885,0,0
0:0:17.671,10.0886,1.28242,0,0.000885,0,0
0:0:18.166,11.0271,1.40653,0,0.000885,0,0
0:0:18.662,11.3786,1.4479,0,0.000885,0,0
0:0:19.158,13.2557,1.68922,0,0.000885,0,0
0:0:19.655,14.3678,1.82711,0,0.000885,0,0
0:0:20.150,15.3063,1.95122,0,0.000885,0,0
0:0:20.657,16.365,2.08222,0,0.000885,0,0
0:0:21.161,17.655,2.24769,0,0.000885,0,0
0:0:21.667,18.945,2.41317,0,0.000885,0,0
0:0:22.166,19.5321,2.48901,0,0.000885,0,0
0:0:22.664,20.702,2.6338,0,0.000885,0,0
0:0:23.161,21.5828,2.75101,0,0.000885,0,0
0:0:23.658,22.4057,2.85443,0,0.000885,0,0
0:0:24.156,23.5756,2.99922,0,0.000885,0,0
0:0:24.654,24.9857,3.17848,0,0.000885,0,0
0:0:25.151,25.3371,3.22675,0,0.000885,0,0
0:0:25.657,26.6849,3.39912,0,0.000885,0,0
0:0:26.164,27.8014,3.53701,0,0.000885,0,0
0:0:26.669,29.5584,3.76454,0,0.000885,0,0
0:0:27.167,30.9107,3.93691,0,0.000885,0,0
0:0:27.663,31.3199,3.98517,0,0.000885,0,0
0:0:28.160,31.5557,4.01964,0,0.000885,0,0
0:0:28.658,32.9613,4.19891,0,0.000885,0,0
0:0:29.154,33.4907,4.26096,0,0.000885,0,0
0:0:29.651,34.7228,4.41954,0,0.000885,0,0
0:0:30.158,35.7192,4.55054,0,0.000885,0,0
0:0:30.662,36.3642,4.63328,0,0.000885,0,0
0:0:31.166,37.5964,4.78496,0,0.000885,0,0
0:0:31.665,38.7663,4.93665,0,0.000885,0,0
0:0:32.162,39.4735,5.02628,0,0.000885,0,0
0:0:32.659,40.1185,5.10902,0,0.000885,0,0
0:0:33.158,41.9957,5.34344,0,0.000885,0,0
0:0:33.655,42.5206,5.41238,0,0.000885,0,0
0:0:34.152,43.6949,5.56407,0,0.000885,0,0
0:0:34.650,44.4555,5.6606,0,0.000885,0,0
0:0:35.156,44.8692,5.71575,0,0.000885,0,0
0:0:35.661,46.1592,5.87433,0,0.000885,0,0
0:0:36.167,46.9777,5.98465,0,0.000885,0,0
0:0:36.666,47.9741,6.10875,0,0.000885,0,0
0:0:37.162,49.3842,6.28802,0,0.000885,0,0
0:0:37.662,50.732,6.46039,0,0.000885,0,0
0:0:38.159,51.5549,6.56381,0,0.000885,0,0
0:0:38.657,52.4356,6.67413,0,0.000885,0,0
0:0:39.154,53.4899,6.81202,0,0.000885,0,0
0:0:39.651,54.077,6.88786,0,0.000885,0,0
0:0:40.153,54.7798,6.97749,0,0.000885,0,0
0:0:40.659,55.8919,7.11539,0,0.000885,0,0
0:0:41.163,57.7691,7.35671,0,0.000885,0,0
0:0:41.665,58.2406,7.41876,0,0.000885,0,0
0:0:42.163,58.9434,7.50839,0,0.000885,0,0
0:0:42.662,60.1755,7.66008,0,0.000885,0,0
0:0:43.159,60.8205,7.74281,0,0.000885,0,0
0:0:43.657,61.8748,7.88071,0,0.000885,0,0
0:0:44.155,62.8712,8.00481,0,0.000885,0,0
0:0:44.650,64.1656,8.17029,0,0.000885,0,0
0:0:45.150,65.3355,8.32197,0,0.000885,0,0
0:0:45.658,66.0383,8.4116,0,0.000885,0,0
0:0:46.162,66.7456,8.50124,0,0.000885,0,0
0:0:46.665,67.9154,8.64603,0,0.000885,0,0
0:0:47.165,68.854,8.77013,0,0.000885,0,0
0:0:47.662,70.0862,8.92182,0,0.000885,0,0
0:0:48.159,70.6155,8.99076,0,0.000885,0,0
0:0:48.656,71.7898,9.14245,0,0.000885,0,0
0:0:49.155,72.9019,9.28034,0,0.000885,0,0
0:0:49.650,73.7248,9.38376,0,0.000885,0,0
0:0:50.148,74.4276,9.4734,0,0.000885,0,0
0:0:50.654,75.6598,9.63198,0,0.000885,0,0
0:0:51.160,76.8341,9.78366,0,0.000885,0,0
0:0:51.664,77.4791,9.8664,0,0.000885,0,0
0:0:52.162,78.3554,9.97671,0,0.000885,0,0
0:0:52.659,79.4719,10.1215,0,0.000885,0,0
0:0:53.155,79.6454,10.1422,0,0.000885,0,0
0:0:53.652,80.9977,10.3146,0,0.000885,0,0
0:0:54.149,82.4033,10.4938,0,0.000885,0,0
0:0:54.646,83.1061,10.5835,0,0.000885,0,0
0:0:55.152,84.4584,10.7558,0,0.000885,0,0
0:0:55.657,85.397,10.873,0,0.000885,0,0
0:0:56.162,85.9218,10.942,0,0.000885,0,0
0:0:56.660,87.3319,11.1212,0,0.000885,0,0
0:0:57.158,88.8577,11.3143,0,0.000885,0,0
0:0:57.656,89.9119,11.4453,0,0.000885,0,0
0:0:58.153,91.3754,11.6315,0,0.000885,0,0
0:0:58.652,91.9625,11.7073,0,0.000885,0,0
0:0:59.149,92.9011,11.8314,0,0.000885,0,0
0:0:59.647,93.6084,11.921,0,0.000885,0,0
0:1:0.157,94.8984,12.0796,0,0.000885,0,0
0:1:0.665,95.6012,12.1692,0,0.000885,0,0
0:1:1.170,96.6554,12.3071,0,0.000885,0,0
0:1:1.670,97.3004,12.3899,0,0.000885,0,0
0:1:2.170,98.8261,12.5829,0,0.000885,0,0
0:1:2.667,99.8225,12.707,0,0.000885,0,0
0:1:3.165,100.294,12.7691,0,0.000885,0,0
0:1:3.661,101.29,12.8932,0,0.000885,0,0
0:1:4.160,102.051,12.9966,0,0.000885,0,0
0:1:4.655,102.932,13.1069,0,0.000885,0,0
0:1:5.154,104.164,13.2655,0,0.000885,0,0
0:1:5.659,105.454,13.4241,0,0.000885,0,0
0:1:6.163,106.45,13.5551,0,0.000885,0,0
0:1:6.667,107.331,13.6654,0,0.000885,0,0
0:1:7.163,107.976,13.7481,0,0.000885,0,0
0:1:7.660,109.15,13.8998,0,0.000885,0,0
0:1:8.157,109.911,13.9964,0,0.000885,0,0
0:1:8.655,110.908,14.1205,0,0.000885,0,0
0:1:9.152,112.082,14.2721,0,0.000885,0,0
0:1:9.648,113.02,14.3894,0,0.000885,0,0
0:1:10.156,113.901,14.4997,0,0.000885,0,0
0:1:10.660,115.485,14.7065,0,0.000885,0,0
0:1:11.163,116.361,14.8168,0,0.000885,0,0
0:1:11.661,117.651,14.9823,0,0.000885,0,0
0:1:12.158,118.416,15.0788,0,0.000885,0,0
0:1:12.656,119.177,15.1754,0,0.000885,0,0
0:1:13.152,119.648,15.2305,0,0.000885,0,0
0:1:13.650,120.88,15.3891,0,0.000885,0,0
0:1:14.148,122.108,15.5477,0,0.000885,0,0
0:1:14.647,122.758,15.6304,0,0.000885,0,0
0:1:15.151,123.692,15.7476,0,0.000885,0,0
0:1:15.658,125.044,15.92,0,0.000885,0,0
0:1:16.161,126.04,16.051,0,0.000885,0,0
0:1:16.661,126.859,16.1544,0,0.000885,0,0
0:1:17.159,127.74,16.2647,0,0.000885,0,0
0:1:17.655,129.092,16.4371,0,0.000885,0,0
0:1:18.153,130.026,16.5543,0,0.000885,0,0
0:1:18.650,130.849,16.6577,0,0.000885,0,0
0:1:19.149,132.139,16.8232,0,0.000885,0,0
0:1:19.655,132.61,16.8853,0,0.000885,0,0
0:1:20.156,133.722,17.0232,0,0.000885,0,0
0:1:20.663,135.012,17.1886,0,0.000885,0,0
0:1:21.167,135.893,17.3058,0,0.000885,0,0
0:1:21.668,136.832,17.4231,0,0.000885,0,0
0:1:22.166,137.828,17.5472,0,0.000885,0,0
0:1:22.663,139.06,17.7057,0,0.000885,0,0
0:1:23.161,139.763,17.7954,0,0.000885,0,0
0:1:23.659,140.644,17.9057,0,0.000885,0,0
0:1:24.157,141.289,17.9884,0,0.000885,0,0
0:1:24.654,142.521,18.147,0,0.000885,0,0
0:1:25.153,143.402,18.2573,0,0.000885,0,0
0:1:25.660,144.634,18.4159,0,0.000885,0,0
0:1:26.164,146.04,18.5952,0,0.000885,0,0
0:1:26.668,146.627,18.671,0,0.000885,0,0
0:1:27.165,147.387,18.7675,0,0.000885,0,0
0:1:27.665,148.504,18.9054,0,0.000885,0,0
0:1:28.161,149.149,18.9882,0,0.000885,0,0
0:1:28.659,150.145,19.1192,0,0.000885,0,0
0:1:29.157,151.435,19.2846,0,0.000885,0,0
0:1:29.654,152.845,19.4639,0,0.000885,0,0
0:1:30.152,153.312,19.5191,0,0.000885,0,0
0:1:30.658,154.545,19.6776,0,0.000885,0,0
0:1:31.163,155.132,19.7535,0,0.000885,0,0
0:1:31.666,156.364,19.9121,0,0.000885,0,0
0:1:32.166,157.182,20.0155,0,0.000885,0,0
0:1:32.663,158.708,20.2085,0,0.000885,0,0
0:1:33.161,159.117,20.2568,0,0.000885,0,0
0:1:33.658,160.407,20.4223,0,0.000885,0,0
0:1:34.156,161.639,20.5809,0,0.000885,0,0
0:1:34.652,162.342,20.6705,0,0.000885,0,0
0:1:35.151,163.05,20.7601,0,0.000885,0,0
0:1:35.658,163.93,20.8704,0,0.000885,0,0
0:1:36.162,165.278,21.0428,0,0.000885,0,0
0:1:36.667,166.742,21.229,0,0.000885,0,0
0:1:37.165,167.035,21.2703,0,0.000885,0,0
0:1:37.661,168.267,21.422,0,0.000885,0,0
0:1:38.158,168.325,21.4289,0,0.000885,0,0
0:1:38.655,169.557,21.5875,0,0.000885,0,0
0:1:39.153,170.91,21.7599,0,0.000885,0,0
0:1:39.650,172.373,21.946,0,0.000885,0,0
0:1:40.156,173.369,22.077,0,0.000885,0,0
0:1:40.660,174.544,22.2218,0,0.000885,0,0
0:1:41.166,175.189,22.3045,0,0.000885,0,0
0:1:41.662,176.012,22.408,0,0.000885,0,0
0:1:42.159,176.479,22.47,0,0.000885,0,0
0:1:42.657,177.595,22.6148,0,0.000885,0,0
0:1:43.153,178.592,22.7389,0,0.000885,0,0
0:1:43.651,180.291,22.9526,0,0.000885,0,0
0:1:44.156,180.936,23.0354,0,0.000885,0,0
0:1:44.653,181.639,23.125,0,0.000885,0,0
0:1:45.158,183.164,23.3181,0,0.000885,0,0
0:1:45.665,183.809,23.4008,0,0.000885,0,0
0:1:46.167,184.045,23.4353,0,0.000885,0,0
0:1:46.666,185.864,23.6628,0,0.000885,0,0
0:1:47.161,186.567,23.7524,0,0.000885,0,0
0:1:47.661,187.506,23.8765,0,0.000885,0,0
0:1:48.158,188.796,24.0351,0,0.000885,0,0
0:1:48.656,190.086,24.2006,0,0.000885,0,0
0:1:49.152,190.495,24.2558,0,0.000885,0,0
0:1:49.657,191.496,24.3799,0,0.000885,0,0
0:1:50.158,192.959,24.566,0,0.000885,0,0
0:1:50.662,193.253,24.6074,0,0.000885,0,0
0:1:51.161,194.485,24.766,0,0.000885,0,0
0:1:51.662,195.891,24.9452,0,0.000885,0,0
0:1:52.155,196.714,25.0487,0,0.000885,0,0
0:1:52.649,197.417,25.1383,0,0.000885,0,0
0:1:53.153,198.707,25.2969,0,0.000885,0,0
0:1:53.657,199.472,25.4003,0,0.000885,0,0
0:1:54.146,200.41,25.5175,0,0.000885,0,0
0:1:54.652,201.7,25.683,0,0.000885,0,0
0:1:55.154,202.519,25.7864,0,0.000885,0,0
0:1:55.657,203.457,25.9036,0,0.000885,0,0
0:1:56.160,204.516,26.0415,0,0.000885,0,0
0:1:56.661,205.57,26.1725,0,0.000885,0,0
0:1:57.153,206.918,26.3449,0,0.000885,0,0
0:1:57.657,207.447,26.4138,0,0.000885,0,0
0:1:58.150,208.328,26.5241,0,0.000885,0,0
0:1:58.654,209.204,26.6344,0,0.000885,0,0
0:1:59.144,210.379,26.7861,0,0.000885,0,0
0:1:59.652,211.144,26.8827,0,0.000885,0,0
0:2:0.154,211.611,26.9447,0,0.000885,0,0
0:2:0.656,212.371,27.0412,0,0.000885,0,0
0:2:1.154,214.369,27.2963,0,0.000885,0,0
0:2:1.650,215.129,27.3929,0,0.000885,0,0
0:2:2.152,216.361,27.5515,0,0.000885,0,0
0:2:2.655,217.184,27.6549,0,0.000885,0,0
0:2:3.146,218.296,27.7928,0,0.000885,0,0
0:2:3.653,219.177,27.9031,0,0.000885,0,0
0:2:4.156,220.058,28.0203,0,0.000885,0,0
0:2:4.650,221.17,28.1582,0,0.000885,0,0
0:2:5.147,222.344,28.3099,0,0.000885,0,0
0:2:5.653,222.874,28.3788,0,0.000885,0,0
0:2:6.153,223.692,28.4822,0,0.000885,0,0
0:2:6.658,224.809,28.6201,0,0.000885,0,0
0:2:7.152,225.627,28.7305,0,0.000885,0,0
0:2:7.656,226.392,28.827,0,0.000885,0,0
0:2:8.152,228.269,29.0614,0,0.000885,0,0
0:2:8.654,228.972,29.151,0,0.000885,0,0
0:2:9.158,229.911,29.2751,0,0.000885,0,0
0:2:9.653,231.201,29.4406,0,0.000885,0,0
0:2:10.156,231.788,29.5096,0,0.000885,0,0
0:2:10.659,232.669,29.6268,0,0.000885,0,0
0:2:11.160,233.429,29.7233,0,0.000885,0,0
0:2:11.660,234.897,29.9095,0,0.000885,0,0
0:2:12.154,235.542,29.9922,0,0.000885,0,0
0:2:12.657,237.064,30.1852,0,0.000885,0,0
0:2:13.159,237.771,30.2749,0,0.000885,0,0
0:2:13.654,239.176,30.4541,0,0.000885,0,0
0:2:14.156,240.231,30.5851,0,0.000885,0,0
0:2:14.647,241.169,30.7092,0,0.000885,0,0
0:2:15.153,241.934,30.8058,0,0.000885,0,0
0:2:15.655,242.931,30.9299,0,0.000885,0,0
0:2:16.156,243.927,31.0609,0,0.000885,0,0
0:2:16.655,244.336,31.1091,0,0.000885,0,0
0:2:17.147,245.511,31.2608,0,0.000885,0,0
0:2:17.652,246.565,31.3918,0,0.000885,0,0
0:2:18.155,247.388,31.4953,0,0.000885,0,0
0:2:18.657,248.5,31.64,0,0.000885,0,0
0:2:19.148,249.616,31.7848,0,0.000885,0,0
0:2:19.654,250.146,31.8469,0,0.000885,0,0
0:2:20.157,251.378,32.0055,0,0.000885,0,0
0:2:20.659,252.548,32.1571,0,0.000885,0,0
0:2:21.158,253.077,32.2261,0,0.000885,0,0
0:2:21.652,254.189,32.364,0,0.000885,0,0
0:2:22.156,254.839,32.4467,0,0.000885,0,0
0:2:22.647,256.947,32.7156,0,0.000885,0,0
0:2:23.153,257.592,32.7984,0,0.000885,0,0
0:2:23.656,258.473,32.9087,0,0.000885,0,0
0:2:24.149,259.705,33.0673,0,0.000885,0,0
0:2:24.653,260.644,33.1845,0,0.000885,0,0
0:2:25.160,261.756,33.3293,0,0.000885,0,0
0:2:25.662,261.991,33.3568,0,0.000885,0,0
0:2:26.163,263.108,33.5016,0,0.000885,0,0
0:2:26.662,264.278,33.6464,0,0.000885,0,0
0:2:27.156,264.807,33.7154,0,0.000885,0,0
0:2:27.659,266.275,33.9015,0,0.000885,0,0
0:2:28.152,266.8,33.9705,0,0.000885,0,0
0:2:28.656,268.441,34.1773,0,0.000885,0,0
0:2:29.147,269.149,34.2669,0,0.000885,0,0
0:2:29.653,270.318,34.4186,0,0.000885,0,0
0:2:30.155,271.493,34.5703,0,0.000885,0,0
0:2:30.657,271.844,34.6117,0,0.000885,0,0
0:2:31.159,273.192,34.7841,0,0.000885,0,0
0:2:31.659,274.718,34.9771,0,0.000885,0,0
0:2:32.150,275.189,35.0392,0,0.000885,0,0
0:2:32.655,276.008,35.1426,0,0.000885,0,0
0:2:33.158,277.004,35.2667,0,0.000885,0,0
0:2:33.650,278.063,35.4046,0,0.000885,0,0
0:2:34.154,278.823,35.5011,0,0.000885,0,0
0:2:34.644,279.94,35.6459,0,0.000885,0,0
0:2:35.150,280.879,35.7631,0,0.000885,0,0
0:2:35.653,281.991,35.901,0,0.000885,0,0
0:2:36.153,283.632,36.1147,0,0.000885,0,0
0:2:36.657,284.339,36.2044,0,0.000885,0,0
0:2:37.159,284.806,36.2595,0,0.000885,0,0
0:2:37.653,286.096,36.425,0,0.000885,0,0
0:2:38.158,286.861,36.5215,0,0.000885,0,0
0:2:38.649,287.68,36.6318,0,0.000885,0,0
0:2:39.156,289.148,36.818,0,0.000885,0,0
0:2:39.646,289.851,36.9076,0,0.000885,0,0
0:2:40.146,290.26,36.9559,0,0.000885,0,0
0:2:40.649,291.492,37.1145,0,0.000885,0,0
0:2:41.150,292.782,37.28,0,0.000885,0,0
0:2:41.648,294.423,37.4868,0,0.000885,0,0
0:2:42.154,294.717,37.5282,0,0.000885,0,0
0:2:42.657,295.718,37.6523,0,0.000885,0,0
0:2:43.150,296.888,37.804,0,0.000885,0,0
0:2:43.655,297.946,37.935,0,0.000885,0,0
0:2:44.145,298.707,38.0315,0,0.000885,0,0
0:2:44.649,299.588,38.1418,0,0.000885,0,0
0:2:45.156,300.526,38.2659,0,0.000885,0,0
0:2:45.659,301.523,38.39,0,0.000885,0,0
0:2:46.160,302.519,38.521,0,0.000885,0,0
0:2:46.660,303.867,38.6865,0,0.000885,0,0
0:2:47.152,304.454,38.7623,0,0.000885,0,0
0:2:47.659,305.508,38.9002,0,0.000885,0,0
0:2:48.162,306.74,39.0588,0,0.000885,0,0
0:2:48.656,307.506,39.1553,0,0.000885,0,0
0:2:49.158,308.502,39.2794,0,0.000885,0,0
0:2:49.662,309.556,39.4173,0,0.000885,0,0
0:2:50.155,310.201,39.4932,0,0.000885,0,0
0:2:50.659,311.433,39.6517,0,0.000885,0,0
0:2:51.160,312.665,39.8103,0,0.000885,0,0
0:2:51.660,313.488,39.9137,0,0.000885,0,0
0:2:52.163,314.6,40.0585,0,0.000885,0,0
0:2:52.659,315.423,40.162,0,0.000885,0,0
0:2:53.161,316.184,40.2585,0,0.000885,0,0
0:2:53.664,317.301,40.3964,0,0.000885,0,0
0:2:54.157,317.946,40.4791,0,0.000885,0,0
0:2:54.650,319.409,40.6653,0,0.000885,0,0
0:2:55.155,320.348,40.7894,0,0.000885,0,0
0:2:55.656,321.464,40.9273,0,0.000885,0,0
0:2:56.153,322.345,41.0445,0,0.000885,0,0
0:2:56.660,322.754,41.0928,0,0.000885,0,0
0:2:57.151,324.16,41.272,0,0.000885,0,0
0:2:57.656,325.276,41.4168,0,0.000885,0,0
0:2:58.149,326.095,41.5202,0,0.000885,0,0
0:2:58.651,327.153,41.6512,0,0.000885,0,0
0:2:59.158,327.856,41.7409,0,0.000885,0,0
0:2:59.649,328.973,41.8857,0,0.000885,0,0
0:3:0.149,329.555,41.9615,0,0.000885,0,0
0:3:0.652,331.375,42.189,0,0.000885,0,0
0:3:1.151,331.49,42.2097,0,0.000885,0,0
0:3:1.659,333.252,42.4303,0,0.000885,0,0
0:3:2.150,334.075,42.5338,0,0.000885,0,0
0:3:2.656,335.071,42.6648,0,0.000885,0,0
0:3:3.159,336.655,42.8647,0,0.000885,0,0
0:3:3.652,336.828,42.8854,0,0.000885,0,0
0:3:4.156,337.709,42.9957,0,0.000885,0,0
0:3:4.648,338.59,43.1129,0,0.000885,0,0
0:3:5.158,339.764,43.2577,0,0.000885,0,0
0:3:5.663,341.112,43.4301,0,0.000885,0,0
0:3:6.161,341.463,43.4783,0,0.000885,0,0
0:3:6.659,342.286,43.5818,0,0.000885,0,0
0:3:7.162,343.576,43.7472,0,0.000885,0,0
0:3:7.657,344.688,43.8851,0,0.000885,0,0
0:3:8.160,345.805,44.0299,0,0.000885,0,0
0:3:8.664,346.623,44.1333,0,0.000885,0,0
0:3:9.158,347.682,44.2712,0,0.000885,0,0
0:3:9.650,348.327,44.3471,0,0.000885,0,0
0:3:10.157,349.559,44.5057,0,0.000885,0,0
0:3:10.661,350.378,44.6091,0,0.000885,0,0
0:3:11.162,352.019,44.8228,0,0.000885,0,0
0:3:11.661,352.9,44.9331,0,0.000885,0,0
0:3:12.154,353.66,45.0297,0,0.000885,0,0
0:3:12.658,354.835,45.1813,0,0.000885,0,0
0:3:13.150,355.422,45.2503,0,0.000885,0,0
0:3:13.653,356.654,45.4089,0,0.000885,0,0
0:3:14.147,357.766,45.5537,0,0.000885,0,0
0:3:14.650,358.06,45.5881,0,0.000885,0,0
0:3:15.153,359.412,45.7605,0,0.000885,0,0
0:3:15.659,359.705,45.8019,0,0.000885,0,0
0:3:16.159,361.578,46.0363,0,0.000885,0,0
0:3:16.660,362.343,46.1328,0,0.000885,0,0
0:3:17.151,363.397,46.2707,0,0.000885,0,0
0:3:17.664,364.394,46.3948,0,0.000885,0,0
0:3:18.158,364.981,46.4707,0,0.000885,0,0
0:3:18.650,365.977,46.5948,0,0.000885,0,0
0:3:19.164,366.978,46.7258,0,0.000885,0,0
0:3:19.658,367.912,46.843,0,0.000885,0,0
0:3:20.159,369.674,47.0705,0,0.000885,0,0
0:3:20.664,370.083,47.1188,0,0.000885,0,0
0:3:21.165,371.96,47.3601,0,0.000885,0,0
0:3:21.664,372.547,47.4359,0,0.000885,0,0
0:3:22.167,373.486,47.5531,0,0.000885,0,0
0:3:22.661,373.78,47.5945,0,0.000885,0,0
0:3:23.161,374.425,47.6704,0,0.000885,0,0
0:3:23.653,376.186,47.8979,0,0.000885,0,0
0:3:24.155,377.183,48.022,0,0.000885,0,0
0:3:24.649,377.77,48.0978,0,0.000885,0,0
0:3:25.150,379.117,48.2702,0,0.000885,0,0
0:3:25.653,379.936,48.3736,0,0.000885,0,0
0:3:26.152,380.875,48.4977,0,0.000885,0,0
0:3:26.658,381.755,48.608,0,0.000885,0,0
0:3:27.162,383.575,48.8356,0,0.000885,0,0
0:3:27.664,384.162,48.9114,0,0.000885,0,0
0:3:28.159,384.98,49.0148,0,0.000885,0,0
0:3:28.651,386.039,49.1527,0,0.000885,0,0
0:3:29.156,386.684,49.2355,0,0.000885,0,0
0:3:29.661,387.387,49.3251,0,0.000885,0,0
0:3:30.155,389.086,49.5388,0,0.000885,0,0
0:3:30.660,390.202,49.6836,0,0.000885,0,0
0:3:31.160,390.438,49.7112,0,0.000885,0,0
0:3:31.659,391.786,49.8836,0,0.000885,0,0
0:3:32.164,393.192,50.0628,0,0.000885,0,0
0:3:32.656,393.957,50.1594,0,0.000885,0,0
0:3:33.161,395.189,50.3179,0,0.000885,0,0
0:3:33.664,396.007,50.4214,0,0.000885,0,0
0:3:34.167,397.355,50.5937,0,0.000885,0,0
0:3:34.661,397.827,50.6558,0,0.000885,0,0
0:3:35.163,399.117,50.8144,0,0.000885,0,0
0:3:35.664,399.295,50.8419,0,0.000885,0,0
0:3:36.165,400.291,50.966,0,0.000885,0,0
0:3:36.665,401.523,51.1246,0,0.000885,0,0
0:3:37.155,402.635,51.2625,0,0.000885,0,0
0:3:37.649,403.516,51.3797,0,0.000885,0,0
0:3:38.151,404.57,51.5107,0,0.000885,0,0
0:3:38.644,405.509,51.6279,0,0.000885,0,0
0:3:39.149,406.799,51.7934,0,0.000885,0,0
0:3:39.653,407.386,51.8693,0,0.000885,0,0
0:3:40.155,408.502,52.014,0,0.000885,0,0
0:3:40.656,409.614,52.1519,0,0.000885,0,0
0:3:41.155,410.317,52.2416,0,0.000885,0,0
0:3:41.660,411.376,52.3795,0,0.000885,0,0
0:3:42.165,412.897,52.5725,0,0.000885,0,0
0:3:42.656,413.369,52.6346,0,0.000885,0,0
0:3:43.162,414.717,52.8001,0,0.000885,0,0
0:3:43.665,416.007,52.9655,0,0.000885,0,0
0:3:44.160,416.714,53.0552,0,0.000885,0,0
0:3:44.662,417.648,53.1793,0,0.000885,0,0
0:3:45.163,418.764,53.3172,0,0.000885,0,0
0:3:45.667,419.587,53.4206,0,0.000885,0,0
0:3:46.166,419.997,53.4757,0,0.000885,0,0
0:3:46.664,421.287,53.6412,0,0.000885,0,0
0:3:47.157,422.341,53.7722,0,0.000885,0,0
0:3:47.663,423.457,53.917,0,0.000885,0,0
0:3:48.166,424.569,54.0549,0,0.000885,0,0
0:3:48.658,424.805,54.0894,0,0.000885,0,0
0:3:49.152,426.153,54.2617,0,0.000885,0,0
0:3:49.656,427.034,54.3721,0,0.000885,0,0
0:3:50.152,428.03,54.4962,0,0.000885,0,0
0:3:50.657,429.204,54.6478,0,0.000885,0,0
0:3:51.157,430.085,54.7582,0,0.000885,0,0
0:3:51.657,431.082,54.8892,0,0.000885,0,0
0:3:52.161,431.784,54.9788,0,0.000885,0,0
0:3:52.653,432.781,55.1029,0,0.000885,0,0
0:3:53.156,434.013,55.2615,0,0.000885,0,0
0:3:53.663,435.303,55.427,0,0.000885,0,0
0:3:54.166,436.299,55.5511,0,0.000885,0,0
0:3:54.657,437.18,55.6614,0,0.000885,0,0
0:3:55.163,438.297,55.8062,0,0.000885,0,0
0:3:55.667,439.115,55.9096,0,0.000885,0,0
0:3:56.167,439.88,56.0061,0,0.000885,0,0
0:3:56.669,441.112,56.1647,0,0.000885,0,0
0:3:57.164,441.522,56.213,0,0.000885,0,0
0:3:57.665,442.869,56.3853,0,0.000885,0,0
0:3:58.168,444.102,56.5439,0,0.000885,0,0
0:3:58.662,445.04,56.6611,0,0.000885,0,0
0:3:59.166,446.388,56.8335,0,0.000885,0,0
0:3:59.668,446.859,56.8955,0,0.000885,0,0
0:4:0.163,447.798,57.0127,0,0.000885,0,0
0:4:0.666,448.674,57.13,0,0.000885,0,0
0:4:1.167,449.791,57.2679,0,0.000885,0,0
0:4:1.668,450.903,57.4126,0,0.000885,0,0
0:4:2.162,451.962,57.5436,0,0.000885,0,0
0:4:2.652,452.549,57.6195,0,0.000885,0,0
0:4:3.144,453.661,57.7643,0,0.000885,0,0
0:4:3.660,454.835,57.9091,0,0.000885,0,0
0:4:4.164,455.422,57.9849,0,0.000885,0,0
0:4:4.656,456.241,58.0883,0,0.000885,0,0
0:4:5.162,457.824,58.2952,0,0.000885,0,0
0:4:5.664,458.821,58.4193,0,0.000885,0,0
0:4:6.164,459.408,58.4951,0,0.000885,0,0
0:4:6.669,460.876,58.6813,0,0.000885,0,0
0:4:7.160,461.988,58.8192,0,0.000885,0,0
0:4:7.666,462.517,58.8881,0,0.000885,0,0
0:4:8.156,463.456,59.0122,0,0.000885,0,0
0:4:8.659,464.688,59.1639,0,0.000885,0,0
0:4:9.152,465.275,59.2398,0,0.000885,0,0
0:4:9.646,466.214,59.357,0,0.000885,0,0
0:4:10.151,466.916,59.4466,0,0.000885,0,0
0:4:10.653,467.971,59.5845,0,0.000885,0,0
0:4:11.153,468.909,59.7017,0,0.000885,0,0
0:4:11.648,470.435,59.8948,0,0.000885,0,0
0:4:12.160,471.845,60.074,0,0.000885,0,0
0:4:12.655,472.49,60.1568,0,0.000885,0,0
0:4:13.148,473.135,60.2395,0,0.000885,0,0
0:4:13.651,474.247,60.3843,0,0.000885,0,0
0:4:14.155,475.537,60.5498,0,0.000885,0,0
0:4:14.649,475.951,60.598,0,0.000885,0,0
0:4:15.150,477.179,60.7566,0,0.000885,0,0
0:4:15.653,477.534,60.798,0,0.000885,0,0
0:4:16.154,478.762,60.9565,0,0.000885,0,0
0:4:16.659,480.052,61.122,0,0.000885,0,0
0:4:17.164,481.462,61.3013,0,0.000885,0,0
0:4:17.657,481.929,61.3633,0,0.000885,0,0
0:4:18.152,483.161,61.515,0,0.000885,0,0
0:4:18.655,484.394,61.6736,0,0.000885,0,0
0:4:19.159,485.626,61.8322,0,0.000885,0,0
0:4:19.664,486.097,61.8942,0,0.000885,0,0
0:4:20.159,487.094,62.0183,0,0.000885,0,0
0:4:20.665,487.681,62.0942,0,0.000885,0,0
0:4:21.165,488.793,62.2321,0,0.000885,0,0
0:4:21.666,490.319,62.432,0,0.000885,0,0
0:4:22.170,490.67,62.4734,0,0.000885,0,0
0:4:22.664,492.018,62.6458,0,0.000885,0,0
0:4:23.156,493.37,62.8181,0,0.000885,0,0
0:4:23.651,494.073,62.9078,0,0.000885,0,0
0:4:24.165,495.069,63.0319,0,0.000885,0,0
0:4:24.658,495.888,63.1353,0,0.000885,0,0
0:4:25.152,496.946,63.2732,0,0.000885,0,0
0:4:25.655,497.943,63.3973,0,0.000885,0,0
0:4:26.155,499.175,63.5559,0,0.000885,0,0
0:4:26.657,499.936,63.6524,0,0.000885,0,0
0:4:27.171,501.052,63.7972,0,0.000885,0,0
0:4:27.666,501.755,63.8868,0,0.000885,0,0
0:4:28.167,502.987,64.0454,0,0.000885,0,0
0:4:28.660,504.161,64.1902,0,0.000885,0,0
0:4:29.153,504.922,64.2867,0,0.000885,0,0
0:4:29.648,506.154,64.4453,0,0.000885,0,0
0:4:30.152,506.684,64.5142,0,0.000885,0,0
0:4:30.654,507.502,64.6177,0,0.000885,0,0
0:4:31.152,508.556,64.7487,0,0.000885,0,0
0:4:31.667,509.495,64.8728,0,0.000885,0,0
0:4:32.159,510.496,64.9969,0,0.000885,0,0
0:4:32.662,511.844,65.1692,0,0.000885,0,0
0:4:33.169,512.84,65.2934,0,0.000885,0,0
0:4:33.660,514.13,65.4588,0,0.000885,0,0
0:4:34.155,514.833,65.5485,0,0.000885,0,0
0:4:34.658,515.304,65.6105,0,0.000885,0,0
0:4:35.156,516.652,65.7829,0,0.000885,0,0
0:4:35.660,517.648,65.907,0,0.000885,0,0
0:4:36.161,518.12,65.969,0,0.000885,0,0
0:4:36.659,519.352,66.1276,0,0.000885,0,0
0:4:37.163,520.286,66.2448,0,0.000885,0,0
0:4:37.670,521.287,66.3689,0,0.000885,0,0
0:4:38.162,522.577,66.5344,0,0.000885,0,0
0:4:38.668,523.983,66.7137,0,0.000885,0,0
0:4:39.159,524.686,66.8033,0,0.000885,0,0
0:4:39.654,525.215,66.8723,0,0.000885,0,0
0:4:40.147,526.211,66.9964,0,0.000885,0,0
0:4:40.651,527.034,67.1067,0,0.000885,0,0
0:4:41.154,528.56,67.2997,0,0.000885,0,0
0:4:41.655,529.143,67.3756,0,0.000885,0,0
0:4:42.158,530.143,67.4997,0,0.000885,0,0
0:4:42.653,531.082,67.6169,0,0.000885,0,0
0:4:43.166,532.021,67.741,0,0.000885,0,0
0:4:43.660,533.017,67.8651,0,0.000885,0,0
0:4:44.161,533.836,67.9685,0,0.000885,0,0
0:4:44.657,535.419,68.1685,0,0.000885,0,0
0:4:45.172,536.536,68.3133,0,0.000885,0,0
0:4:45.674,537.71,68.4649,0,0.000885,0,0
0:4:46.176,538.644,68.5822,0,0.000885,0,0
0:4:46.675,539.116,68.6442,0,0.000885,0,0
0:4:47.169,540.112,68.7683,0,0.000885,0,0
0:4:47.672,540.993,68.8786,0,0.000885,0,0
0:4:48.174,542.105,69.0234,0,0.000885,0,0
0:4:48.668,542.75,69.1062,0,0.000885,0,0
0:4:49.172,543.631,69.2165,0,0.000885,0,0
0:4:49.673,544.747,69.3613,0,0.000885,0,0
0:4:50.177,545.801,69.4923,0,0.000885,0,0
0:4:50.678,547.269,69.6784,0,0.000885,0,0
0:4:51.179,548.088,69.7818,0,0.000885,0,0
0:4:51.673,549.146,69.9197,0,0.000885,0,0
0:4:52.168,549.791,70.0025,0,0.000885,0,0
0:4:52.660,551.255,70.1886,0,0.000885,0,0
0:4:53.167,552.136,70.2989,0,0.000885,0,0
0:4:53.670,552.78,70.3817,0,0.000885,0,0
0:4:54.162,553.719,70.4989,0,0.000885,0,0
0:4:54.668,555.125,70.6782,0,0.000885,0,0
0:4:55.163,555.654,70.7471,0,0.000885,0,0
0:4:55.669,557.238,70.9471,0,0.000885,0,0
0:4:56.169,557.473,70.9815,0,0.000885,0,0
0:4:56.671,558.941,71.1677,0,0.000885,0,0
0:4:57.173,559.466,71.2366,0,0.000885,0,0
0:4:57.669,560.583,71.3745,0,0.000885,0,0
0:4:58.161,561.637,71.5124,0,0.000885,0,0
0:4:58.665,562.633,71.6365,0,0.000885,0,0
0:4:59.169,563.808,71.7882,0,0.000885,0,0
0:4:59.662,564.92,71.9261,0,0.000885,0,0
0:5:0.155,565.507,72.002,0,0.000885,0,0
0:5:0.659,566.388,72.1123,0,0.000885,0,0
0:5:1.161,567.62,72.2708,0,0.000885,0,0
0:5:1.661,568.265,72.3536,0,0.000885,0,0
0:5:2.165,569.613,72.526,0,0.000885,0,0
0:5:2.670,570.551,72.6432,0,0.000885,0,0
0:5:3.162,571.725,72.7948,0,0.000885,0,0
0:5:3.655,572.606,72.9052,0,0.000885,0,0
0:5:4.171,573.776,73.0568,0,0.000885,0,0
0:5:4.673,574.541,73.1534,0,0.000885,0,0
0:5:5.176,575.302,73.2499,0,0.000885,0,0
0:5:5.678,576.183,73.3602,0,0.000885,0,0
0:5:6.179,577.237,73.4981,0,0.000885,0,0
0:5:6.673,578.527,73.6636,0,0.000885,0,0
0:5:7.176,579.879,73.8291,0,0.000885,0,0
0:5:7.669,580.23,73.8773,0,0.000885,0,0
0:5:8.162,581.694,74.0635,0,0.000885,0,0
0:5:8.665,582.223,74.1324,0,0.000885,0,0
0:5:9.171,583.34,74.2703,0,0.000885,0,0
0:5:9.674,584.216,74.3875,0,0.000885,0,0
0:5:10.174,585.097,74.4979,0,0.000885,0,0
0:5:10.679,586.387,74.6633,0,0.000885,0,0
0:5:11.180,587.383,74.7874,0,0.000885,0,0
0:5:11.677,588.558,74.9391,0,0.000885,0,0
0:5:12.172,589.318,75.0356,0,0.000885,0,0
0:5:12.666,590.261,75.1529,0,0.000885,0,0
0:5:13.161,590.844,75.2287,0,0.000885,0,0
0:5:13.658,592.196,75.4011,0,0.000885,0,0
0:5:14.164,593.428,75.5596,0,0.000885,0,0
0:5:14.662,594.193,75.6562,0,0.000885,0,0
0:5:15.158,594.661,75.7113,0,0.000885,0,0
0:5:15.664,595.893,75.8699,0,0.000885,0,0
0:5:16.167,596.951,76.0078,0,0.000885,0,0
0:5:16.671,597.774,76.1112,0,0.000885,0,0
0:5:17.177,599.122,76.2836,0,0.000885,0,0
0:5:17.674,600.296,76.4353,0,0.000885,0,0
0:5:18.167,601.119,76.5387,0,0.000885,0,0
0:5:18.664,601.706,76.6145,0,0.000885,0,0
0:5:19.159,602.761,76.7455,0,0.000885,0,0
0:5:19.666,604.229,76.9317,0,0.000885,0,0
0:5:20.171,604.642,76.9869,0,0.000885,0,0
0:5:20.676,605.052,77.0351,0,0.000885,0,0
0:5:21.181,606.987,77.2833,0,0.000885,0,0
0:5:21.684,608.632,77.4902,0,0.000885,0,0
0:5:22.180,609.277,77.5729,0,0.000885,0,0
0:5:22.676,609.571,77.6143,0,0.000885,0,0
0:5:23.172,611.217,77.8211,0,0.000885,0,0
0:5:23.676,611.568,77.8694,0,0.000885,0,0
0:5:24.172,612.8,78.0211,0,0.000885,0,0
0:5:24.666,613.739,78.1452,0,0.000885,0,0
0:5:25.174,614.678,78.2624,0,0.000885,0,0
0:5:25.679,615.616,78.3796,0,0.000885,0,0
0:5:26.179,616.968,78.552,0,0.000885,0,0
0:5:26.675,617.084,78.5727,0,0.000885,0,0
0:5:27.172,618.552,78.7588,0,0.000885,0,0
0:5:27.666,619.668,78.8967,0,0.000885,0,0
0:5:28.175,620.549,79.0139,0,0.000885,0,0
0:5:28.671,621.723,79.1587,0,0.000885,0,0
0:5:29.166,623.129,79.338,0,0.000885,0,0
0:5:29.662,624.246,79.4828,0,0.000885,0,0
0:5:30.163,624.539,79.5172,0,0.000885,0,0
0:5:30.672,625.242,79.6069,0,0.000885,0,0
0:5:31.175,626.301,79.7448,0,0.000885,0,0
0:5:31.676,627.417,79.8827,0,0.000885,0,0
0:5:32.172,628.592,80.0343,0,0.000885,0,0
0:5:32.666,629.352,80.1309,0,0.000885,0,0
0:5:33.162,630.233,80.2412,0,0.000885,0,0
0:5:33.660,631.523,80.4067,0,0.000885,0,0
0:5:34.155,632.817,80.5721,0,0.000885,0,0
0:5:34.661,633.872,80.71,0,0.000885,0,0
0:5:35.172,634.401,80.7721,0,0.000885,0,0
0:5:35.678,635.517,80.9169,0,0.000885,0,0
0:5:36.181,636.105,80.9927,0,0.000885,0,0
0:5:36.684,636.923,81.0961,0,0.000885,0,0
0:5:37.180,638.04,81.2409,0,0.000885,0,0
0:5:37.676,639.507,81.4271,0,0.000885,0,0
0:5:38.173,640.21,81.5167,0,0.000885,0,0
0:5:38.668,641.385,81.6615,0,0.000885,0,0
0:5:39.164,642.323,81.7856,0,0.000885,0,0
0:5:39.661,643.146,81.889,0,0.000885,0,0
0:5:40.167,644.32,82.0407,0,0.000885,0,0
0:5:40.677,645.201,82.151,0,0.000885,0,0
0:5:41.178,645.846,82.2338,0,0.000885,0,0
0:5:41.683,647.021,82.3786,0,0.000885,0,0
0:5:42.182,647.901,82.4958,0,0.000885,0,0
0:5:42.677,649.191,82.6612,0,0.000885,0,0
0:5:43.174,649.956,82.7578,0,0.000885,0,0
0:5:43.666,650.953,82.8819,0,0.000885,0,0
0:5:44.164,651.718,82.9784,0,0.000885,0,0
0:5:44.660,652.714,83.1094,0,0.000885,0,0
0:5:45.158,654.36,83.3162,0,0.000885,0,0
0:5:45.663,655.414,83.4472,0,0.000885,0,0
0:5:46.165,656.473,83.5851,0,0.000885,0,0
0:5:46.668,657.002,83.6541,0,0.000885,0,0
0:5:47.163,657.354,83.6955,0,0.000885,0,0
0:5:47.661,658.644,83.8609,0,0.000885,0,0
0:5:48.165,659.409,83.9575,0,0.000885,0,0
0:5:48.662,661.228,84.1919,0,0.000885,0,0
0:5:49.179,661.815,84.2677,0,0.000885,0,0
0:5:49.675,662.576,84.3643,0,0.000885,0,0
0:5:50.169,664.102,84.5573,0,0.000885,0,0
0:5:50.677,665.103,84.6814,0,0.000885,0,0
0:5:51.181,666.099,84.8124,0,0.000885,0,0
0:5:51.685,666.628,84.8745,0,0.000885,0,0
0:5:52.181,667.389,84.9779,0,0.000885,0,0
0:5:52.677,668.563,85.1227,0,0.000885,0,0
0:5:53.170,669.622,85.2606,0,0.000885,0,0
0:5:53.667,670.325,85.3502,0,0.000885,0,0
0:5:54.174,672.202,85.5846,0,0.000885,0,0
0:5:54.669,672.731,85.6536,0,0.000885,0,0
0:5:55.178,673.906,85.8053,0,0.000885,0,0
0:5:55.683,674.551,85.888,0,0.000885,0,0
0:5:56.184,675.316,85.9845,0,0.000885,0,0
0:5:56.681,676.428,86.1224,0,0.000885,0,0
0:5:57.177,677.308,86.2396,0,0.000885,0,0
0:5:57.671,678.309,86.3637,0,0.000885,0,0
0:5:58.169,679.19,86.474,0,0.000885,0,0
0:5:58.665,680.422,86.6326,0,0.000885,0,0
0:5:59.163,682.006,86.8326,0,0.000885,0,0
0:5:59.659,682.709,86.9222,0,0.000885,0,0
0:6:0.159,683.709,87.0532,0,0.000885,0,0
0:6:0.668,684.706,87.1773,0,0.000885,0,0
0:6:1.169,685.293,87.2532,0,0.000885,0,0
0:6:1.671,686.467,87.4048,0,0.000885,0,0
0:6:2.168,687.17,87.4945,0,0.000885,0,0
0:6:2.675,688.051,87.6048,0,0.000885,0,0
0:6:3.170,688.932,87.7151,0,0.000885,0,0
0:6:3.678,690.284,87.8875,0,0.000885,0,0
0:6:4.171,691.458,88.0392,0,0.000885,0,0
0:6:4.668,692.57,88.1839,0,0.000885,0,0
0:6:5.163,693.745,88.3287,0,0.000885,0,0
0:6:5.670,694.625,88.4459,0,0.000885,0,0
0:6:6.175,695.155,88.508,0,0.000885,0,0
0:6:6.679,696.151,88.639,0,0.000885,0,0
0:6:7.172,697.21,88.77,0,0.000885,0,0
0:6:7.669,697.913,88.8596,0,0.000885,0,0
0:6:8.164,698.909,88.9906,0,0.000885,0,0
0:6:8.663,699.852,89.1078,0,0.000885,0,0
0:6:9.157,700.671,89.2113,0,0.000885,0,0
0:6:9.663,701.845,89.3629,0,0.000885,0,0
0:6:10.168,703.433,89.5629,0,0.000885,0,0
0:6:10.675,704.251,89.6663,0,0.000885,0,0
0:6:11.177,704.607,89.7146,0,0.000885,0,0
0:6:11.671,706.071,89.9007,0,0.000885,0,0
0:6:12.166,707.365,90.0662,0,0.000885,0,0
0:6:12.662,707.89,90.1283,0,0.000885,0,0
0:6:13.158,709.006,90.2731,0,0.000885,0,0
0:6:13.656,710.065,90.411,0,0.000885,0,0
0:6:14.151,711.004,90.5282,0,0.000885,0,0
0:6:14.658,711.827,90.6316,0,0.000885,0,0
0:6:15.162,713.174,90.804,0,0.000885,0,0
0:6:15.668,713.819,90.8867,0,0.000885,0,0
0:6:16.171,714.7,90.997,0,0.000885,0,0
0:6:16.669,715.701,91.128,0,0.000885,0,0
0:6:17.166,717.165,91.3142,0,0.000885,0,0
0:6:17.662,718.281,91.4521,0,0.000885,0,0
0:6:18.159,718.753,91.5141,0,0.000885,0,0
0:6:18.654,720.1,91.6865,0,0.000885,0,0
0:6:19.151,720.452,91.7279,0,0.000885,0,0
0:6:19.645,721.626,91.8795,0,0.000885,0,0
0:6:20.142,722.921,92.045,0,0.000885,0,0
0:6:20.649,723.801,92.1553,0,0.000885,0,0
0:6:21.153,724.856,92.2932,0,0.000885,0,0
0:6:21.656,725.563,92.3829,0,0.000885,0,0
0:6:22.163,726.323,92.4794,0,0.000885,0,0
0:6:22.661,727.498,92.6311,0,0.000885,0,0
0:6:23.156,728.788,92.7896,0,0.000885,0,0
0:6:23.655,729.611,92.9,0,0.000885,0,0
0:6:24.151,730.376,92.9965,0,0.000885,0,0
0:6:24.646,731.256,93.1068,0,0.000885,0,0
0:6:25.142,732.956,93.3205,0,0.000885,0,0
0:6:25.645,733.307,93.3688,0,0.000885,0,0
0:6:26.150,734.659,93.5412,0,0.000885,0,0
0:6:26.654,735.362,93.6308,0,0.000885,0,0
0:6:27.153,736.301,93.748,0,0.000885,0,0
0:6:27.649,737.066,93.8445,0,0.000885,0,0
0:6:28.143,738.24,93.9962,0,0.000885,0,0
0:6:28.639,739.063,94.0996,0,0.000885,0,0
0:6:29.136,740.002,94.2169,0,0.000885,0,0
0:6:29.631,740.998,94.3479,0,0.000885,0,0
0:6:30.136,742.644,94.5547,0,0.000885,0,0
0:6:30.640,743.111,94.6168,0,0.000885,0,0
0:6:31.143,744.285,94.7684,0,0.000885,0,0
0:6:31.641,745.46,94.9132,0,0.000885,0,0
0:6:32.138,746.162,95.0029,0,0.000885,0,0
0:6:32.634,746.928,95.0994,0,0.000885,0,0
0:6:33.130,748.631,95.32,0,0.000885,0,0
0:6:33.624,749.276,95.4028,0,0.000885,0,0
0:6:34.121,750.682,95.582,0,0.000885,0,0
0:6:34.617,751.269,95.6579,0,0.000885,0,0
0:6:35.120,751.447,95.6785,0,0.000885,0,0
0:6:35.627,752.621,95.8233,0,0.000885,0,0
0:6:36.128,753.911,95.9888,0,0.000885,0,0
0:6:36.627,754.734,96.0991,0,0.000885,0,0
0:6:37.123,756.202,96.2853,0,0.000885,0,0
0:6:37.620,757.434,96.437,0,0.000885,0,0
0:6:38.115,758.079,96.5197,0,0.000885,0,0
0:6:38.611,758.431,96.568,0,0.000885,0,0
0:6:39.109,759.841,96.7472,0,0.000885,0,0
0:6:39.605,760.779,96.8644,0,0.000885,0,0
0:6:40.106,761.487,96.9541,0,0.000885,0,0
0:6:40.614,763.07,97.154,0,0.000885,0,0
0:6:41.117,763.715,97.2368,0,0.000885,0,0
0:6:41.617,764.774,97.3747,0,0.000885,0,0
0:6:42.113,766.122,97.547,0,0.000885,0,0
0:6:42.611,766.824,97.6367,0,0.000885,0,0
0:6:43.107,767.941,97.7746,0,0.000885,0,0
0:6:43.603,768.822,97.8918,0,0.000885,0,0
0:6:44.100,769.938,98.0297,0,0.000885,0,0
0:6:44.596,770.699,98.1262,0,0.000885,0,0
0:6:45.095,771.58,98.2434,0,0.000885,0,0
0:6:45.603,772.812,98.3951,0,0.000885,0,0
0:6:46.105,773.693,98.5123,0,0.000885,0,0
0:6:46.606,774.106,98.5606,0,0.000885,0,0
0:6:47.103,775.281,98.7122,0,0.000885,0,0
0:6:47.600,776.748,98.8984,0,0.000885,0,0
0:6:48.096,777.567,99.0018,0,0.000885,0,0
0:6:48.593,778.861,99.1673,0,0.000885,0,0
0:6:49.089,779.68,99.2707,0,0.000885,0,0
0:6:49.585,780.445,99.3672,0,0.000885,0,0
0:6:50.081,781.441,99.4982,0,0.000885,0,0
0:6:50.588,782.851,99.6775,0,0.000885,0,0
0:6:51.091,783.439,99.7533,0,0.000885,0,0
0:6:51.594,784.141,99.843,0,0.000885,0,0
0:6:52.092,785.667,100.036,0,0.000885,0,0
0:6:52.588,786.196,100.105,0,0.000885,0,0
0:6:53.082,787.549,100.27,0,0.000885,0,0
0:6:53.580,788.661,100.415,0,0.000885,0,0
0:6:54.073,789.074,100.47,0,0.000885,0,0
0:6:54.580,789.662,100.539,0,0.000885,0,0
0:6:55.074,791.187,100.739,0,0.000885,0,0
0:6:55.582,792.126,100.857,0,0.000885,0,0
0:6:56.086,793.242,101.001,0,0.000885,0,0
0:6:56.590,794.59,101.174,0,0.000885,0,0
0:6:57.086,795.471,101.284,0,0.000885,0,0
0:6:57.582,796.236,101.381,0,0.000885,0,0
0:6:58.075,797.175,101.498,0,0.000885,0,0
0:6:58.571,797.878,101.587,0,0.000885,0,0
0:6:59.066,798.758,101.698,0,0.000885,0,0
0:6:59.562,799.99,101.856,0,0.000885,0,0
0:7:0.068,801.165,102.008,0,0.000885,0,0
0:7:0.573,802.517,102.18,0,0.000885,0,0
0:7:1.075,803.162,102.263,0,0.000885,0,0
0:7:1.570,804.336,102.408,0,0.000885,0,0
0:7:2.087,805.511,102.56,0,0.000885,0,0
0:7:2.582,806.391,102.67,0,0.000885,0,0
0:7:3.077,807.152,102.773,0,0.000885,0,0
0:7:3.572,807.917,102.87,0,0.000885,0,0
0:7:4.070,808.442,102.932,0,0.000885,0,0
0:7:4.576,809.794,103.104,0,0.000885,0,0
0:7:5.076,810.849,103.242,0,0.000885,0,0
0:7:5.583,812.023,103.387,0,0.000885,0,0
0:7:6.086,812.846,103.497,0,0.000885,0,0
0:7:6.586,813.611,103.594,0,0.000885,0,0
0:7:7.083,814.785,103.739,0,0.000885,0,0
0:7:7.579,815.96,103.89,0,0.000885,0,0
0:7:8.086,816.484,103.959,0,0.000885,0,0
0:7:8.583,817.895,104.138,0,0.000885,0,0
0:7:9.076,819.011,104.276,0,0.000885,0,0
0:7:9.573,820.065,104.414,0,0.000885,0,0
0:7:10.069,820.888,104.518,0,0.000885,0,0
0:7:10.574,821.36,104.58,0,0.000885,0,0
0:7:11.076,822.414,104.711,0,0.000885,0,0
0:7:11.579,823.646,104.869,0,0.000885,0,0
0:7:12.087,824.411,104.966,0,0.000885,0,0
0:7:12.583,825.523,105.111,0,0.000885,0,0
0:7:13.076,826.466,105.228,0,0.000885,0,0
0:7:13.571,827.698,105.386,0,0.000885,0,0
0:7:14.075,828.223,105.455,0,0.000885,0,0
0:7:14.571,829.46,105.607,0,0.000885,0,0
0:7:15.077,830.456,105.738,0,0.000885,0,0
0:7:15.584,831.511,105.869,0,0.000885,0,0
0:7:16.089,832.627,106.014,0,0.000885,0,0
0:7:16.585,833.566,106.131,0,0.000885,0,0
0:7:17.079,834.566,106.262,0,0.000885,0,0
0:7:17.587,835.563,106.386,0,0.000885,0,0
0:7:18.079,836.328,106.483,0,0.000885,0,0
0:7:18.576,837.44,106.627,0,0.000885,0,0
0:7:19.071,838.379,106.745,0,0.000885,0,0
0:7:19.577,839.379,106.876,0,0.000885,0,0
0:7:20.084,840.491,107.014,0,0.000885,0,0
0:7:20.588,840.963,107.076,0,0.000885,0,0
0:7:21.091,842.373,107.255,0,0.000885,0,0
0:7:21.589,843.134,107.351,0,0.000885,0,0
0:7:22.086,844.602,107.538,0,0.000885,0,0
0:7:22.580,845.309,107.627,0,0.000885,0,0
0:7:23.076,846.127,107.731,0,0.000885,0,0
0:7:23.584,847.715,107.937,0,0.000885,0,0
0:7:24.091,848.24,107.999,0,0.000885,0,0
0:7:24.586,849.357,108.144,0,0.000885,0,0
0:7:25.084,849.944,108.22,0,0.000885,0,0
0:7:25.588,850.767,108.324,0,0.000885,0,0
0:7:26.093,852.235,108.51,0,0.000885,0,0
0:7:26.595,853.053,108.613,0,0.000885,0,0
0:7:27.091,854.29,108.772,0,0.000885,0,0
0:7:27.587,855.108,108.875,0,0.000885,0,0
0:7:28.080,856.403,109.041,0,0.000885,0,0
0:7:28.578,857.163,109.137,0,0.000885,0,0
0:7:29.073,857.928,109.234,0,0.000885,0,0
0:7:29.579,859.041,109.378,0,0.000885,0,0
0:7:30.074,860.393,109.551,0,0.000885,0,0
0:7:30.579,861.096,109.64,0,0.000885,0,0
0:7:31.084,861.803,109.73,0,0.000885,0,0
0:7:31.587,863.329,109.923,0,0.000885,0,0
0:7:32.080,863.796,109.985,0,0.000885,0,0
0:7:32.576,864.797,110.109,0,0.000885,0,0
0:7:33.072,866.029,110.268,0,0.000885,0,0
0:7:33.567,866.674,110.351,0,0.000885,0,0
0:7:34.065,867.203,110.413,0,0.000885,0,0
0:7:34.560,868.902,110.633,0,0.000885,0,0
0:7:35.064,869.667,110.73,0,0.000885,0,0
0:7:35.570,870.9,110.888,0,0.000885,0,0
0:7:36.071,871.838,111.006,0,0.000885,0,0
0:7:36.570,873.19,111.178,0,0.000885,0,0
0:7:37.076,873.951,111.274,0,0.000885,0,0
0:7:37.572,875.183,111.433,0,0.000885,0,0
0:7:38.069,875.361,111.454,0,0.000885,0,0
0:7:38.582,875.655,111.495,0,0.000885,0,0
0:7:39.080,877.825,111.771,0,0.000885,0,0
0:7:39.577,878.884,111.902,0,0.000885,0,0
0:7:40.076,879.351,111.964,0,0.000885,0,0
0:7:40.582,880.41,112.095,0,0.000885,0,0
0:7:41.088,881.233,112.198,0,0.000885,0,0
0:7:41.589,882.523,112.364,0,0.000885,0,0
0:7:42.087,883.639,112.509,0,0.000885,0,0
0:7:42.582,884.578,112.626,0,0.000885,0,0
0:7:43.077,885.868,112.791,0,0.000885,0,0
0:7:43.575,886.571,112.881,0,0.000885,0,0
0:7:44.071,887.278,112.971,0,0.000885,0,0
0:7:44.577,888.394,113.115,0,0.000885,0,0
0:7:45.072,888.919,113.177,0,0.000885,0,0
0:7:45.577,890.329,113.364,0,0.000885,0,0
0:7:46.081,891.677,113.529,0,0.000885,0,0
0:7:46.586,892.62,113.653,0,0.000885,0,0
0:7:47.081,893.559,113.77,0,0.000885,0,0
0:7:47.577,894.319,113.867,0,0.000885,0,0
0:7:48.082,895.494,114.019,0,0.000885,0,0
0:7:48.589,896.668,114.17,0,0.000885,0,0
0:7:49.093,897.313,114.253,0,0.000885,0,0
0:7:49.589,898.136,114.356,0,0.000885,0,0
0:7:50.095,899.604,114.543,0,0.000885,0,0
0:7:50.597,899.897,114.577,0,0.000885,0,0
0:7:51.101,901.365,114.763,0,0.000885,0,0
0:7:51.597,902.304,114.887,0,0.000885,0,0
0:7:52.093,903.3,115.011,0,0.000885,0,0
0:7:52.587,904.653,115.184,0,0.000885,0,0
0:7:53.081,905.533,115.294,0,0.000885,0,0
0:7:53.576,906,115.356,0,0.000885,0,0
0:7:54.072,907.117,115.501,0,0.000885,0,0
0:7:54.569,908.113,115.625,0,0.000885,0,0
0:7:55.071,908.994,115.735,0,0.000885,0,0
0:7:55.576,910.346,115.908,0,0.000885,0,0
0:7:56.076,910.934,115.984,0,0.000885,0,0
0:7:56.583,912.108,116.135,0,0.000885,0,0
0:7:57.080,912.753,116.218,0,0.000885,0,0
0:7:57.576,913.749,116.342,0,0.000885,0,0
0:7:58.073,914.688,116.459,0,0.000885,0,0
0:7:58.569,915.569,116.577,0,0.000885,0,0
0:7:59.065,917.272,116.79,0,0.000885,0,0
0:7:59.563,917.975,116.88,0,0.000885,0,0
0:8:0.061,918.74,116.976,0,0.000885,0,0
0:8:0.567,919.857,117.121,0,0.000885,0,0
0:8:1.069,920.853,117.245,0,0.000885,0,0
0:8:1.571,921.97,117.39,0,0.000885,0,0
0:8:2.067,923.375,117.569,0,0.000885,0,0
0:8:2.573,923.669,117.604,0,0.000885,0,0
0:8:3.069,925.079,117.783,0,0.000885,0,0
0:8:3.575,925.724,117.866,0,0.000885,0,0
0:8:4.070,926.662,117.983,0,0.000885,0,0
0:8:4.576,927.957,118.149,0,0.000885,0,0
0:8:5.072,928.838,118.266,0,0.000885,0,0
0:8:5.580,929.425,118.335,0,0.000885,0,0
0:8:6.081,930.185,118.438,0,0.000885,0,0
0:8:6.588,931.831,118.645,0,0.000885,0,0
0:8:7.082,932.356,118.714,0,0.000885,0,0
0:8:7.577,934.002,118.921,0,0.000885,0,0
0:8:8.083,934.883,119.031,0,0.000885,0,0
0:8:8.578,934.647,119.004,0,0.000885,0,0
0:8:9.074,934.238,118.948,0,0.000885,0,0
0:8:9.578,936.173,119.197,0,0.000885,0,0
0:8:10.074,937.876,119.417,0,0.000885,0,0
0:8:10.580,939.402,119.61,0,0.000885,0,0
0:8:11.083,941.164,119.831,0,0.000885,0,0
0:8:11.585,942.569,120.01,0,0.000885,0,0
0:8:12.080,941.515,119.879,0,0.000885,0,0
0:8:12.585,940.87,119.796,0,0.000885,0,0
0:8:13.097,942.689,120.024,0,0.000885,0,0
0:8:13.594,944.393,120.245,0,0.000885,0,0
0:8:14.089,944.451,120.251,0,0.000885,0,0
0:8:14.582,940.399,119.734,0,0.000885,0,0
0:8:15.085,940.105,119.7,0,0.000885,0,0
0:8:15.589,940.163,119.707,0,0.000885,0,0
0:8:16.091,942.28,119.976,0,0.000885,0,0
0:8:16.593,832.218,105.959,0,0.000885,0,0
0:8:17.086,803.629,102.318,0,0.000885,0,0
0:8:17.581,799.817,101.836,0,0.000885,0,0
0:8:18.085,800.342,101.905,0,0.000885,0,0
0:8:18.579,800.284,101.898,0,0.000885,0,0
0:8:19.082,798.643,101.684,0,0.000885,0,0
0:8:19.579,794.59,101.174,0,0.000885,0,0
0:8:20.081,772.932,98.4158,0,0.000885,0,0
0:8:20.586,669.853,85.2881,0,0.000885,0,0
0:8:20.909,662.167,84.3091,0,0.000885,0,0