File: DataFile2021-06-29_043618.csv
Test ID:,Date Tested:,Time:,Test Type:,Width (mm):,Depth (mm):,Height (mm):,Age (days):,Weight (kN):,Ramp Rate (MPa/s):,Load at Break (kN):,Stress at Break (MPa):
12,6/29/2021,04:36,Cube,150,150,150,7,8.37,0.02,80.47,3.58
Sample Time,Load (kN),Stress (MPa),Long. Strain,Trans. Strain,Chan1 Deflection (mm),Chan2 Deflection (mm)
0:0:10.176,9.5014,0.42058,0,0.000885,0,0
0:0:10.274,11.73,0.524002,0,0.000885,0,0
0:0:10.373,11.73,0.524002,0,0.000885,0,0
0:0:10.473,12.4328,0.551581,0,0.000885,0,0
0:0:10.570,12.7264,0.56537,0,0.000885,0,0
0:0:10.665,12.6107,0.558475,0,0.000885,0,0
0:0:10.764,12.6107,0.558475,0,0.000885,0,0
0:0:10.864,12.4906,0.558475,0,0.000885,0,0
0:0:10.959,12.5529,0.558475,0,0.000885,0,0
0:0:11.068,12.3171,0.544686,0,0.000885,0,0
0:0:11.164,12.3171,0.544686,0,0.000885,0,0
0:0:11.263,11.9657,0.530896,0,0.000885,0,0
0:0:11.359,11.9657,0.530896,0,0.000885,0,0
0:0:11.459,11.9657,0.530896,0,0.000885,0,0
0:0:11.567,11.9657,0.530896,0,0.000885,0,0
0:0:11.671,11.9657,0.530896,0,0.000885,0,0
0:0:11.769,12.375,0.551581,0,0.000885,0,0
0:0:11.869,12.2015,0.544686,0,0.000885,0,0
0:0:11.968,12.2015,0.544686,0,0.000885,0,0
0:0:12.065,12.0235,0.537791,0,0.000885,0,0
0:0:12.171,12.1392,0.537791,0,0.000885,0,0
0:0:12.270,12.8465,0.572265,0,0.000885,0,0
0:0:12.369,12.8465,0.572265,0,0.000885,0,0
0:0:12.470,13.1356,0.586054,0,0.000885,0,0
0:0:12.567,12.9621,0.57916,0,0.000885,0,0
0:0:12.662,12.9621,0.57916,0,0.000885,0,0
0:0:12.769,13.2557,0.586054,0,0.000885,0,0
0:0:12.868,13.2557,0.586054,0,0.000885,0,0
0:0:12.967,13.9007,0.620528,0,0.000885,0,0
0:0:13.064,13.9007,0.620528,0,0.000885,0,0
0:0:13.169,13.7228,0.606739,0,0.000885,0,0
0:0:13.268,14.6613,0.655002,0,0.000885,0,0
0:0:13.368,15.3063,0.682581,0,0.000885,0,0
0:0:13.466,15.3063,0.682581,0,0.000885,0,0
0:0:13.564,15.4843,0.689476,0,0.000885,0,0
0:0:13.669,16.1871,0.717055,0,0.000885,0,0
0:0:13.767,16.8321,0.751529,0,0.000885,0,0
0:0:13.866,16.8321,0.751529,0,0.000885,0,0
0:0:13.966,17.1835,0.765318,0,0.000885,0,0
0:0:14.063,17.3036,0.772213,0,0.000885,0,0
0:0:14.169,17.7128,0.786002,0,0.000885,0,0
0:0:14.266,17.7128,0.786002,0,0.000885,0,0
0:0:14.365,17.9486,0.799792,0,0.000885,0,0
0:0:14.464,18.7092,0.834266,0,0.000885,0,0
0:0:14.564,18.7092,0.834266,0,0.000885,0,0
0:0:14.669,18.767,0.834266,0,0.000885,0,0
0:0:14.764,19.2964,0.85495,0,0.000885,0,0
0:0:14.864,19.5321,0.868739,0,0.000885,0,0
0:0:14.962,19.5321,0.868739,0,0.000885,0,0
0:0:15.059,19.7634,0.875634,0,0.000885,0,0
0:0:15.168,20.235,0.896318,0,0.000885,0,0
0:0:15.264,20.4707,0.910108,0,0.000885,0,0
0:0:15.362,20.4707,0.910108,0,0.000885,0,0
0:0:15.460,20.6442,0.917003,0,0.000885,0,0
0:0:15.559,21.0534,0.937687,0,0.000885,0,0
0:0:15.659,21.9342,0.972161,0,0.000885,0,0
0:0:15.759,21.9342,0.972161,0,0.000885,0,0
0:0:15.859,22.2278,0.98595,0,0.000885,0,0
0:0:15.959,22.6993,1.00663,0,0.000885,0,0
0:0:16.060,23.2864,1.03421,0,0.000885,0,0
0:0:16.160,23.2864,1.03421,0,0.000885,0,0
0:0:16.263,23.8692,1.06179,0,0.000885,0,0
0:0:16.358,23.8692,1.06179,0,0.000885,0,0
0:0:16.458,23.8692,1.06179,0,0.000885,0,0
0:0:16.557,24.5141,1.08937,0,0.000885,0,0
0:0:16.657,24.3985,1.08248,0,0.000885,0,0
0:0:16.755,24.9857,1.11006,0,0.000885,0,0
0:0:16.866,24.9857,1.11006,0,0.000885,0,0
0:0:16.965,25.1013,1.11695,0,0.000885,0,0
0:0:17.065,25.6307,1.13763,0,0.000885,0,0
0:0:17.164,25.8664,1.15142,0,0.000885,0,0
0:0:17.270,25.8664,1.15142,0,0.000885,0,0
0:0:17.369,26.2178,1.16521,0,0.000885,0,0
0:0:17.468,26.2178,1.16521,0,0.000885,0,0
0:0:17.567,26.9206,1.19969,0,0.000885,0,0
0:0:17.664,26.9206,1.19969,0,0.000885,0,0
0:0:17.770,27.0363,1.19969,0,0.000885,0,0
0:0:17.869,27.2142,1.20658,0,0.000885,0,0
0:0:17.969,27.7436,1.23416,0,0.000885,0,0
0:0:18.068,27.7436,1.23416,0,0.000885,0,0
0:0:18.164,27.8592,1.24106,0,0.000885,0,0
0:0:18.270,27.6813,1.22727,0,0.000885,0,0
0:0:18.368,27.8592,1.24106,0,0.000885,0,0
0:0:18.468,27.8592,1.24106,0,0.000885,0,0
0:0:18.567,28.0371,1.24795,0,0.000885,0,0
0:0:18.665,28.3263,1.26174,0,0.000885,0,0
0:0:18.770,28.9134,1.28242,0,0.000885,0,0
0:0:18.868,28.9134,1.28242,0,0.000885,0,0
0:0:18.968,29.1492,1.29621,0,0.000885,0,0
0:0:19.068,29.207,1.29621,0,0.000885,0,0
0:0:19.165,29.207,1.29621,0,0.000885,0,0
0:0:19.269,28.9713,1.28932,0,0.000885,0,0
0:0:19.368,29.7364,1.32379,0,0.000885,0,0
0:0:19.467,29.9721,1.33069,0,0.000885,0,0
0:0:19.567,29.9721,1.33069,0,0.000885,0,0
0:0:19.665,30.0878,1.33758,0,0.000885,0,0
0:0:19.770,30.1456,1.33758,0,0.000885,0,0
0:0:19.868,30.8484,1.37206,0,0.000885,0,0
0:0:19.968,30.8484,1.37206,0,0.000885,0,0
0:0:20.067,31.3199,1.39274,0,0.000885,0,0
0:0:20.164,31.3778,1.39274,0,0.000885,0,0
0:0:20.270,31.5557,1.39964,0,0.000885,0,0
0:0:20.366,31.5557,1.39964,0,0.000885,0,0
0:0:20.466,31.4934,1.39964,0,0.000885,0,0
0:0:20.565,32.0227,1.42032,0,0.000885,0,0
0:0:20.665,32.3742,1.441,0,0.000885,0,0
0:0:20.763,32.3742,1.441,0,0.000885,0,0
0:0:20.865,33.1971,1.47548,0,0.000885,0,0
0:0:20.964,33.4328,1.48237,0,0.000885,0,0
0:0:21.065,33.6641,1.49616,0,0.000885,0,0
0:0:21.164,33.6641,1.49616,0,0.000885,0,0
0:0:21.265,34.1935,1.51685,0,0.000885,0,0
0:0:21.364,34.3091,1.52374,0,0.000885,0,0
0:0:21.460,34.3091,1.52374,0,0.000885,0,0
0:0:21.560,34.4871,1.53064,0,0.000885,0,0
0:0:21.660,34.6605,1.53753,0,0.000885,0,0
0:0:21.759,35.1899,1.56511,0,0.000885,0,0
0:0:21.857,35.1899,1.56511,0,0.000885,0,0
0:0:21.969,35.5991,1.5789,0,0.000885,0,0
0:0:22.069,35.5413,1.5789,0,0.000885,0,0
0:0:22.168,36.0706,1.60648,0,0.000885,0,0
0:0:22.265,36.0706,1.60648,0,0.000885,0,0
0:0:22.371,36.8891,1.64095,0,0.000885,0,0
0:0:22.470,37.245,1.65474,0,0.000885,0,0
0:0:22.571,37.4184,1.66164,0,0.000885,0,0
0:0:22.668,37.4184,1.66164,0,0.000885,0,0
0:0:22.765,37.6542,1.67543,0,0.000885,0,0
0:0:22.860,37.712,1.67543,0,0.000885,0,0
0:0:22.959,38.4148,1.7099,0,0.000885,0,0
0:0:23.059,38.4148,1.7099,0,0.000885,0,0
0:0:23.158,38.9442,1.73058,0,0.000885,0,0
0:0:23.266,39.4735,1.75127,0,0.000885,0,0
0:0:23.371,39.4112,1.75127,0,0.000885,0,0
0:0:23.471,39.4112,1.75127,0,0.000885,0,0
0:0:23.572,39.5892,1.75816,0,0.000885,0,0
0:0:23.670,39.7671,1.76506,0,0.000885,0,0
0:0:23.766,39.7671,1.76506,0,0.000885,0,0
0:0:23.872,40.1185,1.78574,0,0.000885,0,0
0:0:23.971,40.7635,1.81332,0,0.000885,0,0
0:0:24.071,41.0571,1.82711,0,0.000885,0,0
0:0:24.171,41.0571,1.82711,0,0.000885,0,0
0:0:24.268,41.4663,1.8409,0,0.000885,0,0
0:0:24.372,41.1149,1.82711,0,0.000885,0,0
0:0:24.472,41.7599,1.85469,0,0.000885,0,0
0:0:24.570,41.7599,1.85469,0,0.000885,0,0
0:0:24.670,42.0535,1.86848,0,0.000885,0,0
0:0:24.767,42.6407,1.89606,0,0.000885,0,0
0:0:24.861,42.7563,1.90295,0,0.000885,0,0
0:0:24.959,42.7563,1.90295,0,0.000885,0,0
0:0:25.058,43.0499,1.91674,0,0.000885,0,0
0:0:25.158,42.9921,1.90985,0,0.000885,0,0
0:0:25.268,43.2234,1.92364,0,0.000885,0,0
0:0:25.373,43.2234,1.92364,0,0.000885,0,0
0:0:25.471,43.4591,1.93053,0,0.000885,0,0
0:0:25.572,44.1041,1.95811,0,0.000885,0,0
0:0:25.671,44.2242,1.96501,0,0.000885,0,0
0:0:25.770,44.2242,1.96501,0,0.000885,0,0
0:0:25.870,44.3977,1.9719,0,0.000885,0,0
0:0:25.972,44.5756,1.9788,0,0.000885,0,0
0:0:26.071,44.9849,1.99948,0,0.000885,0,0
0:0:26.172,44.9849,1.99948,0,0.000885,0,0
0:0:26.271,45.3363,2.01327,0,0.000885,0,0
0:0:26.371,45.572,2.02706,0,0.000885,0,0
0:0:26.470,45.572,2.02706,0,0.000885,0,0
0:0:26.570,45.9234,2.04085,0,0.000885,0,0
0:0:26.669,46.0391,2.04774,0,0.000885,0,0
0:0:26.769,46.862,2.08222,0,0.000885,0,0
0:0:26.867,46.862,2.08222,0,0.000885,0,0
0:0:26.966,46.8042,2.08222,0,0.000885,0,0
0:0:27.067,46.9777,2.08911,0,0.000885,0,0
0:0:27.165,47.3291,2.1029,0,0.000885,0,0
0:0:27.264,47.3291,2.1029,0,0.000885,0,0
0:0:27.370,47.7428,2.12359,0,0.000885,0,0
0:0:27.466,47.9741,2.13048,0,0.000885,0,0
0:0:27.567,48.0942,2.13737,0,0.000885,0,0
0:0:27.665,48.0942,2.13737,0,0.000885,0,0
0:0:27.761,48.7392,2.16495,0,0.000885,0,0
0:0:27.869,48.6235,2.15806,0,0.000885,0,0
0:0:27.966,48.7392,2.16495,0,0.000885,0,0
0:0:28.065,48.7392,2.16495,0,0.000885,0,0
0:0:28.165,49.3263,2.19253,0,0.000885,0,0
0:0:28.264,49.5576,2.19943,0,0.000885,0,0
0:0:28.370,50.2649,2.2339,0,0.000885,0,0
0:0:28.467,50.2649,2.2339,0,0.000885,0,0
0:0:28.566,49.7356,2.21322,0,0.000885,0,0
0:0:28.665,50.4962,2.24769,0,0.000885,0,0
0:0:28.760,50.4962,2.24769,0,0.000885,0,0
0:0:28.868,51.0255,2.26838,0,0.000885,0,0
0:0:28.965,51.2035,2.27527,0,0.000885,0,0
0:0:29.061,51.5549,2.28906,0,0.000885,0,0
0:0:29.164,51.5549,2.28906,0,0.000885,0,0
0:0:29.260,51.8485,2.30285,0,0.000885,0,0
0:0:29.369,52.0798,2.31664,0,0.000885,0,0
0:0:29.466,52.8449,2.35111,0,0.000885,0,0
0:0:29.565,52.8449,2.35111,0,0.000885,0,0
0:0:29.666,53.1963,2.3649,0,0.000885,0,0
0:0:29.761,53.3698,2.3718,0,0.000885,0,0
0:0:29.869,53.5477,2.37869,0,0.000885,0,0
0:0:29.965,53.5477,2.37869,0,0.000885,0,0
0:0:30.064,53.8991,2.39248,0,0.000885,0,0
0:0:30.161,54.4863,2.42006,0,0.000885,0,0
0:0:30.260,54.4863,2.42006,0,0.000885,0,0
0:0:30.357,54.6642,2.42695,0,0.000885,0,0
0:0:30.465,55.1313,2.44764,0,0.000885,0,0
0:0:30.561,55.367,2.46143,0,0.000885,0,0
0:0:30.664,55.367,2.46143,0,0.000885,0,0
0:0:30.761,55.5405,2.46832,0,0.000885,0,0
0:0:30.860,55.8919,2.48211,0,0.000885,0,0
0:0:30.959,56.3634,2.5028,0,0.000885,0,0
0:0:31.060,56.3634,2.5028,0,0.000885,0,0
0:0:31.160,56.7148,2.52348,0,0.000885,0,0
0:0:31.261,56.8305,2.52348,0,0.000885,0,0
0:0:31.361,57.0662,2.53727,0,0.000885,0,0
0:0:31.459,57.0662,2.53727,0,0.000885,0,0
0:0:31.558,57.302,2.54417,0,0.000885,0,0
0:0:31.659,57.4176,2.55106,0,0.000885,0,0
0:0:31.758,57.8892,2.57174,0,0.000885,0,0
0:0:31.858,57.8892,2.57174,0,0.000885,0,0
0:0:31.955,58.2984,2.59243,0,0.000885,0,0
0:0:32.068,58.4763,2.59932,0,0.000885,0,0
0:0:32.168,58.8856,2.62001,0,0.000885,0,0
0:0:32.268,58.8856,2.62001,0,0.000885,0,0
0:0:32.365,59.059,2.6269,0,0.000885,0,0
0:0:32.460,59.4727,2.64069,0,0.000885,0,0
0:0:32.569,59.8241,2.66138,0,0.000885,0,0
0:0:32.668,59.8241,2.66138,0,0.000885,0,0
0:0:32.768,59.5884,2.64759,0,0.000885,0,0
0:0:32.866,60.1177,2.67517,0,0.000885,0,0
0:0:32.971,60.3535,2.68206,0,0.000885,0,0
0:0:33.069,60.3535,2.68206,0,0.000885,0,0
0:0:33.169,60.7627,2.70274,0,0.000885,0,0
0:0:33.267,61.2298,2.72343,0,0.000885,0,0
0:0:33.365,61.2298,2.72343,0,0.000885,0,0
0:0:33.471,61.4077,2.73032,0,0.000885,0,0
0:0:33.569,61.8748,2.75101,0,0.000885,0,0
0:0:33.669,62.0527,2.7579,0,0.000885,0,0
0:0:33.769,62.0527,2.7579,0,0.000885,0,0
0:0:33.866,62.4619,2.77859,0,0.000885,0,0
0:0:33.971,63.0491,2.79927,0,0.000885,0,0
0:0:34.068,63.2848,2.81306,0,0.000885,0,0
0:0:34.168,63.2848,2.81306,0,0.000885,0,0
0:0:34.268,63.8097,2.83375,0,0.000885,0,0
0:0:34.367,64.1033,2.84753,0,0.000885,0,0
0:0:34.472,64.3969,2.86132,0,0.000885,0,0
0:0:34.569,64.3969,2.86132,0,0.000885,0,0
0:0:34.668,64.8106,2.88201,0,0.000885,0,0
0:0:34.769,64.9841,2.8889,0,0.000885,0,0
0:0:34.868,65.162,2.8958,0,0.000885,0,0
0:0:34.973,65.162,2.8958,0,0.000885,0,0
0:0:35.069,65.162,2.8958,0,0.000885,0,0
0:0:35.167,65.6291,2.91648,0,0.000885,0,0
0:0:35.267,65.6291,2.91648,0,0.000885,0,0
0:0:35.366,66.0383,2.93717,0,0.000885,0,0
0:0:35.466,66.1006,2.93717,0,0.000885,0,0
0:0:35.566,66.6255,2.95785,0,0.000885,0,0
0:0:35.667,66.6255,2.95785,0,0.000885,0,0
0:0:35.765,67.0391,2.97854,0,0.000885,0,0
0:0:35.866,67.0391,2.97854,0,0.000885,0,0
0:0:35.965,67.1548,2.98543,0,0.000885,0,0
0:0:36.065,67.1548,2.98543,0,0.000885,0,0
0:0:36.162,68.0934,3.0268,0,0.000885,0,0
0:0:36.260,67.9777,3.0199,0,0.000885,0,0
0:0:36.359,68.0355,3.0268,0,0.000885,0,0
0:0:36.458,68.0355,3.0268,0,0.000885,0,0
0:0:36.558,68.5026,3.04748,0,0.000885,0,0
0:0:36.658,68.9163,3.06127,0,0.000885,0,0
0:0:36.755,69.2677,3.07506,0,0.000885,0,0
0:0:36.868,69.2677,3.07506,0,0.000885,0,0
0:0:36.967,69.499,3.08885,0,0.000885,0,0
0:0:37.072,69.499,3.08885,0,0.000885,0,0
0:0:37.170,69.6769,3.09575,0,0.000885,0,0
0:0:37.269,69.6769,3.09575,0,0.000885,0,0
0:0:37.369,69.9127,3.10954,0,0.000885,0,0
0:0:37.466,69.7926,3.10264,0,0.000885,0,0
0:0:37.571,70.4376,3.13022,0,0.000885,0,0
0:0:37.668,70.4376,3.13022,0,0.000885,0,0
0:0:37.768,70.7312,3.14401,0,0.000885,0,0
0:0:37.868,71.1449,3.16469,0,0.000885,0,0
0:0:37.967,71.1449,3.16469,0,0.000885,0,0
0:0:38.072,71.3183,3.17159,0,0.000885,0,0
0:0:38.169,71.3762,3.17159,0,0.000885,0,0
0:0:38.269,71.9055,3.19917,0,0.000885,0,0
0:0:38.368,71.9055,3.19917,0,0.000885,0,0
0:0:38.467,72.4348,3.21985,0,0.000885,0,0
0:0:38.571,72.6083,3.22675,0,0.000885,0,0
0:0:38.668,72.9019,3.24054,0,0.000885,0,0
0:0:38.765,72.9019,3.24054,0,0.000885,0,0
0:0:38.866,73.022,3.24743,0,0.000885,0,0
0:0:38.966,73.5469,3.26811,0,0.000885,0,0
0:0:39.073,73.667,3.27501,0,0.000885,0,0
0:0:39.169,73.667,3.27501,0,0.000885,0,0
0:0:39.267,73.7248,3.27501,0,0.000885,0,0
0:0:39.368,74.1341,3.29569,0,0.000885,0,0
0:0:39.467,74.4855,3.30948,0,0.000885,0,0
0:0:39.572,74.4855,3.30948,0,0.000885,0,0
0:0:39.669,74.7212,3.32327,0,0.000885,0,0
0:0:39.766,75.1305,3.33706,0,0.000885,0,0
0:0:39.865,75.2506,3.34396,0,0.000885,0,0
0:0:39.962,75.2506,3.34396,0,0.000885,0,0
0:0:40.062,75.7176,3.36464,0,0.000885,0,0
0:0:40.170,75.8956,3.37154,0,0.000885,0,0
0:0:40.267,75.8956,3.37154,0,0.000885,0,0
0:0:40.367,76.4783,3.39912,0,0.000885,0,0
0:0:40.465,76.714,3.4129,0,0.000885,0,0
0:0:40.565,76.714,3.4129,0,0.000885,0,0
0:0:40.662,76.714,3.4129,0,0.000885,0,0
0:0:40.767,77.359,3.44048,0,0.000885,0,0
0:0:40.867,77.8305,3.46117,0,0.000885,0,0
0:0:40.966,78.0618,3.46806,0,0.000885,0,0
0:0:41.062,78.0618,3.46806,0,0.000885,0,0
0:0:41.166,78.3554,3.48185,0,0.000885,0,0
0:0:41.262,78.2398,3.47496,0,0.000885,0,0
0:0:41.361,78.7691,3.50254,0,0.000885,0,0
0:0:41.460,78.7691,3.50254,0,0.000885,0,0
0:0:41.559,78.9426,3.50943,0,0.000885,0,0
0:0:41.659,79.7077,3.54391,0,0.000885,0,0
0:0:41.759,79.294,3.52322,0,0.000885,0,0
0:0:41.858,79.294,3.52322,0,0.000885,0,0
0:0:41.956,79.7655,3.54391,0,0.000885,0,0
0:0:42.068,79.5876,3.53701,0,0.000885,0,0
0:0:42.165,79.8812,3.5508,0,0.000885,0,0
0:0:42.271,79.8812,3.5508,0,0.000885,0,0
0:0:42.369,79.8233,3.5508,0,0.000885,0,0
0:0:42.470,80.0013,3.55769,0,0.000885,0,0
0:0:42.568,80.2904,3.57148,0,0.000885,0,0
0:0:42.673,80.2904,3.57148,0,0.000885,0,0
0:0:42.770,80.584,3.57838,0,0.000885,0,0
0:0:42.868,80.4683,3.57838,0,0.000885,0,0
0:0:42.968,80.4683,3.57838,0,0.000885,0,0
0:0:43.067,80.4105,3.57148,0,0.000885,0,0
0:0:43.161,80.2904,3.57148,0,0.000885,0,0
0:0:43.269,80.2904,3.57148,0,0.000885,0,0
0:0:43.368,80.2904,3.57148,0,0.000885,0,0
0:0:43.467,80.4683,3.57838,0,0.000885,0,0
0:0:43.567,80.7041,3.58527,0,0.000885,0,0
0:0:43.661,80.2326,3.56459,0,0.000885,0,0
0:0:43.769,80.2326,3.56459,0,0.000885,0,0
0:0:43.875,77.8884,3.46117,0,0.000885,0,0
0:0:43.974,77.4168,3.44048,0,0.000885,0,0
0:0:44.073,77.0076,3.4198,0,0.000885,0,0
0:0:44.172,77.0076,3.4198,0,0.000885,0,0
0:0:44.269,76.3626,3.39222,0,0.000885,0,0
0:0:44.374,75.8333,3.37154,0,0.000885,0,0
0:0:44.473,75.0148,3.33706,0,0.000885,0,0
0:0:44.573,75.0148,3.33706,0,0.000885,0,0
0:0:44.670,74.1919,3.29569,0,0.000885,0,0
0:0:44.766,73.7248,3.27501,0,0.000885,0,0
0:0:44.871,73.3734,3.26122,0,0.000885,0,0
0:0:44.971,73.3734,3.26122,0,0.000885,0,0
0:0:45.071,73.1955,3.25433,0,0.000885,0,0
0:0:45.170,72.7863,3.23364,0,0.000885,0,0
0:0:45.275,72.6661,3.22675,0,0.000885,0,0
0:0:45.371,72.6661,3.22675,0,0.000885,0,0
0:0:45.470,72.2569,3.21296,0,0.000885,0,0
0:0:45.570,71.9633,3.19917,0,0.000885,0,0
0:0:45.669,71.9633,3.19917,0,0.000885,0,0
0:0:45.768,71.6697,3.18538,0,0.000885,0,0
0:0:45.868,71.3762,3.17159,0,0.000885,0,0
0:0:45.969,71.3183,3.17159,0,0.000885,0,0
0:0:46.068,71.3183,3.17159,0,0.000885,0,0
0:0:46.169,70.6155,3.13711,0,0.000885,0,0
0:0:46.267,70.2641,3.12333,0,0.000885,0,0
0:0:46.363,70.0284,3.10954,0,0.000885,0,0
0:0:46.462,70.0284,3.10954,0,0.000885,0,0
0:0:46.562,69.6769,3.09575,0,0.000885,0,0
0:0:46.661,69.2677,3.07506,0,0.000885,0,0
0:0:46.759,68.9741,3.06817,0,0.000885,0,0
0:0:46.858,68.9741,3.06817,0,0.000885,0,0
0:0:46.957,68.7384,3.05438,0,0.000885,0,0
0:0:47.058,68.4448,3.04059,0,0.000885,0,0
0:0:47.155,68.4448,3.04059,0,0.000885,0,0
0:0:47.266,68.0934,3.0268,0,0.000885,0,0
0:0:47.372,67.9154,3.0199,0,0.000885,0,0
0:0:47.468,67.4484,2.99922,0,0.000885,0,0
0:0:47.568,67.4484,2.99922,0,0.000885,0,0
0:0:47.668,67.2126,2.98543,0,0.000885,0,0
0:0:47.763,66.3319,2.95096,0,0.000885,0,0
0:0:47.871,65.3355,2.90269,0,0.000885,0,0
0:0:47.968,65.3355,2.90269,0,0.000885,0,0
0:0:48.062,64.6905,2.87511,0,0.000885,0,0
0:0:48.163,63.9298,2.84064,0,0.000885,0,0
0:0:48.261,63.3427,2.81306,0,0.000885,0,0
0:0:48.358,63.3427,2.81306,0,0.000885,0,0
0:0:48.467,62.8712,2.79238,0,0.000885,0,0
0:0:48.563,62.1683,2.7648,0,0.000885,0,0
0:0:48.661,61.1141,2.71653,0,0.000885,0,0
0:0:48.760,61.1141,2.71653,0,0.000885,0,0
0:0:48.868,60.3535,2.68206,0,0.000885,0,0
0:0:48.973,59.1791,2.6269,0,0.000885,0,0
0:0:49.072,58.6498,2.60622,0,0.000885,0,0
0:0:49.172,58.6498,2.60622,0,0.000885,0,0
0:0:49.271,57.8313,2.57174,0,0.000885,0,0
0:0:49.367,56.8305,2.52348,0,0.000885,0,0
0:0:49.473,56.5369,2.50969,0,0.000885,0,0
0:0:49.571,56.5369,2.50969,0,0.000885,0,0
0:0:49.672,56.012,2.48901,0,0.000885,0,0
0:0:49.770,55.4827,2.46832,0,0.000885,0,0
0:0:49.867,55.4827,2.46832,0,0.000885,0,0
0:0:49.972,55.2469,2.45453,0,0.000885,0,0
0:0:50.070,55.1891,2.45453,0,0.000885,0,0
0:0:50.169,54.8955,2.44074,0,0.000885,0,0
0:0:50.269,54.8955,2.44074,0,0.000885,0,0
0:0:50.375,54.6642,2.42695,0,0.000885,0,0
0:0:50.472,54.6642,2.42695,0,0.000885,0,0
0:0:50.569,54.8377,2.43385,0,0.000885,0,0
0:0:50.669,54.8377,2.43385,0,0.000885,0,0
0:0:50.767,54.6642,2.42695,0,0.000885,0,0
0:0:50.867,54.5441,2.42695,0,0.000885,0,0
0:0:50.963,54.3706,2.41317,0,0.000885,0,0
0:0:51.068,54.3706,2.41317,0,0.000885,0,0
0:0:51.163,54.3706,2.41317,0,0.000885,0,0
0:0:51.264,54.2505,2.41317,0,0.000885,0,0
0:0:51.363,54.722,2.43385,0,0.000885,0,0
0:0:51.463,54.722,2.43385,0,0.000885,0,0
0:0:51.561,54.7798,2.43385,0,0.000885,0,0
0:0:51.659,54.8377,2.43385,0,0.000885,0,0
0:0:51.759,54.8377,2.43385,0,0.000885,0,0
0:0:51.858,54.6642,2.42695,0,0.000885,0,0
0:0:51.958,54.5441,2.42695,0,0.000885,0,0
0:0:52.056,54.2505,2.41317,0,0.000885,0,0
0:0:52.155,54.2505,2.41317,0,0.000885,0,0
0:0:52.253,54.1349,2.40627,0,0.000885,0,0
0:0:52.353,53.9569,2.39938,0,0.000885,0,0
0:0:52.458,53.9569,2.39938,0,0.000885,0,0
0:0:52.567,53.9569,2.39938,0,0.000885,0,0
0:0:52.663,54.0192,2.39938,0,0.000885,0,0
0:0:52.763,54.1349,2.40627,0,0.000885,0,0
0:0:52.861,53.9569,2.39938,0,0.000885,0,0
0:0:52.969,53.9569,2.39938,0,0.000885,0,0
0:0:53.074,54.1349,2.40627,0,0.000885,0,0
0:0:53.173,53.5477,2.37869,0,0.000885,0,0
0:0:53.273,53.4899,2.37869,0,0.000885,0,0
0:0:53.371,53.4899,2.37869,0,0.000885,0,0
0:0:53.468,53.6633,2.38559,0,0.000885,0,0
0:0:53.572,53.0184,2.35801,0,0.000885,0,0
0:0:53.671,53.0806,2.35801,0,0.000885,0,0
0:0:53.771,53.0806,2.35801,0,0.000885,0,0
0:0:53.870,53.0184,2.35801,0,0.000885,0,0
0:0:53.968,53.0184,2.35801,0,0.000885,0,0
0:0:54.072,52.8449,2.35111,0,0.000885,0,0
0:0:54.170,52.8449,2.35111,0,0.000885,0,0
0:0:54.270,52.9605,2.35111,0,0.000885,0,0
0:0:54.369,52.9605,2.35111,0,0.000885,0,0
0:0:54.467,52.9605,2.35111,0,0.000885,0,0
0:0:54.571,52.9605,2.35111,0,0.000885,0,0
0:0:54.669,52.9027,2.35111,0,0.000885,0,0
0:0:54.767,52.9605,2.35111,0,0.000885,0,0
0:0:54.863,52.9605,2.35111,0,0.000885,0,0
0:0:54.962,52.787,2.34422,0,0.000885,0,0
0:0:55.070,52.787,2.34422,0,0.000885,0,0
0:0:55.175,52.9027,2.35111,0,0.000885,0,0
0:0:55.274,52.9027,2.35111,0,0.000885,0,0
0:0:55.374,53.0184,2.35801,0,0.000885,0,0
0:0:55.473,52.6669,2.34422,0,0.000885,0,0
0:0:55.573,53.0184,2.35801,0,0.000885,0,0
0:0:55.672,53.0184,2.35801,0,0.000885,0,0
0:0:55.773,53.0806,2.35801,0,0.000885,0,0
0:0:55.872,52.9027,2.35111,0,0.000885,0,0
0:0:55.973,52.7248,2.34422,0,0.000885,0,0
0:0:56.072,52.7248,2.34422,0,0.000885,0,0
0:0:56.171,52.6669,2.34422,0,0.000885,0,0
0:0:56.270,52.7248,2.34422,0,0.000885,0,0
0:0:56.370,52.8449,2.35111,0,0.000885,0,0
0:0:56.468,52.8449,2.35111,0,0.000885,0,0
0:0:56.567,52.5513,2.33732,0,0.000885,0,0
0:0:56.663,52.6669,2.34422,0,0.000885,0,0
0:0:56.773,52.9027,2.35111,0,0.000885,0,0
0:0:56.873,52.9027,2.35111,0,0.000885,0,0
0:0:56.972,52.5513,2.33732,0,0.000885,0,0
0:0:57.071,52.6669,2.34422,0,0.000885,0,0
0:0:57.176,52.6669,2.34422,0,0.000885,0,0
0:0:57.274,52.7248,2.34422,0,0.000885,0,0
0:0:57.372,52.7248,2.34422,0,0.000885,0,0
0:0:57.472,52.8449,2.35111,0,0.000885,0,0
0:0:57.569,52.8449,2.35111,0,0.000885,0,0
0:0:57.674,52.787,2.34422,0,0.000885,0,0
0:0:57.771,52.6669,2.34422,0,0.000885,0,0
0:0:57.872,52.7248,2.34422,0,0.000885,0,0
0:0:57.969,52.7248,2.34422,0,0.000885,0,0
0:0:58.068,52.9605,2.35111,0,0.000885,0,0
0:0:58.174,52.6669,2.34422,0,0.000885,0,0
0:0:58.270,52.7248,2.34422,0,0.000885,0,0
0:0:58.369,52.7248,2.34422,0,0.000885,0,0
0:0:58.469,52.9027,2.35111,0,0.000885,0,0
0:0:58.576,52.7248,2.34422,0,0.000885,0,0
0:0:58.671,52.6669,2.34422,0,0.000885,0,0
0:0:58.768,52.6669,2.34422,0,0.000885,0,0
0:0:58.864,52.6091,2.33732,0,0.000885,0,0
0:0:58.968,52.6091,2.33732,0,0.000885,0,0
0:0:59.063,52.6091,2.33732,0,0.000885,0,0
0:0:59.172,52.4935,2.33043,0,0.000885,0,0
0:0:59.268,52.6091,2.33732,0,0.000885,0,0
0:0:59.363,52.3734,2.33043,0,0.000885,0,0
0:0:59.463,52.3734,2.33043,0,0.000885,0,0
0:0:59.562,52.3734,2.33043,0,0.000885,0,0
0:0:59.670,52.6669,2.34422,0,0.000885,0,0
0:0:59.775,52.4935,2.33043,0,0.000885,0,0
0:0:59.873,52.4935,2.33043,0,0.000885,0,0
0:0:59.974,52.7248,2.34422,0,0.000885,0,0
0:1:0.071,52.5513,2.33732,0,0.000885,0,0
0:1:0.169,52.6669,2.34422,0,0.000885,0,0
0:1:0.275,52.6669,2.34422,0,0.000885,0,0
0:1:0.373,52.5513,2.33732,0,0.000885,0,0
0:1:0.472,52.6669,2.34422,0,0.000885,0,0
0:1:0.571,52.7248,2.34422,0,0.000885,0,0
0:1:0.671,52.7248,2.34422,0,0.000885,0,0
0:1:0.770,52.7248,2.34422,0,0.000885,0,0
0:1:0.872,52.7248,2.34422,0,0.000885,0,0
0:1:0.971,52.8449,2.35111,0,0.000885,0,0
0:1:1.071,52.8449,2.35111,0,0.000885,0,0
0:1:1.170,52.9027,2.35111,0,0.000885,0,0
0:1:1.270,52.6091,2.33732,0,0.000885,0,0
0:1:1.369,52.6091,2.33732,0,0.000885,0,0
0:1:1.469,52.8449,2.35111,0,0.000885,0,0
0:1:1.563,53.0184,2.35801,0,0.000885,0,0
0:1:1.664,52.9605,2.35111,0,0.000885,0,0
0:1:1.763,52.9605,2.35111,0,0.000885,0,0
0:1:1.861,52.787,2.34422,0,0.000885,0,0
0:1:1.960,52.7248,2.34422,0,0.000885,0,0
0:1:2.058,52.4935,2.33043,0,0.000885,0,0
0:1:2.169,52.4935,2.33043,0,0.000885,0,0
0:1:2.275,52.6091,2.33732,0,0.000885,0,0
0:1:2.372,52.9027,2.35111,0,0.000885,0,0
0:1:2.471,53.0806,2.35801,0,0.000885,0,0
0:1:2.572,53.0806,2.35801,0,0.000885,0,0
0:1:2.670,53.1963,2.3649,0,0.000885,0,0
0:1:2.774,53.3119,2.3718,0,0.000885,0,0
0:1:2.870,53.3119,2.3718,0,0.000885,0,0
0:1:2.968,53.3119,2.3718,0,0.000885,0,0
0:1:3.069,53.1963,2.3649,0,0.000885,0,0
0:1:3.165,53.0184,2.35801,0,0.000885,0,0
0:1:3.275,53.1963,2.3649,0,0.000885,0,0
0:1:3.370,53.1963,2.3649,0,0.000885,0,0
0:1:3.469,53.432,2.3718,0,0.000885,0,0
0:1:3.569,53.6633,2.38559,0,0.000885,0,0
0:1:3.665,53.6633,2.38559,0,0.000885,0,0
0:1:3.773,53.6633,2.38559,0,0.000885,0,0
0:1:3.878,53.4899,2.37869,0,0.000885,0,0
0:1:3.975,53.3698,2.3718,0,0.000885,0,0
0:1:4.075,53.3698,2.3718,0,0.000885,0,0
0:1:4.174,53.5477,2.37869,0,0.000885,0,0
0:1:4.271,53.3119,2.3718,0,0.000885,0,0
0:1:4.368,53.2541,2.3649,0,0.000885,0,0
0:1:4.474,53.2541,2.3649,0,0.000885,0,0
0:1:4.573,53.4899,2.37869,0,0.000885,0,0
0:1:4.672,53.6633,2.38559,0,0.000885,0,0
0:1:4.770,53.9569,2.39938,0,0.000885,0,0
0:1:4.875,53.9569,2.39938,0,0.000885,0,0
0:1:4.972,53.7834,2.39248,0,0.000885,0,0
0:1:5.073,53.8991,2.39248,0,0.000885,0,0
0:1:5.170,53.8413,2.39248,0,0.000885,0,0
0:1:5.269,53.8413,2.39248,0,0.000885,0,0
0:1:5.375,54.1349,2.40627,0,0.000885,0,0
0:1:5.472,53.8991,2.39248,0,0.000885,0,0
0:1:5.571,54.3083,2.41317,0,0.000885,0,0
0:1:5.670,54.3083,2.41317,0,0.000885,0,0
0:1:5.768,54.0192,2.39938,0,0.000885,0,0
0:1:5.868,54.1927,2.40627,0,0.000885,0,0
0:1:5.969,54.1927,2.40627,0,0.000885,0,0
0:1:6.069,54.2505,2.41317,0,0.000885,0,0
0:1:6.169,54.4284,2.42006,0,0.000885,0,0
0:1:6.269,54.6019,2.42695,0,0.000885,0,0
0:1:6.368,54.6019,2.42695,0,0.000885,0,0
0:1:6.465,54.4863,2.42006,0,0.000885,0,0
0:1:6.563,54.4863,2.42006,0,0.000885,0,0
0:1:6.663,54.722,2.43385,0,0.000885,0,0
0:1:6.761,54.722,2.43385,0,0.000885,0,0
0:1:6.861,54.722,2.43385,0,0.000885,0,0
0:1:6.960,54.8377,2.43385,0,0.000885,0,0
0:1:7.058,54.722,2.43385,0,0.000885,0,0
0:1:7.158,54.722,2.43385,0,0.000885,0,0
0:1:7.255,55.0156,2.44764,0,0.000885,0,0
0:1:7.362,54.9578,2.44074,0,0.000885,0,0
0:1:7.470,54.722,2.43385,0,0.000885,0,0
0:1:7.578,54.722,2.43385,0,0.000885,0,0
0:1:7.677,54.8377,2.43385,0,0.000885,0,0
0:1:7.777,55.1891,2.45453,0,0.000885,0,0
0:1:7.873,55.0156,2.44764,0,0.000885,0,0
0:1:7.970,55.0156,2.44764,0,0.000885,0,0
0:1:8.076,55.0734,2.44764,0,0.000885,0,0
0:1:8.176,55.367,2.46143,0,0.000885,0,0
0:1:8.274,55.1891,2.45453,0,0.000885,0,0
0:1:8.371,55.1891,2.45453,0,0.000885,0,0
0:1:8.477,55.2469,2.45453,0,0.000885,0,0
0:1:8.575,55.6028,2.46832,0,0.000885,0,0
0:1:8.675,55.6028,2.46832,0,0.000885,0,0
0:1:8.774,55.1891,2.45453,0,0.000885,0,0
0:1:8.871,55.1891,2.45453,0,0.000885,0,0
0:1:8.976,55.2469,2.45453,0,0.000885,0,0
0:1:9.073,55.2469,2.45453,0,0.000885,0,0
0:1:9.173,55.4248,2.46143,0,0.000885,0,0
0:1:9.273,55.6028,2.46832,0,0.000885,0,0
0:1:9.371,55.4827,2.46832,0,0.000885,0,0
0:1:9.476,55.4827,2.46832,0,0.000885,0,0
0:1:9.572,55.7763,2.48211,0,0.000885,0,0
0:1:9.672,55.4248,2.46143,0,0.000885,0,0
0:1:9.770,55.4827,2.46832,0,0.000885,0,0
0:1:9.870,55.4827,2.46832,0,0.000885,0,0
0:1:9.975,55.5405,2.46832,0,0.000885,0,0
0:1:10.071,55.6606,2.47522,0,0.000885,0,0
0:1:10.170,55.7184,2.47522,0,0.000885,0,0
0:1:10.269,55.7184,2.47522,0,0.000885,0,0
0:1:10.369,55.367,2.46143,0,0.000885,0,0
0:1:10.465,55.6606,2.47522,0,0.000885,0,0
0:1:10.569,55.6606,2.47522,0,0.000885,0,0
0:1:10.669,55.367,2.46143,0,0.000885,0,0
0:1:10.765,55.367,2.46143,0,0.000885,0,0
0:1:10.865,55.4827,2.46832,0,0.000885,0,0
0:1:10.965,55.4827,2.46832,0,0.000885,0,0
0:1:11.065,55.4827,2.46832,0,0.000885,0,0
0:1:11.164,55.6606,2.47522,0,0.000885,0,0
0:1:11.263,55.8341,2.48211,0,0.000885,0,0
0:1:11.362,55.8341,2.48211,0,0.000885,0,0
0:1:11.461,55.9542,2.48901,0,0.000885,0,0
0:1:11.561,55.7184,2.47522,0,0.000885,0,0
0:1:11.659,56.1277,2.4959,0,0.000885,0,0
0:1:11.759,56.1277,2.4959,0,0.000885,0,0
0:1:11.870,56.012,2.48901,0,0.000885,0,0
0:1:11.977,56.1277,2.4959,0,0.000885,0,0
0:1:12.073,55.8919,2.48211,0,0.000885,0,0
0:1:12.171,55.8919,2.48211,0,0.000885,0,0
0:1:12.271,55.9542,2.48901,0,0.000885,0,0
0:1:12.369,56.0698,2.48901,0,0.000885,0,0
0:1:12.475,55.8341,2.48211,0,0.000885,0,0
0:1:12.571,55.8341,2.48211,0,0.000885,0,0
0:1:12.670,55.7184,2.47522,0,0.000885,0,0
0:1:12.770,55.9542,2.48901,0,0.000885,0,0
0:1:12.866,55.9542,2.48901,0,0.000885,0,0
0:1:12.976,55.7184,2.47522,0,0.000885,0,0
0:1:13.071,55.9542,2.48901,0,0.000885,0,0
0:1:13.178,56.012,2.48901,0,0.000885,0,0
0:1:13.278,56.012,2.48901,0,0.000885,0,0
0:1:13.378,55.9542,2.48901,0,0.000885,0,0
0:1:13.474,56.012,2.48901,0,0.000885,0,0
0:1:13.570,56.0698,2.48901,0,0.000885,0,0
0:1:13.677,56.0698,2.48901,0,0.000885,0,0
0:1:13.775,55.8919,2.48211,0,0.000885,0,0
0:1:13.875,55.8919,2.48211,0,0.000885,0,0
0:1:13.972,55.8341,2.48211,0,0.000885,0,0
0:1:14.078,55.8341,2.48211,0,0.000885,0,0
0:1:14.175,55.8341,2.48211,0,0.000885,0,0
0:1:14.275,56.012,2.48901,0,0.000885,0,0
0:1:14.373,55.7763,2.48211,0,0.000885,0,0
0:1:14.471,55.7763,2.48211,0,0.000885,0,0
0:1:14.576,55.9542,2.48901,0,0.000885,0,0
0:1:14.673,56.0698,2.48901,0,0.000885,0,0
0:1:14.773,55.5405,2.46832,0,0.000885,0,0
0:1:14.872,55.5405,2.46832,0,0.000885,0,0
0:1:14.969,55.7763,2.48211,0,0.000885,0,0
0:1:15.075,55.7763,2.48211,0,0.000885,0,0
0:1:15.172,55.5405,2.46832,0,0.000885,0,0
0:1:15.273,55.5405,2.46832,0,0.000885,0,0
0:1:15.371,55.3092,2.46143,0,0.000885,0,0
0:1:15.471,55.367,2.46143,0,0.000885,0,0
0:1:15.569,55.367,2.46143,0,0.000885,0,0
0:1:15.671,55.4827,2.46832,0,0.000885,0,0
0:1:15.770,55.8341,2.48211,0,0.000885,0,0
0:1:15.871,55.7763,2.48211,0,0.000885,0,0
0:1:15.970,55.7763,2.48211,0,0.000885,0,0
0:1:16.066,55.4827,2.46832,0,0.000885,0,0
0:1:16.165,55.3092,2.46143,0,0.000885,0,0
0:1:16.265,55.3092,2.46143,0,0.000885,0,0
0:1:16.364,55.3092,2.46143,0,0.000885,0,0
0:1:16.464,55.1891,2.45453,0,0.000885,0,0
0:1:16.561,55.1313,2.44764,0,0.000885,0,0
0:1:16.661,55.3092,2.46143,0,0.000885,0,0
0:1:16.760,55.3092,2.46143,0,0.000885,0,0
0:1:16.859,55.4827,2.46832,0,0.000885,0,0
0:1:16.958,55.5405,2.46832,0,0.000885,0,0
0:1:17.063,55.367,2.46143,0,0.000885,0,0
0:1:17.173,55.367,2.46143,0,0.000885,0,0
0:1:17.271,55.1313,2.44764,0,0.000885,0,0
0:1:17.371,55.367,2.46143,0,0.000885,0,0
0:1:17.470,55.4248,2.46143,0,0.000885,0,0
0:1:17.575,55.4248,2.46143,0,0.000885,0,0
0:1:17.672,55.2469,2.45453,0,0.000885,0,0
0:1:17.771,55.5405,2.46832,0,0.000885,0,0
0:1:17.869,55.5405,2.46832,0,0.000885,0,0
0:1:17.965,55.6606,2.47522,0,0.000885,0,0
0:1:18.073,55.7184,2.47522,0,0.000885,0,0
0:1:18.171,55.8919,2.48211,0,0.000885,0,0
0:1:18.271,55.8919,2.48211,0,0.000885,0,0
0:1:18.370,55.5405,2.46832,0,0.000885,0,0
0:1:18.465,55.7763,2.48211,0,0.000885,0,0
0:1:18.573,55.6606,2.47522,0,0.000885,0,0
0:1:18.670,55.6606,2.47522,0,0.000885,0,0
0:1:18.765,55.7184,2.47522,0,0.000885,0,0
0:1:18.865,55.2469,2.45453,0,0.000885,0,0
0:1:18.964,55.6028,2.46832,0,0.000885,0,0
0:1:19.072,55.6028,2.46832,0,0.000885,0,0
0:1:19.177,55.6606,2.47522,0,0.000885,0,0
0:1:19.276,55.7763,2.48211,0,0.000885,0,0
0:1:19.375,55.6028,2.46832,0,0.000885,0,0
0:1:19.474,55.6028,2.46832,0,0.000885,0,0
0:1:19.571,55.6028,2.46832,0,0.000885,0,0
0:1:19.675,55.6028,2.46832,0,0.000885,0,0
0:1:19.774,55.7763,2.48211,0,0.000885,0,0
0:1:19.874,55.7763,2.48211,0,0.000885,0,0
0:1:19.973,55.6606,2.47522,0,0.000885,0,0
0:1:20.070,55.7763,2.48211,0,0.000885,0,0
0:1:20.175,55.7763,2.48211,0,0.000885,0,0
0:1:20.272,55.7763,2.48211,0,0.000885,0,0
0:1:20.371,56.0698,2.48901,0,0.000885,0,0
0:1:20.471,55.8919,2.48211,0,0.000885,0,0
0:1:20.570,55.8919,2.48211,0,0.000885,0,0
0:1:20.670,55.8341,2.48211,0,0.000885,0,0
0:1:20.766,56.012,2.48901,0,0.000885,0,0
0:1:20.866,55.8919,2.48211,0,0.000885,0,0
0:1:20.965,55.8919,2.48211,0,0.000885,0,0
0:1:21.065,55.7763,2.48211,0,0.000885,0,0
0:1:21.164,56.012,2.48901,0,0.000885,0,0
0:1:21.263,55.7184,2.47522,0,0.000885,0,0
0:1:21.363,55.7184,2.47522,0,0.000885,0,0
0:1:21.462,55.8919,2.48211,0,0.000885,0,0
0:1:21.562,56.3634,2.5028,0,0.000885,0,0
0:1:21.661,56.1277,2.4959,0,0.000885,0,0
0:1:21.759,56.1277,2.4959,0,0.000885,0,0
0:1:21.859,55.9542,2.48901,0,0.000885,0,0
0:1:21.958,56.1277,2.4959,0,0.000885,0,0
0:1:22.058,56.1277,2.4959,0,0.000885,0,0
0:1:22.163,56.1277,2.4959,0,0.000885,0,0
0:1:22.260,56.1855,2.4959,0,0.000885,0,0
0:1:22.358,56.2478,2.5028,0,0.000885,0,0
0:1:22.458,56.2478,2.5028,0,0.000885,0,0
0:1:22.565,56.2478,2.5028,0,0.000885,0,0
0:1:22.674,56.2478,2.5028,0,0.000885,0,0
0:1:22.770,56.4791,2.50969,0,0.000885,0,0
0:1:22.870,56.4791,2.50969,0,0.000885,0,0
0:1:22.967,56.5992,2.51659,0,0.000885,0,0
0:1:23.076,56.2478,2.5028,0,0.000885,0,0
0:1:23.171,56.3634,2.5028,0,0.000885,0,0
0:1:23.278,56.3634,2.5028,0,0.000885,0,0
0:1:23.376,56.3056,2.5028,0,0.000885,0,0
0:1:23.477,56.3056,2.5028,0,0.000885,0,0
0:1:23.575,56.5369,2.50969,0,0.000885,0,0
0:1:23.672,56.5369,2.50969,0,0.000885,0,0
0:1:23.778,56.3634,2.5028,0,0.000885,0,0
0:1:23.876,56.657,2.51659,0,0.000885,0,0
0:1:23.975,56.7727,2.52348,0,0.000885,0,0
0:1:24.074,56.7727,2.52348,0,0.000885,0,0
0:1:24.170,56.5369,2.50969,0,0.000885,0,0
0:1:24.275,56.7727,2.52348,0,0.000885,0,0
0:1:24.375,56.5369,2.50969,0,0.000885,0,0
0:1:24.473,56.5369,2.50969,0,0.000885,0,0
0:1:24.572,56.4212,2.50969,0,0.000885,0,0
0:1:24.678,56.4791,2.50969,0,0.000885,0,0
0:1:24.774,56.4791,2.50969,0,0.000885,0,0
0:1:24.873,56.7148,2.52348,0,0.000885,0,0
0:1:24.973,56.4791,2.50969,0,0.000885,0,0
0:1:25.071,56.5992,2.51659,0,0.000885,0,0
0:1:25.176,56.5992,2.51659,0,0.000885,0,0
0:1:25.273,56.5369,2.50969,0,0.000885,0,0
0:1:25.372,56.4212,2.50969,0,0.000885,0,0
0:1:25.471,56.5369,2.50969,0,0.000885,0,0
0:1:25.570,56.5369,2.50969,0,0.000885,0,0
0:1:25.666,56.4212,2.50969,0,0.000885,0,0
0:1:25.767,56.5992,2.51659,0,0.000885,0,0
0:1:25.867,56.3634,2.5028,0,0.000885,0,0
0:1:25.967,56.3634,2.5028,0,0.000885,0,0
0:1:26.067,56.3634,2.5028,0,0.000885,0,0
0:1:26.170,56.657,2.51659,0,0.000885,0,0
0:1:26.265,56.7148,2.52348,0,0.000885,0,0
0:1:26.365,56.7148,2.52348,0,0.000885,0,0
0:1:26.463,56.7148,2.52348,0,0.000885,0,0
0:1:26.564,56.7727,2.52348,0,0.000885,0,0
0:1:26.662,56.7727,2.52348,0,0.000885,0,0
0:1:26.773,56.5369,2.50969,0,0.000885,0,0
0:1:26.871,56.5369,2.50969,0,0.000885,0,0
0:1:26.971,56.8305,2.52348,0,0.000885,0,0
0:1:27.071,56.8305,2.52348,0,0.000885,0,0
0:1:27.166,56.8305,2.52348,0,0.000885,0,0
0:1:27.274,56.8305,2.52348,0,0.000885,0,0
0:1:27.372,56.4791,2.50969,0,0.000885,0,0
0:1:27.470,56.4791,2.50969,0,0.000885,0,0
0:1:27.579,56.7727,2.52348,0,0.000885,0,0
0:1:27.675,57.0084,2.53038,0,0.000885,0,0
0:1:27.773,56.8928,2.53038,0,0.000885,0,0
0:1:27.871,56.8928,2.53038,0,0.000885,0,0
0:1:27.971,57.0084,2.53038,0,0.000885,0,0
0:1:28.067,57.0662,2.53727,0,0.000885,0,0
0:1:28.175,56.7148,2.52348,0,0.000885,0,0
0:1:28.271,56.7148,2.52348,0,0.000885,0,0
0:1:28.378,56.8928,2.53038,0,0.000885,0,0
0:1:28.478,56.9506,2.53038,0,0.000885,0,0
0:1:28.576,57.0084,2.53038,0,0.000885,0,0
0:1:28.674,57.0084,2.53038,0,0.000885,0,0
0:1:28.780,57.0662,2.53727,0,0.000885,0,0
0:1:28.878,57.0084,2.53038,0,0.000885,0,0
0:1:28.977,57.0084,2.53038,0,0.000885,0,0
0:1:29.077,57.0084,2.53038,0,0.000885,0,0
0:1:29.174,56.9506,2.53038,0,0.000885,0,0
0:1:29.279,56.7148,2.52348,0,0.000885,0,0
0:1:29.375,56.657,2.51659,0,0.000885,0,0
0:1:29.475,56.657,2.51659,0,0.000885,0,0
0:1:29.574,56.7727,2.52348,0,0.000885,0,0
0:1:29.672,56.7727,2.52348,0,0.000885,0,0
0:1:29.777,56.7727,2.52348,0,0.000885,0,0
0:1:29.874,57.0084,2.53038,0,0.000885,0,0
0:1:29.974,57.1863,2.54417,0,0.000885,0,0
0:1:30.073,56.9506,2.53038,0,0.000885,0,0
0:1:30.171,56.9506,2.53038,0,0.000885,0,0
0:1:30.277,57.2442,2.54417,0,0.000885,0,0
0:1:30.373,56.8305,2.52348,0,0.000885,0,0
0:1:30.471,56.8305,2.52348,0,0.000885,0,0
0:1:30.571,56.8305,2.52348,0,0.000885,0,0
0:1:30.667,56.7727,2.52348,0,0.000885,0,0
0:1:30.767,57.1241,2.53727,0,0.000885,0,0
0:1:30.871,56.9506,2.53038,0,0.000885,0,0
0:1:30.967,56.9506,2.53038,0,0.000885,0,0
0:1:31.066,56.7148,2.52348,0,0.000885,0,0
0:1:31.167,57.0662,2.53727,0,0.000885,0,0
0:1:31.266,57.0662,2.53727,0,0.000885,0,0
0:1:31.366,56.8928,2.53038,0,0.000885,0,0
0:1:31.464,57.1863,2.54417,0,0.000885,0,0
0:1:31.563,57.1241,2.53727,0,0.000885,0,0
0:1:31.662,57.1241,2.53727,0,0.000885,0,0
0:1:31.762,57.1241,2.53727,0,0.000885,0,0
0:1:31.860,57.0084,2.53038,0,0.000885,0,0
0:1:31.959,57.0084,2.53038,0,0.000885,0,0
0:1:32.058,57.0084,2.53038,0,0.000885,0,0
0:1:32.158,57.0662,2.53727,0,0.000885,0,0
0:1:32.264,57.1241,2.53727,0,0.000885,0,0
0:1:32.372,57.2442,2.54417,0,0.000885,0,0
0:1:32.467,57.2442,2.54417,0,0.000885,0,0
0:1:32.568,57.302,2.54417,0,0.000885,0,0
0:1:32.665,57.2442,2.54417,0,0.000885,0,0
0:1:32.774,57.4755,2.55795,0,0.000885,0,0
0:1:32.879,57.4755,2.55795,0,0.000885,0,0
0:1:32.978,57.7112,2.56485,0,0.000885,0,0
0:1:33.078,57.5377,2.55795,0,0.000885,0,0
0:1:33.178,57.4176,2.55106,0,0.000885,0,0
0:1:33.274,57.4176,2.55106,0,0.000885,0,0
0:1:33.379,57.4755,2.55795,0,0.000885,0,0
0:1:33.475,57.4755,2.55795,0,0.000885,0,0
0:1:33.576,57.2442,2.54417,0,0.000885,0,0
0:1:33.675,57.2442,2.54417,0,0.000885,0,0
0:1:33.771,57.4176,2.55106,0,0.000885,0,0
0:1:33.877,57.4755,2.55795,0,0.000885,0,0
0:1:33.975,57.4755,2.55795,0,0.000885,0,0
0:1:34.074,57.5956,2.55795,0,0.000885,0,0
0:1:34.173,57.5377,2.55795,0,0.000885,0,0
0:1:34.271,57.4755,2.55795,0,0.000885,0,0
0:1:34.376,57.4755,2.55795,0,0.000885,0,0
0:1:34.474,57.7691,2.56485,0,0.000885,0,0
0:1:34.573,58.0048,2.57864,0,0.000885,0,0
0:1:34.672,58.0626,2.57864,0,0.000885,0,0
0:1:34.778,58.0626,2.57864,0,0.000885,0,0
0:1:34.874,57.8313,2.57174,0,0.000885,0,0
0:1:34.972,57.8313,2.57174,0,0.000885,0,0
0:1:35.072,58.0048,2.57864,0,0.000885,0,0
0:1:35.171,58.0048,2.57864,0,0.000885,0,0
0:1:35.278,57.947,2.57864,0,0.000885,0,0
0:1:35.373,58.1827,2.58553,0,0.000885,0,0
0:1:35.480,58.0626,2.57864,0,0.000885,0,0
0:1:35.580,58.0626,2.57864,0,0.000885,0,0
0:1:35.679,58.2984,2.59243,0,0.000885,0,0
0:1:35.778,58.3562,2.59243,0,0.000885,0,0
0:1:35.879,58.3562,2.59243,0,0.000885,0,0
0:1:35.978,58.3562,2.59243,0,0.000885,0,0
0:1:36.078,58.0048,2.57864,0,0.000885,0,0
0:1:36.179,57.947,2.57864,0,0.000885,0,0
0:1:36.278,57.8313,2.57174,0,0.000885,0,0
0:1:36.377,57.8313,2.57174,0,0.000885,0,0
0:1:36.476,58.0626,2.57864,0,0.000885,0,0
0:1:36.575,58.1205,2.58553,0,0.000885,0,0
0:1:36.675,58.1205,2.58553,0,0.000885,0,0
0:1:36.773,58.1205,2.58553,0,0.000885,0,0
0:1:36.872,58.4763,2.59932,0,0.000885,0,0
0:1:36.967,58.2984,2.59243,0,0.000885,0,0
0:1:37.066,58.2984,2.59243,0,0.000885,0,0
0:1:37.166,58.1205,2.58553,0,0.000885,0,0
0:1:37.265,58.414,2.59932,0,0.000885,0,0
0:1:37.373,58.1205,2.58553,0,0.000885,0,0
0:1:37.479,58.1205,2.58553,0,0.000885,0,0
0:1:37.578,58.0626,2.57864,0,0.000885,0,0
0:1:37.678,58.0048,2.57864,0,0.000885,0,0
0:1:37.775,58.2984,2.59243,0,0.000885,0,0
0:1:37.872,58.2984,2.59243,0,0.000885,0,0
0:1:37.978,57.8892,2.57174,0,0.000885,0,0
0:1:38.077,58.0048,2.57864,0,0.000885,0,0
0:1:38.175,58.0048,2.57864,0,0.000885,0,0
0:1:38.273,58.0048,2.57864,0,0.000885,0,0
0:1:38.368,58.0626,2.57864,0,0.000885,0,0
0:1:38.476,58.414,2.59932,0,0.000885,0,0
0:1:38.575,58.414,2.59932,0,0.000885,0,0
0:1:38.673,58.592,2.60622,0,0.000885,0,0
0:1:38.772,58.5341,2.59932,0,0.000885,0,0
0:1:38.878,58.4763,2.59932,0,0.000885,0,0
0:1:38.974,58.4763,2.59932,0,0.000885,0,0
0:1:39.073,58.5341,2.59932,0,0.000885,0,0
0:1:39.173,58.414,2.59932,0,0.000885,0,0
0:1:39.268,58.4763,2.59932,0,0.000885,0,0
0:1:39.377,58.4763,2.59932,0,0.000885,0,0
0:1:39.473,58.4763,2.59932,0,0.000885,0,0
0:1:39.573,58.1827,2.58553,0,0.000885,0,0
0:1:39.672,57.947,2.57864,0,0.000885,0,0
0:1:39.769,57.947,2.57864,0,0.000885,0,0
0:1:39.876,58.1827,2.58553,0,0.000885,0,0
0:1:39.972,57.8313,2.57174,0,0.000885,0,0
0:1:40.079,57.7112,2.56485,0,0.000885,0,0
0:1:40.179,57.7112,2.56485,0,0.000885,0,0
0:1:40.278,57.7112,2.56485,0,0.000885,0,0
0:1:40.375,57.947,2.57864,0,0.000885,0,0
0:1:40.472,58.1205,2.58553,0,0.000885,0,0
0:1:40.566,58.1205,2.58553,0,0.000885,0,0
0:1:40.666,58.2984,2.59243,0,0.000885,0,0
0:1:40.765,58.1205,2.58553,0,0.000885,0,0
0:1:40.865,58.1205,2.58553,0,0.000885,0,0
0:1:40.965,58.1827,2.58553,0,0.000885,0,0
0:1:41.065,58.2984,2.59243,0,0.000885,0,0
0:1:41.165,58.1827,2.58553,0,0.000885,0,0
0:1:41.265,58.1827,2.58553,0,0.000885,0,0
0:1:41.365,58.3562,2.59243,0,0.000885,0,0
0:1:41.464,58.2984,2.59243,0,0.000885,0,0
0:1:41.562,58.414,2.59932,0,0.000885,0,0
0:1:41.661,58.414,2.59932,0,0.000885,0,0
0:1:41.761,58.2984,2.59243,0,0.000885,0,0
0:1:41.859,58.6498,2.60622,0,0.000885,0,0
0:1:41.959,58.2984,2.59243,0,0.000885,0,0
0:1:42.066,58.2984,2.59243,0,0.000885,0,0
0:1:42.165,58.592,2.60622,0,0.000885,0,0
0:1:42.265,58.414,2.59932,0,0.000885,0,0
0:1:42.363,58.2406,2.58553,0,0.000885,0,0
0:1:42.468,58.2406,2.58553,0,0.000885,0,0
0:1:42.566,58.3562,2.59243,0,0.000885,0,0
0:1:42.665,58.1205,2.58553,0,0.000885,0,0
0:1:42.764,58.1205,2.58553,0,0.000885,0,0
0:1:42.863,58.592,2.60622,0,0.000885,0,0
0:1:42.968,58.7076,2.60622,0,0.000885,0,0
0:1:43.076,58.6498,2.60622,0,0.000885,0,0
0:1:43.174,58.6498,2.60622,0,0.000885,0,0
0:1:43.274,58.8856,2.62001,0,0.000885,0,0
0:1:43.373,58.592,2.60622,0,0.000885,0,0
0:1:43.479,58.7076,2.60622,0,0.000885,0,0
0:1:43.574,58.7076,2.60622,0,0.000885,0,0
0:1:43.672,58.4763,2.59932,0,0.000885,0,0
0:1:43.773,58.592,2.60622,0,0.000885,0,0
0:1:43.869,58.5341,2.59932,0,0.000885,0,0
0:1:43.977,58.5341,2.59932,0,0.000885,0,0
0:1:44.073,58.4763,2.59932,0,0.000885,0,0
0:1:44.168,58.592,2.60622,0,0.000885,0,0
0:1:44.267,58.8277,2.61311,0,0.000885,0,0
0:1:44.367,58.8277,2.61311,0,0.000885,0,0
0:1:44.476,58.7699,2.61311,0,0.000885,0,0
0:1:44.569,58.592,2.60622,0,0.000885,0,0
0:1:44.666,58.4763,2.59932,0,0.000885,0,0
0:1:44.767,58.4763,2.59932,0,0.000885,0,0
0:1:44.865,58.5341,2.59932,0,0.000885,0,0
0:1:44.963,58.414,2.59932,0,0.000885,0,0
0:1:45.069,58.7699,2.61311,0,0.000885,0,0
0:1:45.178,58.7699,2.61311,0,0.000885,0,0
0:1:45.277,58.7076,2.60622,0,0.000885,0,0
0:1:45.375,58.414,2.59932,0,0.000885,0,0
0:1:45.474,58.414,2.59932,0,0.000885,0,0
0:1:45.574,58.2984,2.59243,0,0.000885,0,0
0:1:45.676,58.592,2.60622,0,0.000885,0,0
0:1:45.775,58.6498,2.60622,0,0.000885,0,0
0:1:45.874,58.6498,2.60622,0,0.000885,0,0
0:1:45.973,58.1827,2.58553,0,0.000885,0,0
0:1:46.074,58.7076,2.60622,0,0.000885,0,0
0:1:46.173,58.5341,2.59932,0,0.000885,0,0
0:1:46.272,58.5341,2.59932,0,0.000885,0,0
0:1:46.368,58.5341,2.59932,0,0.000885,0,0
0:1:46.466,58.5341,2.59932,0,0.000885,0,0
0:1:46.566,58.3562,2.59243,0,0.000885,0,0
0:1:46.666,58.3562,2.59243,0,0.000885,0,0
0:1:46.764,58.5341,2.59932,0,0.000885,0,0
0:1:46.863,58.4763,2.59932,0,0.000885,0,0
0:1:46.961,58.4763,2.59932,0,0.000885,0,0
0:1:47.068,58.592,2.60622,0,0.000885,0,0
0:1:47.176,58.6498,2.60622,0,0.000885,0,0
0:1:47.274,58.8856,2.62001,0,0.000885,0,0
0:1:47.375,58.6498,2.60622,0,0.000885,0,0
0:1:47.473,58.6498,2.60622,0,0.000885,0,0
0:1:47.579,58.592,2.60622,0,0.000885,0,0
0:1:47.674,58.8856,2.62001,0,0.000885,0,0
0:1:47.772,58.8856,2.62001,0,0.000885,0,0
0:1:47.869,58.7076,2.60622,0,0.000885,0,0
0:1:47.969,58.5341,2.59932,0,0.000885,0,0
0:1:48.067,58.7699,2.61311,0,0.000885,0,0
0:1:48.175,58.7699,2.61311,0,0.000885,0,0
0:1:48.282,59.1791,2.6269,0,0.000885,0,0
0:1:48.381,58.8856,2.62001,0,0.000885,0,0
0:1:48.480,58.7699,2.61311,0,0.000885,0,0
0:1:48.578,58.7699,2.61311,0,0.000885,0,0
0:1:48.674,58.592,2.60622,0,0.000885,0,0
0:1:48.767,58.3562,2.59243,0,0.000885,0,0
0:1:48.866,58.6498,2.60622,0,0.000885,0,0
0:1:48.977,58.6498,2.60622,0,0.000885,0,0
0:1:49.076,59.1213,2.6269,0,0.000885,0,0
0:1:49.173,58.8856,2.62001,0,0.000885,0,0
0:1:49.279,58.8277,2.61311,0,0.000885,0,0
0:1:49.378,58.8277,2.61311,0,0.000885,0,0
0:1:49.478,58.592,2.60622,0,0.000885,0,0
0:1:49.575,58.5341,2.59932,0,0.000885,0,0
0:1:49.680,58.6498,2.60622,0,0.000885,0,0
0:1:49.776,58.6498,2.60622,0,0.000885,0,0
0:1:49.875,58.2984,2.59243,0,0.000885,0,0
0:1:49.975,58.414,2.59932,0,0.000885,0,0
0:1:50.074,58.414,2.59932,0,0.000885,0,0
0:1:50.180,58.592,2.60622,0,0.000885,0,0
0:1:50.276,58.4763,2.59932,0,0.000885,0,0
0:1:50.374,58.6498,2.60622,0,0.000885,0,0
0:1:50.474,58.6498,2.60622,0,0.000885,0,0
0:1:50.573,58.8277,2.61311,0,0.000885,0,0
0:1:50.670,58.592,2.60622,0,0.000885,0,0
0:1:50.768,58.2984,2.59243,0,0.000885,0,0
0:1:50.869,58.2984,2.59243,0,0.000885,0,0
0:1:50.969,58.2984,2.59243,0,0.000885,0,0
0:1:51.073,58.414,2.59932,0,0.000885,0,0
0:1:51.169,58.592,2.60622,0,0.000885,0,0
0:1:51.268,58.592,2.60622,0,0.000885,0,0
0:1:51.366,58.6498,2.60622,0,0.000885,0,0
0:1:51.466,58.3562,2.59243,0,0.000885,0,0
0:1:51.565,58.4763,2.59932,0,0.000885,0,0
0:1:51.665,58.4763,2.59932,0,0.000885,0,0
0:1:51.762,58.592,2.60622,0,0.000885,0,0
0:1:51.873,58.6498,2.60622,0,0.000885,0,0
0:1:51.973,58.414,2.59932,0,0.000885,0,0
0:1:52.069,58.414,2.59932,0,0.000885,0,0
0:1:52.169,58.3562,2.59243,0,0.000885,0,0
0:1:52.277,58.2406,2.58553,0,0.000885,0,0
0:1:52.383,58.2984,2.59243,0,0.000885,0,0
0:1:52.482,58.2984,2.59243,0,0.000885,0,0
0:1:52.581,58.3562,2.59243,0,0.000885,0,0
0:1:52.679,58.3562,2.59243,0,0.000885,0,0
0:1:52.775,58.3562,2.59243,0,0.000885,0,0
0:1:52.868,58.2406,2.58553,0,0.000885,0,0
0:1:52.966,58.1205,2.58553,0,0.000885,0,0
0:1:53.066,58.2406,2.58553,0,0.000885,0,0
0:1:53.165,58.2406,2.58553,0,0.000885,0,0
0:1:53.262,58.0048,2.57864,0,0.000885,0,0
0:1:53.359,57.8892,2.57174,0,0.000885,0,0
0:1:53.466,58.0048,2.57864,0,0.000885,0,0
0:1:53.565,58.0048,2.57864,0,0.000885,0,0
0:1:53.664,58.0626,2.57864,0,0.000885,0,0
0:1:53.769,58.0048,2.57864,0,0.000885,0,0
0:1:53.877,58.1205,2.58553,0,0.000885,0,0
0:1:53.975,58.1205,2.58553,0,0.000885,0,0
0:1:54.075,57.947,2.57864,0,0.000885,0,0
0:1:54.174,57.7691,2.56485,0,0.000885,0,0
0:1:54.281,57.5956,2.55795,0,0.000885,0,0
0:1:54.376,57.5956,2.55795,0,0.000885,0,0
0:1:54.474,57.6534,2.56485,0,0.000885,0,0
0:1:54.575,57.4176,2.55106,0,0.000885,0,0
0:1:54.673,57.4176,2.55106,0,0.000885,0,0
0:1:54.767,57.6534,2.56485,0,0.000885,0,0
0:1:54.874,57.302,2.54417,0,0.000885,0,0
0:1:54.981,57.0662,2.53727,0,0.000885,0,0
0:1:55.081,57.0662,2.53727,0,0.000885,0,0
0:1:55.181,57.2442,2.54417,0,0.000885,0,0
0:1:55.278,56.8928,2.53038,0,0.000885,0,0
0:1:55.375,56.7727,2.52348,0,0.000885,0,0
0:1:55.481,56.7727,2.52348,0,0.000885,0,0
0:1:55.581,56.3634,2.5028,0,0.000885,0,0
0:1:55.679,56.3056,2.5028,0,0.000885,0,0
0:1:55.779,55.8341,2.48211,0,0.000885,0,0
0:1:55.878,55.8341,2.48211,0,0.000885,0,0
0:1:55.979,55.6028,2.46832,0,0.000885,0,0
0:1:56.079,55.0156,2.44764,0,0.000885,0,0
0:1:56.179,54.7798,2.43385,0,0.000885,0,0
0:1:56.278,54.7798,2.43385,0,0.000885,0,0
0:1:56.378,54.4284,2.42006,0,0.000885,0,0
0:1:56.476,53.8991,2.39248,0,0.000885,0,0
0:1:56.576,53.7256,2.38559,0,0.000885,0,0
0:1:56.674,53.7256,2.38559,0,0.000885,0,0
0:1:56.773,53.0806,2.35801,0,0.000885,0,0
0:1:56.870,51.9063,2.30974,0,0.000885,0,0
0:1:56.969,51.9063,2.30974,0,0.000885,0,0
0:1:57.068,51.3191,2.28216,0,0.000885,0,0
0:1:57.166,51.2035,2.27527,0,0.000885,0,0
0:1:57.266,50.9099,2.26148,0,0.000885,0,0
0:1:57.374,50.9099,2.26148,0,0.000885,0,0
0:1:57.480,50.4962,2.24769,0,0.000885,0,0
0:1:57.579,50.0291,2.22011,0,0.000885,0,0
0:1:57.679,50.087,2.22701,0,0.000885,0,0
0:1:57.778,50.087,2.22701,0,0.000885,0,0
0:1:57.883,50.0291,2.22011,0,0.000885,0,0
0:1:57.979,50.1448,2.22701,0,0.000885,0,0
0:1:58.077,49.5576,2.19943,0,0.000885,0,0
0:1:58.177,49.5576,2.19943,0,0.000885,0,0
0:1:58.276,49.0327,2.17874,0,0.000885,0,0
0:1:58.381,48.9749,2.17874,0,0.000885,0,0
0:1:58.478,48.9126,2.17185,0,0.000885,0,0
0:1:58.576,48.9126,2.17185,0,0.000885,0,0
0:1:58.675,48.797,2.17185,0,0.000885,0,0
0:1:58.775,48.797,2.17185,0,0.000885,0,0
0:1:58.869,48.8548,2.17185,0,0.000885,0,0
0:1:58.977,48.8548,2.17185,0,0.000885,0,0
0:1:59.075,48.6813,2.16495,0,0.000885,0,0
0:1:59.174,48.2677,2.14427,0,0.000885,0,0
0:1:59.274,48.2677,2.14427,0,0.000885,0,0
0:1:59.367,48.3878,2.15116,0,0.000885,0,0
0:1:59.475,48.3878,2.15116,0,0.000885,0,0
0:1:59.571,48.0942,2.13737,0,0.000885,0,0
0:1:59.669,48.0942,2.13737,0,0.000885,0,0
0:1:59.769,48.0363,2.13737,0,0.000885,0,0
0:1:59.867,47.9162,2.13048,0,0.000885,0,0
0:1:59.975,47.9162,2.13048,0,0.000885,0,0
0:2:0.068,47.9162,2.13048,0,0.000885,0,0
0:2:0.168,47.5648,2.11669,0,0.000885,0,0
0:2:0.266,47.3914,2.1029,0,0.000885,0,0
0:2:0.366,45.4519,2.02016,0,0.000885,0,0
0:2:0.466,45.4519,2.02016,0,0.000885,0,0
0:2:0.488,45.4519,2.02016,0,0.000885,0,0