File: DataFile2021-07-17_062359.csv
Test ID:,Date Tested:,Time:,Test Type:,Diameter Avg. (mm):,Cyl. Corr. Factor:,Height (mm):,Age (days):,Weight (kN):,Break Type:,Ramp Rate (MPa/s):,Load at Break (kN):,Stress at Break (MPa):
12,7/17/2021,06:23,Cylinder,100,1,200,0,3.6,3,0.22,500.29,63.7
Sample Time,Load (kN),Stress (MPa),Long. Strain,Trans. Strain,Chan1 Deflection (mm),Chan2 Deflection (mm)
0:0:6.763,5.57362,0.71016,0,0.000885,0,0
0:0:7.057,5.92503,0.751529,0,0.000885,0,0
0:0:7.358,6.44992,0.820476,0,0.000885,0,0
0:0:7.654,6.86361,0.875634,0,0.000885,0,0
0:0:7.954,7.86001,0.99974,0,0.000885,0,0
0:0:8.252,8.15359,1.04111,0,0.000885,0,0
0:0:8.549,8.3849,1.06869,0,0.000885,0,0
0:0:8.850,9.20782,1.17211,0,0.000885,0,0
0:0:9.144,9.85281,1.25485,0,0.000885,0,0
0:0:9.446,10.3243,1.3169,0,0.000885,0,0
0:0:9.743,10.262,1.31,0,0.000885,0,0
0:0:10.039,11.552,1.46858,0,0.000885,0,0
0:0:10.339,11.9079,1.51685,0,0.000885,0,0
0:0:10.637,12.4328,1.58579,0,0.000885,0,0
0:0:10.937,13.0199,1.65474,0,0.000885,0,0
0:0:11.233,13.6071,1.73058,0,0.000885,0,0
0:0:11.532,14.0742,1.79264,0,0.000885,0,0
0:0:11.832,14.7192,1.87537,0,0.000885,0,0
0:0:12.135,15.4264,1.96501,0,0.000885,0,0
0:0:12.439,16.2449,2.06843,0,0.000885,0,0
0:0:12.742,16.5385,2.1029,0,0.000885,0,0
0:0:13.044,17.1257,2.17874,0,0.000885,0,0
0:0:13.346,17.1257,2.17874,0,0.000885,0,0
0:0:13.644,17.9486,2.28216,0,0.000885,0,0
0:0:13.947,19.0028,2.42006,0,0.000885,0,0
0:0:14.240,19.412,2.47522,0,0.000885,0,0
0:0:14.541,20.2928,2.58553,0,0.000885,0,0
0:0:14.840,21.1157,2.68896,0,0.000885,0,0
0:0:15.137,21.5828,2.75101,0,0.000885,0,0
0:0:15.438,22.4635,2.86132,0,0.000885,0,0
0:0:15.734,22.637,2.88201,0,0.000885,0,0
0:0:16.036,23.6378,3.00611,0,0.000885,0,0
0:0:16.333,24.3985,3.10954,0,0.000885,0,0
0:0:16.630,25.1591,3.20606,0,0.000885,0,0
0:0:16.931,25.8664,3.29569,0,0.000885,0,0
0:0:17.234,26.2178,3.33706,0,0.000885,0,0
0:0:17.538,26.9785,3.43359,0,0.000885,0,0
0:0:17.841,27.45,3.49564,0,0.000885,0,0
0:0:18.143,28.095,3.57838,0,0.000885,0,0
0:0:18.447,28.7978,3.66801,0,0.000885,0,0
0:0:18.742,29.4428,3.75075,0,0.000885,0,0
0:0:19.045,29.7364,3.78522,0,0.000885,0,0
0:0:19.341,30.7328,3.91622,0,0.000885,0,0
0:0:19.639,31.3778,3.99206,0,0.000885,0,0
0:0:19.938,31.5557,4.01964,0,0.000885,0,0
0:0:20.234,32.0806,4.0817,0,0.000885,0,0
0:0:20.536,32.2585,4.10928,0,0.000885,0,0
0:0:20.831,32.9035,4.19201,0,0.000885,0,0
0:0:21.133,33.2549,4.23338,0,0.000885,0,0
0:0:21.431,33.6063,4.28164,0,0.000885,0,0
0:0:21.728,34.3091,4.37128,0,0.000885,0,0
0:0:22.030,34.7806,4.42643,0,0.000885,0,0
0:0:22.333,35.777,4.55743,0,0.000885,0,0
0:0:22.637,36.0706,4.59191,0,0.000885,0,0
0:0:22.939,37.067,4.72291,0,0.000885,0,0
0:0:23.242,37.89,4.82633,0,0.000885,0,0
0:0:23.544,38.4148,4.88838,0,0.000885,0,0
0:0:23.842,39.002,4.96423,0,0.000885,0,0
0:0:24.141,38.8285,4.94354,0,0.000885,0,0
0:0:24.441,39.647,5.04696,0,0.000885,0,0
0:0:24.738,40.7057,5.18486,0,0.000885,0,0
0:0:25.039,41.2306,5.24691,0,0.000885,0,0
0:0:25.335,41.9334,5.33654,0,0.000885,0,0
0:0:25.637,42.227,5.37791,0,0.000885,0,0
0:0:25.930,42.9921,5.47444,0,0.000885,0,0
0:0:26.231,43.4013,5.5227,0,0.000885,0,0
0:0:26.530,44.2242,5.63302,0,0.000885,0,0
0:0:26.826,44.7491,5.69507,0,0.000885,0,0
0:0:27.127,45.3363,5.77091,0,0.000885,0,0
0:0:27.432,46.3327,5.90191,0,0.000885,0,0
0:0:27.734,46.3905,5.90881,0,0.000885,0,0
0:0:28.037,47.1556,6.00533,0,0.000885,0,0
0:0:28.338,47.6227,6.06049,0,0.000885,0,0
0:0:28.643,48.5612,6.1846,0,0.000885,0,0
0:0:28.938,48.8548,6.21907,0,0.000885,0,0
0:0:29.241,49.4998,6.30181,0,0.000885,0,0
0:0:29.536,49.7934,6.34318,0,0.000885,0,0
0:0:29.837,50.3227,6.40523,0,0.000885,0,0
0:0:30.135,51.0834,6.50176,0,0.000885,0,0
0:0:30.432,51.4971,6.55691,0,0.000885,0,0
0:0:30.734,52.1421,6.63965,0,0.000885,0,0
0:0:31.029,52.4935,6.68102,0,0.000885,0,0
0:0:31.331,53.1385,6.76376,0,0.000885,0,0
0:0:31.626,53.9569,6.86718,0,0.000885,0,0
0:0:31.925,54.5441,6.94302,0,0.000885,0,0
0:0:32.225,55.4248,7.06023,0,0.000885,0,0
0:0:32.528,55.6606,7.08781,0,0.000885,0,0
0:0:32.833,56.1277,7.14986,0,0.000885,0,0
0:0:33.135,57.3598,7.30155,0,0.000885,0,0
0:0:33.437,57.3598,7.30155,0,0.000885,0,0
0:0:33.739,58.1205,7.39807,0,0.000885,0,0
0:0:34.038,59.059,7.52218,0,0.000885,0,0
0:0:34.340,59.7663,7.61181,0,0.000885,0,0
0:0:34.634,60.2912,7.67386,0,0.000885,0,0
0:0:34.937,61.1141,7.78418,0,0.000885,0,0
0:0:35.234,61.1719,7.79108,0,0.000885,0,0
0:0:35.531,62.0527,7.90139,0,0.000885,0,0
0:0:35.832,62.582,7.97034,0,0.000885,0,0
0:0:36.126,62.6977,7.98413,0,0.000885,0,0
0:0:36.430,63.5784,8.09445,0,0.000885,0,0
0:0:36.724,63.9298,8.14271,0,0.000885,0,0
0:0:37.028,64.517,8.21166,0,0.000885,0,0
0:0:37.332,64.8106,8.25302,0,0.000885,0,0
0:0:37.636,65.4556,8.33576,0,0.000885,0,0
0:0:37.940,66.3942,8.45297,0,0.000885,0,0
0:0:38.241,66.9769,8.52881,0,0.000885,0,0
0:0:38.543,67.6219,8.61155,0,0.000885,0,0
0:0:38.842,68.0934,8.66671,0,0.000885,0,0
0:0:39.140,68.9163,8.77703,0,0.000885,0,0
0:0:39.440,69.5613,8.85976,0,0.000885,0,0
0:0:39.736,69.9705,8.90803,0,0.000885,0,0
0:0:40.038,70.0862,8.92182,0,0.000885,0,0
0:0:40.334,70.789,9.01145,0,0.000885,0,0
0:0:40.632,71.7276,9.13555,0,0.000885,0,0
0:0:40.932,72.4927,9.23208,0,0.000885,0,0
0:0:41.229,73.0798,9.30792,0,0.000885,0,0
0:0:41.531,73.3111,9.3355,0,0.000885,0,0
0:0:41.824,73.8983,9.41134,0,0.000885,0,0
0:0:42.128,74.312,9.45961,0,0.000885,0,0
0:0:42.434,75.6598,9.63198,0,0.000885,0,0
0:0:42.736,76.1891,9.70092,0,0.000885,0,0
0:0:43.039,76.5984,9.75608,0,0.000885,0,0
0:0:43.340,77.1233,9.81813,0,0.000885,0,0
0:0:43.643,77.4791,9.8664,0,0.000885,0,0
0:0:43.938,78.2976,9.96982,0,0.000885,0,0
0:0:44.238,78.649,10.0112,0,0.000885,0,0
0:0:44.538,79.1205,10.0732,0,0.000885,0,0
0:0:44.834,79.7077,10.1491,0,0.000885,0,0
0:0:45.136,80.2326,10.218,0,0.000885,0,0
0:0:45.432,81.0555,10.3215,0,0.000885,0,0
0:0:45.732,81.4069,10.3628,0,0.000885,0,0
0:0:46.030,82.2298,10.4662,0,0.000885,0,0
0:0:46.327,82.4033,10.4938,0,0.000885,0,0
0:0:46.629,83.3419,10.611,0,0.000885,0,0
0:0:46.923,84.0447,10.7007,0,0.000885,0,0
0:0:47.225,84.5162,10.7627,0,0.000885,0,0
0:0:47.529,85.3347,10.8661,0,0.000885,0,0
0:0:47.834,86.042,10.9558,0,0.000885,0,0
0:0:48.136,86.9183,11.0661,0,0.000885,0,0
0:0:48.437,87.0384,11.0799,0,0.000885,0,0
0:0:48.740,87.0384,11.0799,0,0.000885,0,0
0:0:49.035,87.5632,11.1488,0,0.000885,0,0
0:0:49.336,88.5641,11.2729,0,0.000885,0,0
0:0:49.633,89.2091,11.3557,0,0.000885,0,0
0:0:49.932,90.2055,11.4867,0,0.000885,0,0
0:0:50.232,90.8505,11.5694,0,0.000885,0,0
0:0:50.527,91.024,11.5901,0,0.000885,0,0
0:0:50.830,91.7312,11.6797,0,0.000885,0,0
0:0:51.125,92.434,11.7694,0,0.000885,0,0
0:0:51.424,92.9589,11.8383,0,0.000885,0,0
0:0:51.722,93.5461,11.9141,0,0.000885,0,0
0:0:52.026,94.1333,11.9831,0,0.000885,0,0
0:0:52.330,94.5425,12.0382,0,0.000885,0,0
0:0:52.633,95.014,12.1003,0,0.000885,0,0
0:0:52.935,95.5434,12.1624,0,0.000885,0,0
0:0:53.238,96.4819,12.2865,0,0.000885,0,0
0:0:53.537,96.949,12.3416,0,0.000885,0,0
0:0:53.838,97.9454,12.4726,0,0.000885,0,0
0:0:54.134,98.3591,12.5209,0,0.000885,0,0
0:0:54.436,99.0041,12.6036,0,0.000885,0,0
0:0:54.730,99.5868,12.6795,0,0.000885,0,0
0:0:55.032,100.468,12.7898,0,0.000885,0,0
0:0:55.331,100.703,12.8242,0,0.000885,0,0
0:0:55.626,101.464,12.9208,0,0.000885,0,0
0:0:55.927,101.526,12.9277,0,0.000885,0,0
0:0:56.223,102.638,13.0656,0,0.000885,0,0
0:0:56.525,102.932,13.1069,0,0.000885,0,0
0:0:56.820,103.461,13.1759,0,0.000885,0,0
0:0:57.124,104.515,13.3069,0,0.000885,0,0
0:0:57.428,104.867,13.3551,0,0.000885,0,0
0:0:57.733,105.627,13.4517,0,0.000885,0,0
0:0:58.034,105.627,13.4517,0,0.000885,0,0
0:0:58.334,106.508,13.562,0,0.000885,0,0
0:0:58.635,106.686,13.5827,0,0.000885,0,0
0:0:58.933,107.625,13.6999,0,0.000885,0,0
0:0:59.231,108.212,13.7757,0,0.000885,0,0
0:0:59.532,108.621,13.8309,0,0.000885,0,0
0:0:59.827,109.502,13.9412,0,0.000885,0,0
0:1:0.127,109.795,13.9826,0,0.000885,0,0
0:1:0.426,110.965,14.1274,0,0.000885,0,0
0:1:0.723,111.201,14.1618,0,0.000885,0,0
0:1:1.021,112.197,14.2859,0,0.000885,0,0
0:1:1.318,112.491,14.3204,0,0.000885,0,0
0:1:1.620,112.842,14.3687,0,0.000885,0,0
0:1:1.915,113.256,14.4169,0,0.000885,0,0
0:1:2.217,113.901,14.4997,0,0.000885,0,0
0:1:2.522,114.368,14.5617,0,0.000885,0,0
0:1:2.824,115.307,14.6789,0,0.000885,0,0
0:1:3.128,116.245,14.803,0,0.000885,0,0
0:1:3.430,117.126,14.9134,0,0.000885,0,0
0:1:3.732,117.068,14.9065,0,0.000885,0,0
0:1:4.028,117.651,14.9823,0,0.000885,0,0
0:1:4.327,118.238,15.0581,0,0.000885,0,0
0:1:4.627,118.768,15.1202,0,0.000885,0,0
0:1:4.922,119.648,15.2305,0,0.000885,0,0
0:1:5.223,119.942,15.2719,0,0.000885,0,0
0:1:5.519,120.058,15.2857,0,0.000885,0,0
0:1:5.821,121.29,15.4443,0,0.000885,0,0
0:1:6.118,121.583,15.4787,0,0.000885,0,0
0:1:6.416,122.286,15.5684,0,0.000885,0,0
0:1:6.716,122.989,15.658,0,0.000885,0,0
0:1:7.021,123.634,15.7407,0,0.000885,0,0
0:1:7.323,124.163,15.8097,0,0.000885,0,0
0:1:7.630,124.808,15.8924,0,0.000885,0,0
0:1:7.932,125.453,15.9752,0,0.000885,0,0
0:1:8.234,125.631,15.9958,0,0.000885,0,0
0:1:8.537,126.57,16.113,0,0.000885,0,0
0:1:8.841,127.037,16.1751,0,0.000885,0,0
0:1:9.136,127.918,16.2854,0,0.000885,0,0
0:1:9.435,128.442,16.3544,0,0.000885,0,0
0:1:9.734,128.736,16.3888,0,0.000885,0,0
0:1:10.032,129.675,16.5129,0,0.000885,0,0
0:1:10.333,129.852,16.5336,0,0.000885,0,0
0:1:10.628,130.675,16.637,0,0.000885,0,0
0:1:10.931,131.027,16.6853,0,0.000885,0,0
0:1:11.227,131.672,16.768,0,0.000885,0,0
0:1:11.526,132.023,16.8094,0,0.000885,0,0
0:1:11.824,132.962,16.9266,0,0.000885,0,0
0:1:12.128,133.607,17.0094,0,0.000885,0,0
0:1:12.433,134.252,17.0921,0,0.000885,0,0
0:1:12.736,134.719,17.1542,0,0.000885,0,0
0:1:13.038,135.07,17.1955,0,0.000885,0,0
0:1:13.340,135.951,17.3127,0,0.000885,0,0
0:1:13.638,136.187,17.3403,0,0.000885,0,0
0:1:13.938,137.655,17.5265,0,0.000885,0,0
0:1:14.234,137.886,17.5541,0,0.000885,0,0
0:1:14.535,138.357,17.6161,0,0.000885,0,0
0:1:14.832,139.06,17.7057,0,0.000885,0,0
0:1:15.131,139.354,17.7402,0,0.000885,0,0
0:1:15.431,139.821,17.8023,0,0.000885,0,0
0:1:15.726,140.702,17.9126,0,0.000885,0,0
0:1:16.027,141.405,18.0022,0,0.000885,0,0
0:1:16.324,141.818,18.0574,0,0.000885,0,0
0:1:16.624,142.579,18.1539,0,0.000885,0,0
0:1:16.923,143.344,18.2504,0,0.000885,0,0
0:1:17.226,143.753,18.3056,0,0.000885,0,0
0:1:17.530,144.22,18.3607,0,0.000885,0,0
0:1:17.833,144.692,18.4228,0,0.000885,0,0
0:1:18.136,145.395,18.5124,0,0.000885,0,0
0:1:18.439,146.04,18.5952,0,0.000885,0,0
0:1:18.738,146.217,18.6158,0,0.000885,0,0
0:1:19.037,146.8,18.6917,0,0.000885,0,0
0:1:19.333,147.33,18.7606,0,0.000885,0,0
0:1:19.636,148.446,18.8985,0,0.000885,0,0
0:1:19.930,149.149,18.9882,0,0.000885,0,0
0:1:20.231,149.736,19.064,0,0.000885,0,0
0:1:20.528,150.261,19.133,0,0.000885,0,0
0:1:20.827,150.968,19.2226,0,0.000885,0,0
0:1:21.127,151.377,19.2708,0,0.000885,0,0
0:1:21.421,151.671,19.3122,0,0.000885,0,0
0:1:21.723,151.844,19.3329,0,0.000885,0,0
0:1:22.020,152.489,19.4156,0,0.000885,0,0
0:1:22.323,153.49,19.5397,0,0.000885,0,0
0:1:22.629,154.193,19.6294,0,0.000885,0,0
0:1:22.931,154.602,19.6845,0,0.000885,0,0
0:1:23.233,155.19,19.7604,0,0.000885,0,0
0:1:23.536,156.128,19.8776,0,0.000885,0,0
0:1:23.837,156.48,19.9258,0,0.000885,0,0
0:1:24.135,157.418,20.0431,0,0.000885,0,0
0:1:24.432,158.121,20.1327,0,0.000885,0,0
0:1:24.732,158.063,20.1258,0,0.000885,0,0
0:1:25.029,159.411,20.2982,0,0.000885,0,0
0:1:25.331,159.705,20.3326,0,0.000885,0,0
0:1:25.627,160.407,20.4223,0,0.000885,0,0
0:1:25.924,160.643,20.4567,0,0.000885,0,0
0:1:26.224,161.582,20.574,0,0.000885,0,0
0:1:26.520,161.817,20.6015,0,0.000885,0,0
0:1:26.822,162.698,20.7119,0,0.000885,0,0
0:1:27.117,163.281,20.7877,0,0.000885,0,0
0:1:27.421,163.637,20.836,0,0.000885,0,0
0:1:27.725,164.104,20.8911,0,0.000885,0,0
0:1:28.028,164.864,20.9945,0,0.000885,0,0
0:1:28.331,165.278,21.0428,0,0.000885,0,0
0:1:28.634,165.865,21.1186,0,0.000885,0,0
0:1:28.935,166.39,21.1876,0,0.000885,0,0
0:1:29.232,166.977,21.2634,0,0.000885,0,0
0:1:29.532,167.68,21.3531,0,0.000885,0,0
0:1:29.831,168.387,21.4427,0,0.000885,0,0
0:1:30.129,168.854,21.4979,0,0.000885,0,0
0:1:30.432,169.499,21.5806,0,0.000885,0,0
0:1:30.727,170.38,21.6909,0,0.000885,0,0
0:1:31.027,170.847,21.753,0,0.000885,0,0
0:1:31.325,171.083,21.7805,0,0.000885,0,0
0:1:31.623,171.786,21.8702,0,0.000885,0,0
0:1:31.923,172.315,21.9391,0,0.000885,0,0
0:1:32.228,173.312,22.0701,0,0.000885,0,0
0:1:32.531,173.605,22.1046,0,0.000885,0,0
0:1:32.833,174.308,22.1942,0,0.000885,0,0
0:1:33.136,174.953,22.277,0,0.000885,0,0
0:1:33.438,175.776,22.3804,0,0.000885,0,0
0:1:33.735,175.892,22.3942,0,0.000885,0,0
0:1:34.036,176.714,22.4976,0,0.000885,0,0
0:1:34.332,176.95,22.5321,0,0.000885,0,0
0:1:34.633,177.653,22.6217,0,0.000885,0,0
0:1:34.930,178.298,22.7044,0,0.000885,0,0
0:1:35.228,179.179,22.8148,0,0.000885,0,0
0:1:35.528,179.824,22.8975,0,0.000885,0,0
0:1:35.824,179.824,22.8975,0,0.000885,0,0
0:1:36.125,180.7,23.0078,0,0.000885,0,0
0:1:36.419,181.287,23.0836,0,0.000885,0,0
0:1:36.720,181.639,23.125,0,0.000885,0,0
0:1:37.018,182.052,23.1802,0,0.000885,0,0
0:1:37.322,182.697,23.2629,0,0.000885,0,0
0:1:37.627,183.636,23.3801,0,0.000885,0,0
0:1:37.930,184.397,23.4766,0,0.000885,0,0
0:1:38.231,184.868,23.5387,0,0.000885,0,0
0:1:38.534,185.393,23.6076,0,0.000885,0,0
0:1:38.832,186.1,23.6973,0,0.000885,0,0
0:1:39.133,186.745,23.78,0,0.000885,0,0
0:1:39.427,187.212,23.8352,0,0.000885,0,0
0:1:39.730,187.857,23.9179,0,0.000885,0,0
0:1:40.024,188.035,23.9386,0,0.000885,0,0
0:1:40.324,189.147,24.0834,0,0.000885,0,0
0:1:40.622,189.677,24.1523,0,0.000885,0,0
0:1:40.920,190.202,24.2144,0,0.000885,0,0
0:1:41.220,190.615,24.2695,0,0.000885,0,0
0:1:41.513,190.967,24.3178,0,0.000885,0,0
0:1:41.817,191.669,24.4074,0,0.000885,0,0
0:1:42.126,192.079,24.4557,0,0.000885,0,0
0:1:42.428,192.55,24.5178,0,0.000885,0,0
0:1:42.730,193.489,24.635,0,0.000885,0,0
0:1:43.032,194.134,24.7177,0,0.000885,0,0
0:1:43.334,194.894,24.8142,0,0.000885,0,0
0:1:43.634,195.308,24.8694,0,0.000885,0,0
0:1:43.930,195.717,24.9177,0,0.000885,0,0
0:1:44.228,196.536,25.0211,0,0.000885,0,0
0:1:44.523,196.949,25.0762,0,0.000885,0,0
0:1:44.822,197.83,25.1865,0,0.000885,0,0
0:1:45.117,198.297,25.2486,0,0.000885,0,0
0:1:45.415,199.294,25.3727,0,0.000885,0,0
0:1:45.708,199.294,25.3727,0,0.000885,0,0
0:1:46.015,200.526,25.5313,0,0.000885,0,0
0:1:46.312,200.935,25.5864,0,0.000885,0,0
0:1:46.617,201.113,25.6071,0,0.000885,0,0
0:1:46.917,202.052,25.7243,0,0.000885,0,0
0:1:47.221,202.639,25.8002,0,0.000885,0,0
0:1:47.522,203.457,25.9036,0,0.000885,0,0
0:1:47.823,203.871,25.9588,0,0.000885,0,0
0:1:48.122,204.747,26.0691,0,0.000885,0,0
0:1:48.423,204.867,26.0829,0,0.000885,0,0
0:1:48.717,205.334,26.1449,0,0.000885,0,0
0:1:49.012,205.806,26.207,0,0.000885,0,0
0:1:49.307,206.509,26.2966,0,0.000885,0,0
0:1:49.617,207.038,26.3587,0,0.000885,0,0
0:1:49.923,207.683,26.4414,0,0.000885,0,0
0:1:50.216,208.328,26.5241,0,0.000885,0,0
0:1:50.513,208.795,26.5862,0,0.000885,0,0
0:1:50.819,209.146,26.6276,0,0.000885,0,0
0:1:51.116,209.734,26.7034,0,0.000885,0,0
0:1:51.423,211.081,26.8758,0,0.000885,0,0
0:1:51.718,211.433,26.924,0,0.000885,0,0
0:1:52.018,212.434,27.0481,0,0.000885,0,0
0:1:52.320,212.665,27.0757,0,0.000885,0,0
0:1:52.622,213.252,27.1516,0,0.000885,0,0
0:1:52.923,213.546,27.1929,0,0.000885,0,0
0:1:53.223,214.249,27.2826,0,0.000885,0,0
0:1:53.524,214.778,27.3446,0,0.000885,0,0
0:1:53.818,215.307,27.4136,0,0.000885,0,0
0:1:54.119,216.184,27.5239,0,0.000885,0,0
0:1:54.420,216.597,27.579,0,0.000885,0,0
0:1:54.720,217.242,27.6618,0,0.000885,0,0
0:1:55.025,217.709,27.7169,0,0.000885,0,0
0:1:55.319,218.296,27.7928,0,0.000885,0,0
0:1:55.618,218.768,27.8548,0,0.000885,0,0
0:1:55.910,219.644,27.9651,0,0.000885,0,0
0:1:56.209,220.058,28.0203,0,0.000885,0,0
0:1:56.513,220.289,28.0479,0,0.000885,0,0
0:1:56.810,221.228,28.1651,0,0.000885,0,0
0:1:57.108,222.287,28.303,0,0.000885,0,0
0:1:57.410,222.518,28.3306,0,0.000885,0,0
0:1:57.712,222.696,28.3512,0,0.000885,0,0
0:1:58.011,223.167,28.4133,0,0.000885,0,0
0:1:58.313,224.101,28.5305,0,0.000885,0,0
0:1:58.613,224.809,28.6201,0,0.000885,0,0
0:1:58.908,225.454,28.7029,0,0.000885,0,0
0:1:59.208,225.805,28.7511,0,0.000885,0,0
0:1:59.512,226.45,28.8339,0,0.000885,0,0
0:1:59.809,227.269,28.9373,0,0.000885,0,0
0:2:0.118,227.856,29.0131,0,0.000885,0,0
0:2:0.421,228.385,29.0821,0,0.000885,0,0
0:2:0.723,228.736,29.1235,0,0.000885,0,0
0:2:1.024,229.675,29.2407,0,0.000885,0,0
0:2:1.324,230.147,29.3027,0,0.000885,0,0
0:2:1.620,231.201,29.4406,0,0.000885,0,0
0:2:1.922,231.259,29.4475,0,0.000885,0,0
0:2:2.222,231.788,29.5096,0,0.000885,0,0
0:2:2.524,232.019,29.544,0,0.000885,0,0
0:2:2.826,233.02,29.6681,0,0.000885,0,0
0:2:3.125,233.487,29.7302,0,0.000885,0,0
0:2:3.426,234.19,29.8198,0,0.000885,0,0
0:2:3.727,235.129,29.937,0,0.000885,0,0
0:2:4.019,235.542,29.9922,0,0.000885,0,0
0:2:4.320,235.951,30.0405,0,0.000885,0,0
0:2:4.613,237.064,30.1852,0,0.000885,0,0
0:2:4.909,237.064,30.1852,0,0.000885,0,0
0:2:5.218,238.18,30.3231,0,0.000885,0,0
0:2:5.509,238.416,30.3576,0,0.000885,0,0
0:2:5.809,239.119,30.4472,0,0.000885,0,0
0:2:6.112,239.47,30.4886,0,0.000885,0,0
0:2:6.422,240.409,30.6127,0,0.000885,0,0
0:2:6.721,241.169,30.7092,0,0.000885,0,0
0:2:7.022,241.169,30.7092,0,0.000885,0,0
0:2:7.323,241.641,30.7644,0,0.000885,0,0
0:2:7.626,241.876,30.7989,0,0.000885,0,0
0:2:7.928,243.224,30.9712,0,0.000885,0,0
0:2:8.227,243.576,31.0126,0,0.000885,0,0
0:2:8.528,244.221,31.0954,0,0.000885,0,0
0:2:8.828,244.279,31.1023,0,0.000885,0,0
0:2:9.120,245.395,31.247,0,0.000885,0,0
0:2:9.420,246.04,31.3298,0,0.000885,0,0
0:2:9.714,246.685,31.4056,0,0.000885,0,0
0:2:10.009,247.036,31.4539,0,0.000885,0,0
0:2:10.318,247.566,31.5228,0,0.000885,0,0
0:2:10.610,247.917,31.5642,0,0.000885,0,0
0:2:10.911,249.029,31.709,0,0.000885,0,0
0:2:11.213,249.674,31.7917,0,0.000885,0,0
0:2:11.510,250.204,31.8538,0,0.000885,0,0
0:2:11.808,250.497,31.8951,0,0.000885,0,0
0:2:12.110,251.729,32.0537,0,0.000885,0,0
0:2:12.412,251.729,32.0537,0,0.000885,0,0
0:2:12.713,252.374,32.1365,0,0.000885,0,0
0:2:13.013,252.841,32.1916,0,0.000885,0,0
0:2:13.314,253.958,32.3364,0,0.000885,0,0
0:2:13.609,254.483,32.4054,0,0.000885,0,0
0:2:13.907,255.07,32.4743,0,0.000885,0,0
0:2:14.223,255.541,32.5364,0,0.000885,0,0
0:2:14.522,256.186,32.6191,0,0.000885,0,0
0:2:14.824,256.653,32.6811,0,0.000885,0,0
0:2:15.122,257.183,32.7432,0,0.000885,0,0
0:2:15.420,257.828,32.8259,0,0.000885,0,0
0:2:15.722,258.357,32.8949,0,0.000885,0,0
0:2:16.022,259.118,32.9914,0,0.000885,0,0
0:2:16.325,259.469,33.0397,0,0.000885,0,0
0:2:16.624,260.172,33.1293,0,0.000885,0,0
0:2:16.928,260.466,33.1638,0,0.000885,0,0
0:2:17.229,261.404,33.281,0,0.000885,0,0
0:2:17.531,261.934,33.3499,0,0.000885,0,0
0:2:17.832,262.401,33.412,0,0.000885,0,0
0:2:18.133,263.108,33.5016,0,0.000885,0,0
0:2:18.435,263.691,33.5775,0,0.000885,0,0
0:2:18.731,264.278,33.6464,0,0.000885,0,0
0:2:19.029,264.923,33.7292,0,0.000885,0,0
0:2:19.323,265.63,33.8188,0,0.000885,0,0
0:2:19.623,265.981,33.867,0,0.000885,0,0
0:2:19.925,266.742,33.9636,0,0.000885,0,0
0:2:20.225,267.093,34.0049,0,0.000885,0,0
0:2:20.521,267.974,34.1222,0,0.000885,0,0
0:2:20.825,268.21,34.1497,0,0.000885,0,0
0:2:21.123,269.149,34.2669,0,0.000885,0,0
0:2:21.428,269.736,34.3428,0,0.000885,0,0
0:2:21.727,270.439,34.4324,0,0.000885,0,0
0:2:22.021,270.906,34.4945,0,0.000885,0,0
0:2:22.321,271.084,34.5152,0,0.000885,0,0
0:2:22.626,271.729,34.5979,0,0.000885,0,0
0:2:22.925,272.196,34.6599,0,0.000885,0,0
0:2:23.227,273.018,34.7634,0,0.000885,0,0
0:2:23.526,273.837,34.8668,0,0.000885,0,0
0:2:23.826,274.366,34.9357,0,0.000885,0,0
0:2:24.122,274.896,34.9978,0,0.000885,0,0
0:2:24.415,275.069,35.0254,0,0.000885,0,0
0:2:24.714,276.421,35.1977,0,0.000885,0,0
0:2:25.028,276.715,35.2322,0,0.000885,0,0
0:2:25.327,277.533,35.3356,0,0.000885,0,0
0:2:25.622,277.418,35.3218,0,0.000885,0,0
0:2:25.920,278.178,35.4184,0,0.000885,0,0
0:2:26.214,279.001,35.5218,0,0.000885,0,0
0:2:26.509,279.646,35.6045,0,0.000885,0,0
0:2:26.817,280.113,35.6666,0,0.000885,0,0
0:2:27.123,280.821,35.7562,0,0.000885,0,0
0:2:27.423,281.581,35.8527,0,0.000885,0,0
0:2:27.726,281.991,35.901,0,0.000885,0,0
0:2:28.027,282.52,35.9699,0,0.000885,0,0
0:2:28.327,283.401,36.0803,0,0.000885,0,0
0:2:28.627,284.103,36.1699,0,0.000885,0,0
0:2:28.927,284.806,36.2595,0,0.000885,0,0
0:2:29.221,284.806,36.2595,0,0.000885,0,0
0:2:29.526,285.393,36.3354,0,0.000885,0,0
0:2:29.825,285.803,36.3905,0,0.000885,0,0
0:2:30.117,286.741,36.5077,0,0.000885,0,0
0:2:30.417,287.093,36.556,0,0.000885,0,0
0:2:30.709,288.031,36.6732,0,0.000885,0,0
0:2:31.009,288.209,36.6939,0,0.000885,0,0
0:2:31.313,289.384,36.8456,0,0.000885,0,0
0:2:31.610,289.615,36.8732,0,0.000885,0,0
0:2:31.907,290.144,36.9421,0,0.000885,0,0
0:2:32.209,290.847,37.0317,0,0.000885,0,0
0:2:32.513,291.141,37.0662,0,0.000885,0,0
0:2:32.814,291.843,37.1558,0,0.000885,0,0
0:2:33.113,292.488,37.2386,0,0.000885,0,0
0:2:33.414,293.133,37.3213,0,0.000885,0,0
0:2:33.718,293.721,37.3972,0,0.000885,0,0
0:2:34.017,294.486,37.4937,0,0.000885,0,0
0:2:34.322,294.659,37.5144,0,0.000885,0,0
0:2:34.622,295.482,37.6247,0,0.000885,0,0
0:2:34.926,295.833,37.6661,0,0.000885,0,0
0:2:35.223,296.656,37.7695,0,0.000885,0,0
0:2:35.522,297.533,37.8798,0,0.000885,0,0
0:2:35.823,297.826,37.9212,0,0.000885,0,0
0:2:36.124,298.649,38.0246,0,0.000885,0,0
0:2:36.428,298.765,38.0384,0,0.000885,0,0
0:2:36.725,299.939,38.1901,0,0.000885,0,0
0:2:37.021,300.113,38.2107,0,0.000885,0,0
0:2:37.322,300.7,38.2866,0,0.000885,0,0
0:2:37.625,301.407,38.3762,0,0.000885,0,0
0:2:37.925,301.816,38.4314,0,0.000885,0,0
0:2:38.225,302.813,38.5555,0,0.000885,0,0
0:2:38.526,303.4,38.6313,0,0.000885,0,0
0:2:38.821,303.4,38.6313,0,0.000885,0,0
0:2:39.117,304.16,38.7279,0,0.000885,0,0
0:2:39.423,304.863,38.8175,0,0.000885,0,0
0:2:39.723,305.157,38.852,0,0.000885,0,0
0:2:40.026,305.744,38.9278,0,0.000885,0,0
0:2:40.323,306.683,39.045,0,0.000885,0,0
0:2:40.621,307.27,39.1209,0,0.000885,0,0
0:2:40.924,307.741,39.1829,0,0.000885,0,0
0:2:41.224,308.324,39.2587,0,0.000885,0,0
0:2:41.527,309.441,39.3966,0,0.000885,0,0
0:2:41.825,309.97,39.4656,0,0.000885,0,0
0:2:42.117,310.201,39.4932,0,0.000885,0,0
0:2:42.418,310.788,39.569,0,0.000885,0,0
0:2:42.724,311.376,39.6449,0,0.000885,0,0
0:2:43.024,312.256,39.7552,0,0.000885,0,0
0:2:43.324,312.372,39.7759,0,0.000885,0,0
0:2:43.624,313.31,39.8931,0,0.000885,0,0
0:2:43.922,314.427,40.031,0,0.000885,0,0
0:2:44.228,314.543,40.0516,0,0.000885,0,0
0:2:44.522,315.01,40.1068,0,0.000885,0,0
0:2:44.822,315.13,40.1206,0,0.000885,0,0
0:2:45.125,315.833,40.2102,0,0.000885,0,0
0:2:45.423,316.713,40.3274,0,0.000885,0,0
0:2:45.717,317.416,40.4171,0,0.000885,0,0
0:2:46.022,317.825,40.4653,0,0.000885,0,0
0:2:46.323,318.591,40.5619,0,0.000885,0,0
0:2:46.627,319.351,40.6584,0,0.000885,0,0
0:2:46.924,319.178,40.6377,0,0.000885,0,0
0:2:47.218,319.938,40.7342,0,0.000885,0,0
0:2:47.520,320.468,40.8032,0,0.000885,0,0
0:2:47.826,321.931,40.9893,0,0.000885,0,0
0:2:48.125,321.931,40.9893,0,0.000885,0,0
0:2:48.427,322.99,41.1272,0,0.000885,0,0
0:2:48.726,322.928,41.1134,0,0.000885,0,0
0:2:49.023,323.635,41.2031,0,0.000885,0,0
0:2:49.318,324.511,41.3203,0,0.000885,0,0
0:2:49.624,324.925,41.3685,0,0.000885,0,0
0:2:49.924,325.628,41.4582,0,0.000885,0,0
0:2:50.217,326.037,41.5133,0,0.000885,0,0
0:2:50.513,326.802,41.6099,0,0.000885,0,0
0:2:50.812,327.389,41.6857,0,0.000885,0,0
0:2:51.115,327.798,41.734,0,0.000885,0,0
0:2:51.414,328.092,41.7753,0,0.000885,0,0
0:2:51.718,329.031,41.8925,0,0.000885,0,0
0:2:52.020,329.791,41.9891,0,0.000885,0,0
0:2:52.325,330.32,42.058,0,0.000885,0,0
0:2:52.626,330.494,42.0787,0,0.000885,0,0
0:2:52.926,331.375,42.189,0,0.000885,0,0
0:2:53.226,332.02,42.2718,0,0.000885,0,0
0:2:53.525,332.843,42.3821,0,0.000885,0,0
0:2:53.820,333.31,42.4372,0,0.000885,0,0
0:2:54.125,333.839,42.5062,0,0.000885,0,0
0:2:54.425,334.133,42.5407,0,0.000885,0,0
0:2:54.717,334.951,42.651,0,0.000885,0,0
0:2:55.026,335.832,42.7613,0,0.000885,0,0
0:2:55.324,336.477,42.844,0,0.000885,0,0
0:2:55.628,336.713,42.8716,0,0.000885,0,0
0:2:55.928,337.473,42.9681,0,0.000885,0,0
0:2:56.229,338.003,43.0371,0,0.000885,0,0
0:2:56.529,338.474,43.0922,0,0.000885,0,0
0:2:56.824,338.883,43.1474,0,0.000885,0,0
0:2:57.124,339.586,43.237,0,0.000885,0,0
0:2:57.429,340.289,43.3267,0,0.000885,0,0
0:2:57.728,340.703,43.3818,0,0.000885,0,0
0:2:58.029,341.348,43.4645,0,0.000885,0,0
0:2:58.328,342.286,43.5818,0,0.000885,0,0
0:2:58.626,343.047,43.6783,0,0.000885,0,0
0:2:58.925,343.163,43.6921,0,0.000885,0,0
0:2:59.226,343.807,43.7748,0,0.000885,0,0
0:2:59.526,343.985,43.7955,0,0.000885,0,0
0:2:59.818,344.746,43.892,0,0.000885,0,0
0:3:0.116,345.742,44.023,0,0.000885,0,0
0:3:0.423,345.978,44.0506,0,0.000885,0,0
0:3:0.728,346.508,44.1196,0,0.000885,0,0
0:3:1.027,347.268,44.2161,0,0.000885,0,0
0:3:1.316,347.62,44.2574,0,0.000885,0,0
0:3:1.616,348.443,44.3678,0,0.000885,0,0
0:3:1.913,349.03,44.4367,0,0.000885,0,0
0:3:2.214,349.733,44.5263,0,0.000885,0,0
0:3:2.518,349.91,44.5539,0,0.000885,0,0
0:3:2.816,350.729,44.6573,0,0.000885,0,0
0:3:3.118,351.494,44.7539,0,0.000885,0,0
0:3:3.418,352.255,44.8504,0,0.000885,0,0
0:3:3.712,352.312,44.8573,0,0.000885,0,0
0:3:4.012,353.135,44.9607,0,0.000885,0,0
0:3:4.326,353.66,45.0297,0,0.000885,0,0
0:3:4.626,354.661,45.1538,0,0.000885,0,0
0:3:4.921,355.07,45.2089,0,0.000885,0,0
0:3:5.228,355.48,45.2641,0,0.000885,0,0
0:3:5.526,356.538,45.3951,0,0.000885,0,0
0:3:5.818,356.89,45.4433,0,0.000885,0,0
0:3:6.118,357.535,45.5192,0,0.000885,0,0
0:3:6.432,358.295,45.6226,0,0.000885,0,0
0:3:6.729,358.705,45.6709,0,0.000885,0,0
0:3:7.025,359.412,45.7605,0,0.000885,0,0
0:3:7.327,359.47,45.7674,0,0.000885,0,0
0:3:7.629,359.879,45.8226,0,0.000885,0,0
0:3:7.930,360.524,45.9053,0,0.000885,0,0
0:3:8.229,360.995,45.9605,0,0.000885,0,0
0:3:8.530,362.285,46.1259,0,0.000885,0,0
0:3:8.824,362.752,46.188,0,0.000885,0,0
0:3:9.122,363.224,46.25,0,0.000885,0,0
0:3:9.416,363.749,46.3121,0,0.000885,0,0
0:3:9.715,364.336,46.3879,0,0.000885,0,0
0:3:10.021,365.684,46.5603,0,0.000885,0,0
0:3:10.327,365.395,46.5258,0,0.000885,0,0
0:3:10.626,366.329,46.643,0,0.000885,0,0
0:3:10.928,366.622,46.6775,0,0.000885,0,0
0:3:11.228,367.739,46.8223,0,0.000885,0,0
0:3:11.521,368.09,46.8637,0,0.000885,0,0
0:3:11.818,368.442,46.9119,0,0.000885,0,0
0:3:12.126,369.029,46.9878,0,0.000885,0,0
0:3:12.426,369.438,47.036,0,0.000885,0,0
0:3:12.730,370.497,47.1739,0,0.000885,0,0
0:3:13.030,370.728,47.2015,0,0.000885,0,0
0:3:13.330,371.257,47.2705,0,0.000885,0,0
0:3:13.630,371.902,47.3532,0,0.000885,0,0
0:3:13.925,372.547,47.4359,0,0.000885,0,0
0:3:14.222,373.019,47.4911,0,0.000885,0,0
0:3:14.516,373.486,47.5531,0,0.000885,0,0
0:3:14.816,374.247,47.6497,0,0.000885,0,0
0:3:15.119,374.896,47.7324,0,0.000885,0,0
0:3:15.428,375.599,47.822,0,0.000885,0,0
0:3:15.723,376.244,47.9048,0,0.000885,0,0
0:3:16.016,376.889,47.9875,0,0.000885,0,0
0:3:16.314,377.183,48.022,0,0.000885,0,0
0:3:16.609,377.827,48.1047,0,0.000885,0,0
0:3:16.908,378.472,48.1875,0,0.000885,0,0
0:3:17.213,379.291,48.2909,0,0.000885,0,0
0:3:17.515,379.878,48.3667,0,0.000885,0,0
0:3:17.818,380.114,48.3943,0,0.000885,0,0
0:3:18.119,380.937,48.5046,0,0.000885,0,0
0:3:18.418,381.755,48.608,0,0.000885,0,0
0:3:18.719,382.342,48.6839,0,0.000885,0,0
0:3:19.028,382.694,48.7252,0,0.000885,0,0
0:3:19.335,383.459,48.8218,0,0.000885,0,0
0:3:19.628,383.984,48.8907,0,0.000885,0,0
0:3:19.929,384.398,48.9459,0,0.000885,0,0
0:3:20.231,384.865,49.001,0,0.000885,0,0
0:3:20.528,385.274,49.0562,0,0.000885,0,0
0:3:20.835,386.097,49.1596,0,0.000885,0,0
0:3:21.130,386.857,49.2561,0,0.000885,0,0
0:3:21.430,387.329,49.3182,0,0.000885,0,0
0:3:21.720,387.738,49.3665,0,0.000885,0,0
0:3:22.021,388.792,49.5044,0,0.000885,0,0
0:3:22.326,389.264,49.5595,0,0.000885,0,0
0:3:22.628,389.793,49.6285,0,0.000885,0,0
0:3:22.928,389.673,49.6147,0,0.000885,0,0
0:3:23.228,390.554,49.725,0,0.000885,0,0
0:3:23.526,391.377,49.8284,0,0.000885,0,0
0:3:23.829,392.315,49.9525,0,0.000885,0,0
0:3:24.128,392.667,49.9939,0,0.000885,0,0
0:3:24.433,393.018,50.0421,0,0.000885,0,0
0:3:24.728,393.427,50.0904,0,0.000885,0,0
0:3:25.026,395.127,50.311,0,0.000885,0,0
0:3:25.318,395.189,50.3179,0,0.000885,0,0
0:3:25.616,395.362,50.3386,0,0.000885,0,0
0:3:25.919,396.127,50.4351,0,0.000885,0,0
0:3:26.229,396.772,50.5179,0,0.000885,0,0
0:3:26.535,397.769,50.642,0,0.000885,0,0
0:3:26.828,397.769,50.642,0,0.000885,0,0
0:3:27.127,398.294,50.7109,0,0.000885,0,0
0:3:27.430,399.059,50.8075,0,0.000885,0,0
0:3:27.733,400.055,50.9385,0,0.000885,0,0
0:3:28.034,400.464,50.9867,0,0.000885,0,0
0:3:28.333,400.585,51.0005,0,0.000885,0,0
0:3:28.635,401.461,51.1177,0,0.000885,0,0
0:3:28.928,401.99,51.1798,0,0.000885,0,0
0:3:29.226,402.987,51.3108,0,0.000885,0,0
0:3:29.520,402.987,51.3108,0,0.000885,0,0
0:3:29.817,403.516,51.3797,0,0.000885,0,0
0:3:30.124,404.455,51.4969,0,0.000885,0,0
0:3:30.420,404.979,51.5659,0,0.000885,0,0
0:3:30.719,405.273,51.6004,0,0.000885,0,0
0:3:31.033,405.918,51.6831,0,0.000885,0,0
0:3:31.331,406.567,51.7658,0,0.000885,0,0
0:3:31.628,407.212,51.8486,0,0.000885,0,0
0:3:31.922,408.147,51.9658,0,0.000885,0,0
0:3:32.220,408.796,52.0485,0,0.000885,0,0
0:3:32.522,409.027,52.0761,0,0.000885,0,0
0:3:32.827,409.966,52.2002,0,0.000885,0,0
0:3:33.127,410.553,52.276,0,0.000885,0,0
0:3:33.427,410.962,52.3243,0,0.000885,0,0
0:3:33.728,411.607,52.4071,0,0.000885,0,0
0:3:34.020,411.963,52.4553,0,0.000885,0,0
0:3:34.319,412.315,52.4967,0,0.000885,0,0
0:3:34.613,413.133,52.6001,0,0.000885,0,0
0:3:34.911,413.547,52.6553,0,0.000885,0,0
0:3:35.215,414.423,52.7656,0,0.000885,0,0
0:3:35.520,415.246,52.869,0,0.000885,0,0
0:3:35.820,415.833,52.9448,0,0.000885,0,0
0:3:36.122,416.3,53.0069,0,0.000885,0,0
0:3:36.422,416.83,53.0689,0,0.000885,0,0
0:3:36.728,417.648,53.1793,0,0.000885,0,0
0:3:37.030,417.826,53.1999,0,0.000885,0,0
0:3:37.332,418.471,53.2827,0,0.000885,0,0
0:3:37.635,419.174,53.3723,0,0.000885,0,0
0:3:37.934,419.819,53.4551,0,0.000885,0,0
0:3:38.235,420.406,53.5309,0,0.000885,0,0
0:3:38.533,420.757,53.5723,0,0.000885,0,0
0:3:38.828,421.402,53.655,0,0.000885,0,0
0:3:39.123,422.283,53.7653,0,0.000885,0,0
0:3:39.421,422.812,53.8343,0,0.000885,0,0
0:3:39.714,423.048,53.8618,0,0.000885,0,0
0:3:40.014,423.631,53.9377,0,0.000885,0,0
0:3:40.309,424.396,54.0342,0,0.000885,0,0
0:3:40.615,424.921,54.1032,0,0.000885,0,0
0:3:40.921,425.566,54.1859,0,0.000885,0,0
0:3:41.228,426.624,54.3169,0,0.000885,0,0
0:3:41.524,427.149,54.3858,0,0.000885,0,0
0:3:41.829,427.385,54.4134,0,0.000885,0,0
0:3:42.129,427.857,54.4755,0,0.000885,0,0
0:3:42.432,428.382,54.5444,0,0.000885,0,0
0:3:42.735,429.147,54.641,0,0.000885,0,0
0:3:43.036,429.672,54.7099,0,0.000885,0,0
0:3:43.337,430.143,54.7651,0,0.000885,0,0
0:3:43.635,430.437,54.8064,0,0.000885,0,0
0:3:43.930,431.669,54.965,0,0.000885,0,0
0:3:44.236,432.607,55.0822,0,0.000885,0,0
0:3:44.534,432.959,55.1236,0,0.000885,0,0
0:3:44.825,433.426,55.1856,0,0.000885,0,0
0:3:45.125,433.955,55.2546,0,0.000885,0,0
0:3:45.419,434.6,55.3373,0,0.000885,0,0
0:3:45.718,435.009,55.3856,0,0.000885,0,0
0:3:46.023,435.481,55.4476,0,0.000885,0,0
0:3:46.330,436.477,55.5717,0,0.000885,0,0
0:3:46.637,436.535,55.5786,0,0.000885,0,0
0:3:46.931,437.122,55.6545,0,0.000885,0,0
0:3:47.230,437.474,55.7027,0,0.000885,0,0
0:3:47.534,438.003,55.7648,0,0.000885,0,0
0:3:47.835,439.057,55.9027,0,0.000885,0,0
0:3:48.136,439.293,55.9303,0,0.000885,0,0
0:3:48.436,440.405,56.0751,0,0.000885,0,0
0:3:48.737,441.17,56.1716,0,0.000885,0,0
0:3:49.030,441.579,56.2267,0,0.000885,0,0
0:3:49.329,441.873,56.2612,0,0.000885,0,0
0:3:49.623,442.46,56.3371,0,0.000885,0,0
0:3:49.918,443.341,56.4474,0,0.000885,0,0
0:3:50.217,443.808,56.5094,0,0.000885,0,0
0:3:50.511,444.395,56.5853,0,0.000885,0,0
0:3:50.812,445.156,56.6818,0,0.000885,0,0
0:3:51.123,446.214,56.8128,0,0.000885,0,0
0:3:51.420,446.037,56.7921,0,0.000885,0,0
0:3:51.726,446.917,56.9024,0,0.000885,0,0
0:3:52.021,447.504,56.9783,0,0.000885,0,0
0:3:52.320,447.972,57.0403,0,0.000885,0,0
0:3:52.622,448.852,57.1506,0,0.000885,0,0
0:3:52.925,449.146,57.1851,0,0.000885,0,0
0:3:53.224,449.261,57.1989,0,0.000885,0,0
0:3:53.525,450.436,57.3506,0,0.000885,0,0
0:3:53.824,450.845,57.4057,0,0.000885,0,0
0:3:54.118,451.49,57.4885,0,0.000885,0,0
0:3:54.416,452.135,57.5712,0,0.000885,0,0
0:3:54.711,452.549,57.6195,0,0.000885,0,0
0:3:55.009,452.958,57.6746,0,0.000885,0,0
0:3:55.304,453.897,57.7919,0,0.000885,0,0
0:3:55.599,454.306,57.847,0,0.000885,0,0
0:3:55.899,455.187,57.9573,0,0.000885,0,0
0:3:56.193,455.596,58.0056,0,0.000885,0,0
0:3:56.492,456.009,58.0608,0,0.000885,0,0
0:3:56.786,456.534,58.1297,0,0.000885,0,0
0:3:57.088,457.064,58.1918,0,0.000885,0,0
0:3:57.391,457.887,58.3021,0,0.000885,0,0
0:3:57.693,458.763,58.4124,0,0.000885,0,0
0:3:57.993,459.292,58.4813,0,0.000885,0,0
0:3:58.295,459.937,58.5641,0,0.000885,0,0
0:3:58.593,460.346,58.6123,0,0.000885,0,0
0:3:58.888,460.698,58.6606,0,0.000885,0,0
0:3:59.184,461.169,58.7158,0,0.000885,0,0
0:3:59.482,461.636,58.7778,0,0.000885,0,0
0:3:59.775,462.459,58.8812,0,0.000885,0,0
0:4:0.076,462.753,58.9226,0,0.000885,0,0
0:4:0.369,463.571,59.026,0,0.000885,0,0
0:4:0.668,463.985,59.0743,0,0.000885,0,0
0:4:0.963,464.746,59.1708,0,0.000885,0,0
0:4:1.260,465.511,59.2673,0,0.000885,0,0
0:4:1.559,466.036,59.3363,0,0.000885,0,0
0:4:1.851,466.387,59.3845,0,0.000885,0,0
0:4:2.152,467.326,59.5018,0,0.000885,0,0
0:4:2.455,467.504,59.5224,0,0.000885,0,0
0:4:2.756,468.558,59.6603,0,0.000885,0,0
0:4:3.056,468.678,59.6741,0,0.000885,0,0
0:4:3.355,469.261,59.75,0,0.000885,0,0
0:4:3.656,470.141,59.8603,0,0.000885,0,0
0:4:3.947,470.613,59.9223,0,0.000885,0,0
0:4:4.247,471.316,60.012,0,0.000885,0,0
0:4:4.542,471.845,60.074,0,0.000885,0,0
0:4:4.838,472.254,60.1292,0,0.000885,0,0
0:4:5.135,472.842,60.205,0,0.000885,0,0
0:4:5.428,473.251,60.2533,0,0.000885,0,0
0:4:5.727,474.247,60.3843,0,0.000885,0,0
0:4:6.032,474.834,60.4601,0,0.000885,0,0
0:4:6.328,475.012,60.4808,0,0.000885,0,0
0:4:6.636,475.889,60.5911,0,0.000885,0,0
0:4:6.928,475.951,60.598,0,0.000885,0,0
0:4:7.227,476.596,60.6808,0,0.000885,0,0
0:4:7.532,477.944,60.8531,0,0.000885,0,0
0:4:7.833,478.295,60.9014,0,0.000885,0,0
0:4:8.133,478.295,60.9014,0,0.000885,0,0
0:4:8.434,479.176,61.0117,0,0.000885,0,0
0:4:8.734,479.763,61.0875,0,0.000885,0,0
0:4:9.026,480.466,61.1772,0,0.000885,0,0
0:4:9.326,480.759,61.2117,0,0.000885,0,0
0:4:9.620,480.933,61.2323,0,0.000885,0,0
0:4:9.919,481.404,61.2944,0,0.000885,0,0
0:4:10.224,482.516,61.4392,0,0.000885,0,0
0:4:10.528,483.633,61.5771,0,0.000885,0,0
0:4:10.827,483.806,61.5978,0,0.000885,0,0
0:4:11.132,484.629,61.7081,0,0.000885,0,0
0:4:11.432,485.274,61.7839,0,0.000885,0,0
0:4:11.725,485.741,61.846,0,0.000885,0,0
0:4:12.027,486.271,61.9149,0,0.000885,0,0
0:4:12.328,486.386,61.9287,0,0.000885,0,0
0:4:12.634,487.387,62.0528,0,0.000885,0,0
0:4:12.932,487.912,62.1218,0,0.000885,0,0
0:4:13.233,488.677,62.2183,0,0.000885,0,0
0:4:13.541,489.086,62.2734,0,0.000885,0,0
0:4:13.836,490.083,62.3976,0,0.000885,0,0
0:4:14.140,490.083,62.3976,0,0.000885,0,0
0:4:14.440,490.025,62.3907,0,0.000885,0,0
0:4:14.731,490.786,62.4872,0,0.000885,0,0
0:4:15.031,490.434,62.4458,0,0.000885,0,0
0:4:15.334,489.847,62.37,0,0.000885,0,0
0:4:15.629,489.909,62.3769,0,0.000885,0,0
0:4:15.936,490.434,62.4458,0,0.000885,0,0
0:4:16.228,490.906,62.501,0,0.000885,0,0
0:4:16.527,491.551,62.5837,0,0.000885,0,0
0:4:16.820,492.076,62.6527,0,0.000885,0,0
0:4:17.121,493.014,62.7699,0,0.000885,0,0
0:4:17.425,493.659,62.8526,0,0.000885,0,0
0:4:17.725,494.131,62.9147,0,0.000885,0,0
0:4:18.026,495.243,63.0595,0,0.000885,0,0
0:4:18.325,496.123,63.1698,0,0.000885,0,0
0:4:18.625,496.768,63.2525,0,0.000885,0,0
0:4:18.919,497.298,63.3146,0,0.000885,0,0
0:4:19.218,498.058,63.418,0,0.000885,0,0
0:4:19.524,498.766,63.5076,0,0.000885,0,0
0:4:19.839,499.117,63.549,0,0.000885,0,0
0:4:20.136,499.348,63.5766,0,0.000885,0,0
0:4:20.432,499.704,63.6248,0,0.000885,0,0
0:4:20.728,500.056,63.6662,0,0.000885,0,0
0:4:21.035,499.993,63.6593,0,0.000885,0,0
0:4:21.328,499.878,63.6455,0,0.000885,0,0
0:4:21.625,500.114,63.6731,0,0.000885,0,0
0:4:21.916,499.936,63.6524,0,0.000885,0,0
0:4:22.217,500.114,63.6731,0,0.000885,0,0
0:4:22.519,500.465,63.7213,0,0.000885,0,0
0:4:22.820,499.704,63.6248,0,0.000885,0,0
0:4:23.120,499.175,63.5559,0,0.000885,0,0
0:4:23.420,498.179,63.4318,0,0.000885,0,0
0:4:23.720,496.537,63.218,0,0.000885,0,0
0:4:24.034,495.479,63.087,0,0.000885,0,0
0:4:24.329,494.776,62.9974,0,0.000885,0,0
0:4:24.626,493.721,62.8595,0,0.000885,0,0
0:4:24.927,492.547,62.7147,0,0.000885,0,0
0:4:25.227,492.076,62.6527,0,0.000885,0,0
0:4:25.532,491.844,62.6251,0,0.000885,0,0
0:4:25.827,491.373,62.563,0,0.000885,0,0
0:4:26.134,491.079,62.5286,0,0.000885,0,0
0:4:26.426,490.319,62.432,0,0.000885,0,0
0:4:26.723,489.909,62.3769,0,0.000885,0,0
0:4:27.026,489.496,62.3217,0,0.000885,0,0
0:4:27.326,489.029,62.2666,0,0.000885,0,0
0:4:27.630,488.09,62.1424,0,0.000885,0,0
0:4:27.929,487.561,62.0804,0,0.000885,0,0
0:4:28.229,487.209,62.0321,0,0.000885,0,0
0:4:28.528,486.564,61.9494,0,0.000885,0,0
0:4:28.826,485.39,61.8046,0,0.000885,0,0
0:4:29.133,483.224,61.5288,0,0.000885,0,0
0:4:29.438,482.93,61.4874,0,0.000885,0,0
0:4:29.736,482.868,61.4806,0,0.000885,0,0
0:4:30.026,482.636,61.453,0,0.000885,0,0
0:4:30.324,481.698,61.3289,0,0.000885,0,0
0:4:30.618,478.646,60.9428,0,0.000885,0,0
0:4:30.915,478.001,60.86,0,0.000885,0,0
0:4:31.214,478.059,60.8669,0,0.000885,0,0
0:4:31.524,478.589,60.9359,0,0.000885,0,0
0:4:31.824,478.353,60.9083,0,0.000885,0,0
0:4:32.127,479.349,61.0324,0,0.000885,0,0
0:4:32.426,479.527,61.0531,0,0.000885,0,0
0:4:32.726,480.114,61.1289,0,0.000885,0,0
0:4:33.024,481.111,61.2599,0,0.000885,0,0
0:4:33.325,481.284,61.2806,0,0.000885,0,0
0:4:33.618,481.636,61.322,0,0.000885,0,0
0:4:33.925,482.223,61.3978,0,0.000885,0,0
0:4:34.221,482.516,61.4392,0,0.000885,0,0
0:4:34.525,482.81,61.4737,0,0.000885,0,0
0:4:34.823,483.161,61.515,0,0.000885,0,0
0:4:35.115,482.81,61.4737,0,0.000885,0,0
0:4:35.414,482.868,61.4806,0,0.000885,0,0
0:4:35.709,483.397,61.5495,0,0.000885,0,0
0:4:36.002,483.749,61.5909,0,0.000885,0,0
0:4:36.299,484.22,61.6529,0,0.000885,0,0
0:4:36.593,483.926,61.6184,0,0.000885,0,0
0:4:36.892,484.042,61.6322,0,0.000885,0,0
0:4:37.196,484.042,61.6322,0,0.000885,0,0
0:4:37.496,483.984,61.6253,0,0.000885,0,0
0:4:37.795,484.571,61.6943,0,0.000885,0,0
0:4:38.094,484.158,61.646,0,0.000885,0,0
0:4:38.394,482.459,61.4254,0,0.000885,0,0
0:4:38.687,482.285,61.4047,0,0.000885,0,0
0:4:38.983,481.053,61.2461,0,0.000885,0,0
0:4:39.278,478.059,60.8669,0,0.000885,0,0
0:4:39.574,476.711,60.6945,0,0.000885,0,0
0:4:39.874,476.654,60.6877,0,0.000885,0,0
0:4:40.165,475.479,60.5429,0,0.000885,0,0
0:4:40.466,475.012,60.4808,0,0.000885,0,0
0:4:40.760,473.954,60.3429,0,0.000885,0,0
0:4:41.054,474.367,60.3981,0,0.000885,0,0
0:4:41.351,473.838,60.3291,0,0.000885,0,0
0:4:41.645,471.961,60.0947,0,0.000885,0,0
0:4:41.946,469.617,59.7913,0,0.000885,0,0
0:4:42.246,462.575,58.895,0,0.000885,0,0
0:4:42.548,459.586,58.5158,0,0.000885,0,0
0:4:42.848,456.77,58.1573,0,0.000885,0,0
0:4:43.146,423.751,53.9515,0,0.000885,0,0
0:4:43.447,413.017,52.5863,0,0.000885,0,0
0:4:43.740,359.234,45.7398,0,0.000885,0,0
0:4:43.851,359.234,45.7398,0,0.000885,0,0