File: DataFile2021-06-24_050039.csv
Test ID:,Date Tested:,Time:,Test Type:,Diameter Avg. (mm):,Cyl. Corr. Factor:,Height (mm):,Age (days):,Weight (kN):,Break Type:,Ramp Rate (MPa/s):,Load at Break (kN):,Stress at Break (MPa):
12,6/24/2021,05:00,Cylinder,150,1,300,0,3.6,3,0.25,1493.87,84.54
Sample Time,Load (kN),Stress (MPa),Long. Strain,Trans. Strain,Chan1 Deflection (mm),Chan2 Deflection (mm)
0:0:15.344,6.44992,0.365422,0,0.000885,0,0
0:0:15.644,14.5457,0.820476,0,0.000885,0,0
0:0:15.939,15.4843,0.875634,0,0.000885,0,0
0:0:16.239,14.43,0.813581,0,0.000885,0,0
0:0:16.536,13.9585,0.792897,0,0.000885,0,0
0:0:16.833,13.3714,0.758423,0,0.000885,0,0
0:0:17.132,13.7228,0.779108,0,0.000885,0,0
0:0:17.427,14.0742,0.799792,0,0.000885,0,0
0:0:17.728,15.1907,0.861845,0,0.000885,0,0
0:0:18.022,15.4264,0.875634,0,0.000885,0,0
0:0:18.320,16.5385,0.937687,0,0.000885,0,0
0:0:18.621,17.5972,0.992845,0,0.000885,0,0
0:0:18.917,19.0028,1.07558,0,0.000885,0,0
0:0:19.219,21.6406,1.22727,0,0.000885,0,0
0:0:19.515,23.1085,1.31,0,0.000885,0,0
0:0:19.815,24.5141,1.38585,0,0.000885,0,0
0:0:20.112,26.0399,1.47548,0,0.000885,0,0
0:0:20.411,27.8592,1.5789,0,0.000885,0,0
0:0:20.711,30.2657,1.7099,0,0.000885,0,0
0:0:21.016,31.6713,1.79264,0,0.000885,0,0
0:0:21.321,32.6677,1.84779,0,0.000885,0,0
0:0:21.624,34.1357,1.93053,0,0.000885,0,0
0:0:21.927,35.0164,1.9788,0,0.000885,0,0
0:0:22.229,36.1863,2.04774,0,0.000885,0,0
0:0:22.528,37.1827,2.1029,0,0.000885,0,0
0:0:22.829,38.0056,2.15116,0,0.000885,0,0
0:0:23.125,39.8828,2.25459,0,0.000885,0,0
0:0:23.426,40.9948,2.31664,0,0.000885,0,0
0:0:23.723,42.227,2.39248,0,0.000885,0,0
0:0:24.023,43.4591,2.46143,0,0.000885,0,0
0:0:24.324,44.8069,2.53727,0,0.000885,0,0
0:0:24.618,46.3905,2.6269,0,0.000885,0,0
0:0:24.922,47.6849,2.69585,0,0.000885,0,0
0:0:25.217,48.9749,2.77169,0,0.000885,0,0
0:0:25.517,49.9135,2.82685,0,0.000885,0,0
0:0:25.816,51.377,2.90959,0,0.000885,0,0
0:0:26.118,53.3119,3.0199,0,0.000885,0,0
0:0:26.423,54.4284,3.08196,0,0.000885,0,0
0:0:26.726,55.7184,3.1509,0,0.000885,0,0
0:0:27.030,57.0084,3.22675,0,0.000885,0,0
0:0:27.333,59.5884,3.37154,0,0.000885,0,0
0:0:27.631,59.704,3.37843,0,0.000885,0,0
0:0:27.933,60.8784,3.44738,0,0.000885,0,0
0:0:28.228,61.8169,3.49564,0,0.000885,0,0
0:0:28.530,63.7519,3.60596,0,0.000885,0,0
0:0:28.826,64.6327,3.65422,0,0.000885,0,0
0:0:29.125,65.9226,3.73006,0,0.000885,0,0
0:0:29.426,67.742,3.83349,0,0.000885,0,0
0:0:29.721,68.854,3.89554,0,0.000885,0,0
0:0:30.024,70.3798,3.98517,0,0.000885,0,0
0:0:30.321,71.9055,4.06791,0,0.000885,0,0
0:0:30.624,72.8441,4.12306,0,0.000885,0,0
0:0:30.930,74.0184,4.18512,0,0.000885,0,0
0:0:31.234,76.1891,4.30922,0,0.000885,0,0
0:0:31.536,76.5405,4.32991,0,0.000885,0,0
0:0:31.839,77.8884,4.40575,0,0.000885,0,0
0:0:32.140,78.7691,4.45401,0,0.000885,0,0
0:0:32.438,80.2904,4.54365,0,0.000885,0,0
0:0:32.735,82.4033,4.66086,0,0.000885,0,0
0:0:33.037,83.8134,4.74359,0,0.000885,0,0
0:0:33.334,85.1034,4.81254,0,0.000885,0,0
0:0:33.635,86.2733,4.88149,0,0.000885,0,0
0:0:33.932,87.5632,4.95733,0,0.000885,0,0
0:0:34.231,89.1468,5.04696,0,0.000885,0,0
0:0:34.531,89.734,5.07454,0,0.000885,0,0
0:0:34.827,90.9661,5.15038,0,0.000885,0,0
0:0:35.129,92.1405,5.21244,0,0.000885,0,0
0:0:35.424,93.6662,5.30207,0,0.000885,0,0
0:0:35.727,95.3076,5.3917,0,0.000885,0,0
0:0:36.033,96.6554,5.46754,0,0.000885,0,0
0:0:36.337,97.7096,5.5296,0,0.000885,0,0
0:0:36.640,99.7647,5.64681,0,0.000885,0,0
0:0:36.944,101.233,5.72954,0,0.000885,0,0
0:0:37.245,102.403,5.7916,0,0.000885,0,0
0:0:37.542,103.105,5.83296,0,0.000885,0,0
0:0:37.841,104.751,5.92949,0,0.000885,0,0
0:0:38.142,105.748,5.98465,0,0.000885,0,0
0:0:38.436,106.686,6.03981,0,0.000885,0,0
0:0:38.739,108.15,6.12254,0,0.000885,0,0
0:0:39.035,109.795,6.21218,0,0.000885,0,0
0:0:39.335,110.908,6.27423,0,0.000885,0,0
0:0:39.633,112.549,6.37076,0,0.000885,0,0
0:0:39.932,114.19,6.46039,0,0.000885,0,0
0:0:40.233,115.422,6.52934,0,0.000885,0,0
0:0:40.527,116.597,6.59828,0,0.000885,0,0
0:0:40.830,117.945,6.67413,0,0.000885,0,0
0:0:41.134,119.47,6.76376,0,0.000885,0,0
0:0:41.439,121.112,6.85339,0,0.000885,0,0
0:0:41.742,121.641,6.88097,0,0.000885,0,0
0:0:42.044,122.815,6.94992,0,0.000885,0,0
0:0:42.347,124.572,7.04644,0,0.000885,0,0
0:0:42.644,126.156,7.13607,0,0.000885,0,0
0:0:42.947,126.921,7.18434,0,0.000885,0,0
0:0:43.244,128.62,7.28086,0,0.000885,0,0
0:0:43.542,130.733,7.39807,0,0.000885,0,0
0:0:43.842,131.436,7.43944,0,0.000885,0,0
0:0:44.139,132.842,7.51529,0,0.000885,0,0
0:0:44.440,133.9,7.57734,0,0.000885,0,0
0:0:44.735,135.012,7.63939,0,0.000885,0,0
0:0:45.036,136.071,7.70144,0,0.000885,0,0
0:0:45.335,137.361,7.77039,0,0.000885,0,0
0:0:45.630,139.002,7.86692,0,0.000885,0,0
0:0:45.933,140.702,7.96344,0,0.000885,0,0
0:0:46.237,141.992,8.03239,0,0.000885,0,0
0:0:46.542,143.695,8.12892,0,0.000885,0,0
0:0:46.844,144.865,8.19787,0,0.000885,0,0
0:0:47.146,145.924,8.25992,0,0.000885,0,0
0:0:47.450,147.272,8.33576,0,0.000885,0,0
0:0:47.745,149.029,8.43229,0,0.000885,0,0
0:0:48.047,150.03,8.48745,0,0.000885,0,0
0:0:48.343,150.79,8.53571,0,0.000885,0,0
0:0:48.642,152.432,8.62534,0,0.000885,0,0
0:0:48.944,153.134,8.66671,0,0.000885,0,0
0:0:49.239,155.19,8.78392,0,0.000885,0,0
0:0:49.542,156.364,8.84597,0,0.000885,0,0
0:0:49.838,157.36,8.90803,0,0.000885,0,0
0:0:50.138,158.472,8.97008,0,0.000885,0,0
0:0:50.437,160.407,9.0804,0,0.000885,0,0
0:0:50.739,161.76,9.15624,0,0.000885,0,0
0:0:51.045,162.872,9.21829,0,0.000885,0,0
0:0:51.348,164.397,9.30103,0,0.000885,0,0
0:0:51.651,165.923,9.39066,0,0.000885,0,0
0:0:51.954,167.097,9.45271,0,0.000885,0,0
0:0:52.252,168.152,9.51477,0,0.000885,0,0
0:0:52.555,169.09,9.56992,0,0.000885,0,0
0:0:52.851,170.732,9.65955,0,0.000885,0,0
0:0:53.151,172.845,9.78366,0,0.000885,0,0
0:0:53.450,174.014,9.84571,0,0.000885,0,0
0:0:53.748,175.189,9.91466,0,0.000885,0,0
0:0:54.050,176.07,9.96292,0,0.000885,0,0
0:0:54.345,177.244,10.0319,0,0.000885,0,0
0:0:54.647,179.766,10.1698,0,0.000885,0,0
0:0:54.944,180.527,10.218,0,0.000885,0,0
0:0:55.243,181.465,10.2663,0,0.000885,0,0
0:0:55.542,182.64,10.3352,0,0.000885,0,0
0:0:55.846,184.69,10.4525,0,0.000885,0,0
0:0:56.151,185.807,10.5145,0,0.000885,0,0
0:0:56.455,186.567,10.5559,0,0.000885,0,0
0:0:56.756,187.622,10.6179,0,0.000885,0,0
0:0:57.060,188.912,10.6869,0,0.000885,0,0
0:0:57.358,190.909,10.8041,0,0.000885,0,0
0:0:57.660,192.314,10.8799,0,0.000885,0,0
0:0:57.955,193.724,10.9627,0,0.000885,0,0
0:0:58.254,194.837,11.0247,0,0.000885,0,0
0:0:58.549,195.833,11.0799,0,0.000885,0,0
0:0:58.845,197.71,11.1902,0,0.000885,0,0
0:0:59.143,199,11.2591,0,0.000885,0,0
0:0:59.437,200.174,11.3281,0,0.000885,0,0
0:0:59.735,201.229,11.3901,0,0.000885,0,0
0:1:0.030,202.519,11.4591,0,0.000885,0,0
0:1:0.330,204.867,11.5901,0,0.000885,0,0
0:1:0.625,205.628,11.6384,0,0.000885,0,0
0:1:0.927,206.744,11.7004,0,0.000885,0,0
0:1:1.229,207.621,11.7487,0,0.000885,0,0
0:1:1.530,209.267,11.8452,0,0.000885,0,0
0:1:1.831,210.321,11.9004,0,0.000885,0,0
0:1:2.133,211.962,11.9969,0,0.000885,0,0
0:1:2.430,213.43,12.0796,0,0.000885,0,0
0:1:2.728,214.369,12.1279,0,0.000885,0,0
0:1:3.021,216.304,12.2382,0,0.000885,0,0
0:1:3.322,217.594,12.314,0,0.000885,0,0
0:1:3.617,218.941,12.3899,0,0.000885,0,0
0:1:3.913,219.822,12.4381,0,0.000885,0,0
0:1:4.207,220.876,12.5002,0,0.000885,0,0
0:1:4.504,222.754,12.6036,0,0.000885,0,0
0:1:4.803,223.928,12.6726,0,0.000885,0,0
0:1:5.107,225.569,12.7622,0,0.000885,0,0
0:1:5.406,226.686,12.8311,0,0.000885,0,0
0:1:5.702,227.331,12.8656,0,0.000885,0,0
0:1:6.003,229.146,12.969,0,0.000885,0,0
0:1:6.307,230.729,13.0587,0,0.000885,0,0
0:1:6.608,231.788,13.1138,0,0.000885,0,0
0:1:6.908,233.136,13.1897,0,0.000885,0,0
0:1:7.210,234.541,13.2724,0,0.000885,0,0
0:1:7.506,236.245,13.3689,0,0.000885,0,0
0:1:7.805,237.299,13.431,0,0.000885,0,0
0:1:8.119,238.474,13.493,0,0.000885,0,0
0:1:8.420,239.706,13.562,0,0.000885,0,0
0:1:8.715,241.169,13.6447,0,0.000885,0,0
0:1:9.009,242.579,13.7275,0,0.000885,0,0
0:1:9.306,243.166,13.7619,0,0.000885,0,0
0:1:9.610,244.808,13.8516,0,0.000885,0,0
0:1:9.911,246.507,13.9481,0,0.000885,0,0
0:1:10.215,247.624,14.0101,0,0.000885,0,0
0:1:10.511,248.793,14.0791,0,0.000885,0,0
0:1:10.809,250.319,14.1618,0,0.000885,0,0
0:1:11.112,251.258,14.217,0,0.000885,0,0
0:1:11.417,253.371,14.3411,0,0.000885,0,0
0:1:11.719,254.954,14.4307,0,0.000885,0,0
0:1:12.020,255.835,14.479,0,0.000885,0,0
0:1:12.321,256.48,14.5135,0,0.000885,0,0
0:1:12.614,258.651,14.6376,0,0.000885,0,0
0:1:12.915,260.292,14.7272,0,0.000885,0,0
0:1:13.218,261.756,14.8099,0,0.000885,0,0
0:1:13.517,262.401,14.8513,0,0.000885,0,0
0:1:13.810,263.691,14.9203,0,0.000885,0,0
0:1:14.108,265.101,15.003,0,0.000885,0,0
0:1:14.405,266.448,15.0788,0,0.000885,0,0
0:1:14.699,267.151,15.1202,0,0.000885,0,0
0:1:14.999,268.441,15.1892,0,0.000885,0,0
0:1:15.292,269.264,15.2374,0,0.000885,0,0
0:1:15.595,271.902,15.3891,0,0.000885,0,0
0:1:15.898,272.489,15.4167,0,0.000885,0,0
0:1:16.199,273.779,15.4925,0,0.000885,0,0
0:1:16.499,275.247,15.5753,0,0.000885,0,0
0:1:16.802,276.301,15.6373,0,0.000885,0,0
0:1:17.100,278.063,15.7338,0,0.000885,0,0
0:1:17.407,279.526,15.8166,0,0.000885,0,0
0:1:17.721,280.643,15.8786,0,0.000885,0,0
0:1:18.021,281.991,15.9545,0,0.000885,0,0
0:1:18.316,284.103,16.0786,0,0.000885,0,0
0:1:18.612,284.691,16.113,0,0.000885,0,0
0:1:18.910,286.332,16.2027,0,0.000885,0,0
0:1:19.205,287.564,16.2716,0,0.000885,0,0
0:1:19.504,288.796,16.3406,0,0.000885,0,0
0:1:19.818,290.438,16.4371,0,0.000885,0,0
0:1:20.117,291.492,16.4923,0,0.000885,0,0
0:1:20.412,292.315,16.5405,0,0.000885,0,0
0:1:20.712,293.778,16.6233,0,0.000885,0,0
0:1:21.019,295.424,16.7198,0,0.000885,0,0
0:1:21.319,296.594,16.7818,0,0.000885,0,0
0:1:21.620,298.12,16.8715,0,0.000885,0,0
0:1:21.921,299.174,16.9266,0,0.000885,0,0
0:1:22.218,300.82,17.0232,0,0.000885,0,0
0:1:22.516,302.168,17.099,0,0.000885,0,0
0:1:22.819,303.573,17.1817,0,0.000885,0,0
0:1:23.119,304.748,17.2438,0,0.000885,0,0
0:1:23.410,305.98,17.3127,0,0.000885,0,0
0:1:23.710,308.266,17.4437,0,0.000885,0,0
0:1:24.017,308.911,17.4782,0,0.000885,0,0
0:1:24.310,309.97,17.5403,0,0.000885,0,0
0:1:24.608,311.318,17.6161,0,0.000885,0,0
0:1:24.903,312.372,17.6782,0,0.000885,0,0
0:1:25.202,314.013,17.7678,0,0.000885,0,0
0:1:25.517,315.597,17.8574,0,0.000885,0,0
0:1:25.813,316.593,17.9126,0,0.000885,0,0
0:1:26.120,317.474,17.9677,0,0.000885,0,0
0:1:26.421,319.645,18.0849,0,0.000885,0,0
0:1:26.723,320.641,18.147,0,0.000885,0,0
0:1:27.023,321.758,18.2091,0,0.000885,0,0
0:1:27.323,322.812,18.2642,0,0.000885,0,0
0:1:27.618,324.102,18.3401,0,0.000885,0,0
0:1:27.914,326.33,18.4642,0,0.000885,0,0
0:1:28.211,326.86,18.4986,0,0.000885,0,0
0:1:28.513,328.15,18.5676,0,0.000885,0,0
0:1:28.813,329.555,18.6503,0,0.000885,0,0
0:1:29.106,330.73,18.7124,0,0.000885,0,0
0:1:29.405,332.255,18.802,0,0.000885,0,0
0:1:29.703,333.955,18.8985,0,0.000885,0,0
0:1:29.997,334.658,18.9399,0,0.000885,0,0
0:1:30.296,336.361,19.0364,0,0.000885,0,0
0:1:30.589,337.358,19.0916,0,0.000885,0,0
0:1:30.891,339.235,19.195,0,0.000885,0,0
0:1:31.192,340.409,19.264,0,0.000885,0,0
0:1:31.494,341.873,19.3467,0,0.000885,0,0
0:1:31.796,343.163,19.4225,0,0.000885,0,0
0:1:32.095,344.746,19.5122,0,0.000885,0,0
0:1:32.396,346.214,19.5949,0,0.000885,0,0
0:1:32.688,347.388,19.657,0,0.000885,0,0
0:1:32.989,348.385,19.7121,0,0.000885,0,0
0:1:33.285,349.617,19.7811,0,0.000885,0,0
0:1:33.581,350.671,19.8431,0,0.000885,0,0
0:1:33.878,352.139,19.9258,0,0.000885,0,0
0:1:34.173,353.429,20.0017,0,0.000885,0,0
0:1:34.473,354.31,20.05,0,0.000885,0,0
0:1:34.765,355.831,20.1327,0,0.000885,0,0
0:1:35.065,357.766,20.243,0,0.000885,0,0
0:1:35.363,358.825,20.3051,0,0.000885,0,0
0:1:35.664,359.879,20.3671,0,0.000885,0,0
0:1:35.967,361.169,20.4361,0,0.000885,0,0
0:1:36.269,363.104,20.5464,0,0.000885,0,0
0:1:36.570,364.456,20.6222,0,0.000885,0,0
0:1:36.872,365.746,20.6981,0,0.000885,0,0
0:1:37.166,366.858,20.7601,0,0.000885,0,0
0:1:37.466,367.975,20.8222,0,0.000885,0,0
0:1:37.759,369.438,20.9049,0,0.000885,0,0
0:1:38.060,370.728,20.9807,0,0.000885,0,0
0:1:38.353,371.96,21.0497,0,0.000885,0,0
0:1:38.652,373.25,21.1186,0,0.000885,0,0
0:1:38.947,374.718,21.2014,0,0.000885,0,0
0:1:39.241,375.479,21.2496,0,0.000885,0,0
0:1:39.542,377.77,21.3806,0,0.000885,0,0
0:1:39.835,378.53,21.422,0,0.000885,0,0
0:1:40.135,379.705,21.4841,0,0.000885,0,0
0:1:40.429,380.817,21.553,0,0.000885,0,0
0:1:40.731,382.227,21.6289,0,0.000885,0,0
0:1:41.035,383.926,21.7254,0,0.000885,0,0
0:1:41.337,384.98,21.7874,0,0.000885,0,0
0:1:41.635,386.506,21.8702,0,0.000885,0,0
0:1:41.935,387.68,21.9391,0,0.000885,0,0
0:1:42.234,388.912,22.0081,0,0.000885,0,0
0:1:42.530,390.26,22.0839,0,0.000885,0,0
0:1:42.827,391.786,22.1735,0,0.000885,0,0
0:1:43.124,393.134,22.2494,0,0.000885,0,0
0:1:43.418,394.072,22.2976,0,0.000885,0,0
0:1:43.719,395.362,22.3735,0,0.000885,0,0
0:1:44.011,397.355,22.4838,0,0.000885,0,0
0:1:44.310,398.707,22.5596,0,0.000885,0,0
0:1:44.605,399.584,22.6148,0,0.000885,0,0
0:1:44.910,400.816,22.6838,0,0.000885,0,0
0:1:45.209,401.875,22.7389,0,0.000885,0,0
0:1:45.523,403.632,22.8423,0,0.000885,0,0
0:1:45.824,404.922,22.9113,0,0.000885,0,0
0:1:46.127,405.802,22.9664,0,0.000885,0,0
0:1:46.429,406.857,23.0216,0,0.000885,0,0
0:1:46.731,409.147,23.1526,0,0.000885,0,0
0:1:47.032,410.38,23.2215,0,0.000885,0,0
0:1:47.333,411.376,23.2767,0,0.000885,0,0
0:1:47.626,412.546,23.3456,0,0.000885,0,0
0:1:47.925,414.717,23.4698,0,0.000885,0,0
0:1:48.222,415.775,23.5249,0,0.000885,0,0
0:1:48.526,417.123,23.6076,0,0.000885,0,0
0:1:48.825,418.413,23.6766,0,0.000885,0,0
0:1:49.119,419.352,23.7318,0,0.000885,0,0
0:1:49.419,421.051,23.8283,0,0.000885,0,0
0:1:49.723,422.167,23.8903,0,0.000885,0,0
0:1:50.021,422.928,23.9317,0,0.000885,0,0
0:1:50.316,424.632,24.0282,0,0.000885,0,0
0:1:50.621,426.153,24.1179,0,0.000885,0,0
0:1:50.924,427.679,24.2006,0,0.000885,0,0
0:1:51.226,429.382,24.2971,0,0.000885,0,0
0:1:51.525,430.437,24.3592,0,0.000885,0,0
0:1:51.825,431.549,24.4212,0,0.000885,0,0
0:1:52.120,433.252,24.5178,0,0.000885,0,0
0:1:52.419,434.307,24.5798,0,0.000885,0,0
0:1:52.710,435.187,24.6281,0,0.000885,0,0
0:1:53.010,436.362,24.6901,0,0.000885,0,0
0:1:53.304,437.358,24.7522,0,0.000885,0,0
0:1:53.603,439.587,24.8763,0,0.000885,0,0
0:1:53.909,440.992,24.9521,0,0.000885,0,0
0:1:54.212,442.167,25.0211,0,0.000885,0,0
0:1:54.511,443.341,25.09,0,0.000885,0,0
0:1:54.805,444.337,25.1452,0,0.000885,0,0
0:1:55.104,446.214,25.2486,0,0.000885,0,0
0:1:55.399,447.153,25.3038,0,0.000885,0,0
0:1:55.701,448.265,25.3658,0,0.000885,0,0
0:1:56.003,449.733,25.4485,0,0.000885,0,0
0:1:56.304,451.49,25.552,0,0.000885,0,0
0:1:56.605,452.313,25.5933,0,0.000885,0,0
0:1:56.904,453.781,25.6761,0,0.000885,0,0
0:1:57.203,455.244,25.7588,0,0.000885,0,0
0:1:57.500,456.948,25.8553,0,0.000885,0,0
0:1:57.795,458.647,25.9519,0,0.000885,0,0
0:1:58.094,459.644,26.0139,0,0.000885,0,0
0:1:58.387,460.582,26.0622,0,0.000885,0,0
0:1:58.689,461.579,26.1173,0,0.000885,0,0
0:1:58.983,463.047,26.2001,0,0.000885,0,0
0:1:59.281,464.688,26.2966,0,0.000885,0,0
0:1:59.578,465.742,26.3587,0,0.000885,0,0
0:1:59.874,467.21,26.4414,0,0.000885,0,0
0:2:0.173,468.322,26.5034,0,0.000885,0,0
0:2:0.467,469.261,26.5517,0,0.000885,0,0
0:2:0.768,471.316,26.6689,0,0.000885,0,0
0:2:1.072,472.254,26.7241,0,0.000885,0,0
0:2:1.373,473.015,26.7654,0,0.000885,0,0
0:2:1.675,474.776,26.8689,0,0.000885,0,0
0:2:1.975,476.066,26.9378,0,0.000885,0,0
0:2:2.275,478.117,27.055,0,0.000885,0,0
0:2:2.570,478.704,27.0895,0,0.000885,0,0
0:2:2.867,480.581,27.1929,0,0.000885,0,0
0:2:3.164,481.991,27.2757,0,0.000885,0,0
0:2:3.458,483.161,27.3446,0,0.000885,0,0
0:2:3.757,484.745,27.4342,0,0.000885,0,0
0:2:4.050,485.684,27.4825,0,0.000885,0,0
0:2:4.350,486.564,27.5308,0,0.000885,0,0
0:2:4.645,487.97,27.6135,0,0.000885,0,0
0:2:4.942,489.029,27.6756,0,0.000885,0,0
0:2:5.241,490.434,27.7514,0,0.000885,0,0
0:2:5.543,492.311,27.8617,0,0.000885,0,0
0:2:5.846,493.659,27.9376,0,0.000885,0,0
0:2:6.146,494.66,27.9927,0,0.000885,0,0
0:2:6.446,496.417,28.0892,0,0.000885,0,0
0:2:6.747,497.591,28.1582,0,0.000885,0,0
0:2:7.041,498.997,28.2409,0,0.000885,0,0
0:2:7.340,499.936,28.2892,0,0.000885,0,0
0:2:7.634,501.11,28.3581,0,0.000885,0,0
0:2:7.935,502.929,28.4616,0,0.000885,0,0
0:2:8.228,504.455,28.5443,0,0.000885,0,0
0:2:8.526,505.803,28.6201,0,0.000885,0,0
0:2:8.824,506.857,28.6822,0,0.000885,0,0
0:2:9.126,507.502,28.7167,0,0.000885,0,0
0:2:9.426,509.731,28.8477,0,0.000885,0,0
0:2:9.717,510.496,28.889,0,0.000885,0,0
0:2:10.017,511.608,28.9511,0,0.000885,0,0
0:2:10.323,512.898,29.0269,0,0.000885,0,0
0:2:10.624,513.956,29.0821,0,0.000885,0,0
0:2:10.927,515.656,29.1786,0,0.000885,0,0
0:2:11.229,517.003,29.2545,0,0.000885,0,0
0:2:11.529,518.707,29.351,0,0.000885,0,0
0:2:11.830,519.526,29.3992,0,0.000885,0,0
0:2:12.128,521.461,29.5096,0,0.000885,0,0
0:2:12.425,522.693,29.5785,0,0.000885,0,0
0:2:12.718,523.573,29.6268,0,0.000885,0,0
0:2:13.017,524.979,29.7095,0,0.000885,0,0
0:2:13.321,526.505,29.7922,0,0.000885,0,0
0:2:13.622,528.44,29.9026,0,0.000885,0,0
0:2:13.915,529.027,29.937,0,0.000885,0,0
0:2:14.211,530.668,30.0267,0,0.000885,0,0
0:2:14.517,531.901,30.1025,0,0.000885,0,0
0:2:14.824,533.075,30.1646,0,0.000885,0,0
0:2:15.126,534.601,30.2542,0,0.000885,0,0
0:2:15.427,536.006,30.33,0,0.000885,0,0
0:2:15.728,537.003,30.3852,0,0.000885,0,0
0:2:16.030,538.061,30.4472,0,0.000885,0,0
0:2:16.333,539.703,30.5438,0,0.000885,0,0
0:2:16.634,541.108,30.6196,0,0.000885,0,0
0:2:16.934,542.456,30.6955,0,0.000885,0,0
0:2:17.234,543.808,30.7713,0,0.000885,0,0
0:2:17.529,545.156,30.8471,0,0.000885,0,0
0:2:17.825,546.331,30.9161,0,0.000885,0,0
0:2:18.124,547.794,30.9988,0,0.000885,0,0
0:2:18.426,549.084,31.0747,0,0.000885,0,0
0:2:18.726,550.258,31.1367,0,0.000885,0,0
0:2:19.018,551.433,31.2057,0,0.000885,0,0
0:2:19.317,552.958,31.2884,0,0.000885,0,0
0:2:19.624,554.422,31.3711,0,0.000885,0,0
0:2:19.919,555.596,31.4401,0,0.000885,0,0
0:2:20.218,557.002,31.5228,0,0.000885,0,0
0:2:20.510,557.767,31.5642,0,0.000885,0,0
0:2:20.811,559.408,31.6538,0,0.000885,0,0
0:2:21.113,560.583,31.7228,0,0.000885,0,0
0:2:21.415,562.166,31.8124,0,0.000885,0,0
0:2:21.716,563.456,31.8883,0,0.000885,0,0
0:2:22.016,565.333,31.9917,0,0.000885,0,0
0:2:22.317,566.388,32.0537,0,0.000885,0,0
0:2:22.622,567.033,32.0882,0,0.000885,0,0
0:2:22.919,568.501,32.1709,0,0.000885,0,0
0:2:23.216,569.555,32.233,0,0.000885,0,0
0:2:23.511,571.61,32.3433,0,0.000885,0,0
0:2:23.810,573.073,32.426,0,0.000885,0,0
0:2:24.112,574.363,32.5019,0,0.000885,0,0
0:2:24.413,575.36,32.557,0,0.000885,0,0
0:2:24.707,577.006,32.6536,0,0.000885,0,0
0:2:25.005,577.882,32.7018,0,0.000885,0,0
0:2:25.311,579.465,32.7915,0,0.000885,0,0
0:2:25.613,580.462,32.8466,0,0.000885,0,0
0:2:25.914,581.578,32.9087,0,0.000885,0,0
0:2:26.216,583.571,33.0259,0,0.000885,0,0
0:2:26.516,585.039,33.1086,0,0.000885,0,0
0:2:26.815,586.387,33.1845,0,0.000885,0,0
0:2:27.124,586.858,33.212,0,0.000885,0,0
0:2:27.423,588.678,33.3155,0,0.000885,0,0
0:2:27.716,589.968,33.3844,0,0.000885,0,0
0:2:28.017,591.142,33.4534,0,0.000885,0,0
0:2:28.313,592.726,33.543,0,0.000885,0,0
0:2:28.612,593.664,33.5913,0,0.000885,0,0
0:2:28.910,595.483,33.6947,0,0.000885,0,0
0:2:29.206,596.191,33.736,0,0.000885,0,0
0:2:29.506,597.774,33.8257,0,0.000885,0,0
0:2:29.802,599.184,33.9084,0,0.000885,0,0
0:2:30.101,600.359,33.9705,0,0.000885,0,0
0:2:30.399,602.236,34.0808,0,0.000885,0,0
0:2:30.700,603.468,34.1497,0,0.000885,0,0
0:2:31.006,604.522,34.2118,0,0.000885,0,0
0:2:31.307,605.817,34.2807,0,0.000885,0,0
0:2:31.611,607.578,34.3842,0,0.000885,0,0
0:2:31.911,608.868,34.4531,0,0.000885,0,0
0:2:32.211,609.985,34.5152,0,0.000885,0,0
0:2:32.517,611.159,34.5841,0,0.000885,0,0
0:2:32.814,612.391,34.6531,0,0.000885,0,0
0:2:33.116,613.681,34.7289,0,0.000885,0,0
0:2:33.420,614.798,34.7909,0,0.000885,0,0
0:2:33.720,616.088,34.8668,0,0.000885,0,0
0:2:34.019,617.849,34.9633,0,0.000885,0,0
0:2:34.316,619.197,35.0392,0,0.000885,0,0
0:2:34.615,620.727,35.1288,0,0.000885,0,0
0:2:34.911,621.781,35.1839,0,0.000885,0,0
0:2:35.211,622.956,35.2529,0,0.000885,0,0
0:2:35.506,624.366,35.3287,0,0.000885,0,0
0:2:35.809,626.065,35.4253,0,0.000885,0,0
0:2:36.113,627.239,35.4942,0,0.000885,0,0
0:2:36.415,628.827,35.5838,0,0.000885,0,0
0:2:36.717,629.588,35.6252,0,0.000885,0,0
0:2:37.019,631.407,35.7286,0,0.000885,0,0
0:2:37.321,632.466,35.7907,0,0.000885,0,0
0:2:37.628,633.347,35.8389,0,0.000885,0,0
0:2:37.926,634.165,35.8872,0,0.000885,0,0
0:2:38.227,635.811,35.9768,0,0.000885,0,0
0:2:38.520,637.982,36.1009,0,0.000885,0,0
0:2:38.823,639.276,36.1768,0,0.000885,0,0
0:2:39.117,640.273,36.2319,0,0.000885,0,0
0:2:39.427,641.74,36.3147,0,0.000885,0,0
0:2:39.727,643.733,36.425,0,0.000885,0,0
0:2:40.020,644.556,36.4733,0,0.000885,0,0
0:2:40.324,645.908,36.5491,0,0.000885,0,0
0:2:40.629,646.963,36.6112,0,0.000885,0,0
0:2:40.932,647.964,36.6663,0,0.000885,0,0
0:2:41.235,650.076,36.7835,0,0.000885,0,0
0:2:41.536,651.251,36.8525,0,0.000885,0,0
0:2:41.837,652.363,36.9145,0,0.000885,0,0
0:2:42.132,653.422,36.9766,0,0.000885,0,0
0:2:42.434,655.65,37.1007,0,0.000885,0,0
0:2:42.731,656.295,37.1421,0,0.000885,0,0
0:2:43.028,657.647,37.2179,0,0.000885,0,0
0:2:43.328,658.408,37.2593,0,0.000885,0,0
0:2:43.621,660.054,37.3489,0,0.000885,0,0
0:2:43.925,661.815,37.4523,0,0.000885,0,0
0:2:44.217,663.047,37.5213,0,0.000885,0,0
0:2:44.519,664.337,37.5971,0,0.000885,0,0
0:2:44.816,664.867,37.6247,0,0.000885,0,0
0:2:45.125,666.806,37.735,0,0.000885,0,0
0:2:45.421,668.505,37.8315,0,0.000885,0,0
0:2:45.728,670.031,37.9143,0,0.000885,0,0
0:2:46.031,670.854,37.9625,0,0.000885,0,0
0:2:46.334,672.5,38.0522,0,0.000885,0,0
0:2:46.635,673.906,38.1349,0,0.000885,0,0
0:2:46.938,674.671,38.1763,0,0.000885,0,0
0:2:47.234,676.432,38.2797,0,0.000885,0,0
0:2:47.536,677.135,38.3211,0,0.000885,0,0
0:2:47.831,678.194,38.3762,0,0.000885,0,0
0:2:48.132,680.071,38.4865,0,0.000885,0,0
0:2:48.429,681.361,38.5555,0,0.000885,0,0
0:2:48.726,682.887,38.6451,0,0.000885,0,0
0:2:49.026,683.945,38.7003,0,0.000885,0,0
0:2:49.319,685.177,38.7761,0,0.000885,0,0
0:2:49.620,686.819,38.8657,0,0.000885,0,0
0:2:49.917,687.762,38.9209,0,0.000885,0,0
0:2:50.216,689.225,39.0036,0,0.000885,0,0
0:2:50.514,690.52,39.0726,0,0.000885,0,0
0:2:50.816,692.219,39.1691,0,0.000885,0,0
0:2:51.121,693.807,39.2587,0,0.000885,0,0
0:2:51.425,695.213,39.3415,0,0.000885,0,0
0:2:51.727,696.507,39.4173,0,0.000885,0,0
0:2:52.029,697.21,39.4518,0,0.000885,0,0
0:2:52.327,698.913,39.5483,0,0.000885,0,0
0:2:52.627,699.558,39.5897,0,0.000885,0,0
0:2:52.920,700.733,39.6517,0,0.000885,0,0
0:2:53.222,702.73,39.769,0,0.000885,0,0
0:2:53.516,703.491,39.8103,0,0.000885,0,0
0:2:53.816,705.016,39.8931,0,0.000885,0,0
0:2:54.114,706.6,39.9827,0,0.000885,0,0
0:2:54.410,707.601,40.0448,0,0.000885,0,0
0:2:54.710,708.597,40.0999,0,0.000885,0,0
0:2:55.005,710.065,40.1826,0,0.000885,0,0
0:2:55.308,712.472,40.3205,0,0.000885,0,0
0:2:55.613,712.943,40.3412,0,0.000885,0,0
0:2:55.917,714.642,40.4378,0,0.000885,0,0
0:2:56.219,715.581,40.4929,0,0.000885,0,0
0:2:56.520,716.933,40.5688,0,0.000885,0,0
0:2:56.822,718.637,40.6653,0,0.000885,0,0
0:2:57.118,719.869,40.7342,0,0.000885,0,0
0:2:57.417,721.337,40.817,0,0.000885,0,0
0:2:57.726,722.743,40.8997,0,0.000885,0,0
0:2:58.020,724.211,40.9824,0,0.000885,0,0
0:2:58.321,725.033,41.0307,0,0.000885,0,0
0:2:58.615,726.208,41.0928,0,0.000885,0,0
0:2:58.916,727.618,41.1755,0,0.000885,0,0
0:2:59.213,729.023,41.2513,0,0.000885,0,0
0:2:59.512,730.082,41.3134,0,0.000885,0,0
0:2:59.810,731.314,41.3823,0,0.000885,0,0
0:3:0.126,732.253,41.4375,0,0.000885,0,0
0:3:0.429,734.192,41.5478,0,0.000885,0,0
0:3:0.733,735.66,41.6305,0,0.000885,0,0
0:3:1.036,737.066,41.7064,0,0.000885,0,0
0:3:1.339,738.125,41.7684,0,0.000885,0,0
0:3:1.641,739.944,41.8719,0,0.000885,0,0
0:3:1.944,741.118,41.9408,0,0.000885,0,0
0:3:2.238,741.879,41.9822,0,0.000885,0,0
0:3:2.540,743.111,42.0511,0,0.000885,0,0
0:3:2.836,744.463,42.127,0,0.000885,0,0
0:3:3.133,746.518,42.2442,0,0.000885,0,0
0:3:3.433,747.866,42.32,0,0.000885,0,0
0:3:3.730,749.161,42.3959,0,0.000885,0,0
0:3:4.028,750.335,42.4579,0,0.000885,0,0
0:3:4.323,751.153,42.5062,0,0.000885,0,0
0:3:4.622,753.329,42.6303,0,0.000885,0,0
0:3:4.922,754.619,42.6992,0,0.000885,0,0
0:3:5.227,755.499,42.7544,0,0.000885,0,0
0:3:5.529,756.554,42.8095,0,0.000885,0,0
0:3:5.834,758.142,42.8992,0,0.000885,0,0
0:3:6.137,759.138,42.9612,0,0.000885,0,0
0:3:6.438,761.193,43.0715,0,0.000885,0,0
0:3:6.741,762.189,43.1336,0,0.000885,0,0
0:3:7.044,763.186,43.1888,0,0.000885,0,0
0:3:7.340,765.477,43.3198,0,0.000885,0,0
0:3:7.640,766.945,43.4025,0,0.000885,0,0
0:3:7.938,767.71,43.4439,0,0.000885,0,0
0:3:8.233,769.115,43.5197,0,0.000885,0,0
0:3:8.534,770.41,43.5956,0,0.000885,0,0
0:3:8.829,772.696,43.7266,0,0.000885,0,0
0:3:9.130,773.403,43.7679,0,0.000885,0,0
0:3:9.423,774.458,43.8231,0,0.000885,0,0
0:3:9.720,775.338,43.8782,0,0.000885,0,0
0:3:10.021,776.864,43.961,0,0.000885,0,0
0:3:10.317,778.741,44.0713,0,0.000885,0,0
0:3:10.616,779.916,44.1333,0,0.000885,0,0
0:3:10.921,781.032,44.1954,0,0.000885,0,0
0:3:11.224,781.971,44.2506,0,0.000885,0,0
0:3:11.529,784.141,44.3747,0,0.000885,0,0
0:3:11.831,785.316,44.4367,0,0.000885,0,0
0:3:12.135,786.374,44.4988,0,0.000885,0,0
0:3:12.430,787.664,44.5746,0,0.000885,0,0
0:3:12.731,789.31,44.6642,0,0.000885,0,0
0:3:13.029,790.6,44.7401,0,0.000885,0,0
0:3:13.335,791.89,44.809,0,0.000885,0,0
0:3:13.634,792.713,44.8573,0,0.000885,0,0
0:3:13.931,794.359,44.9538,0,0.000885,0,0
0:3:14.232,796.41,45.071,0,0.000885,0,0
0:3:14.528,797.646,45.14,0,0.000885,0,0
0:3:14.822,798.643,45.1951,0,0.000885,0,0
0:3:15.121,799.875,45.2641,0,0.000885,0,0
0:3:15.430,801.227,45.3399,0,0.000885,0,0
0:3:15.733,803.278,45.4571,0,0.000885,0,0
0:3:16.039,803.571,45.4709,0,0.000885,0,0
0:3:16.339,804.866,45.5468,0,0.000885,0,0
0:3:16.642,805.978,45.6088,0,0.000885,0,0
0:3:16.944,807.801,45.7122,0,0.000885,0,0
0:3:17.247,808.446,45.7467,0,0.000885,0,0
0:3:17.543,809.679,45.8157,0,0.000885,0,0
0:3:17.840,810.795,45.8846,0,0.000885,0,0
0:3:18.140,812.201,45.9605,0,0.000885,0,0
0:3:18.435,814.14,46.0708,0,0.000885,0,0
0:3:18.736,815.372,46.1397,0,0.000885,0,0
0:3:19.030,816.84,46.2225,0,0.000885,0,0
0:3:19.332,818.072,46.2914,0,0.000885,0,0
0:3:19.629,819.714,46.3879,0,0.000885,0,0
0:3:19.923,820.83,46.45,0,0.000885,0,0
0:3:20.222,821.827,46.5051,0,0.000885,0,0
0:3:20.529,823.352,46.5948,0,0.000885,0,0
0:3:20.832,824.82,46.6775,0,0.000885,0,0
0:3:21.135,826.173,46.7533,0,0.000885,0,0
0:3:21.435,827.347,46.8154,0,0.000885,0,0
0:3:21.738,829.166,46.9188,0,0.000885,0,0
0:3:22.035,829.633,46.9464,0,0.000885,0,0
0:3:22.336,831.982,47.0774,0,0.000885,0,0
0:3:22.633,833.041,47.1395,0,0.000885,0,0
0:3:22.932,833.921,47.1877,0,0.000885,0,0
0:3:23.229,835.211,47.2636,0,0.000885,0,0
0:3:23.525,836.328,47.3256,0,0.000885,0,0
0:3:23.825,838.032,47.4221,0,0.000885,0,0
0:3:24.119,839.437,47.5049,0,0.000885,0,0
0:3:24.421,840.905,47.5876,0,0.000885,0,0
0:3:24.729,842.257,47.6635,0,0.000885,0,0
0:3:25.025,843.018,47.7048,0,0.000885,0,0
0:3:25.323,845.015,47.8151,0,0.000885,0,0
0:3:25.625,845.66,47.8565,0,0.000885,0,0
0:3:25.933,846.719,47.9117,0,0.000885,0,0
0:3:26.236,847.951,47.9875,0,0.000885,0,0
0:3:26.538,849.477,48.0702,0,0.000885,0,0
0:3:26.840,850.767,48.1461,0,0.000885,0,0
0:3:27.138,851.999,48.215,0,0.000885,0,0
0:3:27.438,853.351,48.2909,0,0.000885,0,0
0:3:27.733,854.819,48.3736,0,0.000885,0,0
0:3:28.035,856.576,48.4701,0,0.000885,0,0
0:3:28.329,857.871,48.546,0,0.000885,0,0
0:3:28.636,859.103,48.6149,0,0.000885,0,0
0:3:28.936,860.099,48.6701,0,0.000885,0,0
0:3:29.232,861.687,48.7597,0,0.000885,0,0
0:3:29.534,863.507,48.8631,0,0.000885,0,0
0:3:29.829,864.267,48.9045,0,0.000885,0,0
0:3:30.130,865.442,48.9735,0,0.000885,0,0
0:3:30.424,866.732,49.0493,0,0.000885,0,0
0:3:30.725,869.022,49.1734,0,0.000885,0,0
0:3:31.031,869.667,49.2148,0,0.000885,0,0
0:3:31.334,870.784,49.2768,0,0.000885,0,0
0:3:31.636,872.132,49.3527,0,0.000885,0,0
0:3:31.938,873.835,49.4492,0,0.000885,0,0
0:3:32.238,875.067,49.5181,0,0.000885,0,0
0:3:32.536,876.535,49.6009,0,0.000885,0,0
0:3:32.831,877.474,49.656,0,0.000885,0,0
0:3:33.131,878.768,49.725,0,0.000885,0,0
0:3:33.429,880.116,49.8077,0,0.000885,0,0
0:3:33.725,881.175,49.8629,0,0.000885,0,0
0:3:34.021,882.994,49.9663,0,0.000885,0,0
0:3:34.320,884.048,50.0284,0,0.000885,0,0
0:3:34.619,885.401,50.1042,0,0.000885,0,0
0:3:34.913,887.514,50.2214,0,0.000885,0,0
0:3:35.215,888.337,50.2697,0,0.000885,0,0
0:3:35.511,889.506,50.3386,0,0.000885,0,0
0:3:35.814,890.623,50.4007,0,0.000885,0,0
0:3:36.118,891.562,50.4489,0,0.000885,0,0
0:3:36.420,893.087,50.5386,0,0.000885,0,0
0:3:36.721,894.791,50.6351,0,0.000885,0,0
0:3:37.024,896.201,50.7178,0,0.000885,0,0
0:3:37.324,897.842,50.8075,0,0.000885,0,0
0:3:37.634,899.195,50.8833,0,0.000885,0,0
0:3:37.927,900.311,50.9454,0,0.000885,0,0
0:3:38.230,901.308,51.0005,0,0.000885,0,0
0:3:38.524,903.011,51.097,0,0.000885,0,0
0:3:38.824,904.417,51.1798,0,0.000885,0,0
0:3:39.121,906.063,51.2694,0,0.000885,0,0
0:3:39.418,907.059,51.3315,0,0.000885,0,0
0:3:39.719,907.998,51.3797,0,0.000885,0,0
0:3:40.014,909.114,51.4487,0,0.000885,0,0
0:3:40.314,911.049,51.5521,0,0.000885,0,0
0:3:40.613,912.579,51.6417,0,0.000885,0,0
0:3:40.914,913.749,51.7107,0,0.000885,0,0
0:3:41.219,914.514,51.752,0,0.000885,0,0
0:3:41.521,915.982,51.8348,0,0.000885,0,0
0:3:41.823,916.921,51.8899,0,0.000885,0,0
0:3:42.124,918.331,51.9658,0,0.000885,0,0
0:3:42.421,920.092,52.0692,0,0.000885,0,0
0:3:42.721,921.618,52.1519,0,0.000885,0,0
0:3:43.017,922.615,52.2071,0,0.000885,0,0
0:3:43.318,924.198,52.2967,0,0.000885,0,0
0:3:43.613,925.844,52.3933,0,0.000885,0,0
0:3:43.914,927.018,52.4553,0,0.000885,0,0
0:3:44.212,928.193,52.5243,0,0.000885,0,0
0:3:44.516,929.483,52.6001,0,0.000885,0,0
0:3:44.818,930.773,52.6691,0,0.000885,0,0
0:3:45.121,931.947,52.738,0,0.000885,0,0
0:3:45.424,932.77,52.7863,0,0.000885,0,0
0:3:45.732,934.883,52.9035,0,0.000885,0,0
0:3:46.033,935.821,52.9586,0,0.000885,0,0
0:3:46.335,936.76,53.0069,0,0.000885,0,0
0:3:46.637,938.286,53.0965,0,0.000885,0,0
0:3:46.938,939.696,53.1793,0,0.000885,0,0
0:3:47.237,941.515,53.2758,0,0.000885,0,0
0:3:47.532,942.574,53.3378,0,0.000885,0,0
0:3:47.833,943.57,53.393,0,0.000885,0,0
0:3:48.126,944.802,53.4619,0,0.000885,0,0
0:3:48.438,946.742,53.5723,0,0.000885,0,0
0:3:48.734,947.738,53.6343,0,0.000885,0,0
0:3:49.032,949.5,53.7308,0,0.000885,0,0
0:3:49.332,951.025,53.8136,0,0.000885,0,0
0:3:49.624,951.964,53.8687,0,0.000885,0,0
0:3:49.925,953.374,53.9515,0,0.000885,0,0
0:3:50.221,954.9,54.0342,0,0.000885,0,0
0:3:50.524,956.19,54.1101,0,0.000885,0,0
0:3:50.831,956.897,54.1514,0,0.000885,0,0
0:3:51.134,958.596,54.248,0,0.000885,0,0
0:3:51.434,959.771,54.31,0,0.000885,0,0
0:3:51.737,961.065,54.3858,0,0.000885,0,0
0:3:52.035,962.528,54.4686,0,0.000885,0,0
0:3:52.334,963.529,54.5237,0,0.000885,0,0
0:3:52.631,964.935,54.6065,0,0.000885,0,0
0:3:52.933,966.523,54.6961,0,0.000885,0,0
0:3:53.225,967.991,54.7788,0,0.000885,0,0
0:3:53.525,968.987,54.834,0,0.000885,0,0
0:3:53.835,970.513,54.9167,0,0.000885,0,0
0:3:54.139,972.097,55.0064,0,0.000885,0,0
0:3:54.440,973.213,55.0753,0,0.000885,0,0
0:3:54.737,974.33,55.1374,0,0.000885,0,0
0:3:55.035,975.62,55.2063,0,0.000885,0,0
0:3:55.333,977.617,55.3235,0,0.000885,0,0
0:3:55.635,978.733,55.3856,0,0.000885,0,0
0:3:55.939,979.258,55.4132,0,0.000885,0,0
0:3:56.241,980.375,55.4752,0,0.000885,0,0
0:3:56.543,982.43,55.5924,0,0.000885,0,0
0:3:56.845,984.013,55.6821,0,0.000885,0,0
0:3:57.143,985.539,55.7717,0,0.000885,0,0
0:3:57.443,985.953,55.7924,0,0.000885,0,0
0:3:57.738,987.83,55.9027,0,0.000885,0,0
0:3:58.040,989.178,55.9785,0,0.000885,0,0
0:3:58.335,991.175,56.0889,0,0.000885,0,0
0:3:58.635,991.704,56.1164,0,0.000885,0,0
0:3:58.936,992.759,56.1785,0,0.000885,0,0
0:3:59.228,993.875,56.2405,0,0.000885,0,0
0:3:59.529,995.637,56.344,0,0.000885,0,0
0:3:59.827,997.456,56.4474,0,0.000885,0,0
0:4:0.125,997.927,56.4681,0,0.000885,0,0
0:4:0.433,999.511,56.5577,0,0.000885,0,0
0:4:0.735,1001.15,56.6542,0,0.000885,0,0
0:4:1.040,1002.45,56.7301,0,0.000885,0,0
0:4:1.342,1003.97,56.8128,0,0.000885,0,0
0:4:1.644,1004.38,56.8335,0,0.000885,0,0
0:4:1.946,1005.85,56.9162,0,0.000885,0,0
0:4:2.244,1007.67,57.0196,0,0.000885,0,0
0:4:2.544,1009.08,57.1024,0,0.000885,0,0
0:4:2.840,1010.13,57.1644,0,0.000885,0,0
0:4:3.141,1011.08,57.2127,0,0.000885,0,0
0:4:3.435,1012.95,57.323,0,0.000885,0,0
0:4:3.734,1014.71,57.4195,0,0.000885,0,0
0:4:4.034,1015.65,57.4747,0,0.000885,0,0
0:4:4.327,1016.3,57.5092,0,0.000885,0,0
0:4:4.628,1018.18,57.6195,0,0.000885,0,0
0:4:4.934,1018.83,57.654,0,0.000885,0,0
0:4:5.234,1020.47,57.7436,0,0.000885,0,0
0:4:5.528,1021.76,57.8194,0,0.000885,0,0
0:4:5.830,1023.52,57.916,0,0.000885,0,0
0:4:6.137,1024.34,57.9642,0,0.000885,0,0
0:4:6.439,1026.45,58.0883,0,0.000885,0,0
0:4:6.741,1027.74,58.1573,0,0.000885,0,0
0:4:7.042,1028.39,58.1918,0,0.000885,0,0
0:4:7.342,1030.21,58.2952,0,0.000885,0,0
0:4:7.640,1031.27,58.3572,0,0.000885,0,0
0:4:7.935,1032.79,58.4469,0,0.000885,0,0
0:4:8.236,1034.73,58.5572,0,0.000885,0,0
0:4:8.541,1035.26,58.5848,0,0.000885,0,0
0:4:8.840,1036.37,58.6468,0,0.000885,0,0
0:4:9.137,1038.9,58.7916,0,0.000885,0,0
0:4:9.435,1039.02,58.7985,0,0.000885,0,0
0:4:9.734,1040.43,58.8743,0,0.000885,0,0
0:4:10.027,1041.66,58.9433,0,0.000885,0,0
0:4:10.329,1043.42,59.0467,0,0.000885,0,0
0:4:10.631,1045.3,59.1501,0,0.000885,0,0
0:4:10.937,1045.83,59.1846,0,0.000885,0,0
0:4:11.238,1047.7,59.288,0,0.000885,0,0
0:4:11.541,1048.64,59.3432,0,0.000885,0,0
0:4:11.844,1050.58,59.4535,0,0.000885,0,0
0:4:12.138,1051.05,59.4742,0,0.000885,0,0
0:4:12.441,1052.93,59.5845,0,0.000885,0,0
0:4:12.737,1053.34,59.6052,0,0.000885,0,0
0:4:13.033,1055.51,59.7293,0,0.000885,0,0
0:4:13.330,1057.21,59.8258,0,0.000885,0,0
0:4:13.626,1057.86,59.8603,0,0.000885,0,0
0:4:13.926,1059.38,59.9499,0,0.000885,0,0
0:4:14.242,1060.09,59.9913,0,0.000885,0,0
0:4:14.541,1061.79,60.0878,0,0.000885,0,0
0:4:14.840,1063.02,60.1568,0,0.000885,0,0
0:4:15.135,1065.26,60.2809,0,0.000885,0,0
0:4:15.436,1065.26,60.2809,0,0.000885,0,0
0:4:15.739,1067.37,60.3981,0,0.000885,0,0
0:4:16.044,1068.84,60.4808,0,0.000885,0,0
0:4:16.344,1069.89,60.5429,0,0.000885,0,0
0:4:16.647,1070.71,60.5911,0,0.000885,0,0
0:4:16.948,1073,60.7221,0,0.000885,0,0
0:4:17.243,1073.59,60.7497,0,0.000885,0,0
0:4:17.545,1075.88,60.8807,0,0.000885,0,0
0:4:17.840,1077.23,60.9565,0,0.000885,0,0
0:4:18.139,1077.64,60.9841,0,0.000885,0,0
0:4:18.437,1079.17,61.0669,0,0.000885,0,0
0:4:18.732,1079.87,61.1082,0,0.000885,0,0
0:4:19.036,1081.99,61.2254,0,0.000885,0,0
0:4:19.327,1083.04,61.2875,0,0.000885,0,0
0:4:19.628,1084.51,61.3702,0,0.000885,0,0
0:4:19.925,1084.74,61.384,0,0.000885,0,0
0:4:20.222,1087.15,61.5219,0,0.000885,0,0
0:4:20.530,1088.5,61.5978,0,0.000885,0,0
0:4:20.835,1089.97,61.6805,0,0.000885,0,0
0:4:21.140,1090.26,61.6943,0,0.000885,0,0
0:4:21.442,1092.08,61.7977,0,0.000885,0,0
0:4:21.744,1093.9,61.9011,0,0.000885,0,0
0:4:22.046,1095.25,61.977,0,0.000885,0,0
0:4:22.343,1096.89,62.0735,0,0.000885,0,0
0:4:22.644,1097.48,62.108,0,0.000885,0,0
0:4:22.939,1099.12,62.1976,0,0.000885,0,0
0:4:23.239,1099.71,62.2321,0,0.000885,0,0
0:4:23.532,1101.82,62.3493,0,0.000885,0,0
0:4:23.841,1102.65,62.3976,0,0.000885,0,0
0:4:24.142,1103.64,62.4527,0,0.000885,0,0
0:4:24.436,1106.11,62.5906,0,0.000885,0,0
0:4:24.738,1106.99,62.6458,0,0.000885,0,0
0:4:25.031,1108.75,62.7423,0,0.000885,0,0
0:4:25.331,1109.57,62.7906,0,0.000885,0,0
0:4:25.627,1110.22,62.825,0,0.000885,0,0
0:4:25.931,1113.21,62.9974,0,0.000885,0,0
0:4:26.236,1113.27,62.9974,0,0.000885,0,0
0:4:26.540,1114.62,63.0732,0,0.000885,0,0
0:4:26.841,1116.61,63.1905,0,0.000885,0,0
0:4:27.144,1117.2,63.218,0,0.000885,0,0
0:4:27.442,1119.08,63.3283,0,0.000885,0,0
0:4:27.742,1120.72,63.418,0,0.000885,0,0
0:4:28.036,1120.72,63.418,0,0.000885,0,0
0:4:28.338,1122.66,63.5283,0,0.000885,0,0
0:4:28.631,1124.25,63.6179,0,0.000885,0,0
0:4:28.930,1124.6,63.6386,0,0.000885,0,0
0:4:29.227,1126.48,63.7489,0,0.000885,0,0
0:4:29.525,1128.12,63.8386,0,0.000885,0,0
0:4:29.824,1129.76,63.9282,0,0.000885,0,0
0:4:30.118,1130.82,63.9902,0,0.000885,0,0
0:4:30.419,1132,64.0592,0,0.000885,0,0
0:4:30.724,1133.52,64.1419,0,0.000885,0,0
0:4:31.026,1135.16,64.2385,0,0.000885,0,0
0:4:31.331,1135.87,64.2798,0,0.000885,0,0
0:4:31.632,1137.16,64.3488,0,0.000885,0,0
0:4:31.936,1138.8,64.4453,0,0.000885,0,0
0:4:32.229,1140.33,64.528,0,0.000885,0,0
0:4:32.528,1140.45,64.5349,0,0.000885,0,0
0:4:32.827,1142.27,64.6383,0,0.000885,0,0
0:4:33.132,1144.14,64.7487,0,0.000885,0,0
0:4:33.432,1144.79,64.7831,0,0.000885,0,0
0:4:33.738,1146.61,64.8866,0,0.000885,0,0
0:4:34.040,1148.49,64.99,0,0.000885,0,0
0:4:34.333,1149.84,65.0658,0,0.000885,0,0
0:4:34.633,1150.66,65.1141,0,0.000885,0,0
0:4:34.931,1152.37,65.2106,0,0.000885,0,0
0:4:35.227,1153.54,65.2796,0,0.000885,0,0
0:4:35.527,1155.77,65.4037,0,0.000885,0,0
0:4:35.831,1156.12,65.4244,0,0.000885,0,0
0:4:36.137,1156.88,65.4657,0,0.000885,0,0
0:4:36.440,1158.06,65.5347,0,0.000885,0,0
0:4:36.742,1160.11,65.6519,0,0.000885,0,0
0:4:37.046,1161.7,65.7415,0,0.000885,0,0
0:4:37.340,1163.22,65.8242,0,0.000885,0,0
0:4:37.641,1164.05,65.8725,0,0.000885,0,0
0:4:37.938,1164.81,65.9139,0,0.000885,0,0
0:4:38.237,1166.04,65.9828,0,0.000885,0,0
0:4:38.533,1167.56,66.0725,0,0.000885,0,0
0:4:38.829,1168.92,66.1483,0,0.000885,0,0
0:4:39.130,1170.91,66.2586,0,0.000885,0,0
0:4:39.425,1172.67,66.362,0,0.000885,0,0
0:4:39.724,1173.55,66.4103,0,0.000885,0,0
0:4:40.023,1174.32,66.4517,0,0.000885,0,0
0:4:40.320,1175.84,66.5413,0,0.000885,0,0
0:4:40.618,1176.9,66.5965,0,0.000885,0,0
0:4:40.923,1179.72,66.755,0,0.000885,0,0
0:4:41.226,1180.25,66.7895,0,0.000885,0,0
0:4:41.528,1181.01,66.8309,0,0.000885,0,0
0:4:41.829,1181.95,66.886,0,0.000885,0,0
0:4:42.133,1183.89,66.9964,0,0.000885,0,0
0:4:42.427,1185.12,67.0653,0,0.000885,0,0
0:4:42.730,1186.64,67.148,0,0.000885,0,0
0:4:43.025,1187.52,67.2032,0,0.000885,0,0
0:4:43.325,1189.29,67.2997,0,0.000885,0,0
0:4:43.622,1190.99,67.3963,0,0.000885,0,0
0:4:43.919,1191.69,67.4376,0,0.000885,0,0
0:4:44.218,1192.69,67.4928,0,0.000885,0,0
0:4:44.514,1194.74,67.61,0,0.000885,0,0
0:4:44.814,1195.51,67.6514,0,0.000885,0,0
0:4:45.110,1197.15,67.7479,0,0.000885,0,0
0:4:45.413,1198.32,67.8099,0,0.000885,0,0
0:4:45.717,1199.68,67.8858,0,0.000885,0,0
0:4:46.019,1200.73,67.9478,0,0.000885,0,0
0:4:46.322,1202.67,68.0581,0,0.000885,0,0
0:4:46.624,1204.55,68.1616,0,0.000885,0,0
0:4:46.924,1205.54,68.2167,0,0.000885,0,0
0:4:47.221,1206.07,68.2512,0,0.000885,0,0
0:4:47.527,1207.25,68.3133,0,0.000885,0,0
0:4:47.829,1209.42,68.4374,0,0.000885,0,0
0:4:48.122,1210.24,68.4856,0,0.000885,0,0
0:4:48.425,1210.65,68.5063,0,0.000885,0,0
0:4:48.729,1212.3,68.6028,0,0.000885,0,0
0:4:49.028,1215.11,68.7614,0,0.000885,0,0
0:4:49.327,1215.82,68.8028,0,0.000885,0,0
0:4:49.633,1217.05,68.8717,0,0.000885,0,0
0:4:49.933,1217.99,68.9269,0,0.000885,0,0
0:4:50.239,1219.04,68.982,0,0.000885,0,0
0:4:50.541,1220.75,69.0786,0,0.000885,0,0
0:4:50.845,1222.57,69.182,0,0.000885,0,0
0:4:51.148,1224.27,69.2785,0,0.000885,0,0
0:4:51.451,1224.8,69.3061,0,0.000885,0,0
0:4:51.752,1226.33,69.3957,0,0.000885,0,0
0:4:52.054,1227.26,69.4509,0,0.000885,0,0
0:4:52.350,1228.5,69.5198,0,0.000885,0,0
0:4:52.647,1230.43,69.6302,0,0.000885,0,0
0:4:52.948,1231.9,69.7129,0,0.000885,0,0
0:4:53.242,1233.43,69.7956,0,0.000885,0,0
0:4:53.543,1234.43,69.8508,0,0.000885,0,0
0:4:53.838,1235.01,69.8853,0,0.000885,0,0
0:4:54.138,1236.3,69.9611,0,0.000885,0,0
0:4:54.433,1237.66,70.0369,0,0.000885,0,0
0:4:54.731,1240.36,70.1886,0,0.000885,0,0
0:4:55.031,1241.29,70.2438,0,0.000885,0,0
0:4:55.326,1242.29,70.2989,0,0.000885,0,0
0:4:55.627,1243.35,70.361,0,0.000885,0,0
0:4:55.931,1244.52,70.4231,0,0.000885,0,0
0:4:56.233,1246.11,70.5127,0,0.000885,0,0
0:4:56.538,1248.16,70.6299,0,0.000885,0,0
0:4:56.838,1249.1,70.6851,0,0.000885,0,0
0:4:57.142,1249.75,70.7195,0,0.000885,0,0
0:4:57.434,1251.39,70.8161,0,0.000885,0,0
0:4:57.744,1253.91,70.9539,0,0.000885,0,0
0:4:58.045,1254.74,71.0022,0,0.000885,0,0
0:4:58.340,1255.79,71.0643,0,0.000885,0,0
0:4:58.642,1257.2,71.1401,0,0.000885,0,0
0:4:58.934,1258.43,71.2159,0,0.000885,0,0
0:4:59.235,1258.96,71.2435,0,0.000885,0,0
0:4:59.531,1259.49,71.2711,0,0.000885,0,0
0:4:59.829,1261.54,71.3883,0,0.000885,0,0
0:5:0.129,1263.48,71.4986,0,0.000885,0,0
0:5:0.433,1264.24,71.54,0,0.000885,0,0
0:5:0.733,1266.65,71.6779,0,0.000885,0,0
0:5:1.039,1268,71.7537,0,0.000885,0,0
0:5:1.343,1269.18,71.8227,0,0.000885,0,0
0:5:1.646,1269.76,71.8572,0,0.000885,0,0
0:5:1.948,1270.88,71.9192,0,0.000885,0,0
0:5:2.251,1272.4,72.002,0,0.000885,0,0
0:5:2.545,1274.28,72.1123,0,0.000885,0,0
0:5:2.846,1275.4,72.1743,0,0.000885,0,0
0:5:3.143,1276.69,72.2433,0,0.000885,0,0
0:5:3.441,1278.45,72.3467,0,0.000885,0,0
0:5:3.739,1279.45,72.4018,0,0.000885,0,0
0:5:4.042,1279.68,72.4156,0,0.000885,0,0
0:5:4.345,1282.85,72.5949,0,0.000885,0,0
0:5:4.639,1283.26,72.6156,0,0.000885,0,0
0:5:4.947,1284.14,72.6707,0,0.000885,0,0
0:5:5.244,1285.96,72.7673,0,0.000885,0,0
0:5:5.548,1287.55,72.8569,0,0.000885,0,0
0:5:5.851,1288.19,72.8983,0,0.000885,0,0
0:5:6.154,1290.72,73.0431,0,0.000885,0,0
0:5:6.455,1291.01,73.0568,0,0.000885,0,0
0:5:6.758,1293.24,73.181,0,0.000885,0,0
0:5:7.056,1294.06,73.2292,0,0.000885,0,0
0:5:7.356,1294.89,73.2775,0,0.000885,0,0
0:5:7.651,1297.11,73.4016,0,0.000885,0,0
0:5:7.953,1297.53,73.4223,0,0.000885,0,0
0:5:8.247,1299.29,73.5257,0,0.000885,0,0
0:5:8.546,1300.87,73.6153,0,0.000885,0,0
0:5:8.844,1301.34,73.6429,0,0.000885,0,0
0:5:9.141,1303.34,73.7532,0,0.000885,0,0
0:5:9.441,1304.04,73.7946,0,0.000885,0,0
0:5:9.746,1306.63,73.9394,0,0.000885,0,0
0:5:10.046,1306.86,73.9532,0,0.000885,0,0
0:5:10.342,1308.21,74.029,0,0.000885,0,0
0:5:10.643,1309.44,74.098,0,0.000885,0,0
0:5:10.948,1310.79,74.1738,0,0.000885,0,0
0:5:11.251,1312.26,74.2565,0,0.000885,0,0
0:5:11.554,1313.38,74.3186,0,0.000885,0,0
0:5:11.856,1314.25,74.3737,0,0.000885,0,0
0:5:12.156,1316.19,74.4841,0,0.000885,0,0
0:5:12.454,1318.13,74.5875,0,0.000885,0,0
0:5:12.750,1318.89,74.6357,0,0.000885,0,0
0:5:13.051,1320.13,74.7047,0,0.000885,0,0
0:5:13.345,1321.65,74.7874,0,0.000885,0,0
0:5:13.646,1322.88,74.8633,0,0.000885,0,0
0:5:13.942,1324.12,74.9322,0,0.000885,0,0
0:5:14.240,1325.76,75.0219,0,0.000885,0,0
0:5:14.548,1327.4,75.1184,0,0.000885,0,0
0:5:14.844,1328.28,75.1666,0,0.000885,0,0
0:5:15.147,1329.93,75.2563,0,0.000885,0,0
0:5:15.440,1331.46,75.3459,0,0.000885,0,0
0:5:15.742,1332.75,75.4149,0,0.000885,0,0
0:5:16.047,1333.33,75.4493,0,0.000885,0,0
0:5:16.350,1334.8,75.5321,0,0.000885,0,0
0:5:16.653,1337.21,75.67,0,0.000885,0,0
0:5:16.953,1337.38,75.6838,0,0.000885,0,0
0:5:17.256,1339.44,75.7941,0,0.000885,0,0
0:5:17.551,1340.38,75.8492,0,0.000885,0,0
0:5:17.848,1341.96,75.9389,0,0.000885,0,0
0:5:18.149,1343.78,76.0423,0,0.000885,0,0
0:5:18.443,1343.72,76.0423,0,0.000885,0,0
0:5:18.744,1346.07,76.1733,0,0.000885,0,0
0:5:19.049,1346.31,76.1871,0,0.000885,0,0
0:5:19.348,1348.24,76.2974,0,0.000885,0,0
0:5:19.646,1350.06,76.4008,0,0.000885,0,0
0:5:19.942,1350.36,76.4146,0,0.000885,0,0
0:5:20.244,1352.23,76.518,0,0.000885,0,0
0:5:20.546,1352.41,76.5318,0,0.000885,0,0
0:5:20.849,1354.82,76.6697,0,0.000885,0,0
0:5:21.153,1356.46,76.7593,0,0.000885,0,0
0:5:21.455,1357.34,76.8076,0,0.000885,0,0
0:5:21.757,1358.22,76.8628,0,0.000885,0,0
0:5:22.052,1360.57,76.9938,0,0.000885,0,0
0:5:22.355,1362.21,77.0834,0,0.000885,0,0
0:5:22.647,1362.8,77.1179,0,0.000885,0,0
0:5:22.947,1363.74,77.173,0,0.000885,0,0
0:5:23.244,1365.56,77.2764,0,0.000885,0,0
0:5:23.542,1367.03,77.3592,0,0.000885,0,0
0:5:23.851,1367.85,77.4074,0,0.000885,0,0
0:5:24.147,1369.79,77.5109,0,0.000885,0,0
0:5:24.448,1370.61,77.5591,0,0.000885,0,0
0:5:24.744,1371.72,77.6212,0,0.000885,0,0
0:5:25.041,1373.31,77.7108,0,0.000885,0,0
0:5:25.349,1374.42,77.7798,0,0.000885,0,0
0:5:25.652,1375.19,77.8211,0,0.000885,0,0
0:5:25.955,1377.18,77.9314,0,0.000885,0,0
0:5:26.259,1378.47,78.0073,0,0.000885,0,0
0:5:26.559,1380.64,78.1314,0,0.000885,0,0
0:5:26.862,1381.76,78.1934,0,0.000885,0,0
0:5:27.158,1382.23,78.221,0,0.000885,0,0
0:5:27.458,1384.4,78.3382,0,0.000885,0,0
0:5:27.753,1385.63,78.4141,0,0.000885,0,0
0:5:28.055,1387.04,78.4899,0,0.000885,0,0
0:5:28.350,1388.74,78.5864,0,0.000885,0,0
0:5:28.648,1389.39,78.6209,0,0.000885,0,0
0:5:28.947,1390.74,78.6968,0,0.000885,0,0
0:5:29.242,1392.32,78.7864,0,0.000885,0,0
0:5:29.543,1393.38,78.8484,0,0.000885,0,0
0:5:29.847,1393.97,78.8829,0,0.000885,0,0
0:5:30.147,1395.67,78.9794,0,0.000885,0,0
0:5:30.445,1397.02,79.0553,0,0.000885,0,0
0:5:30.746,1398.78,79.1518,0,0.000885,0,0
0:5:31.051,1400.19,79.2346,0,0.000885,0,0
0:5:31.353,1401.36,79.3035,0,0.000885,0,0
0:5:31.656,1403.19,79.4069,0,0.000885,0,0
0:5:31.957,1404.48,79.4759,0,0.000885,0,0
0:5:32.256,1405.06,79.5103,0,0.000885,0,0
0:5:32.553,1405.77,79.5517,0,0.000885,0,0
0:5:32.849,1407.76,79.662,0,0.000885,0,0
0:5:33.151,1408.94,79.731,0,0.000885,0,0
0:5:33.444,1410.52,79.8206,0,0.000885,0,0
0:5:33.745,1412.23,79.9171,0,0.000885,0,0
0:5:34.039,1413.63,79.993,0,0.000885,0,0
0:5:34.337,1414.16,80.0274,0,0.000885,0,0
0:5:34.636,1416.57,80.1584,0,0.000885,0,0
0:5:34.931,1417.51,80.2136,0,0.000885,0,0
0:5:35.232,1418.33,80.2619,0,0.000885,0,0
0:5:35.528,1419.39,80.3239,0,0.000885,0,0
0:5:35.829,1420.56,80.386,0,0.000885,0,0
0:5:36.133,1422.5,80.4963,0,0.000885,0,0
0:5:36.436,1423.38,80.5446,0,0.000885,0,0
0:5:36.737,1425.37,80.6618,0,0.000885,0,0
0:5:37.039,1426.55,80.7238,0,0.000885,0,0
0:5:37.343,1428.31,80.8272,0,0.000885,0,0
0:5:37.636,1429.19,80.8755,0,0.000885,0,0
0:5:37.934,1430.01,80.9238,0,0.000885,0,0
0:5:38.231,1430.77,80.9651,0,0.000885,0,0
0:5:38.527,1432.01,81.0341,0,0.000885,0,0
0:5:38.829,1434,81.1513,0,0.000885,0,0
0:5:39.124,1435.12,81.2133,0,0.000885,0,0
0:5:39.425,1436.76,81.303,0,0.000885,0,0
0:5:39.721,1437.82,81.365,0,0.000885,0,0
0:5:40.019,1439.05,81.434,0,0.000885,0,0
0:5:40.318,1440.93,81.5374,0,0.000885,0,0
0:5:40.621,1442.4,81.6201,0,0.000885,0,0
0:5:40.925,1443.27,81.6753,0,0.000885,0,0
0:5:41.226,1444.33,81.7305,0,0.000885,0,0
0:5:41.527,1447.03,81.8821,0,0.000885,0,0
0:5:41.829,1447.68,81.9235,0,0.000885,0,0
0:5:42.125,1447.86,81.9304,0,0.000885,0,0
0:5:42.427,1448.79,81.9856,0,0.000885,0,0
0:5:42.723,1450.26,82.0683,0,0.000885,0,0
0:5:43.022,1451.85,82.1579,0,0.000885,0,0
0:5:43.319,1453.08,82.2269,0,0.000885,0,0
0:5:43.617,1454.67,82.3165,0,0.000885,0,0
0:5:43.917,1456.19,82.4061,0,0.000885,0,0
0:5:44.211,1457.95,82.5027,0,0.000885,0,0
0:5:44.512,1459.83,82.6061,0,0.000885,0,0
0:5:44.808,1460.24,82.6337,0,0.000885,0,0
0:5:45.109,1462.12,82.7371,0,0.000885,0,0
0:5:45.406,1463.06,82.7922,0,0.000885,0,0
0:5:45.709,1464.88,82.8957,0,0.000885,0,0
0:5:46.014,1466.41,82.9784,0,0.000885,0,0
0:5:46.316,1467.17,83.0267,0,0.000885,0,0
0:5:46.618,1468.75,83.1163,0,0.000885,0,0
0:5:46.919,1469.93,83.1784,0,0.000885,0,0
0:5:47.218,1471.28,83.2542,0,0.000885,0,0
0:5:47.518,1473.22,83.3645,0,0.000885,0,0
0:5:47.814,1473.68,83.3921,0,0.000885,0,0
0:5:48.114,1475.33,83.4886,0,0.000885,0,0
0:5:48.410,1477.32,83.5989,0,0.000885,0,0
0:5:48.709,1477.79,83.6265,0,0.000885,0,0
0:5:49.008,1479.38,83.7161,0,0.000885,0,0
0:5:49.303,1480.27,83.7644,0,0.000885,0,0
0:5:49.603,1481.62,83.8402,0,0.000885,0,0
0:5:49.898,1483.33,83.9368,0,0.000885,0,0
0:5:50.199,1484.8,84.0195,0,0.000885,0,0
0:5:50.495,1485.86,84.0816,0,0.000885,0,0
0:5:50.797,1487.27,84.1643,0,0.000885,0,0
0:5:51.102,1488.04,84.2057,0,0.000885,0,0
0:5:51.405,1489.45,84.2884,0,0.000885,0,0
0:5:51.706,1490.63,84.3505,0,0.000885,0,0
0:5:52.009,1491.63,84.4056,0,0.000885,0,0
0:5:52.309,1492.4,84.4539,0,0.000885,0,0
0:5:52.607,1493.87,84.5366,0,0.000885,0,0
0:5:52.903,1490.51,84.3436,0,0.000885,0,0
0:5:53.202,1477.85,83.6265,0,0.000885,0,0
0:5:53.496,1477.15,83.592,0,0.000885,0,0
0:5:53.796,1477.79,83.6265,0,0.000885,0,0
0:5:54.092,1480.27,83.7644,0,0.000885,0,0
0:5:54.389,1474.74,83.4541,0,0.000885,0,0
0:5:54.487,1474.74,83.4541,0,0.000885,0,0