File: DataFile2021-06-29_064742.csv
Test ID:,Date Tested:,Time:,Test Type:,Diameter Avg. (mm):,Cyl. Corr. Factor:,Height (mm):,Age (days):,Weight (kN):,Break Type:,Ramp Rate (MPa/s):,Load at Break (kN):,Stress at Break (MPa):
12,6/29/2021,06:47,Cylinder,100,1,200,0,3.6,3,0.25,757.26,96.42
Sample Time,Load (kN),Stress (MPa),Long. Strain,Trans. Strain,Chan1 Deflection (mm),Chan2 Deflection (mm)
0:0:5.667,5.45352,0.69637,0,0.000885,0,0
0:0:6.065,6.5122,0.827371,0,0.000885,0,0
0:0:6.466,6.97926,0.889424,0,0.000885,0,0
0:0:6.863,7.62425,0.972161,0,0.000885,0,0
0:0:7.267,8.15359,1.04111,0,0.000885,0,0
0:0:7.664,8.67848,1.10316,0,0.000885,0,0
0:0:8.065,9.44357,1.19969,0,0.000885,0,0
0:0:8.463,10.3243,1.3169,0,0.000885,0,0
0:0:8.860,11.2629,1.43411,0,0.000885,0,0
0:0:9.252,12.4906,1.59269,0,0.000885,0,0
0:0:9.653,12.7842,1.62716,0,0.000885,0,0
0:0:10.052,12.8465,1.63406,0,0.000885,0,0
0:0:10.448,14.1943,1.80643,0,0.000885,0,0
0:0:10.844,14.8393,1.88916,0,0.000885,0,0
0:0:11.248,15.4843,1.9719,0,0.000885,0,0
0:0:11.654,16.3027,2.07532,0,0.000885,0,0
0:0:12.057,18.0642,2.30285,0,0.000885,0,0
0:0:12.463,18.767,2.39248,0,0.000885,0,0
0:0:12.867,19.0028,2.42006,0,0.000885,0,0
0:0:13.265,19.9414,2.53727,0,0.000885,0,0
0:0:13.666,21.1157,2.68896,0,0.000885,0,0
0:0:14.063,22.1121,2.81306,0,0.000885,0,0
0:0:14.456,22.8149,2.90269,0,0.000885,0,0
0:0:14.866,23.5756,2.99922,0,0.000885,0,0
0:0:15.267,24.7499,3.1509,0,0.000885,0,0
0:0:15.665,25.3371,3.22675,0,0.000885,0,0
0:0:16.070,25.9242,3.30259,0,0.000885,0,0
0:0:16.476,26.2756,3.34396,0,0.000885,0,0
0:0:16.881,27.0363,3.44048,0,0.000885,0,0
0:0:17.283,27.917,3.55769,0,0.000885,0,0
0:0:17.688,28.6821,3.65422,0,0.000885,0,0
0:0:18.084,30.0878,3.83349,0,0.000885,0,0
0:0:18.482,30.6171,3.89554,0,0.000885,0,0
0:0:18.882,31.1998,3.97138,0,0.000885,0,0
0:0:19.280,31.9071,4.06101,0,0.000885,0,0
0:0:19.677,32.4943,4.13685,0,0.000885,0,0
0:0:20.073,33.4328,4.25407,0,0.000885,0,0
0:0:20.473,34.4871,4.39196,0,0.000885,0,0
0:0:20.874,35.4256,4.50917,0,0.000885,0,0
0:0:21.280,35.777,4.55743,0,0.000885,0,0
0:0:21.684,36.6,4.66086,0,0.000885,0,0
0:0:22.088,37.5341,4.77807,0,0.000885,0,0
0:0:22.488,37.9478,4.83322,0,0.000885,0,0
0:0:22.887,38.9442,4.95733,0,0.000885,0,0
0:0:23.283,39.2956,5.00559,0,0.000885,0,0
0:0:23.680,40.7012,5.18486,0,0.000885,0,0
0:0:24.079,41.8177,5.32275,0,0.000885,0,0
0:0:24.479,42.227,5.37791,0,0.000885,0,0
0:0:24.877,43.1077,5.48823,0,0.000885,0,0
0:0:25.271,43.8105,5.57786,0,0.000885,0,0
0:0:25.670,44.6913,5.68817,0,0.000885,0,0
0:0:26.071,45.1628,5.75023,0,0.000885,0,0
0:0:26.479,46.1014,5.86744,0,0.000885,0,0
0:0:26.883,46.9198,5.97086,0,0.000885,0,0
0:0:27.286,48.0942,6.12254,0,0.000885,0,0
0:0:27.686,48.5612,6.1846,0,0.000885,0,0
0:0:28.086,49.2685,6.27423,0,0.000885,0,0
0:0:28.484,49.9135,6.35697,0,0.000885,0,0
0:0:28.881,50.8521,6.47418,0,0.000885,0,0
0:0:29.277,51.377,6.54312,0,0.000885,0,0
0:0:29.676,52.6091,6.7017,0,0.000885,0,0
0:0:30.077,52.9027,6.73618,0,0.000885,0,0
0:0:30.473,53.6633,6.8327,0,0.000885,0,0
0:0:30.870,54.8377,6.98439,0,0.000885,0,0
0:0:31.275,55.6606,7.08781,0,0.000885,0,0
0:0:31.681,56.2478,7.16365,0,0.000885,0,0
0:0:32.083,56.8928,7.24639,0,0.000885,0,0
0:0:32.486,58.1827,7.40497,0,0.000885,0,0
0:0:32.884,58.5341,7.45323,0,0.000885,0,0
0:0:33.283,58.8856,7.4946,0,0.000885,0,0
0:0:33.682,60.0599,7.64629,0,0.000885,0,0
0:0:34.080,61.1719,7.79108,0,0.000885,0,0
0:0:34.476,61.4077,7.81865,0,0.000885,0,0
0:0:34.874,62.5198,7.96344,0,0.000885,0,0
0:0:35.274,63.872,8.12892,0,0.000885,0,0
0:0:35.672,64.3391,8.19097,0,0.000885,0,0
0:0:36.067,64.7483,8.24613,0,0.000885,0,0
0:0:36.471,65.4556,8.33576,0,0.000885,0,0
0:0:36.877,66.3319,8.44608,0,0.000885,0,0
0:0:37.281,67.4484,8.59087,0,0.000885,0,0
0:0:37.684,68.0934,8.66671,0,0.000885,0,0
0:0:38.082,68.9163,8.77703,0,0.000885,0,0
0:0:38.482,69.8549,8.89424,0,0.000885,0,0
0:0:38.881,70.6733,8.99766,0,0.000885,0,0
0:0:39.278,71.6697,9.12866,0,0.000885,0,0
0:0:39.675,72.1413,9.18382,0,0.000885,0,0
0:0:40.073,72.9019,9.28034,0,0.000885,0,0
0:0:40.474,73.7248,9.38376,0,0.000885,0,0
0:0:40.874,73.667,9.37687,0,0.000885,0,0
0:0:41.279,74.4276,9.4734,0,0.000885,0,0
0:0:41.684,75.9534,9.67334,0,0.000885,0,0
0:0:42.087,76.8341,9.78366,0,0.000885,0,0
0:0:42.488,77.4791,9.8664,0,0.000885,0,0
0:0:42.889,78.1241,9.94913,0,0.000885,0,0
0:0:43.284,79.1783,10.0801,0,0.000885,0,0
0:0:43.682,79.5298,10.1284,0,0.000885,0,0
0:0:44.081,80.8776,10.3008,0,0.000885,0,0
0:0:44.478,81.9941,10.4387,0,0.000885,0,0
0:0:44.875,82.4033,10.4938,0,0.000885,0,0
0:0:45.272,82.9326,10.5559,0,0.000885,0,0
0:0:45.670,83.5198,10.6317,0,0.000885,0,0
0:0:46.071,84.4584,10.7558,0,0.000885,0,0
0:0:46.478,84.9833,10.8179,0,0.000885,0,0
0:0:46.881,86.4512,11.004,0,0.000885,0,0
0:0:47.283,87.0384,11.0799,0,0.000885,0,0
0:0:47.684,88.3862,11.2522,0,0.000885,0,0
0:0:48.083,89.0312,11.335,0,0.000885,0,0
0:0:48.479,89.5027,11.397,0,0.000885,0,0
0:0:48.876,89.8541,11.4384,0,0.000885,0,0
0:0:49.275,91.024,11.5901,0,0.000885,0,0
0:0:49.674,91.4376,11.6452,0,0.000885,0,0
0:0:50.070,92.5497,11.7831,0,0.000885,0,0
0:0:50.467,92.4919,11.7762,0,0.000885,0,0
0:0:50.864,93.6662,11.9279,0,0.000885,0,0
0:0:51.266,94.6048,12.0451,0,0.000885,0,0
0:0:51.672,95.8369,12.2037,0,0.000885,0,0
0:0:52.076,95.9526,12.2175,0,0.000885,0,0
0:0:52.480,97.4783,12.4106,0,0.000885,0,0
0:0:52.879,97.5362,12.4175,0,0.000885,0,0
0:0:53.281,99.2354,12.6381,0,0.000885,0,0
0:0:53.677,99.529,12.6726,0,0.000885,0,0
0:0:54.071,100.174,12.7553,0,0.000885,0,0
0:0:54.470,101.055,12.8656,0,0.000885,0,0
0:0:54.870,102.287,13.0242,0,0.000885,0,0
0:0:55.267,102.696,13.0725,0,0.000885,0,0
0:0:55.665,102.932,13.1069,0,0.000885,0,0
0:0:56.070,104.106,13.2517,0,0.000885,0,0
0:0:56.475,104.573,13.3138,0,0.000885,0,0
0:0:56.877,106.041,13.4999,0,0.000885,0,0
0:0:57.281,106.277,13.5344,0,0.000885,0,0
0:0:57.677,107.389,13.6723,0,0.000885,0,0
0:0:58.074,108.563,13.824,0,0.000885,0,0
0:0:58.474,108.679,13.8378,0,0.000885,0,0
0:0:58.873,109.911,13.9964,0,0.000885,0,0
0:0:59.268,110.147,14.0239,0,0.000885,0,0
0:0:59.667,111.61,14.2101,0,0.000885,0,0
0:1:0.065,112.197,14.2859,0,0.000885,0,0
0:1:0.475,112.318,14.2997,0,0.000885,0,0
0:1:0.872,113.665,14.4721,0,0.000885,0,0
0:1:1.278,114.484,14.5755,0,0.000885,0,0
0:1:1.682,114.955,14.6376,0,0.000885,0,0
0:1:2.084,116.01,14.7686,0,0.000885,0,0
0:1:2.488,116.89,14.8858,0,0.000885,0,0
0:1:2.884,117.535,14.9685,0,0.000885,0,0
0:1:3.280,118.71,15.1133,0,0.000885,0,0
0:1:3.679,118.768,15.1202,0,0.000885,0,0
0:1:4.079,119.942,15.2719,0,0.000885,0,0
0:1:4.476,120.76,15.3753,0,0.000885,0,0
0:1:4.871,121.819,15.5132,0,0.000885,0,0
0:1:5.269,122.695,15.6235,0,0.000885,0,0
0:1:5.669,123.047,15.6649,0,0.000885,0,0
0:1:6.075,123.985,15.789,0,0.000885,0,0
0:1:6.479,124.515,15.851,0,0.000885,0,0
0:1:6.884,124.986,15.9131,0,0.000885,0,0
0:1:7.286,126.098,16.0579,0,0.000885,0,0
0:1:7.691,127.388,16.2165,0,0.000885,0,0
0:1:8.086,128.153,16.3199,0,0.000885,0,0
0:1:8.482,128.442,16.3544,0,0.000885,0,0
0:1:8.878,129.265,16.4578,0,0.000885,0,0
0:1:9.279,129.737,16.5198,0,0.000885,0,0
0:1:9.678,130.555,16.6233,0,0.000885,0,0
0:1:10.073,132.139,16.8232,0,0.000885,0,0
0:1:10.469,132.668,16.8922,0,0.000885,0,0
0:1:10.869,133.549,17.0025,0,0.000885,0,0
0:1:11.267,134.425,17.1128,0,0.000885,0,0
0:1:11.672,135.484,17.2507,0,0.000885,0,0
0:1:12.075,135.6,17.2645,0,0.000885,0,0
0:1:12.478,135.6,17.2645,0,0.000885,0,0
0:1:12.880,136.423,17.3679,0,0.000885,0,0
0:1:13.279,136.89,17.4299,0,0.000885,0,0
0:1:13.676,138.767,17.6713,0,0.000885,0,0
0:1:14.071,139.883,17.8092,0,0.000885,0,0
0:1:14.470,140.292,17.8643,0,0.000885,0,0
0:1:14.871,141.289,17.9884,0,0.000885,0,0
0:1:15.276,141.876,18.0643,0,0.000885,0,0
0:1:15.674,142.521,18.147,0,0.000885,0,0
0:1:16.079,143.46,18.2642,0,0.000885,0,0
0:1:16.485,144.278,18.3676,0,0.000885,0,0
0:1:16.890,145.217,18.4917,0,0.000885,0,0
0:1:17.292,145.395,18.5124,0,0.000885,0,0
0:1:17.687,146.275,18.6227,0,0.000885,0,0
0:1:18.086,147.507,18.7813,0,0.000885,0,0
0:1:18.485,148.152,18.8641,0,0.000885,0,0
0:1:18.881,148.855,18.9537,0,0.000885,0,0
0:1:19.278,149.678,19.0571,0,0.000885,0,0
0:1:19.676,150.612,19.1743,0,0.000885,0,0
0:1:20.076,151.787,19.326,0,0.000885,0,0
0:1:20.473,152.667,19.4363,0,0.000885,0,0
0:1:20.870,153.548,19.5535,0,0.000885,0,0
0:1:21.272,153.428,19.5328,0,0.000885,0,0
0:1:21.678,153.842,19.588,0,0.000885,0,0
0:1:22.081,154.718,19.6983,0,0.000885,0,0
0:1:22.485,155.541,19.8017,0,0.000885,0,0
0:1:22.881,156.244,19.8914,0,0.000885,0,0
0:1:23.280,157.418,20.0431,0,0.000885,0,0
0:1:23.679,158.299,20.1534,0,0.000885,0,0
0:1:24.076,159.18,20.2637,0,0.000885,0,0
0:1:24.473,160.407,20.4223,0,0.000885,0,0
0:1:24.869,160.937,20.4912,0,0.000885,0,0
0:1:25.269,161.875,20.6084,0,0.000885,0,0
0:1:25.679,162.756,20.7256,0,0.000885,0,0
0:1:26.075,163.401,20.8015,0,0.000885,0,0
0:1:26.479,163.574,20.8291,0,0.000885,0,0
0:1:26.884,164.575,20.9532,0,0.000885,0,0
0:1:27.286,165.22,21.0359,0,0.000885,0,0
0:1:27.689,166.217,21.16,0,0.000885,0,0
0:1:28.084,166.804,21.2359,0,0.000885,0,0
0:1:28.481,167.213,21.291,0,0.000885,0,0
0:1:28.880,168.797,21.491,0,0.000885,0,0
0:1:29.280,169.615,21.5944,0,0.000885,0,0
0:1:29.677,170.616,21.7254,0,0.000885,0,0
0:1:30.071,170.674,21.7323,0,0.000885,0,0
0:1:30.470,172.137,21.9184,0,0.000885,0,0
0:1:30.871,172.902,22.015,0,0.000885,0,0
0:1:31.265,173.427,22.0839,0,0.000885,0,0
0:1:31.673,173.899,22.1391,0,0.000885,0,0
0:1:32.078,174.486,22.2149,0,0.000885,0,0
0:1:32.480,175.949,22.4011,0,0.000885,0,0
0:1:32.884,177.008,22.539,0,0.000885,0,0
0:1:33.279,177.182,22.5596,0,0.000885,0,0
0:1:33.676,177.008,22.539,0,0.000885,0,0
0:1:34.074,178.12,22.6769,0,0.000885,0,0
0:1:34.474,179.646,22.8699,0,0.000885,0,0
0:1:34.873,180.527,22.9871,0,0.000885,0,0
0:1:35.269,181.35,23.0905,0,0.000885,0,0
0:1:35.673,182.346,23.2146,0,0.000885,0,0
0:1:36.077,183.285,23.3388,0,0.000885,0,0
0:1:36.483,183.049,23.3043,0,0.000885,0,0
0:1:36.885,183.809,23.4008,0,0.000885,0,0
0:1:37.287,184.397,23.4766,0,0.000885,0,0
0:1:37.687,185.393,23.6076,0,0.000885,0,0
0:1:38.088,186.038,23.6904,0,0.000885,0,0
0:1:38.487,186.919,23.8007,0,0.000885,0,0
0:1:38.883,188.209,23.9662,0,0.000885,0,0
0:1:39.279,188.329,23.98,0,0.000885,0,0
0:1:39.679,189.499,24.1248,0,0.000885,0,0
0:1:40.077,190.379,24.242,0,0.000885,0,0
0:1:40.475,191.434,24.373,0,0.000885,0,0
0:1:40.870,192.724,24.5384,0,0.000885,0,0
0:1:41.271,193.311,24.6143,0,0.000885,0,0
0:1:41.676,193.724,24.6625,0,0.000885,0,0
0:1:42.075,194.427,24.7522,0,0.000885,0,0
0:1:42.475,195.482,24.8901,0,0.000885,0,0
0:1:42.870,196.184,24.9797,0,0.000885,0,0
0:1:43.265,197.359,25.1314,0,0.000885,0,0
0:1:43.661,197.946,25.2003,0,0.000885,0,0
0:1:44.063,198.827,25.3175,0,0.000885,0,0
0:1:44.459,199.351,25.3796,0,0.000885,0,0
0:1:44.872,199.939,25.4554,0,0.000885,0,0
0:1:45.278,201.055,25.6002,0,0.000885,0,0
0:1:45.675,200.877,25.5795,0,0.000885,0,0
0:1:46.066,202.109,25.7312,0,0.000885,0,0
0:1:46.471,202.812,25.8209,0,0.000885,0,0
0:1:46.873,203.809,25.9519,0,0.000885,0,0
0:1:47.273,204.925,26.0898,0,0.000885,0,0
0:1:47.674,205.864,26.2139,0,0.000885,0,0
0:1:48.066,206.802,26.3311,0,0.000885,0,0
0:1:48.462,207.096,26.3656,0,0.000885,0,0
0:1:48.857,207.621,26.4345,0,0.000885,0,0
0:1:49.252,208.559,26.5517,0,0.000885,0,0
0:1:49.665,209.44,26.6689,0,0.000885,0,0
0:1:50.059,210.672,26.8206,0,0.000885,0,0
0:1:50.452,210.966,26.862,0,0.000885,0,0
0:1:50.849,211.904,26.9792,0,0.000885,0,0
0:1:51.257,212.665,27.0757,0,0.000885,0,0
0:1:51.662,213.724,27.2136,0,0.000885,0,0
0:1:52.062,214.778,27.3446,0,0.000885,0,0
0:1:52.462,215.481,27.4342,0,0.000885,0,0
0:1:52.859,215.832,27.4825,0,0.000885,0,0
0:1:53.266,216.597,27.579,0,0.000885,0,0
0:1:53.671,216.891,27.6135,0,0.000885,0,0
0:1:54.062,218.181,27.779,0,0.000885,0,0
0:1:54.458,218.648,27.841,0,0.000885,0,0
0:1:54.865,219.822,27.9858,0,0.000885,0,0
0:1:55.274,220.583,28.0823,0,0.000885,0,0
0:1:55.664,221.112,28.1513,0,0.000885,0,0
0:1:56.058,221.935,28.2547,0,0.000885,0,0
0:1:56.458,223.105,28.4064,0,0.000885,0,0
0:1:56.863,223.692,28.4822,0,0.000885,0,0
0:1:57.264,224.395,28.5719,0,0.000885,0,0
0:1:57.664,225.569,28.7236,0,0.000885,0,0
0:1:58.066,226.041,28.7787,0,0.000885,0,0
0:1:58.475,226.508,28.8408,0,0.000885,0,0
0:1:58.871,227.446,28.958,0,0.000885,0,0
0:1:59.274,227.798,29.0062,0,0.000885,0,0
0:1:59.667,228.443,29.089,0,0.000885,0,0
0:2:0.072,229.617,29.2338,0,0.000885,0,0
0:2:0.478,230.556,29.3579,0,0.000885,0,0
0:2:0.877,231.494,29.4751,0,0.000885,0,0
0:2:1.281,232.606,29.6199,0,0.000885,0,0
0:2:1.681,233.314,29.7095,0,0.000885,0,0
0:2:2.081,233.839,29.7716,0,0.000885,0,0
0:2:2.481,234.368,29.8405,0,0.000885,0,0
0:2:2.878,235.013,29.9232,0,0.000885,0,0
0:2:3.269,236.419,30.1025,0,0.000885,0,0
0:2:3.675,237.006,30.1784,0,0.000885,0,0
0:2:4.067,237.944,30.2956,0,0.000885,0,0
0:2:4.465,237.944,30.2956,0,0.000885,0,0
0:2:4.861,238.767,30.399,0,0.000885,0,0
0:2:5.274,239.764,30.53,0,0.000885,0,0
0:2:5.666,240.876,30.6679,0,0.000885,0,0
0:2:6.068,241.463,30.7437,0,0.000885,0,0
0:2:6.473,241.934,30.8058,0,0.000885,0,0
0:2:6.874,242.873,30.923,0,0.000885,0,0
0:2:7.275,243.985,31.0678,0,0.000885,0,0
0:2:7.666,244.572,31.1367,0,0.000885,0,0
0:2:8.064,244.75,31.1643,0,0.000885,0,0
0:2:8.469,246.334,31.3643,0,0.000885,0,0
0:2:8.874,247.566,31.5228,0,0.000885,0,0
0:2:9.265,247.975,31.5711,0,0.000885,0,0
0:2:9.659,248.442,31.6331,0,0.000885,0,0
0:2:10.059,249.149,31.7228,0,0.000885,0,0
0:2:10.462,250.497,31.8951,0,0.000885,0,0
0:2:10.855,251.022,31.9641,0,0.000885,0,0
0:2:11.257,252.023,32.0882,0,0.000885,0,0
0:2:11.659,252.668,32.1709,0,0.000885,0,0
0:2:12.060,253.135,32.233,0,0.000885,0,0
0:2:12.462,254.545,32.4123,0,0.000885,0,0
0:2:12.865,254.896,32.4536,0,0.000885,0,0
0:2:13.273,256.302,32.6329,0,0.000885,0,0
0:2:13.668,256.36,32.6398,0,0.000885,0,0
0:2:14.063,257.886,32.8328,0,0.000885,0,0
0:2:14.465,257.592,32.7984,0,0.000885,0,0
0:2:14.869,259.06,32.9845,0,0.000885,0,0
0:2:15.266,259.527,33.0466,0,0.000885,0,0
0:2:15.663,259.821,33.081,0,0.000885,0,0
0:2:16.055,260.937,33.2258,0,0.000885,0,0
0:2:16.459,261.462,33.2879,0,0.000885,0,0
0:2:16.862,262.463,33.4189,0,0.000885,0,0
0:2:17.262,263.224,33.5154,0,0.000885,0,0
0:2:17.663,264.398,33.6671,0,0.000885,0,0
0:2:18.066,264.985,33.736,0,0.000885,0,0
0:2:18.469,265.63,33.8188,0,0.000885,0,0
0:2:18.878,266.333,33.9084,0,0.000885,0,0
0:2:19.275,267.214,34.0256,0,0.000885,0,0
0:2:19.668,268.032,34.129,0,0.000885,0,0
0:2:20.081,269.322,34.2945,0,0.000885,0,0
0:2:20.476,270.261,34.4117,0,0.000885,0,0
0:2:20.874,270.67,34.46,0,0.000885,0,0
0:2:21.267,271.671,34.591,0,0.000885,0,0
0:2:21.670,272.196,34.6599,0,0.000885,0,0
0:2:22.075,273.134,34.7772,0,0.000885,0,0
0:2:22.475,273.899,34.8737,0,0.000885,0,0
0:2:22.876,273.837,34.8668,0,0.000885,0,0
0:2:23.268,274.718,34.9771,0,0.000885,0,0
0:2:23.674,275.834,35.1219,0,0.000885,0,0
0:2:24.068,276.946,35.2598,0,0.000885,0,0
0:2:24.464,277.654,35.3494,0,0.000885,0,0
0:2:24.860,278.472,35.4528,0,0.000885,0,0
0:2:25.254,279.353,35.5701,0,0.000885,0,0
0:2:25.657,280.113,35.6666,0,0.000885,0,0
0:2:26.058,280.821,35.7562,0,0.000885,0,0
0:2:26.462,281.697,35.8665,0,0.000885,0,0
0:2:26.863,282.578,35.9768,0,0.000885,0,0
0:2:27.264,283.107,36.0458,0,0.000885,0,0
0:2:27.659,283.752,36.1285,0,0.000885,0,0
0:2:28.057,284.864,36.2733,0,0.000885,0,0
0:2:28.450,285.336,36.3285,0,0.000885,0,0
0:2:28.844,286.799,36.5146,0,0.000885,0,0
0:2:29.239,287.035,36.5491,0,0.000885,0,0
0:2:29.634,287.8,36.6456,0,0.000885,0,0
0:2:30.029,288.796,36.7697,0,0.000885,0,0
0:2:30.424,289.321,36.8387,0,0.000885,0,0
0:2:30.818,290.322,36.9628,0,0.000885,0,0
0:2:31.219,290.731,37.018,0,0.000885,0,0
0:2:31.623,291.492,37.1145,0,0.000885,0,0
0:2:32.024,292.666,37.2662,0,0.000885,0,0
0:2:32.424,293.427,37.3627,0,0.000885,0,0
0:2:32.820,294.25,37.4661,0,0.000885,0,0
0:2:33.215,294.601,37.5075,0,0.000885,0,0
0:2:33.612,296.3,37.7281,0,0.000885,0,0
0:2:34.005,296.772,37.7833,0,0.000885,0,0
0:2:34.399,297.475,37.8729,0,0.000885,0,0
0:2:34.797,298.413,37.997,0,0.000885,0,0
0:2:35.192,299.352,38.1142,0,0.000885,0,0
0:2:35.587,299.997,38.197,0,0.000885,0,0
0:2:35.979,300.113,38.2107,0,0.000885,0,0
0:2:36.379,301.113,38.3417,0,0.000885,0,0
0:2:36.784,301.99,38.4521,0,0.000885,0,0
0:2:37.184,302.11,38.4659,0,0.000885,0,0
0:2:37.585,303.4,38.6313,0,0.000885,0,0
0:2:37.980,303.987,38.7072,0,0.000885,0,0
0:2:38.377,305.508,38.9002,0,0.000885,0,0
0:2:38.782,305.802,38.9347,0,0.000885,0,0
0:2:39.177,306.803,39.0657,0,0.000885,0,0
0:2:39.578,307.621,39.1691,0,0.000885,0,0
0:2:39.984,307.621,39.1691,0,0.000885,0,0
0:2:40.381,309.147,39.3622,0,0.000885,0,0
0:2:40.783,309.441,39.3966,0,0.000885,0,0
0:2:41.185,310.788,39.569,0,0.000885,0,0
0:2:41.586,310.966,39.5966,0,0.000885,0,0
0:2:41.986,312.198,39.7483,0,0.000885,0,0
0:2:42.386,313.195,39.8793,0,0.000885,0,0
0:2:42.780,313.368,39.9,0,0.000885,0,0
0:2:43.184,315.072,40.1137,0,0.000885,0,0
0:2:43.580,315.539,40.1758,0,0.000885,0,0
0:2:43.976,315.597,40.1826,0,0.000885,0,0
0:2:44.368,317.123,40.3757,0,0.000885,0,0
0:2:44.769,317.243,40.3895,0,0.000885,0,0
0:2:45.166,318.239,40.5205,0,0.000885,0,0
0:2:45.562,319.293,40.6515,0,0.000885,0,0
0:2:45.957,319.587,40.6929,0,0.000885,0,0
0:2:46.360,320.935,40.8652,0,0.000885,0,0
0:2:46.761,321.464,40.9273,0,0.000885,0,0
0:2:47.163,322.345,41.0445,0,0.000885,0,0
0:2:47.563,323.163,41.1479,0,0.000885,0,0
0:2:47.967,323.928,41.2444,0,0.000885,0,0
0:2:48.382,325.161,41.403,0,0.000885,0,0
0:2:48.777,325.04,41.3823,0,0.000885,0,0
0:2:49.172,326.33,41.5478,0,0.000885,0,0
0:2:49.568,326.682,41.5961,0,0.000885,0,0
0:2:49.969,327.972,41.7615,0,0.000885,0,0
0:2:50.373,328.679,41.8512,0,0.000885,0,0
0:2:50.770,329.088,41.8994,0,0.000885,0,0
0:2:51.167,330.556,42.0856,0,0.000885,0,0
0:2:51.570,330.845,42.127,0,0.000885,0,0
0:2:51.973,332.429,42.3269,0,0.000885,0,0
0:2:52.372,332.255,42.3062,0,0.000885,0,0
0:2:52.773,333.31,42.4372,0,0.000885,0,0
0:2:53.179,333.723,42.4924,0,0.000885,0,0
0:2:53.581,335.48,42.713,0,0.000885,0,0
0:2:53.973,335.48,42.713,0,0.000885,0,0
0:2:54.370,336.477,42.844,0,0.000885,0,0
0:2:54.767,337.473,42.9681,0,0.000885,0,0
0:2:55.170,338.118,43.0509,0,0.000885,0,0
0:2:55.563,338.474,43.0922,0,0.000885,0,0
0:2:55.964,339.938,43.2853,0,0.000885,0,0
0:2:56.368,339.995,43.2922,0,0.000885,0,0
0:2:56.769,341.405,43.4714,0,0.000885,0,0
0:2:57.168,341.757,43.5128,0,0.000885,0,0
0:2:57.571,342.638,43.6231,0,0.000885,0,0
0:2:57.970,343.283,43.7059,0,0.000885,0,0
0:2:58.367,343.985,43.7955,0,0.000885,0,0
0:2:58.762,345.275,43.961,0,0.000885,0,0
0:2:59.156,345.863,44.0368,0,0.000885,0,0
0:2:59.550,346.975,44.1816,0,0.000885,0,0
0:2:59.947,347.326,44.223,0,0.000885,0,0
0:3:0.343,347.975,44.3057,0,0.000885,0,0
0:3:0.734,348.91,44.4229,0,0.000885,0,0
0:3:1.135,349.675,44.5194,0,0.000885,0,0
0:3:1.539,350.729,44.6573,0,0.000885,0,0
0:3:1.941,351.494,44.7539,0,0.000885,0,0
0:3:2.342,351.788,44.7883,0,0.000885,0,0
0:3:2.734,352.726,44.9124,0,0.000885,0,0
0:3:3.131,353.309,44.9883,0,0.000885,0,0
0:3:3.528,354.541,45.14,0,0.000885,0,0
0:3:3.922,355.07,45.2089,0,0.000885,0,0
0:3:4.314,355.831,45.3055,0,0.000885,0,0
0:3:4.709,357.005,45.4571,0,0.000885,0,0
0:3:5.107,357.415,45.5054,0,0.000885,0,0
0:3:5.504,358.647,45.664,0,0.000885,0,0
0:3:5.896,359.176,45.7329,0,0.000885,0,0
0:3:6.297,359.937,45.8295,0,0.000885,0,0
0:3:6.701,360.644,45.9191,0,0.000885,0,0
0:3:7.101,361.289,46.0018,0,0.000885,0,0
0:3:7.502,361.934,46.0846,0,0.000885,0,0
0:3:7.897,362.695,46.1811,0,0.000885,0,0
0:3:8.292,363.927,46.3397,0,0.000885,0,0
0:3:8.690,364.514,46.4086,0,0.000885,0,0
0:3:9.085,365.275,46.5051,0,0.000885,0,0
0:3:9.476,366.329,46.643,0,0.000885,0,0
0:3:9.882,366.978,46.7258,0,0.000885,0,0
0:3:10.280,368.09,46.8637,0,0.000885,0,0
0:3:10.685,368.442,46.9119,0,0.000885,0,0
0:3:11.088,369.145,47.0016,0,0.000885,0,0
0:3:11.491,369.674,47.0705,0,0.000885,0,0
0:3:11.892,370.79,47.2084,0,0.000885,0,0
0:3:12.292,371.373,47.2842,0,0.000885,0,0
0:3:12.687,372.374,47.4152,0,0.000885,0,0
0:3:13.079,373.486,47.5531,0,0.000885,0,0
0:3:13.471,373.895,47.6083,0,0.000885,0,0
0:3:13.870,374.367,47.6635,0,0.000885,0,0
0:3:14.265,375.657,47.8289,0,0.000885,0,0
0:3:14.658,376.244,47.9048,0,0.000885,0,0
0:3:15.071,376.769,47.9737,0,0.000885,0,0
0:3:15.479,378.063,48.1392,0,0.000885,0,0
0:3:15.885,378.179,48.153,0,0.000885,0,0
0:3:16.289,379.82,48.3598,0,0.000885,0,0
0:3:16.691,379.878,48.3667,0,0.000885,0,0
0:3:17.091,380.701,48.4701,0,0.000885,0,0
0:3:17.492,381.462,48.5667,0,0.000885,0,0
0:3:17.887,382.458,48.6977,0,0.000885,0,0
0:3:18.282,382.872,48.7459,0,0.000885,0,0
0:3:18.684,384.042,48.8976,0,0.000885,0,0
0:3:19.082,385.158,49.0424,0,0.000885,0,0
0:3:19.479,385.745,49.1114,0,0.000885,0,0
0:3:19.883,386.097,49.1596,0,0.000885,0,0
0:3:20.286,387.035,49.2768,0,0.000885,0,0
0:3:20.680,388.032,49.4078,0,0.000885,0,0
0:3:21.080,389.264,49.5595,0,0.000885,0,0
0:3:21.483,390.202,49.6836,0,0.000885,0,0
0:3:21.884,390.554,49.725,0,0.000885,0,0
0:3:22.285,391.083,49.7939,0,0.000885,0,0
0:3:22.682,392.137,49.9318,0,0.000885,0,0
0:3:23.077,393.134,50.0559,0,0.000885,0,0
0:3:23.485,393.899,50.1525,0,0.000885,0,0
0:3:23.887,394.717,50.2559,0,0.000885,0,0
0:3:24.281,394.833,50.2697,0,0.000885,0,0
0:3:24.687,395.714,50.3869,0,0.000885,0,0
0:3:25.083,396.595,50.4972,0,0.000885,0,0
0:3:25.476,398.062,50.6834,0,0.000885,0,0
0:3:25.881,398.587,50.7523,0,0.000885,0,0
0:3:26.282,399.295,50.8419,0,0.000885,0,0
0:3:26.682,399.468,50.8626,0,0.000885,0,0
0:3:27.083,400.585,51.0005,0,0.000885,0,0
0:3:27.485,401.639,51.1384,0,0.000885,0,0
0:3:27.881,401.932,51.1729,0,0.000885,0,0
0:3:28.275,402.342,51.228,0,0.000885,0,0
0:3:28.671,403.338,51.3522,0,0.000885,0,0
0:3:29.075,404.57,51.5107,0,0.000885,0,0
0:3:29.468,405.451,51.621,0,0.000885,0,0
0:3:29.866,406.447,51.752,0,0.000885,0,0
0:3:30.263,407.386,51.8693,0,0.000885,0,0
0:3:30.667,407.857,51.9313,0,0.000885,0,0
0:3:31.068,408.854,52.0554,0,0.000885,0,0
0:3:31.471,409.73,52.1657,0,0.000885,0,0
0:3:31.872,410.437,52.2554,0,0.000885,0,0
0:3:32.272,410.611,52.2829,0,0.000885,0,0
0:3:32.676,411.727,52.4208,0,0.000885,0,0
0:3:33.070,412.021,52.4622,0,0.000885,0,0
0:3:33.468,412.782,52.5587,0,0.000885,0,0
0:3:33.873,413.72,52.6759,0,0.000885,0,0
0:3:34.278,414.423,52.7656,0,0.000885,0,0
0:3:34.682,415.304,52.8759,0,0.000885,0,0
0:3:35.076,416.185,52.9931,0,0.000885,0,0
0:3:35.484,417.181,53.1172,0,0.000885,0,0
0:3:35.881,417.942,53.2137,0,0.000885,0,0
0:3:36.285,418.649,53.3034,0,0.000885,0,0
0:3:36.688,419.352,53.393,0,0.000885,0,0
0:3:37.088,420.17,53.4964,0,0.000885,0,0
0:3:37.488,421.109,53.6205,0,0.000885,0,0
0:3:37.884,421.989,53.7308,0,0.000885,0,0
0:3:38.288,422.634,53.8136,0,0.000885,0,0
0:3:38.682,423.4,53.9101,0,0.000885,0,0
0:3:39.078,424.276,54.0204,0,0.000885,0,0
0:3:39.475,425.157,54.1307,0,0.000885,0,0
0:3:39.877,425.508,54.179,0,0.000885,0,0
0:3:40.270,426.682,54.3238,0,0.000885,0,0
0:3:40.667,426.74,54.3376,0,0.000885,0,0
0:3:41.074,428.266,54.5306,0,0.000885,0,0
0:3:41.477,429.027,54.6272,0,0.000885,0,0
0:3:41.882,430.027,54.7513,0,0.000885,0,0
0:3:42.282,430.552,54.8202,0,0.000885,0,0
0:3:42.679,431.024,54.8823,0,0.000885,0,0
0:3:43.087,431.9,54.9926,0,0.000885,0,0
0:3:43.488,432.839,55.1098,0,0.000885,0,0
0:3:43.882,433.484,55.1925,0,0.000885,0,0
0:3:44.287,434.191,55.2822,0,0.000885,0,0
0:3:44.686,435.245,55.4201,0,0.000885,0,0
0:3:45.078,436.242,55.5442,0,0.000885,0,0
0:3:45.479,436.771,55.6131,0,0.000885,0,0
0:3:45.884,437.474,55.7027,0,0.000885,0,0
0:3:46.287,438.528,55.8337,0,0.000885,0,0
0:3:46.688,439.467,55.9579,0,0.000885,0,0
0:3:47.088,439.938,56.013,0,0.000885,0,0
0:3:47.479,440.289,56.0613,0,0.000885,0,0
0:3:47.877,441.286,56.1854,0,0.000885,0,0
0:3:48.275,442.46,56.3371,0,0.000885,0,0
0:3:48.669,442.576,56.3509,0,0.000885,0,0
0:3:49.075,443.572,56.475,0,0.000885,0,0
0:3:49.488,444.747,56.6266,0,0.000885,0,0
0:3:49.885,445.449,56.7163,0,0.000885,0,0
0:3:50.291,446.214,56.8128,0,0.000885,0,0
0:3:50.685,447.327,56.9576,0,0.000885,0,0
0:3:51.087,447.856,57.0196,0,0.000885,0,0
0:3:51.489,449.261,57.1989,0,0.000885,0,0
0:3:51.888,449.261,57.1989,0,0.000885,0,0
0:3:52.290,449.791,57.2679,0,0.000885,0,0
0:3:52.683,450.378,57.3437,0,0.000885,0,0
0:3:53.076,451.552,57.4954,0,0.000885,0,0
0:3:53.484,452.371,57.5988,0,0.000885,0,0
0:3:53.878,453.016,57.6815,0,0.000885,0,0
0:3:54.273,453.781,57.7781,0,0.000885,0,0
0:3:54.675,454.719,57.8953,0,0.000885,0,0
0:3:55.071,455.596,58.0056,0,0.000885,0,0
0:3:55.470,456.654,58.1435,0,0.000885,0,0
0:3:55.873,457.299,58.2262,0,0.000885,0,0
0:3:56.274,458.176,58.3365,0,0.000885,0,0
0:3:56.676,458.883,58.4262,0,0.000885,0,0
0:3:57.077,459.759,58.5365,0,0.000885,0,0
0:3:57.477,460.115,58.5848,0,0.000885,0,0
0:3:57.871,460.698,58.6606,0,0.000885,0,0
0:3:58.265,462.05,58.833,0,0.000885,0,0
0:3:58.662,462.695,58.9088,0,0.000885,0,0
0:3:59.058,463.34,58.9915,0,0.000885,0,0
0:3:59.451,464.279,59.1156,0,0.000885,0,0
0:3:59.847,465.039,59.2122,0,0.000885,0,0
0:4:0.241,465.978,59.3294,0,0.000885,0,0
0:4:0.639,466.565,59.4052,0,0.000885,0,0
0:4:1.043,467.152,59.4811,0,0.000885,0,0
0:4:1.445,468.091,59.5983,0,0.000885,0,0
0:4:1.844,468.616,59.6672,0,0.000885,0,0
0:4:2.242,469.674,59.7982,0,0.000885,0,0
0:4:2.638,470.729,59.9361,0,0.000885,0,0
0:4:3.031,471.2,59.9982,0,0.000885,0,0
0:4:3.424,471.783,60.0671,0,0.000885,0,0
0:4:3.823,472.842,60.205,0,0.000885,0,0
0:4:4.219,473.602,60.3015,0,0.000885,0,0
0:4:4.612,474.367,60.3981,0,0.000885,0,0
0:4:5.006,474.776,60.4532,0,0.000885,0,0
0:4:5.400,475.831,60.5842,0,0.000885,0,0
0:4:5.796,476.885,60.7221,0,0.000885,0,0
0:4:6.201,477.179,60.7566,0,0.000885,0,0
0:4:6.603,478.001,60.86,0,0.000885,0,0
0:4:7.004,478.998,60.991,0,0.000885,0,0
0:4:7.402,480.052,61.122,0,0.000885,0,0
0:4:7.799,480.991,61.2392,0,0.000885,0,0
0:4:8.193,481.111,61.2599,0,0.000885,0,0
0:4:8.585,482.165,61.3909,0,0.000885,0,0
0:4:8.981,483.219,61.5288,0,0.000885,0,0
0:4:9.378,483.691,61.584,0,0.000885,0,0
0:4:9.781,484.336,61.6667,0,0.000885,0,0
0:4:10.187,485.274,61.7839,0,0.000885,0,0
0:4:10.590,486.329,61.9218,0,0.000885,0,0
0:4:10.990,486.858,61.9908,0,0.000885,0,0
0:4:11.395,487.325,62.0459,0,0.000885,0,0
0:4:11.795,488.148,62.1562,0,0.000885,0,0
0:4:12.196,489.38,62.3079,0,0.000885,0,0
0:4:12.592,490.203,62.4113,0,0.000885,0,0
0:4:12.988,490.203,62.4113,0,0.000885,0,0
0:4:13.385,491.609,62.5906,0,0.000885,0,0
0:4:13.788,492.605,62.7216,0,0.000885,0,0
0:4:14.189,492.721,62.7354,0,0.000885,0,0
0:4:14.589,493.895,62.8871,0,0.000885,0,0
0:4:14.985,495.011,63.025,0,0.000885,0,0
0:4:15.375,495.536,63.0939,0,0.000885,0,0
0:4:15.769,496.359,63.1973,0,0.000885,0,0
0:4:16.170,497.182,63.3008,0,0.000885,0,0
0:4:16.573,497.943,63.3973,0,0.000885,0,0
0:4:16.975,498.824,63.5145,0,0.000885,0,0
0:4:17.374,499.291,63.5697,0,0.000885,0,0
0:4:17.770,500.056,63.6662,0,0.000885,0,0
0:4:18.175,500.932,63.7834,0,0.000885,0,0
0:4:18.582,501.577,63.8661,0,0.000885,0,0
0:4:18.987,502.4,63.9696,0,0.000885,0,0
0:4:19.376,503.574,64.1143,0,0.000885,0,0
0:4:19.774,504.571,64.2453,0,0.000885,0,0
0:4:20.171,505.1,64.3143,0,0.000885,0,0
0:4:20.576,505.976,64.4246,0,0.000885,0,0
0:4:20.979,506.506,64.4936,0,0.000885,0,0
0:4:21.381,507.56,64.6246,0,0.000885,0,0
0:4:21.782,507.974,64.6797,0,0.000885,0,0
0:4:22.182,508.676,64.7693,0,0.000885,0,0
0:4:22.575,509.437,64.8659,0,0.000885,0,0
0:4:22.969,509.909,64.921,0,0.000885,0,0
0:4:23.375,511.199,65.0865,0,0.000885,0,0
0:4:23.772,512.195,65.2175,0,0.000885,0,0
0:4:24.168,512.311,65.2313,0,0.000885,0,0
0:4:24.569,513.369,65.3623,0,0.000885,0,0
0:4:24.973,514.246,65.4726,0,0.000885,0,0
0:4:25.380,514.833,65.5485,0,0.000885,0,0
0:4:25.787,515.771,65.6726,0,0.000885,0,0
0:4:26.190,516.243,65.7277,0,0.000885,0,0
0:4:26.593,517.884,65.9415,0,0.000885,0,0
0:4:26.992,518.351,65.9966,0,0.000885,0,0
0:4:27.394,518.938,66.0725,0,0.000885,0,0
0:4:27.789,519.877,66.1897,0,0.000885,0,0
0:4:28.181,521.225,66.362,0,0.000885,0,0
0:4:28.583,521.345,66.3827,0,0.000885,0,0
0:4:28.980,522.457,66.5206,0,0.000885,0,0
0:4:29.377,522.635,66.5413,0,0.000885,0,0
0:4:29.783,523.809,66.693,0,0.000885,0,0
0:4:30.176,524.334,66.7619,0,0.000885,0,0
0:4:30.578,525.099,66.8585,0,0.000885,0,0
0:4:30.979,525.976,66.9688,0,0.000885,0,0
0:4:31.383,526.683,67.0584,0,0.000885,0,0
0:4:31.787,527.973,67.2239,0,0.000885,0,0
0:4:32.184,528.088,67.2377,0,0.000885,0,0
0:4:32.591,529.205,67.3825,0,0.000885,0,0
0:4:32.989,529.966,67.479,0,0.000885,0,0
0:4:33.384,530.788,67.5824,0,0.000885,0,0
0:4:33.789,531.665,67.6927,0,0.000885,0,0
0:4:34.191,532.723,67.8306,0,0.000885,0,0
0:4:34.589,533.604,67.9409,0,0.000885,0,0
0:4:34.983,534.013,67.9892,0,0.000885,0,0
0:4:35.379,534.601,68.065,0,0.000885,0,0
0:4:35.774,535.188,68.1409,0,0.000885,0,0
0:4:36.177,536.358,68.2926,0,0.000885,0,0
0:4:36.580,537.354,68.4167,0,0.000885,0,0
0:4:36.979,538.119,68.5132,0,0.000885,0,0
0:4:37.381,538.706,68.589,0,0.000885,0,0
0:4:37.784,539.467,68.6856,0,0.000885,0,0
0:4:38.177,540.228,68.7821,0,0.000885,0,0
0:4:38.574,540.757,68.851,0,0.000885,0,0
0:4:38.972,541.753,68.9752,0,0.000885,0,0
0:4:39.364,542.225,69.0372,0,0.000885,0,0
0:4:39.759,543.515,69.2027,0,0.000885,0,0
0:4:40.154,543.573,69.2096,0,0.000885,0,0
0:4:40.551,544.747,69.3613,0,0.000885,0,0
0:4:40.945,546.037,69.5267,0,0.000885,0,0
0:4:41.349,546.273,69.5543,0,0.000885,0,0
0:4:41.751,546.855,69.6302,0,0.000885,0,0
0:4:42.152,547.972,69.768,0,0.000885,0,0
0:4:42.554,548.968,69.899,0,0.000885,0,0
0:4:42.948,549.556,69.9749,0,0.000885,0,0
0:4:43.342,550.374,70.0783,0,0.000885,0,0
0:4:43.736,551.668,70.2438,0,0.000885,0,0
0:4:44.133,551.9,70.2714,0,0.000885,0,0
0:4:44.530,552.607,70.361,0,0.000885,0,0
0:4:44.924,553.897,70.5265,0,0.000885,0,0
0:4:45.316,554.128,70.5541,0,0.000885,0,0
0:4:45.718,554.6,70.6161,0,0.000885,0,0
0:4:46.123,555.832,70.7678,0,0.000885,0,0
0:4:46.525,556.593,70.8643,0,0.000885,0,0
0:4:46.925,557.473,70.9815,0,0.000885,0,0
0:4:47.320,558.354,71.0918,0,0.000885,0,0
0:4:47.718,559.173,71.1953,0,0.000885,0,0
0:4:48.112,559.875,71.2849,0,0.000885,0,0
0:4:48.506,560.231,71.3332,0,0.000885,0,0
0:4:48.899,561.459,71.4848,0,0.000885,0,0
0:4:49.296,561.873,71.54,0,0.000885,0,0
0:4:49.695,563.163,71.7055,0,0.000885,0,0
0:4:50.097,563.692,71.7744,0,0.000885,0,0
0:4:50.491,564.217,71.8365,0,0.000885,0,0
0:4:50.894,565.155,71.9606,0,0.000885,0,0
0:4:51.297,565.8,72.0433,0,0.000885,0,0
0:4:51.698,566.975,72.1881,0,0.000885,0,0
0:4:52.095,567.913,72.3122,0,0.000885,0,0
0:4:52.489,568.501,72.3812,0,0.000885,0,0
0:4:52.885,568.91,72.4363,0,0.000885,0,0
0:4:53.293,569.964,72.5673,0,0.000885,0,0
0:4:53.697,570.671,72.657,0,0.000885,0,0
0:4:54.091,571.725,72.7948,0,0.000885,0,0
0:4:54.494,571.841,72.8086,0,0.000885,0,0
0:4:54.893,573.309,72.9948,0,0.000885,0,0
0:4:55.285,573.545,73.0224,0,0.000885,0,0
0:4:55.687,574.599,73.1603,0,0.000885,0,0
0:4:56.091,575.422,73.2637,0,0.000885,0,0
0:4:56.496,576.24,73.3671,0,0.000885,0,0
0:4:56.896,576.885,73.4498,0,0.000885,0,0
0:4:57.297,577.766,73.5602,0,0.000885,0,0
0:4:57.687,578.411,73.6429,0,0.000885,0,0
0:4:58.083,579.35,73.767,0,0.000885,0,0
0:4:58.481,580.23,73.8773,0,0.000885,0,0
0:4:58.875,581.049,73.9807,0,0.000885,0,0
0:4:59.268,581.814,74.0773,0,0.000885,0,0
0:4:59.672,582.695,74.1876,0,0.000885,0,0
0:5:0.070,583.513,74.2979,0,0.000885,0,0
0:5:0.464,584.51,74.422,0,0.000885,0,0
0:5:0.867,584.861,74.4703,0,0.000885,0,0
0:5:1.269,585.448,74.5392,0,0.000885,0,0
0:5:1.670,586.213,74.6357,0,0.000885,0,0
0:5:2.070,586.916,74.7254,0,0.000885,0,0
0:5:2.465,587.797,74.8426,0,0.000885,0,0
0:5:2.859,588.442,74.9253,0,0.000885,0,0
0:5:3.256,589.616,75.0701,0,0.000885,0,0
0:5:3.655,590.025,75.1253,0,0.000885,0,0
0:5:4.052,590.964,75.2425,0,0.000885,0,0
0:5:4.449,591.845,75.3528,0,0.000885,0,0
0:5:4.844,592.49,75.4355,0,0.000885,0,0
0:5:5.243,593.606,75.5803,0,0.000885,0,0
0:5:5.642,594.136,75.6493,0,0.000885,0,0
0:5:6.048,595.31,75.7941,0,0.000885,0,0
0:5:6.452,595.483,75.8216,0,0.000885,0,0
0:5:6.855,596.658,75.9664,0,0.000885,0,0
0:5:7.256,597.361,76.0561,0,0.000885,0,0
0:5:7.654,598.126,76.1526,0,0.000885,0,0
0:5:8.049,599.122,76.2836,0,0.000885,0,0
0:5:8.446,599.651,76.3525,0,0.000885,0,0
0:5:8.844,600.474,76.456,0,0.000885,0,0
0:5:9.243,601.529,76.587,0,0.000885,0,0
0:5:9.639,601.942,76.6421,0,0.000885,0,0
0:5:10.032,602.761,76.7455,0,0.000885,0,0
0:5:10.431,603.762,76.8765,0,0.000885,0,0
0:5:10.833,604.464,76.9662,0,0.000885,0,0
0:5:11.239,605.523,77.0972,0,0.000885,0,0
0:5:11.643,606.048,77.1661,0,0.000885,0,0
0:5:12.045,606.462,77.2144,0,0.000885,0,0
0:5:12.445,607.285,77.3247,0,0.000885,0,0
0:5:12.843,607.809,77.3868,0,0.000885,0,0
0:5:13.241,608.984,77.5384,0,0.000885,0,0
0:5:13.635,610.216,77.697,0,0.000885,0,0
0:5:14.033,610.745,77.766,0,0.000885,0,0
0:5:14.432,611.626,77.8763,0,0.000885,0,0
0:5:14.829,612.098,77.9314,0,0.000885,0,0
0:5:15.224,612.858,78.0349,0,0.000885,0,0
0:5:15.627,614.033,78.1797,0,0.000885,0,0
0:5:16.032,614.562,78.2486,0,0.000885,0,0
0:5:16.435,615.207,78.3313,0,0.000885,0,0
0:5:16.839,615.972,78.4279,0,0.000885,0,0
0:5:17.233,617.026,78.5589,0,0.000885,0,0
0:5:17.631,617.435,78.614,0,0.000885,0,0
0:5:18.031,618.61,78.7657,0,0.000885,0,0
0:5:18.425,619.317,78.8553,0,0.000885,0,0
0:5:18.819,620.02,78.945,0,0.000885,0,0
0:5:19.218,621.136,79.0829,0,0.000885,0,0
0:5:19.615,621.839,79.1725,0,0.000885,0,0
0:5:20.013,622.426,79.2483,0,0.000885,0,0
0:5:20.408,623.601,79.4,0,0.000885,0,0
0:5:20.813,624.246,79.4828,0,0.000885,0,0
0:5:21.217,624.775,79.5517,0,0.000885,0,0
0:5:21.618,625.598,79.6551,0,0.000885,0,0
0:5:22.021,626.065,79.7103,0,0.000885,0,0
0:5:22.416,626.83,79.8137,0,0.000885,0,0
0:5:22.814,628.178,79.9792,0,0.000885,0,0
0:5:23.212,628.649,80.0412,0,0.000885,0,0
0:5:23.610,629.179,80.1102,0,0.000885,0,0
0:5:24.004,630.059,80.2205,0,0.000885,0,0
0:5:24.401,630.878,80.3239,0,0.000885,0,0
0:5:24.800,631.465,80.3998,0,0.000885,0,0
0:5:25.199,632.408,80.517,0,0.000885,0,0
0:5:25.594,633.347,80.6411,0,0.000885,0,0
0:5:25.999,633.992,80.7238,0,0.000885,0,0
0:5:26.404,634.752,80.8203,0,0.000885,0,0
0:5:26.806,635.691,80.9376,0,0.000885,0,0
0:5:27.208,636.634,81.0617,0,0.000885,0,0
0:5:27.603,637.279,81.1375,0,0.000885,0,0
0:5:28.000,637.688,81.1927,0,0.000885,0,0
0:5:28.398,639.098,81.3719,0,0.000885,0,0
0:5:28.796,640.152,81.5098,0,0.000885,0,0
0:5:29.193,640.624,81.565,0,0.000885,0,0
0:5:29.585,641.385,81.6615,0,0.000885,0,0
0:5:29.986,642.265,81.7787,0,0.000885,0,0
0:5:30.385,642.915,81.8615,0,0.000885,0,0
0:5:30.790,643.382,81.9166,0,0.000885,0,0
0:5:31.194,644.734,82.089,0,0.000885,0,0
0:5:31.597,645.615,82.1993,0,0.000885,0,0
0:5:31.997,646.318,82.2889,0,0.000885,0,0
0:5:32.394,646.611,82.3303,0,0.000885,0,0
0:5:32.788,647.728,82.4682,0,0.000885,0,0
0:5:33.183,647.901,82.4958,0,0.000885,0,0
0:5:33.590,649.196,82.6612,0,0.000885,0,0
0:5:34.001,649.427,82.6888,0,0.000885,0,0
0:5:34.396,650.428,82.8129,0,0.000885,0,0
0:5:34.789,651.602,82.9646,0,0.000885,0,0
0:5:35.188,652.305,83.0542,0,0.000885,0,0
0:5:35.588,652.892,83.1301,0,0.000885,0,0
0:5:35.996,653.831,83.2473,0,0.000885,0,0
0:5:36.400,654.302,83.3094,0,0.000885,0,0
0:5:36.802,655.356,83.4404,0,0.000885,0,0
0:5:37.201,655.944,83.5162,0,0.000885,0,0
0:5:37.602,656.646,83.6058,0,0.000885,0,0
0:5:37.996,657.821,83.7575,0,0.000885,0,0
0:5:38.402,658.644,83.8609,0,0.000885,0,0
0:5:38.797,659.289,83.9437,0,0.000885,0,0
0:5:39.197,660.521,84.1022,0,0.000885,0,0
0:5:39.596,661.286,84.1988,0,0.000885,0,0
0:5:39.987,661.522,84.2264,0,0.000885,0,0
0:5:40.383,662.051,84.2953,0,0.000885,0,0
0:5:40.787,663.457,84.4746,0,0.000885,0,0
0:5:41.195,664.337,84.5849,0,0.000885,0,0
0:5:41.597,664.631,84.6263,0,0.000885,0,0
0:5:41.998,665.454,84.7297,0,0.000885,0,0
0:5:42.395,666.099,84.8124,0,0.000885,0,0
0:5:42.795,667.567,84.9986,0,0.000885,0,0
0:5:43.189,667.976,85.0468,0,0.000885,0,0
0:5:43.596,668.857,85.164,0,0.000885,0,0
0:5:44.002,669.328,85.2192,0,0.000885,0,0
0:5:44.399,670.089,85.3157,0,0.000885,0,0
0:5:44.798,670.97,85.4329,0,0.000885,0,0
0:5:45.195,671.677,85.5226,0,0.000885,0,0
0:5:45.587,672.495,85.626,0,0.000885,0,0
0:5:45.990,673.203,85.7156,0,0.000885,0,0
0:5:46.397,674.257,85.8466,0,0.000885,0,0
0:5:46.800,675.08,85.9569,0,0.000885,0,0
0:5:47.202,675.431,85.9983,0,0.000885,0,0
0:5:47.597,676.139,86.0879,0,0.000885,0,0
0:5:47.998,677.429,86.2534,0,0.000885,0,0
0:5:48.396,678.251,86.3568,0,0.000885,0,0
0:5:48.789,678.896,86.4396,0,0.000885,0,0
0:5:49.185,679.835,86.5568,0,0.000885,0,0
0:5:49.582,680.596,86.6533,0,0.000885,0,0
0:5:49.982,681.183,86.7292,0,0.000885,0,0
0:5:50.379,682.064,86.8464,0,0.000885,0,0
0:5:50.784,682.887,86.9498,0,0.000885,0,0
0:5:51.187,683.652,87.0463,0,0.000885,0,0
0:5:51.589,684.297,87.129,0,0.000885,0,0
0:5:51.992,684.764,87.1842,0,0.000885,0,0
0:5:52.389,685.644,87.3014,0,0.000885,0,0
0:5:52.793,686.289,87.3842,0,0.000885,0,0
0:5:53.190,687.877,87.5841,0,0.000885,0,0
0:5:53.590,688.465,87.6599,0,0.000885,0,0
0:5:53.987,689.345,87.7703,0,0.000885,0,0
0:5:54.382,690.226,87.8806,0,0.000885,0,0
0:5:54.787,690.987,87.9771,0,0.000885,0,0
0:5:55.187,691.4,88.0323,0,0.000885,0,0
0:5:55.586,692.397,88.1564,0,0.000885,0,0
0:5:55.992,692.984,88.2322,0,0.000885,0,0
0:5:56.397,693.571,88.3081,0,0.000885,0,0
0:5:56.800,694.51,88.4253,0,0.000885,0,0
0:5:57.200,695.506,88.5563,0,0.000885,0,0
0:5:57.599,696.213,88.6459,0,0.000885,0,0
0:5:57.991,696.801,88.7217,0,0.000885,0,0
0:5:58.388,697.446,88.8045,0,0.000885,0,0
0:5:58.797,698.442,88.9286,0,0.000885,0,0
0:5:59.205,699.323,89.0389,0,0.000885,0,0
0:5:59.602,700.261,89.163,0,0.000885,0,0
0:5:59.998,700.906,89.2457,0,0.000885,0,0
0:6:0.392,701.787,89.3561,0,0.000885,0,0
0:6:0.797,702.316,89.425,0,0.000885,0,0
0:6:1.202,703.255,89.5422,0,0.000885,0,0
0:6:1.605,704.256,89.6663,0,0.000885,0,0
0:6:2.008,704.901,89.7491,0,0.000885,0,0
0:6:2.404,705.782,89.8594,0,0.000885,0,0
0:6:2.805,706.369,89.9352,0,0.000885,0,0
0:6:3.201,706.778,89.9904,0,0.000885,0,0
0:6:3.593,708.01,90.149,0,0.000885,0,0
0:6:3.991,708.775,90.2455,0,0.000885,0,0
0:6:4.389,709.714,90.3627,0,0.000885,0,0
0:6:4.797,710.181,90.4247,0,0.000885,0,0
0:6:5.192,711.239,90.5557,0,0.000885,0,0
0:6:5.598,712.414,90.7074,0,0.000885,0,0
0:6:6.003,712.587,90.7281,0,0.000885,0,0
0:6:6.405,713.762,90.8798,0,0.000885,0,0
0:6:6.810,714.233,90.9418,0,0.000885,0,0
0:6:7.205,714.82,91.0108,0,0.000885,0,0
0:6:7.601,715.937,91.1556,0,0.000885,0,0
0:6:8.001,716.23,91.1901,0,0.000885,0,0
0:6:8.399,717.636,91.3693,0,0.000885,0,0
0:6:8.791,718.281,91.4521,0,0.000885,0,0
0:6:9.187,719.224,91.5762,0,0.000885,0,0
0:6:9.586,719.869,91.6589,0,0.000885,0,0
0:6:9.985,720.808,91.7761,0,0.000885,0,0
0:6:10.380,720.923,91.7899,0,0.000885,0,0
0:6:10.786,722.333,91.9692,0,0.000885,0,0
0:6:11.188,722.627,92.0105,0,0.000885,0,0
0:6:11.592,723.681,92.1415,0,0.000885,0,0
0:6:11.994,724.446,92.2381,0,0.000885,0,0
0:6:12.390,725.091,92.3208,0,0.000885,0,0
0:6:12.787,725.972,92.4311,0,0.000885,0,0
0:6:13.185,726.968,92.5621,0,0.000885,0,0
0:6:13.584,727.556,92.638,0,0.000885,0,0
0:6:13.987,728.494,92.7552,0,0.000885,0,0
0:6:14.405,729.144,92.8379,0,0.000885,0,0
0:6:14.802,729.789,92.9206,0,0.000885,0,0
0:6:15.201,730.491,93.0103,0,0.000885,0,0
0:6:15.599,731.492,93.1344,0,0.000885,0,0
0:6:16.004,732.253,93.2309,0,0.000885,0,0
0:6:16.409,733.191,93.355,0,0.000885,0,0
0:6:16.812,733.779,93.4309,0,0.000885,0,0
0:6:17.215,735.131,93.5963,0,0.000885,0,0
0:6:17.608,735.304,93.6239,0,0.000885,0,0
0:6:18.004,736.243,93.7411,0,0.000885,0,0
0:6:18.401,737.302,93.879,0,0.000885,0,0
0:6:18.800,738.004,93.9686,0,0.000885,0,0
0:6:19.195,738.649,94.0514,0,0.000885,0,0
0:6:19.588,739.357,94.141,0,0.000885,0,0
0:6:19.995,739.944,94.21,0,0.000885,0,0
0:6:20.404,741.118,94.3616,0,0.000885,0,0
0:6:20.802,741.412,94.3961,0,0.000885,0,0
0:6:21.207,742.524,94.5409,0,0.000885,0,0
0:6:21.612,743.053,94.6099,0,0.000885,0,0
0:6:22.015,744.17,94.7478,0,0.000885,0,0
0:6:22.416,744.405,94.7822,0,0.000885,0,0
0:6:22.814,745.46,94.9132,0,0.000885,0,0
0:6:23.210,746.283,95.0167,0,0.000885,0,0
0:6:23.606,746.985,95.1063,0,0.000885,0,0
0:6:24.005,748.395,95.2855,0,0.000885,0,0
0:6:24.403,748.573,95.3131,0,0.000885,0,0
0:6:24.796,749.276,95.4028,0,0.000885,0,0
0:6:25.191,750.744,95.5889,0,0.000885,0,0
0:6:25.595,751.389,95.6717,0,0.000885,0,0
0:6:26.003,752.092,95.7613,0,0.000885,0,0
0:6:26.406,752.973,95.8716,0,0.000885,0,0
0:6:26.807,753.502,95.9405,0,0.000885,0,0
0:6:27.203,754.498,96.0647,0,0.000885,0,0
0:6:27.603,755.379,96.175,0,0.000885,0,0
0:6:28.000,756.38,96.306,0,0.000885,0,0
0:6:28.406,756.496,96.3198,0,0.000885,0,0
0:6:28.800,757.261,96.4163,0,0.000885,0,0
0:6:29.206,756.674,96.3404,0,0.000885,0,0
0:6:29.606,751.625,95.6992,0,0.000885,0,0
0:6:30.002,751.741,95.713,0,0.000885,0,0
0:6:30.403,750.918,95.6096,0,0.000885,0,0
0:6:30.807,752.679,95.8371,0,0.000885,0,0
0:6:31.212,753.853,95.9819,0,0.000885,0,0
0:6:31.614,753.208,95.8992,0,0.000885,0,0
0:6:32.017,751.389,95.6717,0,0.000885,0,0
0:6:32.410,747.515,95.1752,0,0.000885,0,0
0:6:32.808,740.117,94.2375,0,0.000885,0,0
0:6:33.126,735.362,93.6308,0,0.000885,0,0