File: DataFile2021-07-15_065740.csv
Test ID:,Date Tested:,Time:,Test Type:,Diameter Avg. (mm):,Cyl. Corr. Factor:,Height (mm):,Age (days):,Weight (kN):,Break Type:,Ramp Rate (MPa/s):,Load at Break (kN):,Stress at Break (MPa):
12,7/15/2021,06:57,Cylinder,150,1,300,0,3.6,3,0.25,2014.86,114.02
Sample Time,Load (kN),Stress (MPa),Long. Strain,Trans. Strain,Chan1 Deflection (mm),Chan2 Deflection (mm)
0:0:24.210,5.7471,0.324054,0,0.000885,0,0
0:0:24.603,9.55923,0.537791,0,0.000885,0,0
0:0:25.012,11.552,0.655002,0,0.000885,0,0
0:0:25.417,11.552,0.655002,0,0.000885,0,0
0:0:25.818,12.6685,0.717055,0,0.000885,0,0
0:0:26.215,13.785,0.779108,0,0.000885,0,0
0:0:26.611,15.3063,0.868739,0,0.000885,0,0
0:0:27.005,16.8321,0.951477,0,0.000885,0,0
0:0:27.405,18.8871,1.06869,0,0.000885,0,0
0:0:27.817,20.5285,1.15832,0,0.000885,0,0
0:0:28.213,22.1699,1.25485,0,0.000885,0,0
0:0:28.607,23.8692,1.35137,0,0.000885,0,0
0:0:29.006,25.8664,1.46169,0,0.000885,0,0
0:0:29.405,26.805,1.51685,0,0.000885,0,0
0:0:29.816,28.9134,1.63406,0,0.000885,0,0
0:0:30.221,30.9685,1.75127,0,0.000885,0,0
0:0:30.626,33.1393,1.87537,0,0.000885,0,0
0:0:31.029,34.8385,1.9719,0,0.000885,0,0
0:0:31.433,36.9514,2.08911,0,0.000885,0,0
0:0:31.832,38.8864,2.19943,0,0.000885,0,0
0:0:32.228,40.7012,2.30285,0,0.000885,0,0
0:0:32.627,42.5784,2.40627,0,0.000885,0,0
0:0:33.028,44.5178,2.51659,0,0.000885,0,0
0:0:33.426,46.3905,2.6269,0,0.000885,0,0
0:0:33.821,48.4456,2.74411,0,0.000885,0,0
0:0:34.220,49.8512,2.81996,0,0.000885,0,0
0:0:34.624,51.6127,2.92338,0,0.000885,0,0
0:0:35.031,53.1385,3.00611,0,0.000885,0,0
0:0:35.433,55.367,3.13022,0,0.000885,0,0
0:0:35.837,57.302,3.24054,0,0.000885,0,0
0:0:36.235,58.7076,3.32327,0,0.000885,0,0
0:0:36.635,60.0599,3.39912,0,0.000885,0,0
0:0:37.033,62.7555,3.5508,0,0.000885,0,0
0:0:37.431,64.1656,3.63354,0,0.000885,0,0
0:0:37.827,66.2741,3.75075,0,0.000885,0,0
0:0:38.226,68.0934,3.85417,0,0.000885,0,0
0:0:38.626,69.7926,3.9507,0,0.000885,0,0
0:0:39.022,71.4963,4.04722,0,0.000885,0,0
0:0:39.418,72.3147,4.09549,0,0.000885,0,0
0:0:39.823,74.3698,4.2058,0,0.000885,0,0
0:0:40.228,76.0112,4.30233,0,0.000885,0,0
0:0:40.632,77.6526,4.39196,0,0.000885,0,0
0:0:41.034,79.294,4.48849,0,0.000885,0,0
0:0:41.431,80.9398,4.57812,0,0.000885,0,0
0:0:41.831,83.3997,4.72291,0,0.000885,0,0
0:0:42.230,84.8676,4.80565,0,0.000885,0,0
0:0:42.628,86.6869,4.90217,0,0.000885,0,0
0:0:43.024,88.5641,5.01249,0,0.000885,0,0
0:0:43.422,90.8505,5.14349,0,0.000885,0,0
0:0:43.822,92.5497,5.24002,0,0.000885,0,0
0:0:44.220,94.1333,5.32965,0,0.000885,0,0
0:0:44.616,95.659,5.41238,0,0.000885,0,0
0:0:45.022,97.4783,5.51581,0,0.000885,0,0
0:0:45.428,99.2932,5.61923,0,0.000885,0,0
0:0:45.831,100.41,5.68128,0,0.000885,0,0
0:0:46.234,102.816,5.81918,0,0.000885,0,0
0:0:46.631,104.222,5.89502,0,0.000885,0,0
0:0:47.029,106.393,6.01912,0,0.000885,0,0
0:0:47.430,107.798,6.10186,0,0.000885,0,0
0:0:47.828,110.263,6.23976,0,0.000885,0,0
0:0:48.224,111.904,6.32939,0,0.000885,0,0
0:0:48.620,113.078,6.39833,0,0.000885,0,0
0:0:49.022,114.898,6.50176,0,0.000885,0,0
0:0:49.422,116.89,6.61207,0,0.000885,0,0
0:0:49.828,118.71,6.71549,0,0.000885,0,0
0:0:50.233,120.293,6.80513,0,0.000885,0,0
0:0:50.635,121.935,6.90165,0,0.000885,0,0
0:0:51.036,123.87,7.01197,0,0.000885,0,0
0:0:51.436,125.453,7.1016,0,0.000885,0,0
0:0:51.832,127.682,7.22571,0,0.000885,0,0
0:0:52.229,128.914,7.29465,0,0.000885,0,0
0:0:52.629,130.555,7.39118,0,0.000885,0,0
0:0:53.030,132.668,7.50839,0,0.000885,0,0
0:0:53.428,134.488,7.61181,0,0.000885,0,0
0:0:53.823,135.951,7.69455,0,0.000885,0,0
0:0:54.221,138.006,7.81176,0,0.000885,0,0
0:0:54.624,139.354,7.8876,0,0.000885,0,0
0:0:55.030,141.405,8.00481,0,0.000885,0,0
0:0:55.435,143.46,8.11513,0,0.000885,0,0
0:0:55.838,144.985,8.20476,0,0.000885,0,0
0:0:56.238,147.156,8.32887,0,0.000885,0,0
0:0:56.638,148.913,8.42539,0,0.000885,0,0
0:0:57.034,151.084,8.5495,0,0.000885,0,0
0:0:57.431,153.077,8.65982,0,0.000885,0,0
0:0:57.830,154.954,8.77013,0,0.000885,0,0
0:0:58.228,156.07,8.83218,0,0.000885,0,0
0:0:58.627,157.476,8.90803,0,0.000885,0,0
0:0:59.024,159.353,9.01834,0,0.000885,0,0
0:0:59.420,160.937,9.10797,0,0.000885,0,0
0:0:59.823,162.053,9.17003,0,0.000885,0,0
0:1:0.230,164.397,9.30103,0,0.000885,0,0
0:1:0.633,166.039,9.39755,0,0.000885,0,0
0:1:1.036,167.622,9.48719,0,0.000885,0,0
0:1:1.435,169.677,9.6044,0,0.000885,0,0
0:1:1.834,171.199,9.68713,0,0.000885,0,0
0:1:2.232,173.605,9.82503,0,0.000885,0,0
0:1:2.631,175.189,9.91466,0,0.000885,0,0
0:1:3.027,177.008,10.0181,0,0.000885,0,0
0:1:3.426,179.059,10.1353,0,0.000885,0,0
0:1:3.825,180.7,10.2249,0,0.000885,0,0
0:1:4.222,182.697,10.3352,0,0.000885,0,0
0:1:4.619,184.397,10.4318,0,0.000885,0,0
0:1:5.023,185.98,10.5214,0,0.000885,0,0
0:1:5.428,187.857,10.6317,0,0.000885,0,0
0:1:5.833,189.734,10.7351,0,0.000885,0,0
0:1:6.236,191.785,10.8523,0,0.000885,0,0
0:1:6.631,193.547,10.9558,0,0.000885,0,0
0:1:7.030,194.952,11.0316,0,0.000885,0,0
0:1:7.427,196.184,11.1006,0,0.000885,0,0
0:1:7.821,198.182,11.2178,0,0.000885,0,0
0:1:8.215,199.823,11.3074,0,0.000885,0,0
0:1:8.619,201.642,11.4108,0,0.000885,0,0
0:1:9.017,203.284,11.5005,0,0.000885,0,0
0:1:9.412,205.392,11.6246,0,0.000885,0,0
0:1:9.817,207.154,11.7211,0,0.000885,0,0
0:1:10.218,208.795,11.8176,0,0.000885,0,0
0:1:10.618,210.557,11.9141,0,0.000885,0,0
0:1:11.018,212.434,12.0245,0,0.000885,0,0
0:1:11.411,214.369,12.1279,0,0.000885,0,0
0:1:11.816,215.659,12.2037,0,0.000885,0,0
0:1:12.209,217.594,12.314,0,0.000885,0,0
0:1:12.608,219.707,12.4312,0,0.000885,0,0
0:1:13.015,221.642,12.5416,0,0.000885,0,0
0:1:13.406,223.341,12.6381,0,0.000885,0,0
0:1:13.821,224.631,12.7139,0,0.000885,0,0
0:1:14.218,226.566,12.8242,0,0.000885,0,0
0:1:14.612,228.563,12.9346,0,0.000885,0,0
0:1:15.017,229.969,13.0104,0,0.000885,0,0
0:1:15.419,231.494,13.1,0,0.000885,0,0
0:1:15.819,233.487,13.2104,0,0.000885,0,0
0:1:16.220,234.541,13.2724,0,0.000885,0,0
0:1:16.612,236.481,13.3827,0,0.000885,0,0
0:1:17.019,238.474,13.493,0,0.000885,0,0
0:1:17.422,240.409,13.6034,0,0.000885,0,0
0:1:17.820,242.401,13.7206,0,0.000885,0,0
0:1:18.216,244.399,13.8309,0,0.000885,0,0
0:1:18.607,246.156,13.9274,0,0.000885,0,0
0:1:19.010,247.33,13.9964,0,0.000885,0,0
0:1:19.407,248.914,14.086,0,0.000885,0,0
0:1:19.804,251.258,14.217,0,0.000885,0,0
0:1:20.207,253.193,14.3273,0,0.000885,0,0
0:1:20.609,254.483,14.4031,0,0.000885,0,0
0:1:21.009,256.418,14.5135,0,0.000885,0,0
0:1:21.409,257.943,14.5962,0,0.000885,0,0
0:1:21.806,259.878,14.7065,0,0.000885,0,0
0:1:22.201,261.756,14.8099,0,0.000885,0,0
0:1:22.611,263.691,14.9203,0,0.000885,0,0
0:1:23.010,264.985,14.9961,0,0.000885,0,0
0:1:23.407,267.214,15.1202,0,0.000885,0,0
0:1:23.802,268.971,15.2236,0,0.000885,0,0
0:1:24.194,269.909,15.2719,0,0.000885,0,0
0:1:24.597,271.786,15.3822,0,0.000885,0,0
0:1:25.001,273.37,15.4718,0,0.000885,0,0
0:1:25.403,275.247,15.5753,0,0.000885,0,0
0:1:25.804,276.715,15.658,0,0.000885,0,0
0:1:26.206,278.65,15.7683,0,0.000885,0,0
0:1:26.613,280.758,15.8855,0,0.000885,0,0
0:1:27.010,282.871,16.0096,0,0.000885,0,0
0:1:27.412,284.513,16.0993,0,0.000885,0,0
0:1:27.817,286.919,16.2372,0,0.000885,0,0
0:1:28.210,288.739,16.3406,0,0.000885,0,0
0:1:28.609,290.26,16.4233,0,0.000885,0,0
0:1:29.006,291.786,16.5129,0,0.000885,0,0
0:1:29.409,293.018,16.5819,0,0.000885,0,0
0:1:29.811,295.188,16.706,0,0.000885,0,0
0:1:30.212,296.594,16.7818,0,0.000885,0,0
0:1:30.613,298.823,16.9128,0,0.000885,0,0
0:1:31.013,300.406,17.0025,0,0.000885,0,0
0:1:31.419,302.052,17.0921,0,0.000885,0,0
0:1:31.812,304.045,17.2024,0,0.000885,0,0
0:1:32.210,305.922,17.3127,0,0.000885,0,0
0:1:32.613,307.857,17.4231,0,0.000885,0,0
0:1:33.019,309.383,17.5058,0,0.000885,0,0
0:1:33.411,311.318,17.6161,0,0.000885,0,0
0:1:33.809,312.781,17.6988,0,0.000885,0,0
0:1:34.205,314.071,17.7747,0,0.000885,0,0
0:1:34.609,316.126,17.8919,0,0.000885,0,0
0:1:35.010,318.119,18.0022,0,0.000885,0,0
0:1:35.414,319.529,18.0849,0,0.000885,0,0
0:1:35.814,321.758,18.2091,0,0.000885,0,0
0:1:36.212,323.457,18.3056,0,0.000885,0,0
0:1:36.609,324.925,18.3883,0,0.000885,0,0
0:1:37.003,326.74,18.4917,0,0.000885,0,0
0:1:37.407,328.737,18.6021,0,0.000885,0,0
0:1:37.803,330.614,18.7055,0,0.000885,0,0
0:1:38.200,332.078,18.7951,0,0.000885,0,0
0:1:38.604,333.781,18.8847,0,0.000885,0,0
0:1:39.007,336.125,19.0226,0,0.000885,0,0
0:1:39.414,337.593,19.1054,0,0.000885,0,0
0:1:39.812,339.35,19.2019,0,0.000885,0,0
0:1:40.218,341.348,19.3191,0,0.000885,0,0
0:1:40.620,343.283,19.4225,0,0.000885,0,0
0:1:41.020,345.218,19.5328,0,0.000885,0,0
0:1:41.427,346.508,19.6087,0,0.000885,0,0
0:1:41.823,348.207,19.7052,0,0.000885,0,0
0:1:42.215,349.848,19.7948,0,0.000885,0,0
0:1:42.621,352.019,19.919,0,0.000885,0,0
0:1:43.013,353.896,20.0293,0,0.000885,0,0
0:1:43.410,354.955,20.0844,0,0.000885,0,0
0:1:43.808,356.712,20.1878,0,0.000885,0,0
0:1:44.222,358.589,20.2913,0,0.000885,0,0
0:1:44.614,360.524,20.4016,0,0.000885,0,0
0:1:45.019,362.165,20.4912,0,0.000885,0,0
0:1:45.422,364.336,20.6153,0,0.000885,0,0
0:1:45.823,365.51,20.6843,0,0.000885,0,0
0:1:46.223,367.445,20.7946,0,0.000885,0,0
0:1:46.618,369.207,20.8911,0,0.000885,0,0
0:1:47.024,370.848,20.9876,0,0.000885,0,0
0:1:47.421,372.783,21.098,0,0.000885,0,0
0:1:47.816,374.776,21.2083,0,0.000885,0,0
0:1:48.209,376.711,21.3186,0,0.000885,0,0
0:1:48.604,378.237,21.4013,0,0.000885,0,0
0:1:49.010,379.705,21.4841,0,0.000885,0,0
0:1:49.419,381.288,21.5737,0,0.000885,0,0
0:1:49.822,382.93,21.6702,0,0.000885,0,0
0:1:50.224,385.043,21.7874,0,0.000885,0,0
0:1:50.624,387.271,21.9115,0,0.000885,0,0
0:1:51.023,389.264,22.0287,0,0.000885,0,0
0:1:51.420,391.141,22.1322,0,0.000885,0,0
0:1:51.822,393.192,22.2494,0,0.000885,0,0
0:1:52.214,394.544,22.3252,0,0.000885,0,0
0:1:52.622,396.537,22.4424,0,0.000885,0,0
0:1:53.020,398.356,22.539,0,0.000885,0,0
0:1:53.424,399.468,22.6079,0,0.000885,0,0
0:1:53.814,400.816,22.6838,0,0.000885,0,0
0:1:54.221,402.577,22.7803,0,0.000885,0,0
0:1:54.622,404.455,22.8906,0,0.000885,0,0
0:1:55.027,406.332,22.994,0,0.000885,0,0
0:1:55.427,408.325,23.1043,0,0.000885,0,0
0:1:55.827,409.672,23.1802,0,0.000885,0,0
0:1:56.224,411.376,23.2767,0,0.000885,0,0
0:1:56.622,413.311,23.387,0,0.000885,0,0
0:1:57.015,415.362,23.5042,0,0.000885,0,0
0:1:57.409,417.474,23.6214,0,0.000885,0,0
0:1:57.812,418.942,23.7042,0,0.000885,0,0
0:1:58.210,420.232,23.78,0,0.000885,0,0
0:1:58.607,422.167,23.8903,0,0.000885,0,0
0:1:59.023,423.982,23.9938,0,0.000885,0,0
0:1:59.415,425.802,24.0972,0,0.000885,0,0
0:1:59.816,427.737,24.2075,0,0.000885,0,0
0:2:0.222,429.734,24.3178,0,0.000885,0,0
0:2:0.622,431.549,24.4212,0,0.000885,0,0
0:2:1.023,433.252,24.5178,0,0.000885,0,0
0:2:1.414,434.716,24.6005,0,0.000885,0,0
0:2:1.823,437.007,24.7315,0,0.000885,0,0
0:2:2.220,438.061,24.7867,0,0.000885,0,0
0:2:2.613,439.467,24.8694,0,0.000885,0,0
0:2:3.016,441.931,25.0073,0,0.000885,0,0
0:2:3.421,444.044,25.1245,0,0.000885,0,0
0:2:3.817,444.747,25.1659,0,0.000885,0,0
0:2:4.212,446.566,25.2693,0,0.000885,0,0
0:2:4.608,448.737,25.3934,0,0.000885,0,0
0:2:5.010,450.494,25.4899,0,0.000885,0,0
0:2:5.412,452.722,25.6209,0,0.000885,0,0
0:2:5.813,454.542,25.7243,0,0.000885,0,0
0:2:6.212,456.477,25.8347,0,0.000885,0,0
0:2:6.616,457.824,25.9105,0,0.000885,0,0
0:2:7.011,459.879,26.0208,0,0.000885,0,0
0:2:7.409,461.405,26.1104,0,0.000885,0,0
0:2:7.814,463.047,26.2001,0,0.000885,0,0
0:2:8.218,464.51,26.2828,0,0.000885,0,0
0:2:8.611,466.681,26.4069,0,0.000885,0,0
0:2:9.008,468.264,26.4966,0,0.000885,0,0
0:2:9.405,470.141,26.6069,0,0.000885,0,0
0:2:9.811,472.076,26.7172,0,0.000885,0,0
0:2:10.213,473.602,26.7999,0,0.000885,0,0
0:2:10.616,475.244,26.8964,0,0.000885,0,0
0:2:11.016,477.414,27.0137,0,0.000885,0,0
0:2:11.421,479.643,27.1447,0,0.000885,0,0
0:2:11.824,481.111,27.2274,0,0.000885,0,0
0:2:12.215,482.223,27.2894,0,0.000885,0,0
0:2:12.611,483.926,27.386,0,0.000885,0,0
0:2:13.009,485.919,27.4963,0,0.000885,0,0
0:2:13.405,487.619,27.5928,0,0.000885,0,0
0:2:13.807,489.616,27.7031,0,0.000885,0,0
0:2:14.211,491.431,27.8066,0,0.000885,0,0
0:2:14.611,493.192,27.91,0,0.000885,0,0
0:2:15.015,494.424,27.9789,0,0.000885,0,0
0:2:15.417,496.359,28.0892,0,0.000885,0,0
0:2:15.816,498.236,28.1927,0,0.000885,0,0
0:2:16.212,500.171,28.303,0,0.000885,0,0
0:2:16.611,502.049,28.4133,0,0.000885,0,0
0:2:17.004,503.748,28.5029,0,0.000885,0,0
0:2:17.407,505.625,28.6132,0,0.000885,0,0
0:2:17.811,507.444,28.7167,0,0.000885,0,0
0:2:18.208,509.321,28.8201,0,0.000885,0,0
0:2:18.608,510.26,28.8752,0,0.000885,0,0
0:2:19.010,512.431,28.9993,0,0.000885,0,0
0:2:19.413,514.13,29.0959,0,0.000885,0,0
0:2:19.815,516.123,29.2062,0,0.000885,0,0
0:2:20.219,518.236,29.3234,0,0.000885,0,0
0:2:20.622,520.464,29.4544,0,0.000885,0,0
0:2:21.024,521.754,29.5234,0,0.000885,0,0
0:2:21.415,522.986,29.5923,0,0.000885,0,0
0:2:21.824,525.331,29.7302,0,0.000885,0,0
0:2:22.231,527.15,29.8336,0,0.000885,0,0
0:2:22.624,528.146,29.8888,0,0.000885,0,0
0:2:23.015,530.259,30.006,0,0.000885,0,0
0:2:23.412,531.843,30.0956,0,0.000885,0,0
0:2:23.810,533.836,30.2059,0,0.000885,0,0
0:2:24.213,535.068,30.2818,0,0.000885,0,0
0:2:24.607,537.181,30.399,0,0.000885,0,0
0:2:25.009,538.706,30.4817,0,0.000885,0,0
0:2:25.413,540.406,30.5782,0,0.000885,0,0
0:2:25.814,542.518,30.7024,0,0.000885,0,0
0:2:26.213,544.102,30.792,0,0.000885,0,0
0:2:26.606,546.153,30.9092,0,0.000885,0,0
0:2:27.003,548.323,31.0264,0,0.000885,0,0
0:2:27.401,549.907,31.116,0,0.000885,0,0
0:2:27.794,551.668,31.2195,0,0.000885,0,0
0:2:28.188,553.425,31.316,0,0.000885,0,0
0:2:28.582,554.773,31.3918,0,0.000885,0,0
0:2:28.979,556.299,31.4815,0,0.000885,0,0
0:2:29.376,558.176,31.5849,0,0.000885,0,0
0:2:29.780,559.938,31.6883,0,0.000885,0,0
0:2:30.181,561.637,31.7848,0,0.000885,0,0
0:2:30.582,563.163,31.8676,0,0.000885,0,0
0:2:30.983,564.804,31.9641,0,0.000885,0,0
0:2:31.378,566.797,32.0744,0,0.000885,0,0
0:2:31.772,568.501,32.1709,0,0.000885,0,0
0:2:32.167,570.2,32.2675,0,0.000885,0,0
0:2:32.567,572.428,32.3916,0,0.000885,0,0
0:2:32.962,574.363,32.5019,0,0.000885,0,0
0:2:33.356,576.183,32.6053,0,0.000885,0,0
0:2:33.749,577.882,32.7018,0,0.000885,0,0
0:2:34.147,579.817,32.8121,0,0.000885,0,0
0:2:34.545,581.463,32.9018,0,0.000885,0,0
0:2:34.947,583.162,32.9983,0,0.000885,0,0
0:2:35.350,585.039,33.1086,0,0.000885,0,0
0:2:35.751,586.151,33.1707,0,0.000885,0,0
0:2:36.150,587.913,33.2672,0,0.000885,0,0
0:2:36.545,589.732,33.3706,0,0.000885,0,0
0:2:36.941,591.493,33.474,0,0.000885,0,0
0:2:37.338,593.255,33.5706,0,0.000885,0,0
0:2:37.738,594.896,33.6671,0,0.000885,0,0
0:2:38.136,597.129,33.7912,0,0.000885,0,0
0:2:38.531,599.064,33.9015,0,0.000885,0,0
0:2:38.928,600.768,33.998,0,0.000885,0,0
0:2:39.327,602.645,34.1015,0,0.000885,0,0
0:2:39.725,604.286,34.198,0,0.000885,0,0
0:2:40.130,605.639,34.2738,0,0.000885,0,0
0:2:40.533,607.458,34.3773,0,0.000885,0,0
0:2:40.936,609.104,34.4669,0,0.000885,0,0
0:2:41.337,610.745,34.5634,0,0.000885,0,0
0:2:41.734,612.858,34.6806,0,0.000885,0,0
0:2:42.130,614.855,34.7909,0,0.000885,0,0
0:2:42.526,616.968,34.9151,0,0.000885,0,0
0:2:42.927,618.61,35.0047,0,0.000885,0,0
0:2:43.334,620.429,35.1081,0,0.000885,0,0
0:2:43.728,621.723,35.1839,0,0.000885,0,0
0:2:44.124,623.601,35.2874,0,0.000885,0,0
0:2:44.528,624.891,35.3632,0,0.000885,0,0
0:2:44.934,626.479,35.4528,0,0.000885,0,0
0:2:45.336,628.062,35.5425,0,0.000885,0,0
0:2:45.739,630.175,35.6597,0,0.000885,0,0
0:2:46.135,632.172,35.7769,0,0.000885,0,0
0:2:46.535,633.929,35.8734,0,0.000885,0,0
0:2:46.933,635.575,35.9631,0,0.000885,0,0
0:2:47.331,637.63,36.0803,0,0.000885,0,0
0:2:47.725,639.392,36.1837,0,0.000885,0,0
0:2:48.121,640.797,36.2595,0,0.000885,0,0
0:2:48.522,642.443,36.3561,0,0.000885,0,0
0:2:48.918,644.792,36.4871,0,0.000885,0,0
0:2:49.325,646.727,36.5974,0,0.000885,0,0
0:2:49.729,648.488,36.6939,0,0.000885,0,0
0:2:50.134,650.25,36.7973,0,0.000885,0,0
0:2:50.538,651.776,36.8801,0,0.000885,0,0
0:2:50.940,653.301,36.9697,0,0.000885,0,0
0:2:51.334,654.711,37.0524,0,0.000885,0,0
0:2:51.732,657.176,37.1903,0,0.000885,0,0
0:2:52.131,659.053,37.2937,0,0.000885,0,0
0:2:52.527,660.112,37.3558,0,0.000885,0,0
0:2:52.922,662.225,37.473,0,0.000885,0,0
0:2:53.317,663.928,37.5695,0,0.000885,0,0
0:2:53.718,665.57,37.6661,0,0.000885,0,0
0:2:54.126,668.154,37.8108,0,0.000885,0,0
0:2:54.519,669.208,37.8729,0,0.000885,0,0
0:2:54.926,671.028,37.9694,0,0.000885,0,0
0:2:55.330,672.616,38.0591,0,0.000885,0,0
0:2:55.734,674.377,38.1625,0,0.000885,0,0
0:2:56.136,676.428,38.2797,0,0.000885,0,0
0:2:56.533,678.367,38.39,0,0.000885,0,0
0:2:56.930,680.009,38.4796,0,0.000885,0,0
0:2:57.328,682.242,38.6037,0,0.000885,0,0
0:2:57.723,683.709,38.6934,0,0.000885,0,0
0:2:58.121,684.764,38.7485,0,0.000885,0,0
0:2:58.515,686.583,38.852,0,0.000885,0,0
0:2:58.914,688.932,38.983,0,0.000885,0,0
0:2:59.313,690.635,39.0795,0,0.000885,0,0
0:2:59.719,692.69,39.1967,0,0.000885,0,0
0:3:0.122,694.683,39.3139,0,0.000885,0,0
0:3:0.526,696.858,39.4311,0,0.000885,0,0
0:3:0.935,698.5,39.5276,0,0.000885,0,0
0:3:1.334,699.91,39.6035,0,0.000885,0,0
0:3:1.729,701.258,39.6862,0,0.000885,0,0
0:3:2.122,702.201,39.7345,0,0.000885,0,0
0:3:2.521,704.371,39.8586,0,0.000885,0,0
0:3:2.920,706.071,39.9551,0,0.000885,0,0
0:3:3.318,707.894,40.0585,0,0.000885,0,0
0:3:3.734,709.536,40.1482,0,0.000885,0,0
0:3:4.131,711.942,40.2861,0,0.000885,0,0
0:3:4.533,713.588,40.3826,0,0.000885,0,0
0:3:4.938,715.465,40.486,0,0.000885,0,0
0:3:5.342,716.933,40.5688,0,0.000885,0,0
0:3:5.745,718.401,40.6515,0,0.000885,0,0
0:3:6.141,720.745,40.7894,0,0.000885,0,0
0:3:6.541,721.982,40.8583,0,0.000885,0,0
0:3:6.939,723.975,40.9686,0,0.000885,0,0
0:3:7.334,725.972,41.079,0,0.000885,0,0
0:3:7.730,728.263,41.21,0,0.000885,0,0
0:3:8.130,729.789,41.2996,0,0.000885,0,0
0:3:8.527,731.43,41.3892,0,0.000885,0,0
0:3:8.920,732.898,41.472,0,0.000885,0,0
0:3:9.315,734.544,41.5685,0,0.000885,0,0
0:3:9.719,736.363,41.6719,0,0.000885,0,0
0:3:10.127,738.418,41.7891,0,0.000885,0,0
0:3:10.530,740.353,41.8925,0,0.000885,0,0
0:3:10.932,742.76,42.0304,0,0.000885,0,0
0:3:11.329,744.228,42.1132,0,0.000885,0,0
0:3:11.729,746.047,42.2166,0,0.000885,0,0
0:3:12.137,747.163,42.2787,0,0.000885,0,0
0:3:12.531,748.569,42.3614,0,0.000885,0,0
0:3:12.928,750.33,42.4579,0,0.000885,0,0
0:3:13.335,752.386,42.5751,0,0.000885,0,0
0:3:13.735,754.263,42.6854,0,0.000885,0,0
0:3:14.131,756.024,42.782,0,0.000885,0,0
0:3:14.524,757.844,42.8854,0,0.000885,0,0
0:3:14.929,759.018,42.9543,0,0.000885,0,0
0:3:15.336,761.015,43.0647,0,0.000885,0,0
0:3:15.738,763.07,43.1819,0,0.000885,0,0
0:3:16.140,764.889,43.2853,0,0.000885,0,0
0:3:16.537,766.357,43.368,0,0.000885,0,0
0:3:16.936,768.47,43.4852,0,0.000885,0,0
0:3:17.335,770.525,43.6024,0,0.000885,0,0
0:3:17.731,772.167,43.699,0,0.000885,0,0
0:3:18.124,774.222,43.8093,0,0.000885,0,0
0:3:18.523,775.454,43.8851,0,0.000885,0,0
0:3:18.921,776.922,43.9679,0,0.000885,0,0
0:3:19.319,778.977,44.0782,0,0.000885,0,0
0:3:19.725,780.916,44.1885,0,0.000885,0,0
0:3:20.130,782.616,44.285,0,0.000885,0,0
0:3:20.534,784.377,44.3884,0,0.000885,0,0
0:3:20.935,786.317,44.4988,0,0.000885,0,0
0:3:21.332,787.135,44.5401,0,0.000885,0,0
0:3:21.725,789.132,44.6573,0,0.000885,0,0
0:3:22.133,791.13,44.7677,0,0.000885,0,0
0:3:22.534,793.358,44.8918,0,0.000885,0,0
0:3:22.930,795.298,45.0021,0,0.000885,0,0
0:3:23.322,796.703,45.0848,0,0.000885,0,0
0:3:23.718,798.055,45.1607,0,0.000885,0,0
0:3:24.118,799.755,45.2572,0,0.000885,0,0
0:3:24.517,801.578,45.3606,0,0.000885,0,0
0:3:24.922,803.629,45.4778,0,0.000885,0,0
0:3:25.325,805.742,45.595,0,0.000885,0,0
0:3:25.730,807.33,45.6847,0,0.000885,0,0
0:3:26.132,808.856,45.7743,0,0.000885,0,0
0:3:26.530,811.084,45.8984,0,0.000885,0,0
0:3:26.936,812.61,45.9811,0,0.000885,0,0
0:3:27.329,814.02,46.0639,0,0.000885,0,0
0:3:27.730,815.724,46.1604,0,0.000885,0,0
0:3:28.126,818.424,46.3121,0,0.000885,0,0
0:3:28.523,820.417,46.4293,0,0.000885,0,0
0:3:28.917,821.885,46.512,0,0.000885,0,0
0:3:29.324,822.765,46.5603,0,0.000885,0,0
0:3:29.724,824.82,46.6775,0,0.000885,0,0
0:3:30.132,826.524,46.774,0,0.000885,0,0
0:3:30.536,828.228,46.8706,0,0.000885,0,0
0:3:30.937,829.985,46.9671,0,0.000885,0,0
0:3:31.338,832.16,47.0912,0,0.000885,0,0
0:3:31.736,834.037,47.1946,0,0.000885,0,0
0:3:32.133,835.621,47.2842,0,0.000885,0,0
0:3:32.537,837.146,47.3739,0,0.000885,0,0
0:3:32.936,838.792,47.4635,0,0.000885,0,0
0:3:33.334,840.376,47.5531,0,0.000885,0,0
0:3:33.731,842.022,47.6497,0,0.000885,0,0
0:3:34.124,844.192,47.7738,0,0.000885,0,0
0:3:34.531,846.07,47.8772,0,0.000885,0,0
0:3:34.935,847.889,47.9806,0,0.000885,0,0
0:3:35.337,849.77,48.084,0,0.000885,0,0
0:3:35.740,851.648,48.1944,0,0.000885,0,0
0:3:36.134,853.761,48.3116,0,0.000885,0,0
0:3:36.533,855.228,48.3943,0,0.000885,0,0
0:3:36.931,857.106,48.5046,0,0.000885,0,0
0:3:37.337,858.689,48.5942,0,0.000885,0,0
0:3:37.733,860.215,48.677,0,0.000885,0,0
0:3:38.126,861.919,48.7735,0,0.000885,0,0
0:3:38.527,863.974,48.8907,0,0.000885,0,0
0:3:38.924,866.029,49.0079,0,0.000885,0,0
0:3:39.319,866.789,49.0493,0,0.000885,0,0
0:3:39.723,868.435,49.1458,0,0.000885,0,0
0:3:40.130,870.37,49.2561,0,0.000885,0,0
0:3:40.534,872.074,49.3527,0,0.000885,0,0
0:3:40.935,874.596,49.4906,0,0.000885,0,0
0:3:41.332,876.006,49.5733,0,0.000885,0,0
0:3:41.727,877.825,49.6767,0,0.000885,0,0
0:3:42.138,879.471,49.7664,0,0.000885,0,0
0:3:42.535,881.7,49.8974,0,0.000885,0,0
0:3:42.932,883.461,49.9939,0,0.000885,0,0
0:3:43.325,884.929,50.0766,0,0.000885,0,0
0:3:43.734,886.691,50.1731,0,0.000885,0,0
0:3:44.133,888.746,50.2904,0,0.000885,0,0
0:3:44.531,890.272,50.38,0,0.000885,0,0
0:3:44.936,892.206,50.4903,0,0.000885,0,0
0:3:45.340,893.674,50.573,0,0.000885,0,0
0:3:45.743,895.614,50.6834,0,0.000885,0,0
0:3:46.145,897.549,50.7937,0,0.000885,0,0
0:3:46.542,899.662,50.9109,0,0.000885,0,0
0:3:46.937,900.894,50.9798,0,0.000885,0,0
0:3:47.333,902.775,51.0833,0,0.000885,0,0
0:3:47.733,904.595,51.1867,0,0.000885,0,0
0:3:48.131,906.356,51.2901,0,0.000885,0,0
0:3:48.524,907.762,51.3659,0,0.000885,0,0
0:3:48.918,909.466,51.4625,0,0.000885,0,0
0:3:49.319,911.285,51.5659,0,0.000885,0,0
0:3:49.727,913.282,51.6831,0,0.000885,0,0
0:3:50.135,915.044,51.7796,0,0.000885,0,0
0:3:50.538,916.979,51.8899,0,0.000885,0,0
0:3:50.939,918.211,51.9589,0,0.000885,0,0
0:3:51.341,920.088,52.0692,0,0.000885,0,0
0:3:51.738,921.734,52.1588,0,0.000885,0,0
0:3:52.133,923.375,52.2554,0,0.000885,0,0
0:3:52.528,925.137,52.3519,0,0.000885,0,0
0:3:52.927,927.25,52.4691,0,0.000885,0,0
0:3:53.323,929.718,52.6139,0,0.000885,0,0
0:3:53.720,931.538,52.7173,0,0.000885,0,0
0:3:54.115,932.183,52.7518,0,0.000885,0,0
0:3:54.517,934.238,52.869,0,0.000885,0,0
0:3:54.922,936.408,52.9931,0,0.000885,0,0
0:3:55.325,937.876,53.0758,0,0.000885,0,0
0:3:55.727,939.696,53.1793,0,0.000885,0,0
0:3:56.124,941.693,53.2896,0,0.000885,0,0
0:3:56.524,943.156,53.3723,0,0.000885,0,0
0:3:56.922,945.154,53.4826,0,0.000885,0,0
0:3:57.326,947.796,53.6343,0,0.000885,0,0
0:3:57.734,949.437,53.7239,0,0.000885,0,0
0:3:58.129,950.79,53.8067,0,0.000885,0,0
0:3:58.528,952.08,53.8756,0,0.000885,0,0
0:3:58.925,953.725,53.9722,0,0.000885,0,0
0:3:59.320,955.135,54.048,0,0.000885,0,0
0:3:59.725,957.248,54.1721,0,0.000885,0,0
0:4:0.128,958.89,54.2617,0,0.000885,0,0
0:4:0.535,960.767,54.3652,0,0.000885,0,0
0:4:0.936,962.649,54.4755,0,0.000885,0,0
0:4:1.340,963.939,54.5444,0,0.000885,0,0
0:4:1.739,965.816,54.6547,0,0.000885,0,0
0:4:2.139,967.871,54.772,0,0.000885,0,0
0:4:2.535,969.632,54.8685,0,0.000885,0,0
0:4:2.929,971.981,54.9995,0,0.000885,0,0
0:4:3.325,973.391,55.0822,0,0.000885,0,0
0:4:3.735,975.442,55.1994,0,0.000885,0,0
0:4:4.135,977.145,55.296,0,0.000885,0,0
0:4:4.529,978.435,55.3649,0,0.000885,0,0
0:4:4.934,981.02,55.5166,0,0.000885,0,0
0:4:5.339,982.603,55.6062,0,0.000885,0,0
0:4:5.742,983.956,55.6821,0,0.000885,0,0
0:4:6.144,985.655,55.7786,0,0.000885,0,0
0:4:6.542,987.479,55.882,0,0.000885,0,0
0:4:6.937,989.649,55.9992,0,0.000885,0,0
0:4:7.337,991.291,56.0957,0,0.000885,0,0
0:4:7.735,992.523,56.1647,0,0.000885,0,0
0:4:8.128,994.111,56.2543,0,0.000885,0,0
0:4:8.524,996.397,56.3853,0,0.000885,0,0
0:4:8.921,997.923,56.4681,0,0.000885,0,0
0:4:9.322,999.978,56.5853,0,0.000885,0,0
0:4:9.726,1001.86,56.6956,0,0.000885,0,0
0:4:10.130,1003.15,56.7645,0,0.000885,0,0
0:4:10.534,1004.91,56.868,0,0.000885,0,0
0:4:10.934,1007.02,56.9852,0,0.000885,0,0
0:4:11.333,1008.61,57.0748,0,0.000885,0,0
0:4:11.728,1010.37,57.1782,0,0.000885,0,0
0:4:12.123,1011.95,57.2679,0,0.000885,0,0
0:4:12.520,1013.83,57.3713,0,0.000885,0,0
0:4:12.920,1015.77,57.4816,0,0.000885,0,0
0:4:13.317,1017.47,57.5781,0,0.000885,0,0
0:4:13.722,1019.17,57.6746,0,0.000885,0,0
0:4:14.117,1021.05,57.7781,0,0.000885,0,0
0:4:14.520,1022.7,57.8746,0,0.000885,0,0
0:4:14.927,1024.57,57.978,0,0.000885,0,0
0:4:15.330,1026.63,58.0952,0,0.000885,0,0
0:4:15.731,1028.74,58.2124,0,0.000885,0,0
0:4:16.129,1030.62,58.3228,0,0.000885,0,0
0:4:16.529,1031.73,58.3848,0,0.000885,0,0
0:4:16.930,1033.62,58.4882,0,0.000885,0,0
0:4:17.336,1034.61,58.5503,0,0.000885,0,0
0:4:17.730,1036.67,58.6606,0,0.000885,0,0
0:4:18.128,1038.72,58.7778,0,0.000885,0,0
0:4:18.526,1040.13,58.8605,0,0.000885,0,0
0:4:18.925,1042.36,58.9846,0,0.000885,0,0
0:4:19.318,1043.89,59.0743,0,0.000885,0,0
0:4:19.723,1045.76,59.1777,0,0.000885,0,0
0:4:20.128,1047.29,59.2673,0,0.000885,0,0
0:4:20.530,1049.29,59.3776,0,0.000885,0,0
0:4:20.934,1050.52,59.4466,0,0.000885,0,0
0:4:21.339,1052.63,59.5638,0,0.000885,0,0
0:4:21.735,1054.74,59.6879,0,0.000885,0,0
0:4:22.135,1056.45,59.7844,0,0.000885,0,0
0:4:22.531,1057.97,59.8672,0,0.000885,0,0
0:4:22.937,1060.14,59.9913,0,0.000885,0,0
0:4:23.342,1062.03,60.1016,0,0.000885,0,0
0:4:23.740,1063.43,60.1774,0,0.000885,0,0
0:4:24.139,1065.19,60.2809,0,0.000885,0,0
0:4:24.544,1066.72,60.3636,0,0.000885,0,0
0:4:24.948,1068.83,60.4808,0,0.000885,0,0
0:4:25.352,1070.71,60.5911,0,0.000885,0,0
0:4:25.754,1072.88,60.7152,0,0.000885,0,0
0:4:26.158,1074.53,60.8049,0,0.000885,0,0
0:4:26.555,1076.11,60.8945,0,0.000885,0,0
0:4:26.949,1077.76,60.991,0,0.000885,0,0
0:4:27.346,1079.17,61.0669,0,0.000885,0,0
0:4:27.745,1080.69,61.1565,0,0.000885,0,0
0:4:28.143,1082.57,61.2599,0,0.000885,0,0
0:4:28.541,1084.45,61.3702,0,0.000885,0,0
0:4:28.935,1086.44,61.4806,0,0.000885,0,0
0:4:29.332,1088.15,61.5771,0,0.000885,0,0
0:4:29.732,1089.67,61.6598,0,0.000885,0,0
0:4:30.138,1091.43,61.7632,0,0.000885,0,0
0:4:30.542,1093.19,61.8598,0,0.000885,0,0
0:4:30.944,1094.84,61.9563,0,0.000885,0,0
0:4:31.342,1096.83,62.0666,0,0.000885,0,0
0:4:31.743,1098.65,62.17,0,0.000885,0,0
0:4:32.138,1100.59,62.2803,0,0.000885,0,0
0:4:32.531,1102.35,62.3769,0,0.000885,0,0
0:4:32.940,1104.88,62.5217,0,0.000885,0,0
0:4:33.338,1106.22,62.5975,0,0.000885,0,0
0:4:33.732,1108.04,62.7009,0,0.000885,0,0
0:4:34.127,1109.45,62.7837,0,0.000885,0,0
0:4:34.531,1111.33,62.8871,0,0.000885,0,0
0:4:34.938,1113.56,63.0181,0,0.000885,0,0
0:4:35.339,1114.85,63.087,0,0.000885,0,0
0:4:35.741,1116.73,63.1973,0,0.000885,0,0
0:4:36.138,1117.79,63.2525,0,0.000885,0,0
0:4:36.531,1119.55,63.3559,0,0.000885,0,0
0:4:36.930,1121.61,63.4731,0,0.000885,0,0
0:4:37.327,1123.6,63.5835,0,0.000885,0,0
0:4:37.721,1125.3,63.68,0,0.000885,0,0
0:4:38.117,1127.01,63.7765,0,0.000885,0,0
0:4:38.525,1128.59,63.8661,0,0.000885,0,0
0:4:38.924,1130.52,63.9765,0,0.000885,0,0
0:4:39.320,1132.46,64.0868,0,0.000885,0,0
0:4:39.725,1134.23,64.1833,0,0.000885,0,0
0:4:40.129,1135.99,64.2867,0,0.000885,0,0
0:4:40.531,1137.51,64.3695,0,0.000885,0,0
0:4:40.934,1139.33,64.4729,0,0.000885,0,0
0:4:41.330,1141.33,64.5832,0,0.000885,0,0
0:4:41.724,1143.26,64.6935,0,0.000885,0,0
0:4:42.122,1144.91,64.79,0,0.000885,0,0
0:4:42.521,1146.61,64.8866,0,0.000885,0,0
0:4:42.916,1148.43,64.99,0,0.000885,0,0
0:4:43.311,1149.9,65.0727,0,0.000885,0,0
0:4:43.708,1151.25,65.1486,0,0.000885,0,0
0:4:44.106,1152.65,65.2244,0,0.000885,0,0
0:4:44.504,1154.95,65.3554,0,0.000885,0,0
0:4:44.909,1157.12,65.4795,0,0.000885,0,0
0:4:45.313,1158.47,65.5554,0,0.000885,0,0
0:4:45.715,1160.23,65.6588,0,0.000885,0,0
0:4:46.116,1161.81,65.7484,0,0.000885,0,0
0:4:46.514,1163.45,65.838,0,0.000885,0,0
0:4:46.908,1166.33,66.0035,0,0.000885,0,0
0:4:47.304,1167.92,66.0931,0,0.000885,0,0
0:4:47.703,1169.5,66.1828,0,0.000885,0,0
0:4:48.099,1171.32,66.2862,0,0.000885,0,0
0:4:48.494,1172.38,66.3414,0,0.000885,0,0
0:4:48.891,1174.61,66.4724,0,0.000885,0,0
0:4:49.289,1176.31,66.5689,0,0.000885,0,0
0:4:49.689,1178.49,66.6861,0,0.000885,0,0
0:4:50.094,1180.54,66.8033,0,0.000885,0,0
0:4:50.499,1181.89,66.8791,0,0.000885,0,0
0:4:50.901,1184.18,67.0101,0,0.000885,0,0
0:4:51.302,1185.58,67.0929,0,0.000885,0,0
0:4:51.698,1186.47,67.1411,0,0.000885,0,0
0:4:52.094,1188.87,67.279,0,0.000885,0,0
0:4:52.489,1190.52,67.3687,0,0.000885,0,0
0:4:52.888,1191.46,67.4238,0,0.000885,0,0
0:4:53.286,1193.92,67.5617,0,0.000885,0,0
0:4:53.681,1195.62,67.6583,0,0.000885,0,0
0:4:54.076,1197.62,67.7686,0,0.000885,0,0
0:4:54.479,1199.09,67.8513,0,0.000885,0,0
0:4:54.885,1200.79,67.9478,0,0.000885,0,0
0:4:55.290,1202.84,68.065,0,0.000885,0,0
0:4:55.693,1204.72,68.1754,0,0.000885,0,0
0:4:56.089,1206.83,68.2926,0,0.000885,0,0
0:4:56.489,1208.36,68.3822,0,0.000885,0,0
0:4:56.888,1209.71,68.458,0,0.000885,0,0
0:4:57.285,1212.06,68.589,0,0.000885,0,0
0:4:57.679,1214.23,68.7132,0,0.000885,0,0
0:4:58.079,1215.35,68.7752,0,0.000885,0,0
0:4:58.478,1217.11,68.8717,0,0.000885,0,0
0:4:58.873,1217.87,68.92,0,0.000885,0,0
0:4:59.270,1220.04,69.0372,0,0.000885,0,0
0:4:59.674,1222.51,69.182,0,0.000885,0,0
0:5:0.081,1224.33,69.2854,0,0.000885,0,0
0:5:0.482,1225.38,69.3406,0,0.000885,0,0
0:5:0.885,1227.32,69.4509,0,0.000885,0,0
0:5:1.282,1228.44,69.5129,0,0.000885,0,0
0:5:1.680,1230.9,69.6577,0,0.000885,0,0
0:5:2.080,1232.37,69.7405,0,0.000885,0,0
0:5:2.477,1233.95,69.8301,0,0.000885,0,0
0:5:2.871,1236.01,69.9404,0,0.000885,0,0
0:5:3.269,1238.06,70.0576,0,0.000885,0,0
0:5:3.669,1240.18,70.1817,0,0.000885,0,0
0:5:4.066,1242.23,70.2989,0,0.000885,0,0
0:5:4.462,1243.76,70.3817,0,0.000885,0,0
0:5:4.866,1245.28,70.4713,0,0.000885,0,0
0:5:5.271,1246.75,70.5541,0,0.000885,0,0
0:5:5.674,1248.74,70.6644,0,0.000885,0,0
0:5:6.076,1250.92,70.7885,0,0.000885,0,0
0:5:6.472,1252.74,70.8919,0,0.000885,0,0
0:5:6.871,1253.56,70.9402,0,0.000885,0,0
0:5:7.270,1256.32,71.0918,0,0.000885,0,0
0:5:7.665,1257.08,71.1332,0,0.000885,0,0
0:5:8.060,1259.08,71.2504,0,0.000885,0,0
0:5:8.456,1261.08,71.3607,0,0.000885,0,0
0:5:8.855,1262.54,71.4435,0,0.000885,0,0
0:5:9.254,1264.54,71.5607,0,0.000885,0,0
0:5:9.661,1266.24,71.6572,0,0.000885,0,0
0:5:10.065,1267.77,71.7399,0,0.000885,0,0
0:5:10.466,1269.99,71.8641,0,0.000885,0,0
0:5:10.869,1272.05,71.9813,0,0.000885,0,0
0:5:11.264,1273.64,72.0709,0,0.000885,0,0
0:5:11.658,1275.04,72.1536,0,0.000885,0,0
0:5:12.055,1276.92,72.2571,0,0.000885,0,0
0:5:12.453,1279.1,72.3812,0,0.000885,0,0
0:5:12.852,1280.56,72.4639,0,0.000885,0,0
0:5:13.249,1282.56,72.5811,0,0.000885,0,0
0:5:13.643,1284.26,72.6776,0,0.000885,0,0
0:5:14.042,1285.79,72.7604,0,0.000885,0,0
0:5:14.443,1287.66,72.8638,0,0.000885,0,0
0:5:14.849,1289.42,72.9672,0,0.000885,0,0
0:5:15.254,1291.6,73.0913,0,0.000885,0,0
0:5:15.656,1293.06,73.1741,0,0.000885,0,0
0:5:16.054,1294.12,73.2292,0,0.000885,0,0
0:5:16.453,1296.12,73.3464,0,0.000885,0,0
0:5:16.849,1297.52,73.4223,0,0.000885,0,0
0:5:17.245,1299.46,73.5326,0,0.000885,0,0
0:5:17.642,1301.75,73.6636,0,0.000885,0,0
0:5:18.042,1303.63,73.767,0,0.000885,0,0
0:5:18.437,1305.57,73.8773,0,0.000885,0,0
0:5:18.842,1306.92,73.9532,0,0.000885,0,0
0:5:19.241,1308.15,74.029,0,0.000885,0,0
0:5:19.643,1310.09,74.1324,0,0.000885,0,0
0:5:20.049,1311.97,74.2427,0,0.000885,0,0
0:5:20.452,1313.61,74.3324,0,0.000885,0,0
0:5:20.855,1315.55,74.4427,0,0.000885,0,0
0:5:21.253,1317.31,74.5461,0,0.000885,0,0
0:5:21.654,1319.48,74.6702,0,0.000885,0,0
0:5:22.050,1321.18,74.7667,0,0.000885,0,0
0:5:22.444,1323,74.8633,0,0.000885,0,0
0:5:22.841,1324.94,74.9736,0,0.000885,0,0
0:5:23.241,1327.05,75.0977,0,0.000885,0,0
0:5:23.635,1327.87,75.1391,0,0.000885,0,0
0:5:24.030,1329.52,75.2356,0,0.000885,0,0
0:5:24.435,1331.46,75.3459,0,0.000885,0,0
0:5:24.842,1333.04,75.4355,0,0.000885,0,0
0:5:25.244,1334.86,75.539,0,0.000885,0,0
0:5:25.646,1337.09,75.6631,0,0.000885,0,0
0:5:26.039,1338.32,75.732,0,0.000885,0,0
0:5:26.437,1340.26,75.8423,0,0.000885,0,0
0:5:26.837,1342.49,75.9664,0,0.000885,0,0
0:5:27.233,1343.78,76.0423,0,0.000885,0,0
0:5:27.628,1345.13,76.1181,0,0.000885,0,0
0:5:28.025,1347.95,76.2767,0,0.000885,0,0
0:5:28.434,1349.42,76.3594,0,0.000885,0,0
0:5:28.832,1351.53,76.4835,0,0.000885,0,0
0:5:29.231,1353.29,76.5801,0,0.000885,0,0
0:5:29.636,1354.4,76.6421,0,0.000885,0,0
0:5:30.041,1356.05,76.7386,0,0.000885,0,0
0:5:30.444,1358.46,76.8696,0,0.000885,0,0
0:5:30.846,1360.1,76.9662,0,0.000885,0,0
0:5:31.242,1361.69,77.0558,0,0.000885,0,0
0:5:31.646,1363.8,77.173,0,0.000885,0,0
0:5:32.044,1365.15,77.2489,0,0.000885,0,0
0:5:32.444,1367.2,77.3661,0,0.000885,0,0
0:5:32.838,1368.78,77.4557,0,0.000885,0,0
0:5:33.234,1370.9,77.5798,0,0.000885,0,0
0:5:33.631,1371.9,77.635,0,0.000885,0,0
0:5:34.030,1374.48,77.7798,0,0.000885,0,0
0:5:34.428,1375.77,77.8556,0,0.000885,0,0
0:5:34.834,1377,77.9245,0,0.000885,0,0
0:5:35.239,1379.12,78.0418,0,0.000885,0,0
0:5:35.642,1381.05,78.1521,0,0.000885,0,0
0:5:36.044,1382.52,78.2348,0,0.000885,0,0
0:5:36.438,1384.58,78.352,0,0.000885,0,0
0:5:36.845,1386.57,78.4623,0,0.000885,0,0
0:5:37.240,1388.39,78.5658,0,0.000885,0,0
0:5:37.640,1389.68,78.6416,0,0.000885,0,0
0:5:38.036,1392.27,78.7864,0,0.000885,0,0
0:5:38.431,1393.21,78.8415,0,0.000885,0,0
0:5:38.829,1395.14,78.9519,0,0.000885,0,0
0:5:39.237,1397.26,79.0691,0,0.000885,0,0
0:5:39.647,1399.31,79.1863,0,0.000885,0,0
0:5:40.053,1400.95,79.2759,0,0.000885,0,0
0:5:40.457,1402.24,79.3518,0,0.000885,0,0
0:5:40.859,1404.24,79.4621,0,0.000885,0,0
0:5:41.261,1405.94,79.5586,0,0.000885,0,0
0:5:41.658,1407.53,79.6482,0,0.000885,0,0
0:5:42.055,1410.11,79.793,0,0.000885,0,0
0:5:42.450,1411.58,79.8758,0,0.000885,0,0
0:5:42.849,1413.46,79.9861,0,0.000885,0,0
0:5:43.246,1414.1,80.0206,0,0.000885,0,0
0:5:43.640,1416.16,80.1378,0,0.000885,0,0
0:5:44.036,1417.51,80.2136,0,0.000885,0,0
0:5:44.440,1419.15,80.3101,0,0.000885,0,0
0:5:44.848,1421.14,80.4204,0,0.000885,0,0
0:5:45.250,1423.73,80.5652,0,0.000885,0,0
0:5:45.653,1425.66,80.6756,0,0.000885,0,0
0:5:46.049,1427.13,80.7583,0,0.000885,0,0
0:5:46.448,1428.6,80.841,0,0.000885,0,0
0:5:46.846,1430.77,80.9651,0,0.000885,0,0
0:5:47.243,1432.59,81.0686,0,0.000885,0,0
0:5:47.647,1434,81.1513,0,0.000885,0,0
0:5:48.044,1436.05,81.2616,0,0.000885,0,0
0:5:48.444,1437.58,81.3512,0,0.000885,0,0
0:5:48.839,1440.17,81.496,0,0.000885,0,0
0:5:49.234,1441.22,81.5581,0,0.000885,0,0
0:5:49.639,1442.75,81.6408,0,0.000885,0,0
0:5:50.046,1444.86,81.7649,0,0.000885,0,0
0:5:50.447,1446.74,81.8683,0,0.000885,0,0
0:5:50.851,1448.97,81.9925,0,0.000885,0,0
0:5:51.246,1450.61,82.089,0,0.000885,0,0
0:5:51.641,1452.26,82.1786,0,0.000885,0,0
0:5:52.040,1453.9,82.2751,0,0.000885,0,0
0:5:52.438,1454.96,82.3303,0,0.000885,0,0
0:5:52.834,1456.31,82.413,0,0.000885,0,0
0:5:53.238,1458.48,82.5302,0,0.000885,0,0
0:5:53.638,1460.42,82.6406,0,0.000885,0,0
0:5:54.047,1462.53,82.7647,0,0.000885,0,0
0:5:54.441,1464.47,82.875,0,0.000885,0,0
0:5:54.846,1465.88,82.9508,0,0.000885,0,0
0:5:55.251,1467.11,83.0198,0,0.000885,0,0
0:5:55.655,1469.34,83.1508,0,0.000885,0,0
0:5:56.057,1470.57,83.2197,0,0.000885,0,0
0:5:56.453,1472.45,83.3231,0,0.000885,0,0
0:5:56.849,1474.97,83.4679,0,0.000885,0,0
0:5:57.249,1476.56,83.5576,0,0.000885,0,0
0:5:57.647,1478.38,83.661,0,0.000885,0,0
0:5:58.044,1480.14,83.7575,0,0.000885,0,0
0:5:58.437,1481.97,83.8609,0,0.000885,0,0
0:5:58.846,1483.5,83.9506,0,0.000885,0,0
0:5:59.248,1485.5,84.0609,0,0.000885,0,0
0:5:59.655,1487.74,84.1919,0,0.000885,0,0
0:6:0.059,1489.21,84.2746,0,0.000885,0,0
0:6:0.461,1491.03,84.378,0,0.000885,0,0
0:6:0.860,1492.69,84.4677,0,0.000885,0,0
0:6:1.260,1494.45,84.5711,0,0.000885,0,0
0:6:1.657,1496.4,84.6814,0,0.000885,0,0
0:6:2.052,1497.87,84.7641,0,0.000885,0,0
0:6:2.449,1499.34,84.8469,0,0.000885,0,0
0:6:2.849,1501.22,84.9503,0,0.000885,0,0
0:6:3.247,1503.11,85.0606,0,0.000885,0,0
0:6:3.640,1505.11,85.1709,0,0.000885,0,0
0:6:4.047,1506.52,85.2537,0,0.000885,0,0
0:6:4.451,1508.53,85.364,0,0.000885,0,0
0:6:4.857,1510,85.4467,0,0.000885,0,0
0:6:5.261,1511.53,85.5364,0,0.000885,0,0
0:6:5.663,1513.35,85.6398,0,0.000885,0,0
0:6:6.060,1515.53,85.7639,0,0.000885,0,0
0:6:6.462,1516.77,85.8328,0,0.000885,0,0
0:6:6.859,1519.13,85.9638,0,0.000885,0,0
0:6:7.254,1521.36,86.0948,0,0.000885,0,0
0:6:7.651,1522.77,86.1707,0,0.000885,0,0
0:6:8.049,1524.66,86.281,0,0.000885,0,0
0:6:8.448,1526.43,86.3775,0,0.000885,0,0
0:6:8.842,1527.66,86.4465,0,0.000885,0,0
0:6:9.237,1529.96,86.5775,0,0.000885,0,0
0:6:9.641,1532.02,86.6947,0,0.000885,0,0
0:6:10.049,1533.14,86.7567,0,0.000885,0,0
0:6:10.451,1534.9,86.8602,0,0.000885,0,0
0:6:10.854,1537.14,86.9843,0,0.000885,0,0
0:6:11.250,1538.61,87.067,0,0.000885,0,0
0:6:11.651,1539.44,87.1153,0,0.000885,0,0
0:6:12.049,1541.56,87.2325,0,0.000885,0,0
0:6:12.442,1544.03,87.3773,0,0.000885,0,0
0:6:12.839,1545.21,87.4393,0,0.000885,0,0
0:6:13.248,1546.8,87.5289,0,0.000885,0,0
0:6:13.649,1549.27,87.6737,0,0.000885,0,0
0:6:14.046,1550.92,87.7634,0,0.000885,0,0
0:6:14.438,1552.39,87.8461,0,0.000885,0,0
0:6:14.842,1554.33,87.9564,0,0.000885,0,0
0:6:15.250,1556.22,88.0667,0,0.000885,0,0
0:6:15.654,1557.63,88.1426,0,0.000885,0,0
0:6:16.056,1560.05,88.2805,0,0.000885,0,0
0:6:16.450,1561.75,88.377,0,0.000885,0,0
0:6:16.850,1563.7,88.4873,0,0.000885,0,0
0:6:17.249,1565.17,88.5701,0,0.000885,0,0
0:6:17.643,1566.58,88.6528,0,0.000885,0,0
0:6:18.040,1568.17,88.7424,0,0.000885,0,0
0:6:18.436,1569.94,88.8389,0,0.000885,0,0
0:6:18.835,1572,88.9562,0,0.000885,0,0
0:6:19.235,1573.77,89.0596,0,0.000885,0,0
0:6:19.638,1575.71,89.1699,0,0.000885,0,0
0:6:20.042,1576.95,89.2388,0,0.000885,0,0
0:6:20.444,1578.95,89.3492,0,0.000885,0,0
0:6:20.848,1580.72,89.4526,0,0.000885,0,0
0:6:21.242,1582.07,89.5284,0,0.000885,0,0
0:6:21.636,1583.95,89.6318,0,0.000885,0,0
0:6:22.033,1585.6,89.7284,0,0.000885,0,0
0:6:22.433,1588.37,89.8801,0,0.000885,0,0
0:6:22.841,1589.96,89.9766,0,0.000885,0,0
0:6:23.235,1591.2,90.0455,0,0.000885,0,0
0:6:23.632,1592.9,90.1421,0,0.000885,0,0
0:6:24.030,1594.91,90.2524,0,0.000885,0,0
0:6:24.430,1596.91,90.3696,0,0.000885,0,0
0:6:24.834,1599.03,90.4868,0,0.000885,0,0
0:6:25.238,1600.27,90.5557,0,0.000885,0,0
0:6:25.641,1601.8,90.6454,0,0.000885,0,0
0:6:26.042,1604.09,90.7764,0,0.000885,0,0
0:6:26.441,1605.92,90.8729,0,0.000885,0,0
0:6:26.847,1607.8,90.9832,0,0.000885,0,0
0:6:27.240,1609.27,91.066,0,0.000885,0,0
0:6:27.640,1610.8,91.1556,0,0.000885,0,0
0:6:28.039,1612.81,91.2659,0,0.000885,0,0
0:6:28.434,1614.28,91.3486,0,0.000885,0,0
0:6:28.830,1615.46,91.4176,0,0.000885,0,0
0:6:29.245,1618.05,91.5624,0,0.000885,0,0
0:6:29.649,1620.05,91.6727,0,0.000885,0,0
0:6:30.055,1621.75,91.7692,0,0.000885,0,0
0:6:30.458,1622.88,91.8382,0,0.000885,0,0
0:6:30.861,1624.53,91.9278,0,0.000885,0,0
0:6:31.260,1626.59,92.045,0,0.000885,0,0
0:6:31.659,1626.94,92.0657,0,0.000885,0,0
0:6:32.057,1628.88,92.176,0,0.000885,0,0
0:6:32.451,1631,92.2932,0,0.000885,0,0
0:6:32.845,1633.48,92.438,0,0.000885,0,0
0:6:33.245,1635.59,92.5552,0,0.000885,0,0
0:6:33.644,1637.01,92.638,0,0.000885,0,0
0:6:34.040,1639.42,92.769,0,0.000885,0,0
0:6:34.448,1641.07,92.8655,0,0.000885,0,0
0:6:34.853,1643.01,92.9758,0,0.000885,0,0
0:6:35.254,1645.01,93.0861,0,0.000885,0,0
0:6:35.657,1646.84,93.1895,0,0.000885,0,0
0:6:36.053,1648.72,93.2999,0,0.000885,0,0
0:6:36.449,1650.37,93.3895,0,0.000885,0,0
0:6:36.845,1651.85,93.4722,0,0.000885,0,0
0:6:37.256,1653.14,93.5481,0,0.000885,0,0
0:6:37.651,1654.91,93.6515,0,0.000885,0,0
0:6:38.043,1657.2,93.7756,0,0.000885,0,0
0:6:38.443,1659.09,93.8859,0,0.000885,0,0
0:6:38.841,1660.68,93.9755,0,0.000885,0,0
0:6:39.238,1661.86,94.0445,0,0.000885,0,0
0:6:39.643,1663.56,94.141,0,0.000885,0,0
0:6:40.049,1665.68,94.2582,0,0.000885,0,0
0:6:40.451,1667.33,94.3548,0,0.000885,0,0
0:6:40.854,1669.51,94.472,0,0.000885,0,0
0:6:41.251,1671.16,94.5685,0,0.000885,0,0
0:6:41.644,1672.63,94.6512,0,0.000885,0,0
0:6:42.042,1674.81,94.7753,0,0.000885,0,0
0:6:42.441,1676.46,94.865,0,0.000885,0,0
0:6:42.837,1677.93,94.9546,0,0.000885,0,0
0:6:43.252,1679.46,95.0373,0,0.000885,0,0
0:6:43.651,1681.58,95.1614,0,0.000885,0,0
0:6:44.046,1683.59,95.2718,0,0.000885,0,0
0:6:44.457,1685.52,95.3821,0,0.000885,0,0
0:6:44.861,1687.23,95.4786,0,0.000885,0,0
0:6:45.265,1688.77,95.5613,0,0.000885,0,0
0:6:45.668,1690.65,95.6717,0,0.000885,0,0
0:6:46.071,1692.36,95.7682,0,0.000885,0,0
0:6:46.468,1693.71,95.844,0,0.000885,0,0
0:6:46.865,1695.77,95.9612,0,0.000885,0,0
0:6:47.260,1697.89,96.0784,0,0.000885,0,0
0:6:47.659,1699.43,96.1681,0,0.000885,0,0
0:6:48.060,1701.36,96.2784,0,0.000885,0,0
0:6:48.455,1703.37,96.3887,0,0.000885,0,0
0:6:48.851,1704.67,96.4645,0,0.000885,0,0
0:6:49.246,1706.49,96.568,0,0.000885,0,0
0:6:49.651,1707.67,96.6369,0,0.000885,0,0
0:6:50.057,1709.61,96.7472,0,0.000885,0,0
0:6:50.460,1711.44,96.8507,0,0.000885,0,0
0:6:50.864,1713.02,96.9403,0,0.000885,0,0
0:6:51.261,1715.09,97.0506,0,0.000885,0,0
0:6:51.660,1717.15,97.1678,0,0.000885,0,0
0:6:52.058,1719.33,97.2919,0,0.000885,0,0
0:6:52.454,1720.62,97.3678,0,0.000885,0,0
0:6:52.846,1722.33,97.4643,0,0.000885,0,0
0:6:53.247,1723.8,97.547,0,0.000885,0,0
0:6:53.645,1725.75,97.6573,0,0.000885,0,0
0:6:54.042,1727.98,97.7814,0,0.000885,0,0
0:6:54.459,1729.34,97.8573,0,0.000885,0,0
0:6:54.864,1731.04,97.9538,0,0.000885,0,0
0:6:55.269,1732.93,98.0641,0,0.000885,0,0
0:6:55.671,1734.81,98.1676,0,0.000885,0,0
0:6:56.075,1736.34,98.2572,0,0.000885,0,0
0:6:56.472,1738.28,98.3675,0,0.000885,0,0
0:6:56.868,1740.11,98.4709,0,0.000885,0,0
0:6:57.267,1741.82,98.5675,0,0.000885,0,0
0:6:57.667,1743.88,98.6847,0,0.000885,0,0
0:6:58.062,1746.06,98.8088,0,0.000885,0,0
0:6:58.455,1747,98.857,0,0.000885,0,0
0:6:58.853,1749.06,98.9742,0,0.000885,0,0
0:6:59.251,1750.42,99.0501,0,0.000885,0,0
0:6:59.646,1751.65,99.1259,0,0.000885,0,0
0:7:0.054,1753.48,99.2293,0,0.000885,0,0
0:7:0.457,1755.54,99.3466,0,0.000885,0,0
0:7:0.860,1757.83,99.4707,0,0.000885,0,0
0:7:1.263,1759.31,99.5534,0,0.000885,0,0
0:7:1.660,1760.96,99.6499,0,0.000885,0,0
0:7:2.055,1762.96,99.7602,0,0.000885,0,0
0:7:2.448,1764.84,99.8706,0,0.000885,0,0
0:7:2.851,1766.43,99.9602,0,0.000885,0,0
0:7:3.247,1767.84,100.043,0,0.000885,0,0
0:7:3.654,1769.67,100.139,0,0.000885,0,0
0:7:4.048,1771.5,100.243,0,0.000885,0,0
0:7:4.455,1773.79,100.374,0,0.000885,0,0
0:7:4.861,1775.56,100.477,0,0.000885,0,0
0:7:5.263,1777.44,100.581,0,0.000885,0,0
0:7:5.667,1779.5,100.698,0,0.000885,0,0
0:7:6.063,1780.92,100.781,0,0.000885,0,0
0:7:6.460,1782.8,100.884,0,0.000885,0,0
0:7:6.860,1784.63,100.988,0,0.000885,0,0
0:7:7.258,1785.51,101.036,0,0.000885,0,0
0:7:7.652,1787.16,101.132,0,0.000885,0,0
0:7:8.047,1789.04,101.236,0,0.000885,0,0
0:7:8.445,1790.69,101.332,0,0.000885,0,0
0:7:8.845,1792.99,101.463,0,0.000885,0,0
0:7:9.241,1794.99,101.574,0,0.000885,0,0
0:7:9.647,1796.7,101.67,0,0.000885,0,0
0:7:10.053,1798.29,101.76,0,0.000885,0,0
0:7:10.455,1800.05,101.863,0,0.000885,0,0
0:7:10.857,1801.53,101.946,0,0.000885,0,0
0:7:11.253,1803.47,102.056,0,0.000885,0,0
0:7:11.647,1805.29,102.16,0,0.000885,0,0
0:7:12.044,1806.77,102.242,0,0.000885,0,0
0:7:12.444,1808.94,102.366,0,0.000885,0,0
0:7:12.842,1810.95,102.477,0,0.000885,0,0
0:7:13.247,1812.54,102.566,0,0.000885,0,0
0:7:13.643,1813.95,102.649,0,0.000885,0,0
0:7:14.041,1816.13,102.773,0,0.000885,0,0
0:7:14.442,1818.13,102.884,0,0.000885,0,0
0:7:14.847,1819.55,102.966,0,0.000885,0,0
0:7:15.254,1821.31,103.063,0,0.000885,0,0
0:7:15.655,1823.2,103.173,0,0.000885,0,0
0:7:16.056,1825.26,103.29,0,0.000885,0,0
0:7:16.455,1826.2,103.339,0,0.000885,0,0
0:7:16.862,1828.14,103.449,0,0.000885,0,0
0:7:17.256,1829.91,103.552,0,0.000885,0,0
0:7:17.653,1831.62,103.649,0,0.000885,0,0
0:7:18.054,1833.56,103.759,0,0.000885,0,0
0:7:18.449,1835.27,103.856,0,0.000885,0,0
0:7:18.844,1837.39,103.973,0,0.000885,0,0
0:7:19.249,1838.33,104.028,0,0.000885,0,0
0:7:19.655,1840.27,104.138,0,0.000885,0,0
0:7:20.059,1842.16,104.242,0,0.000885,0,0
0:7:20.463,1843.74,104.331,0,0.000885,0,0
0:7:20.866,1845.87,104.456,0,0.000885,0,0
0:7:21.262,1847.63,104.552,0,0.000885,0,0
0:7:21.662,1849.81,104.676,0,0.000885,0,0
0:7:22.059,1851.16,104.752,0,0.000885,0,0
0:7:22.455,1852.81,104.849,0,0.000885,0,0
0:7:22.846,1854.87,104.966,0,0.000885,0,0
0:7:23.247,1856.52,105.055,0,0.000885,0,0
0:7:23.646,1858.11,105.145,0,0.000885,0,0
0:7:24.042,1860.18,105.262,0,0.000885,0,0
0:7:24.439,1862.12,105.373,0,0.000885,0,0
0:7:24.841,1864,105.483,0,0.000885,0,0
0:7:25.245,1866.36,105.614,0,0.000885,0,0
0:7:25.648,1866.89,105.641,0,0.000885,0,0
0:7:26.050,1868.3,105.724,0,0.000885,0,0
0:7:26.447,1870.48,105.848,0,0.000885,0,0
0:7:26.857,1872.13,105.938,0,0.000885,0,0
0:7:27.256,1873.6,106.021,0,0.000885,0,0
0:7:27.651,1875.72,106.145,0,0.000885,0,0
0:7:28.056,1877.49,106.241,0,0.000885,0,0
0:7:28.454,1879.31,106.345,0,0.000885,0,0
0:7:28.851,1881.37,106.462,0,0.000885,0,0
0:7:29.248,1883.49,106.586,0,0.000885,0,0
0:7:29.655,1884.9,106.662,0,0.000885,0,0
0:7:30.060,1886.73,106.765,0,0.000885,0,0
0:7:30.463,1888.67,106.876,0,0.000885,0,0
0:7:30.865,1889.73,106.938,0,0.000885,0,0
0:7:31.262,1892.03,107.069,0,0.000885,0,0
0:7:31.657,1893.79,107.165,0,0.000885,0,0
0:7:32.052,1895.56,107.269,0,0.000885,0,0
0:7:32.451,1897.5,107.379,0,0.000885,0,0
0:7:32.850,1898.8,107.448,0,0.000885,0,0
0:7:33.244,1900.92,107.572,0,0.000885,0,0
0:7:33.642,1902.69,107.669,0,0.000885,0,0
0:7:34.050,1904.63,107.779,0,0.000885,0,0
0:7:34.461,1906.63,107.896,0,0.000885,0,0
0:7:34.866,1908.28,107.986,0,0.000885,0,0
0:7:35.270,1909.75,108.068,0,0.000885,0,0
0:7:35.673,1911.58,108.172,0,0.000885,0,0
0:7:36.074,1913.23,108.268,0,0.000885,0,0
0:7:36.473,1914.52,108.337,0,0.000885,0,0
0:7:36.867,1916.35,108.441,0,0.000885,0,0
0:7:37.262,1918.41,108.558,0,0.000885,0,0
0:7:37.660,1919.94,108.648,0,0.000885,0,0
0:7:38.059,1921.65,108.744,0,0.000885,0,0
0:7:38.464,1923.3,108.834,0,0.000885,0,0
0:7:38.859,1925.36,108.951,0,0.000885,0,0
0:7:39.257,1927.18,109.054,0,0.000885,0,0
0:7:39.659,1929.01,109.158,0,0.000885,0,0
0:7:40.066,1931.01,109.275,0,0.000885,0,0
0:7:40.469,1932.72,109.372,0,0.000885,0,0
0:7:40.872,1934.48,109.468,0,0.000885,0,0
0:7:41.271,1936.37,109.578,0,0.000885,0,0
0:7:41.671,1938.08,109.675,0,0.000885,0,0
0:7:42.065,1939.66,109.765,0,0.000885,0,0
0:7:42.462,1941.61,109.875,0,0.000885,0,0
0:7:42.858,1943.37,109.971,0,0.000885,0,0
0:7:43.257,1944.85,110.054,0,0.000885,0,0
0:7:43.656,1947.03,110.178,0,0.000885,0,0
0:7:44.048,1948.38,110.254,0,0.000885,0,0
0:7:44.451,1949.74,110.33,0,0.000885,0,0
0:7:44.859,1952.03,110.461,0,0.000885,0,0
0:7:45.261,1953.03,110.516,0,0.000885,0,0
0:7:45.664,1955.21,110.64,0,0.000885,0,0
0:7:46.060,1957.27,110.757,0,0.000885,0,0
0:7:46.457,1958.57,110.833,0,0.000885,0,0
0:7:46.858,1960.57,110.944,0,0.000885,0,0
0:7:47.252,1962.69,111.068,0,0.000885,0,0
0:7:47.650,1964.16,111.15,0,0.000885,0,0
0:7:48.056,1966.58,111.288,0,0.000885,0,0
0:7:48.452,1967.93,111.364,0,0.000885,0,0
0:7:48.852,1969.87,111.474,0,0.000885,0,0
0:7:49.247,1971.82,111.585,0,0.000885,0,0
0:7:49.652,1973,111.647,0,0.000885,0,0
0:7:50.058,1974.7,111.743,0,0.000885,0,0
0:7:50.459,1976.53,111.847,0,0.000885,0,0
0:7:50.863,1978.29,111.95,0,0.000885,0,0
0:7:51.260,1980.41,112.067,0,0.000885,0,0
0:7:51.653,1982.18,112.171,0,0.000885,0,0
0:7:52.054,1983.83,112.26,0,0.000885,0,0
0:7:52.452,1986.01,112.385,0,0.000885,0,0
0:7:52.859,1987.77,112.488,0,0.000885,0,0
0:7:53.264,1989.48,112.584,0,0.000885,0,0
0:7:53.660,1991.37,112.688,0,0.000885,0,0
0:7:54.061,1992.9,112.778,0,0.000885,0,0
0:7:54.457,1994.01,112.84,0,0.000885,0,0
0:7:54.861,1995.9,112.943,0,0.000885,0,0
0:7:55.266,1997.55,113.04,0,0.000885,0,0
0:7:55.668,1999.37,113.143,0,0.000885,0,0
0:7:56.071,2001.32,113.253,0,0.000885,0,0
0:7:56.467,2003.14,113.357,0,0.000885,0,0
0:7:56.860,2004.61,113.439,0,0.000885,0,0
0:7:57.259,2006.09,113.522,0,0.000885,0,0
0:7:57.658,2008.03,113.632,0,0.000885,0,0
0:7:58.053,2010.15,113.75,0,0.000885,0,0
0:7:58.448,2011.92,113.853,0,0.000885,0,0
0:7:58.845,2013.92,113.963,0,0.000885,0,0
0:7:59.244,1908.81,108.013,0,0.000885,0,0
0:7:59.322,1908.81,108.013,0,0.000885,0,0