File: DataFile2021-06-29_044908.csv
Test ID:,Date Tested:,Time:,Test Type:,Width (mm):,Depth (mm):,Height (mm):,Age (days):,Weight (kN):,Ramp Rate (MPa/s):,Load at Break (kN):,Stress at Break (MPa):
12,6/29/2021,04:49,Cube,100,100,100,7,8.37,0.01,36.89,3.69
Sample Time,Load (kN),Stress (MPa),Long. Strain,Trans. Strain,Chan1 Deflection (mm),Chan2 Deflection (mm)
0:0:9.010,9.91064,0.992845,0,0.000885,0,0
0:0:9.107,11.8456,1.1859,0,0.000885,0,0
0:0:9.204,11.8456,1.1859,0,0.000885,0,0
0:0:9.303,11.9079,1.19279,0,0.000885,0,0
0:0:9.403,11.73,1.17211,0,0.000885,0,0
0:0:9.499,11.6143,1.15832,0,0.000885,0,0
0:0:9.596,11.6143,1.15832,0,0.000885,0,0
0:0:9.694,11.73,1.17211,0,0.000885,0,0
0:0:9.794,11.3786,1.13763,0,0.000885,0,0
0:0:9.893,11.2629,1.12385,0,0.000885,0,0
0:0:9.990,11.2629,1.12385,0,0.000885,0,0
0:0:10.085,11.3786,1.13763,0,0.000885,0,0
0:0:10.182,11.1428,1.11695,0,0.000885,0,0
0:0:10.281,11.1428,1.11695,0,0.000885,0,0
0:0:10.380,10.9693,1.09627,0,0.000885,0,0
0:0:10.478,11.2629,1.12385,0,0.000885,0,0
0:0:10.573,10.9693,1.09627,0,0.000885,0,0
0:0:10.670,10.9693,1.09627,0,0.000885,0,0
0:0:10.769,10.7336,1.07558,0,0.000885,0,0
0:0:10.869,10.4978,1.048,0,0.000885,0,0
0:0:10.967,10.4978,1.048,0,0.000885,0,0
0:0:11.063,10.6179,1.06179,0,0.000885,0,0
0:0:11.159,10.907,1.08937,0,0.000885,0,0
0:0:11.259,10.6757,1.06869,0,0.000885,0,0
0:0:11.358,10.6757,1.06869,0,0.000885,0,0
0:0:11.466,10.7336,1.07558,0,0.000885,0,0
0:0:11.569,11.552,1.15832,0,0.000885,0,0
0:0:11.666,10.5556,1.0549,0,0.000885,0,0
0:0:11.766,10.5556,1.0549,0,0.000885,0,0
0:0:11.865,11.085,1.11006,0,0.000885,0,0
0:0:11.964,11.2629,1.12385,0,0.000885,0,0
0:0:12.059,11.4364,1.14453,0,0.000885,0,0
0:0:12.165,11.4364,1.14453,0,0.000885,0,0
0:0:12.263,11.6143,1.15832,0,0.000885,0,0
0:0:12.363,11.6143,1.15832,0,0.000885,0,0
0:0:12.462,11.9079,1.19279,0,0.000885,0,0
0:0:12.558,11.9079,1.19279,0,0.000885,0,0
0:0:12.663,11.4364,1.14453,0,0.000885,0,0
0:0:12.762,11.73,1.17211,0,0.000885,0,0
0:0:12.861,11.73,1.17211,0,0.000885,0,0
0:0:12.961,11.6721,1.16521,0,0.000885,0,0
0:0:13.065,11.73,1.17211,0,0.000885,0,0
0:0:13.161,11.6721,1.16521,0,0.000885,0,0
0:0:13.258,11.6721,1.16521,0,0.000885,0,0
0:0:13.359,12.0814,1.20658,0,0.000885,0,0
0:0:13.455,12.1392,1.21348,0,0.000885,0,0
0:0:13.565,12.7264,1.27553,0,0.000885,0,0
0:0:13.668,12.7264,1.27553,0,0.000885,0,0
0:0:13.767,13.0778,1.31,0,0.000885,0,0
0:0:13.867,12.9621,1.29621,0,0.000885,0,0
0:0:13.967,13.3135,1.33069,0,0.000885,0,0
0:0:14.065,13.3135,1.33069,0,0.000885,0,0
0:0:14.160,13.9007,1.39274,0,0.000885,0,0
0:0:14.266,14.0163,1.39964,0,0.000885,0,0
0:0:14.365,14.0163,1.39964,0,0.000885,0,0
0:0:14.465,14.0163,1.39964,0,0.000885,0,0
0:0:14.565,14.3099,1.43411,0,0.000885,0,0
0:0:14.663,14.8971,1.48927,0,0.000885,0,0
0:0:14.764,15.1907,1.51685,0,0.000885,0,0
0:0:14.864,15.1907,1.51685,0,0.000885,0,0
0:0:14.963,15.0127,1.50306,0,0.000885,0,0
0:0:15.064,15.3686,1.53753,0,0.000885,0,0
0:0:15.162,15.3686,1.53753,0,0.000885,0,0
0:0:15.261,15.3063,1.53064,0,0.000885,0,0
0:0:15.360,15.2485,1.52374,0,0.000885,0,0
0:0:15.461,15.6577,1.56511,0,0.000885,0,0
0:0:15.559,15.6577,1.56511,0,0.000885,0,0
0:0:15.668,15.8935,1.59269,0,0.000885,0,0
0:0:15.767,16.0714,1.60648,0,0.000885,0,0
0:0:15.867,16.2449,1.62716,0,0.000885,0,0
0:0:15.966,16.2449,1.62716,0,0.000885,0,0
0:0:16.066,16.4228,1.64095,0,0.000885,0,0
0:0:16.164,16.4807,1.64785,0,0.000885,0,0
0:0:16.260,16.7742,1.67543,0,0.000885,0,0
0:0:16.355,16.7742,1.67543,0,0.000885,0,0
0:0:16.454,17.2413,1.72369,0,0.000885,0,0
0:0:16.566,17.0678,1.7099,0,0.000885,0,0
0:0:16.663,17.7706,1.77885,0,0.000885,0,0
0:0:16.759,17.7706,1.77885,0,0.000885,0,0
0:0:16.854,17.4771,1.74437,0,0.000885,0,0
0:0:16.953,17.3614,1.73748,0,0.000885,0,0
0:0:17.065,17.7128,1.77195,0,0.000885,0,0
0:0:17.161,17.7128,1.77195,0,0.000885,0,0
0:0:17.266,17.3614,1.73748,0,0.000885,0,0
0:0:17.363,18.0064,1.79953,0,0.000885,0,0
0:0:17.462,18.0064,1.79953,0,0.000885,0,0
0:0:17.562,17.7706,1.77885,0,0.000885,0,0
0:0:17.660,17.655,1.76506,0,0.000885,0,0
0:0:17.764,18.0064,1.79953,0,0.000885,0,0
0:0:17.860,18.0064,1.79953,0,0.000885,0,0
0:0:17.960,17.9486,1.79264,0,0.000885,0,0
0:0:18.060,17.8863,1.78574,0,0.000885,0,0
0:0:18.159,18.4156,1.8409,0,0.000885,0,0
0:0:18.265,18.4156,1.8409,0,0.000885,0,0
0:0:18.359,18.4156,1.8409,0,0.000885,0,0
0:0:18.459,18.5357,1.85469,0,0.000885,0,0
0:0:18.559,18.7092,1.86848,0,0.000885,0,0
0:0:18.656,18.7092,1.86848,0,0.000885,0,0
0:0:18.764,18.945,1.89606,0,0.000885,0,0
0:0:18.859,18.7092,1.86848,0,0.000885,0,0
0:0:18.966,18.7092,1.86848,0,0.000885,0,0
0:0:19.065,18.7092,1.86848,0,0.000885,0,0
0:0:19.164,18.8871,1.88916,0,0.000885,0,0
0:0:19.263,18.8249,1.88227,0,0.000885,0,0
0:0:19.363,19.0606,1.90295,0,0.000885,0,0
0:0:19.464,19.0606,1.90295,0,0.000885,0,0
0:0:19.563,19.2386,1.92364,0,0.000885,0,0
0:0:19.663,19.59,1.95811,0,0.000885,0,0
0:0:19.762,19.59,1.95811,0,0.000885,0,0
0:0:19.862,19.7634,1.9788,0,0.000885,0,0
0:0:19.961,20.057,2.00637,0,0.000885,0,0
0:0:20.060,20.057,2.00637,0,0.000885,0,0
0:0:20.169,20.057,2.00637,0,0.000885,0,0
0:0:20.266,19.9992,1.99948,0,0.000885,0,0
0:0:20.366,20.3506,2.03395,0,0.000885,0,0
0:0:20.466,20.5864,2.06153,0,0.000885,0,0
0:0:20.566,20.5864,2.06153,0,0.000885,0,0
0:0:20.665,20.8221,2.08222,0,0.000885,0,0
0:0:20.762,20.4084,2.04085,0,0.000885,0,0
0:0:20.867,20.4084,2.04085,0,0.000885,0,0
0:0:20.964,20.4084,2.04085,0,0.000885,0,0
0:0:21.063,20.9956,2.1029,0,0.000885,0,0
0:0:21.163,20.8221,2.08222,0,0.000885,0,0
0:0:21.262,21.347,2.13737,0,0.000885,0,0
0:0:21.367,21.347,2.13737,0,0.000885,0,0
0:0:21.463,21.2892,2.13048,0,0.000885,0,0
0:0:21.563,21.5828,2.15806,0,0.000885,0,0
0:0:21.663,21.4093,2.13737,0,0.000885,0,0
0:0:21.760,21.4093,2.13737,0,0.000885,0,0
0:0:21.865,21.7029,2.17185,0,0.000885,0,0
0:0:21.961,21.7607,2.17874,0,0.000885,0,0
0:0:22.061,21.7607,2.17874,0,0.000885,0,0
0:0:22.160,21.7607,2.17874,0,0.000885,0,0
0:0:22.260,21.9342,2.19253,0,0.000885,0,0
0:0:22.366,22.3479,2.2339,0,0.000885,0,0
0:0:22.462,22.3479,2.2339,0,0.000885,0,0
0:0:22.560,22.4057,2.2408,0,0.000885,0,0
0:0:22.661,22.4635,2.24769,0,0.000885,0,0
0:0:22.760,22.4635,2.24769,0,0.000885,0,0
0:0:22.866,22.4635,2.24769,0,0.000885,0,0
0:0:22.961,22.637,2.26148,0,0.000885,0,0
0:0:23.060,22.8728,2.28906,0,0.000885,0,0
0:0:23.159,23.3443,2.33732,0,0.000885,0,0
0:0:23.259,23.3443,2.33732,0,0.000885,0,0
0:0:23.354,23.4599,2.34422,0,0.000885,0,0
0:0:23.463,23.7535,2.37869,0,0.000885,0,0
0:0:23.560,23.6957,2.3718,0,0.000885,0,0
0:0:23.660,23.6957,2.3718,0,0.000885,0,0
0:0:23.760,23.8692,2.38559,0,0.000885,0,0
0:0:23.866,23.7535,2.37869,0,0.000885,0,0
0:0:23.962,23.8692,2.38559,0,0.000885,0,0
0:0:24.056,23.8692,2.38559,0,0.000885,0,0
0:0:24.155,24.1627,2.41317,0,0.000885,0,0
0:0:24.255,24.1049,2.41317,0,0.000885,0,0
0:0:24.354,24.1049,2.41317,0,0.000885,0,0
0:0:24.454,24.2206,2.42006,0,0.000885,0,0
0:0:24.554,24.2828,2.42695,0,0.000885,0,0
0:0:24.655,24.4563,2.44764,0,0.000885,0,0
0:0:24.754,24.4563,2.44764,0,0.000885,0,0
0:0:24.854,24.4563,2.44764,0,0.000885,0,0
0:0:24.954,24.87,2.48901,0,0.000885,0,0
0:0:25.053,24.87,2.48901,0,0.000885,0,0
0:0:25.165,24.87,2.48901,0,0.000885,0,0
0:0:25.263,25.1013,2.50969,0,0.000885,0,0
0:0:25.362,24.9857,2.4959,0,0.000885,0,0
0:0:25.462,24.9278,2.4959,0,0.000885,0,0
0:0:25.560,24.9278,2.4959,0,0.000885,0,0
0:0:25.660,25.1591,2.51659,0,0.000885,0,0
0:0:25.761,25.515,2.55106,0,0.000885,0,0
0:0:25.859,25.8664,2.58553,0,0.000885,0,0
0:0:25.965,25.8664,2.58553,0,0.000885,0,0
0:0:26.061,25.8041,2.57864,0,0.000885,0,0
0:0:26.160,26.2178,2.62001,0,0.000885,0,0
0:0:26.260,26.2178,2.62001,0,0.000885,0,0
0:0:26.356,26.2178,2.62001,0,0.000885,0,0
0:0:26.465,26.4536,2.64759,0,0.000885,0,0
0:0:26.561,26.6849,2.66827,0,0.000885,0,0
0:0:26.661,26.6849,2.66827,0,0.000885,0,0
0:0:26.760,26.6849,2.66827,0,0.000885,0,0
0:0:26.860,26.8628,2.68896,0,0.000885,0,0
0:0:26.965,26.8628,2.68896,0,0.000885,0,0
0:0:27.062,26.8628,2.68896,0,0.000885,0,0
0:0:27.160,27.0986,2.70964,0,0.000885,0,0
0:0:27.261,27.272,2.73032,0,0.000885,0,0
0:0:27.360,27.45,2.74411,0,0.000885,0,0
0:0:27.466,27.45,2.74411,0,0.000885,0,0
0:0:27.564,27.6235,2.7648,0,0.000885,0,0
0:0:27.662,27.8014,2.77859,0,0.000885,0,0
0:0:27.763,27.8592,2.78548,0,0.000885,0,0
0:0:27.861,27.8592,2.78548,0,0.000885,0,0
0:0:27.967,28.2684,2.82685,0,0.000885,0,0
0:0:28.063,28.4464,2.84753,0,0.000885,0,0
0:0:28.162,28.5042,2.84753,0,0.000885,0,0
0:0:28.261,28.5042,2.84753,0,0.000885,0,0
0:0:28.360,28.7978,2.88201,0,0.000885,0,0
0:0:28.467,29.0914,2.90959,0,0.000885,0,0
0:0:28.571,28.74,2.87511,0,0.000885,0,0
0:0:28.670,28.74,2.87511,0,0.000885,0,0
0:0:28.771,29.0335,2.90269,0,0.000885,0,0
0:0:28.870,29.207,2.92338,0,0.000885,0,0
0:0:28.977,28.9713,2.8958,0,0.000885,0,0
0:0:29.081,28.9713,2.8958,0,0.000885,0,0
0:0:29.179,29.1492,2.91648,0,0.000885,0,0
0:0:29.278,29.1492,2.91648,0,0.000885,0,0
0:0:29.378,29.5006,2.95096,0,0.000885,0,0
0:0:29.478,29.5006,2.95096,0,0.000885,0,0
0:0:29.578,29.7364,2.97164,0,0.000885,0,0
0:0:29.680,29.4428,2.94406,0,0.000885,0,0
0:0:29.778,29.4428,2.94406,0,0.000885,0,0
0:0:29.878,30.0878,3.00611,0,0.000885,0,0
0:0:29.978,30.2657,3.0268,0,0.000885,0,0
0:0:30.078,30.3814,3.04059,0,0.000885,0,0
0:0:30.177,30.3814,3.04059,0,0.000885,0,0
0:0:30.276,30.4392,3.04059,0,0.000885,0,0
0:0:30.376,30.497,3.04748,0,0.000885,0,0
0:0:30.475,30.2034,3.0199,0,0.000885,0,0
0:0:30.575,30.2034,3.0199,0,0.000885,0,0
0:0:30.672,30.3814,3.04059,0,0.000885,0,0
0:0:30.771,30.3814,3.04059,0,0.000885,0,0
0:0:30.870,30.8484,3.08196,0,0.000885,0,0
0:0:30.969,30.8484,3.08196,0,0.000885,0,0
0:0:31.066,31.0263,3.10264,0,0.000885,0,0
0:0:31.164,31.142,3.11643,0,0.000885,0,0
0:0:31.262,31.142,3.11643,0,0.000885,0,0
0:0:31.361,31.142,3.11643,0,0.000885,0,0
0:0:31.460,31.4934,3.1509,0,0.000885,0,0
0:0:31.565,31.3778,3.13711,0,0.000885,0,0
0:0:31.662,31.3778,3.13711,0,0.000885,0,0
0:0:31.762,31.7292,3.17159,0,0.000885,0,0
0:0:31.861,31.6713,3.16469,0,0.000885,0,0
0:0:31.957,31.9071,3.19227,0,0.000885,0,0
0:0:32.066,31.9071,3.19227,0,0.000885,0,0
0:0:32.162,31.9649,3.19917,0,0.000885,0,0
0:0:32.262,32.0227,3.19917,0,0.000885,0,0
0:0:32.361,32.3742,3.24054,0,0.000885,0,0
0:0:32.460,32.3742,3.24054,0,0.000885,0,0
0:0:32.566,32.432,3.24054,0,0.000885,0,0
0:0:32.661,32.6099,3.26122,0,0.000885,0,0
0:0:32.761,32.7256,3.27501,0,0.000885,0,0
0:0:32.861,32.7256,3.27501,0,0.000885,0,0
0:0:32.957,32.6677,3.26811,0,0.000885,0,0
0:0:33.065,32.6677,3.26811,0,0.000885,0,0
0:0:33.162,32.6677,3.26811,0,0.000885,0,0
0:0:33.257,32.9035,3.2888,0,0.000885,0,0
0:0:33.360,32.9613,3.29569,0,0.000885,0,0
0:0:33.457,32.9035,3.2888,0,0.000885,0,0
0:0:33.565,32.9035,3.2888,0,0.000885,0,0
0:0:33.661,33.1393,3.31638,0,0.000885,0,0
0:0:33.761,33.077,3.30948,0,0.000885,0,0
0:0:33.857,33.3127,3.33017,0,0.000885,0,0
0:0:33.957,33.3127,3.33017,0,0.000885,0,0
0:0:34.065,33.5485,3.35775,0,0.000885,0,0
0:0:34.161,33.7842,3.37843,0,0.000885,0,0
0:0:34.260,33.8999,3.39222,0,0.000885,0,0
0:0:34.360,33.8999,3.39222,0,0.000885,0,0
0:0:34.456,34.1935,3.4198,0,0.000885,0,0
0:0:34.568,34.1935,3.4198,0,0.000885,0,0
0:0:34.669,34.4871,3.44738,0,0.000885,0,0
0:0:34.769,34.4871,3.44738,0,0.000885,0,0
0:0:34.870,34.6605,3.46806,0,0.000885,0,0
0:0:34.970,34.6605,3.46806,0,0.000885,0,0
0:0:35.069,34.7806,3.47496,0,0.000885,0,0
0:0:35.168,34.7806,3.47496,0,0.000885,0,0
0:0:35.267,34.6027,3.46117,0,0.000885,0,0
0:0:35.367,34.8385,3.48185,0,0.000885,0,0
0:0:35.467,34.9541,3.49564,0,0.000885,0,0
0:0:35.565,34.9541,3.49564,0,0.000885,0,0
0:0:35.665,34.8963,3.48875,0,0.000885,0,0
0:0:35.765,35.0164,3.50254,0,0.000885,0,0
0:0:35.865,35.0164,3.50254,0,0.000885,0,0
0:0:35.963,35.5991,3.55769,0,0.000885,0,0
0:0:36.068,35.4835,3.5508,0,0.000885,0,0
0:0:36.166,35.8349,3.58527,0,0.000885,0,0
0:0:36.263,35.8349,3.58527,0,0.000885,0,0
0:0:36.363,35.5991,3.55769,0,0.000885,0,0
0:0:36.462,35.777,3.57838,0,0.000885,0,0
0:0:36.569,35.2477,3.52322,0,0.000885,0,0
0:0:36.664,35.2477,3.52322,0,0.000885,0,0
0:0:36.762,35.777,3.57838,0,0.000885,0,0
0:0:36.861,35.8349,3.58527,0,0.000885,0,0
0:0:36.961,35.8927,3.59217,0,0.000885,0,0
0:0:37.067,35.8927,3.59217,0,0.000885,0,0
0:0:37.164,36.1863,3.61975,0,0.000885,0,0
0:0:37.261,36.3642,3.63354,0,0.000885,0,0
0:0:37.362,36.5377,3.65422,0,0.000885,0,0
0:0:37.461,36.5377,3.65422,0,0.000885,0,0
0:0:37.568,36.6578,3.66801,0,0.000885,0,0
0:0:37.664,36.8891,3.6887,0,0.000885,0,0
0:0:37.769,37.245,3.72317,0,0.000885,0,0
0:0:37.870,37.245,3.72317,0,0.000885,0,0
0:0:37.969,37.0092,3.70248,0,0.000885,0,0
0:0:38.067,36.9514,3.69559,0,0.000885,0,0
0:0:38.163,36.9514,3.69559,0,0.000885,0,0
0:0:38.269,36.8891,3.6887,0,0.000885,0,0
0:0:38.369,36.8313,3.6818,0,0.000885,0,0
0:0:38.468,36.9514,3.69559,0,0.000885,0,0
0:0:38.566,36.9514,3.69559,0,0.000885,0,0
0:0:38.662,37.067,3.70938,0,0.000885,0,0
0:0:38.768,36.7156,3.67491,0,0.000885,0,0
0:0:38.866,36.7734,3.67491,0,0.000885,0,0
0:0:38.966,36.7734,3.67491,0,0.000885,0,0
0:0:39.064,36.8891,3.6887,0,0.000885,0,0
0:0:39.169,36.5377,3.65422,0,0.000885,0,0
0:0:39.267,36.2441,3.62664,0,0.000885,0,0
0:0:39.366,36.2441,3.62664,0,0.000885,0,0
0:0:39.466,36.0706,3.60596,0,0.000885,0,0
0:0:39.564,35.8349,3.58527,0,0.000885,0,0
0:0:39.664,35.1321,3.51633,0,0.000885,0,0
0:0:39.764,35.1321,3.51633,0,0.000885,0,0
0:0:39.865,34.8385,3.48185,0,0.000885,0,0
0:0:39.964,34.6605,3.46806,0,0.000885,0,0
0:0:40.064,34.7228,3.47496,0,0.000885,0,0
0:0:40.161,34.7228,3.47496,0,0.000885,0,0
0:0:40.262,34.367,3.43359,0,0.000885,0,0
0:0:40.369,34.2513,3.42669,0,0.000885,0,0
0:0:40.469,34.2513,3.42669,0,0.000885,0,0
0:0:40.568,34.2513,3.42669,0,0.000885,0,0
0:0:40.668,34.1357,3.4129,0,0.000885,0,0
0:0:40.766,34.0778,3.40601,0,0.000885,0,0
0:0:40.866,34.0778,3.40601,0,0.000885,0,0
0:0:40.965,33.722,3.37154,0,0.000885,0,0
0:0:41.064,33.3706,3.33706,0,0.000885,0,0
0:0:41.169,33.1393,3.31638,0,0.000885,0,0
0:0:41.265,33.1393,3.31638,0,0.000885,0,0
0:0:41.364,32.6099,3.26122,0,0.000885,0,0
0:0:41.462,32.0227,3.19917,0,0.000885,0,0
0:0:41.562,31.6135,3.16469,0,0.000885,0,0
0:0:41.668,31.6135,3.16469,0,0.000885,0,0
0:0:41.764,31.4356,3.14401,0,0.000885,0,0
0:0:41.862,31.142,3.11643,0,0.000885,0,0
0:0:41.961,30.2657,3.0268,0,0.000885,0,0
0:0:42.057,30.2657,3.0268,0,0.000885,0,0
0:0:42.165,29.7364,2.97164,0,0.000885,0,0
0:0:42.261,29.3271,2.93027,0,0.000885,0,0
0:0:42.357,29.3271,2.93027,0,0.000885,0,0
0:0:42.461,28.3263,2.83375,0,0.000885,0,0
0:0:42.556,28.1528,2.81306,0,0.000885,0,0
0:0:42.665,27.7436,2.77169,0,0.000885,0,0
0:0:42.770,27.6235,2.7648,0,0.000885,0,0
0:0:42.868,27.6235,2.7648,0,0.000885,0,0
0:0:42.968,27.2142,2.72343,0,0.000885,0,0
0:0:43.067,26.9785,2.69585,0,0.000885,0,0
0:0:43.164,26.9785,2.69585,0,0.000885,0,0
0:0:43.268,26.2756,2.6269,0,0.000885,0,0
0:0:43.366,26.0977,2.61311,0,0.000885,0,0
0:0:43.466,26.2756,2.6269,0,0.000885,0,0
0:0:43.565,26.2756,2.6269,0,0.000885,0,0
0:0:43.663,25.5728,2.55795,0,0.000885,0,0
0:0:43.767,25.3949,2.53727,0,0.000885,0,0
0:0:43.865,25.1013,2.50969,0,0.000885,0,0
0:0:43.965,25.1013,2.50969,0,0.000885,0,0
0:0:44.065,24.6921,2.46832,0,0.000885,0,0
0:0:44.162,24.4563,2.44764,0,0.000885,0,0
0:0:44.267,24.3407,2.43385,0,0.000885,0,0
0:0:44.362,24.3407,2.43385,0,0.000885,0,0
0:0:44.463,24.7499,2.47522,0,0.000885,0,0
0:0:44.562,24.3407,2.43385,0,0.000885,0,0
0:0:44.661,24.3407,2.43385,0,0.000885,0,0
0:0:44.758,24.3407,2.43385,0,0.000885,0,0
0:0:44.858,24.9278,2.4959,0,0.000885,0,0
0:0:44.957,24.9857,2.4959,0,0.000885,0,0
0:0:45.057,24.9857,2.4959,0,0.000885,0,0
0:0:45.157,24.6921,2.46832,0,0.000885,0,0
0:0:45.257,24.5764,2.45453,0,0.000885,0,0
0:0:45.355,24.6343,2.46143,0,0.000885,0,0
0:0:45.455,24.6343,2.46143,0,0.000885,0,0
0:0:45.555,24.8077,2.48211,0,0.000885,0,0
0:0:45.654,24.6343,2.46143,0,0.000885,0,0
0:0:45.752,24.9278,2.4959,0,0.000885,0,0
0:0:45.851,24.9278,2.4959,0,0.000885,0,0
0:0:45.950,24.8077,2.48211,0,0.000885,0,0
0:0:46.050,25.1013,2.50969,0,0.000885,0,0
0:0:46.149,24.87,2.48901,0,0.000885,0,0
0:0:46.255,24.87,2.48901,0,0.000885,0,0
0:0:46.362,24.9278,2.4959,0,0.000885,0,0
0:0:46.462,24.7499,2.47522,0,0.000885,0,0
0:0:46.557,25.0435,2.5028,0,0.000885,0,0
0:0:46.668,25.0435,2.5028,0,0.000885,0,0
0:0:46.765,24.9857,2.4959,0,0.000885,0,0
0:0:46.871,25.0435,2.5028,0,0.000885,0,0
0:0:46.970,25.1591,2.51659,0,0.000885,0,0
0:0:47.070,25.1591,2.51659,0,0.000885,0,0
0:0:47.168,25.2214,2.52348,0,0.000885,0,0
0:0:47.263,25.2214,2.52348,0,0.000885,0,0
0:0:47.369,25.2214,2.52348,0,0.000885,0,0
0:0:47.469,25.2214,2.52348,0,0.000885,0,0
0:0:47.569,25.1591,2.51659,0,0.000885,0,0
0:0:47.667,25.2792,2.53038,0,0.000885,0,0
0:0:47.762,25.2792,2.53038,0,0.000885,0,0
0:0:47.869,25.1591,2.51659,0,0.000885,0,0
0:0:47.968,25.3371,2.53038,0,0.000885,0,0
0:0:48.068,25.7463,2.57174,0,0.000885,0,0
0:0:48.167,25.7463,2.57174,0,0.000885,0,0
0:0:48.262,25.2792,2.53038,0,0.000885,0,0
0:0:48.368,25.1013,2.50969,0,0.000885,0,0
0:0:48.467,25.1013,2.50969,0,0.000885,0,0
0:0:48.566,25.1013,2.50969,0,0.000885,0,0
0:0:48.665,25.3949,2.53727,0,0.000885,0,0
0:0:48.770,25.2214,2.52348,0,0.000885,0,0
0:0:48.867,25.2792,2.53038,0,0.000885,0,0
0:0:48.965,25.2792,2.53038,0,0.000885,0,0
0:0:49.065,25.3949,2.53727,0,0.000885,0,0
0:0:49.164,25.3949,2.53727,0,0.000885,0,0
0:0:49.264,25.3371,2.53038,0,0.000885,0,0
0:0:49.363,25.3371,2.53038,0,0.000885,0,0
0:0:49.464,25.515,2.55106,0,0.000885,0,0
0:0:49.563,25.3949,2.53727,0,0.000885,0,0
0:0:49.663,25.3949,2.53727,0,0.000885,0,0
0:0:49.762,25.515,2.55106,0,0.000885,0,0
0:0:49.862,25.3371,2.53038,0,0.000885,0,0
0:0:49.958,25.3371,2.53038,0,0.000885,0,0
0:0:50.057,25.3371,2.53038,0,0.000885,0,0
0:0:50.155,24.9857,2.4959,0,0.000885,0,0
0:0:50.256,24.87,2.48901,0,0.000885,0,0
0:0:50.354,25.1013,2.50969,0,0.000885,0,0
0:0:50.466,25.1013,2.50969,0,0.000885,0,0
0:0:50.564,25.1591,2.51659,0,0.000885,0,0
0:0:50.664,25.4527,2.54417,0,0.000885,0,0
0:0:50.769,25.2214,2.52348,0,0.000885,0,0
0:0:50.866,25.2214,2.52348,0,0.000885,0,0
0:0:50.964,24.7499,2.47522,0,0.000885,0,0
0:0:51.064,24.87,2.48901,0,0.000885,0,0
0:0:51.159,25.1591,2.51659,0,0.000885,0,0
0:0:51.268,25.1591,2.51659,0,0.000885,0,0
0:0:51.365,24.87,2.48901,0,0.000885,0,0
0:0:51.462,24.87,2.48901,0,0.000885,0,0
0:0:51.562,25.2792,2.53038,0,0.000885,0,0
0:0:51.658,25.2792,2.53038,0,0.000885,0,0
0:0:51.768,24.8077,2.48211,0,0.000885,0,0
0:0:51.863,24.6343,2.46143,0,0.000885,0,0
0:0:51.970,24.6921,2.46832,0,0.000885,0,0
0:0:52.069,24.6921,2.46832,0,0.000885,0,0
0:0:52.169,24.6343,2.46143,0,0.000885,0,0
0:0:52.267,24.6921,2.46832,0,0.000885,0,0
0:0:52.371,25.0435,2.5028,0,0.000885,0,0
0:0:52.468,25.0435,2.5028,0,0.000885,0,0
0:0:52.567,24.6921,2.46832,0,0.000885,0,0
0:0:52.667,24.5764,2.45453,0,0.000885,0,0
0:0:52.765,24.5764,2.45453,0,0.000885,0,0
0:0:52.869,24.8077,2.48211,0,0.000885,0,0
0:0:52.966,24.6343,2.46143,0,0.000885,0,0
0:0:53.066,24.6343,2.46143,0,0.000885,0,0
0:0:53.165,24.6343,2.46143,0,0.000885,0,0
0:0:53.264,24.4563,2.44764,0,0.000885,0,0
0:0:53.368,24.5141,2.45453,0,0.000885,0,0
0:0:53.465,24.3407,2.43385,0,0.000885,0,0
0:0:53.564,24.3407,2.43385,0,0.000885,0,0
0:0:53.664,24.5141,2.45453,0,0.000885,0,0
0:0:53.762,24.3407,2.43385,0,0.000885,0,0
0:0:53.867,24.4563,2.44764,0,0.000885,0,0
0:0:53.972,24.4563,2.44764,0,0.000885,0,0
0:0:54.070,24.3985,2.44074,0,0.000885,0,0
0:0:54.170,24.1627,2.41317,0,0.000885,0,0
0:0:54.270,23.9893,2.39938,0,0.000885,0,0
0:0:54.369,23.9893,2.39938,0,0.000885,0,0
0:0:54.469,23.8113,2.37869,0,0.000885,0,0
0:0:54.570,23.8113,2.37869,0,0.000885,0,0
0:0:54.669,23.7535,2.37869,0,0.000885,0,0
0:0:54.770,23.7535,2.37869,0,0.000885,0,0
0:0:54.869,24.0471,2.40627,0,0.000885,0,0
0:0:54.968,23.8692,2.38559,0,0.000885,0,0
0:0:55.067,23.8692,2.38559,0,0.000885,0,0
0:0:55.166,24.0471,2.40627,0,0.000885,0,0
0:0:55.265,24.0471,2.40627,0,0.000885,0,0
0:0:55.365,23.9314,2.39248,0,0.000885,0,0
0:0:55.464,23.9314,2.39248,0,0.000885,0,0
0:0:55.562,23.8692,2.38559,0,0.000885,0,0
0:0:55.659,23.6957,2.3718,0,0.000885,0,0
0:0:55.759,23.6378,2.3649,0,0.000885,0,0
0:0:55.867,23.6378,2.3649,0,0.000885,0,0
0:0:55.963,23.8692,2.38559,0,0.000885,0,0
0:0:56.058,23.6378,2.3649,0,0.000885,0,0
0:0:56.170,23.6378,2.3649,0,0.000885,0,0
0:0:56.268,23.6378,2.3649,0,0.000885,0,0
0:0:56.365,23.4021,2.33732,0,0.000885,0,0
0:0:56.471,23.1663,2.31664,0,0.000885,0,0
0:0:56.569,23.1085,2.30974,0,0.000885,0,0
0:0:56.670,23.1085,2.30974,0,0.000885,0,0
0:0:56.769,22.7571,2.27527,0,0.000885,0,0
0:0:56.865,22.5792,2.26148,0,0.000885,0,0
0:0:56.970,22.4635,2.24769,0,0.000885,0,0
0:0:57.068,22.4635,2.24769,0,0.000885,0,0
0:0:57.168,22.5792,2.26148,0,0.000885,0,0
0:0:57.267,22.1699,2.22011,0,0.000885,0,0
0:0:57.364,22.1699,2.22011,0,0.000885,0,0
0:0:57.470,21.8764,2.18564,0,0.000885,0,0
0:0:57.568,21.7029,2.17185,0,0.000885,0,0
0:0:57.668,21.6406,2.16495,0,0.000885,0,0
0:0:57.767,21.6406,2.16495,0,0.000885,0,0
0:0:57.864,21.5828,2.15806,0,0.000885,0,0
0:0:57.969,21.4093,2.13737,0,0.000885,0,0
0:0:58.065,21.2892,2.13048,0,0.000885,0,0
0:0:58.164,21.2892,2.13048,0,0.000885,0,0
0:0:58.264,21.1735,2.11669,0,0.000885,0,0
0:0:58.359,21.1157,2.1098,0,0.000885,0,0
0:0:58.468,21.2892,2.13048,0,0.000885,0,0
0:0:58.565,21.2892,2.13048,0,0.000885,0,0
0:0:58.663,20.702,2.06843,0,0.000885,0,0
0:0:58.763,20.5864,2.06153,0,0.000885,0,0
0:0:58.870,20.5285,2.05464,0,0.000885,0,0
0:0:58.966,20.5285,2.05464,0,0.000885,0,0
0:0:59.071,20.4707,2.04774,0,0.000885,0,0
0:0:59.170,20.5285,2.05464,0,0.000885,0,0
0:0:59.271,20.4084,2.04085,0,0.000885,0,0
0:0:59.368,20.4084,2.04085,0,0.000885,0,0
0:0:59.469,20.4707,2.04774,0,0.000885,0,0
0:0:59.568,20.4084,2.04085,0,0.000885,0,0
0:0:59.669,20.4084,2.04085,0,0.000885,0,0
0:0:59.769,20.5285,2.05464,0,0.000885,0,0
0:0:59.869,20.2928,2.02706,0,0.000885,0,0
0:0:59.968,20.3506,2.03395,0,0.000885,0,0
0:1:0.067,20.3506,2.03395,0,0.000885,0,0
0:1:0.165,20.235,2.02016,0,0.000885,0,0
0:1:0.265,20.3506,2.03395,0,0.000885,0,0
0:1:0.364,20.1193,2.01327,0,0.000885,0,0
0:1:0.464,20.1193,2.01327,0,0.000885,0,0
0:1:0.560,20.2928,2.02706,0,0.000885,0,0
0:1:0.659,20.1193,2.01327,0,0.000885,0,0
0:1:0.758,20.057,2.00637,0,0.000885,0,0
0:1:0.858,20.057,2.00637,0,0.000885,0,0
0:1:0.966,20.1771,2.02016,0,0.000885,0,0
0:1:1.071,20.1771,2.02016,0,0.000885,0,0
0:1:1.169,20.4084,2.04085,0,0.000885,0,0
0:1:1.267,20.4084,2.04085,0,0.000885,0,0
0:1:1.367,20.4084,2.04085,0,0.000885,0,0
0:1:1.465,20.4707,2.04774,0,0.000885,0,0
0:1:1.569,20.6442,2.06153,0,0.000885,0,0
0:1:1.668,20.6442,2.06153,0,0.000885,0,0
0:1:1.766,20.4707,2.04774,0,0.000885,0,0
0:1:1.865,20.4084,2.04085,0,0.000885,0,0
0:1:1.963,20.4084,2.04085,0,0.000885,0,0
0:1:2.068,20.5285,2.05464,0,0.000885,0,0
0:1:2.164,20.1193,2.01327,0,0.000885,0,0
0:1:2.264,20.2928,2.02706,0,0.000885,0,0
0:1:2.364,20.2928,2.02706,0,0.000885,0,0
0:1:2.458,20.235,2.02016,0,0.000885,0,0
0:1:2.566,20.2928,2.02706,0,0.000885,0,0
0:1:2.671,20.1193,2.01327,0,0.000885,0,0
0:1:2.770,20.1193,2.01327,0,0.000885,0,0
0:1:2.870,19.9414,1.99258,0,0.000885,0,0
0:1:2.969,19.8836,1.98569,0,0.000885,0,0
0:1:3.066,19.8836,1.98569,0,0.000885,0,0
0:1:3.170,19.8836,1.98569,0,0.000885,0,0
0:1:3.268,19.8836,1.98569,0,0.000885,0,0
0:1:3.368,19.7056,1.9719,0,0.000885,0,0
0:1:3.467,19.7056,1.9719,0,0.000885,0,0
0:1:3.563,19.7056,1.9719,0,0.000885,0,0
0:1:3.668,19.6478,1.96501,0,0.000885,0,0
0:1:3.766,19.59,1.95811,0,0.000885,0,0
0:1:3.865,19.412,1.94432,0,0.000885,0,0
0:1:3.965,19.412,1.94432,0,0.000885,0,0
0:1:4.060,19.3542,1.93743,0,0.000885,0,0
0:1:4.168,19.3542,1.93743,0,0.000885,0,0
0:1:4.265,19.3542,1.93743,0,0.000885,0,0
0:1:4.364,19.2964,1.93053,0,0.000885,0,0
0:1:4.460,19.3542,1.93743,0,0.000885,0,0
0:1:4.560,19.3542,1.93743,0,0.000885,0,0
0:1:4.659,19.3542,1.93743,0,0.000885,0,0
0:1:4.764,19.2964,1.93053,0,0.000885,0,0
0:1:4.860,19.1185,1.90985,0,0.000885,0,0
0:1:4.958,18.8871,1.88916,0,0.000885,0,0
0:1:5.058,18.8871,1.88916,0,0.000885,0,0
0:1:5.158,18.767,1.87537,0,0.000885,0,0
0:1:5.256,19.0606,1.90295,0,0.000885,0,0
0:1:5.356,19.1185,1.90985,0,0.000885,0,0
0:1:5.454,19.1185,1.90985,0,0.000885,0,0
0:1:5.565,19.0606,1.90295,0,0.000885,0,0
0:1:5.665,18.8871,1.88916,0,0.000885,0,0
0:1:5.763,18.8249,1.88227,0,0.000885,0,0
0:1:5.860,18.8249,1.88227,0,0.000885,0,0
0:1:5.960,18.8249,1.88227,0,0.000885,0,0
0:1:6.058,18.6514,1.86848,0,0.000885,0,0
0:1:6.155,18.6514,1.86848,0,0.000885,0,0