File: DataFile2021-07-28_103546.csv
Test ID:,Date Tested:,Time:,Test Type:,Diameter Avg. (mm):,Cyl. Corr. Factor:,Height (mm):,Age (days):,Weight (kN):,Break Type:,Ramp Rate (MPa/s):,Load at Break (kN):,Stress at Break (MPa):
12,7/28/2021,10:35,Cylinder,100,1,200,0,13.69,3,0.35,1264.13,160.95
Sample Time,Load (kN),Stress (MPa),Long. Strain,Trans. Strain,Chan1 Deflection (mm),Chan2 Deflection (mm)
0:0:14.351,5.04428,0.641212,0,0.000885,0,0
0:0:14.745,6.04068,0.772213,0,0.000885,0,0
0:0:15.144,11.9079,1.51685,0,0.000885,0,0
0:0:15.545,11.552,1.46858,0,0.000885,0,0
0:0:15.942,10.907,1.38585,0,0.000885,0,0
0:0:16.337,11.4942,1.46169,0,0.000885,0,0
0:0:16.732,11.4364,1.45479,0,0.000885,0,0
0:0:17.129,11.7878,1.50306,0,0.000885,0,0
0:0:17.527,12.4328,1.58579,0,0.000885,0,0
0:0:17.926,13.3714,1.70301,0,0.000885,0,0
0:0:18.318,14.7814,1.88227,0,0.000885,0,0
0:0:18.717,16.0136,2.04085,0,0.000885,0,0
0:0:19.116,17.1835,2.18564,0,0.000885,0,0
0:0:19.515,18.5357,2.35801,0,0.000885,0,0
0:0:19.920,19.7056,2.50969,0,0.000885,0,0
0:0:20.326,21.4093,2.72343,0,0.000885,0,0
0:0:20.729,22.4635,2.86132,0,0.000885,0,0
0:0:21.132,23.3443,2.97164,0,0.000885,0,0
0:0:21.531,25.1013,3.19917,0,0.000885,0,0
0:0:21.927,25.6307,3.26122,0,0.000885,0,0
0:0:22.326,26.9785,3.43359,0,0.000885,0,0
0:0:22.726,27.917,3.55769,0,0.000885,0,0
0:0:23.125,29.0335,3.69559,0,0.000885,0,0
0:0:23.521,30.4392,3.87485,0,0.000885,0,0
0:0:23.916,32.0806,4.0817,0,0.000885,0,0
0:0:24.318,32.8457,4.18512,0,0.000885,0,0
0:0:24.717,34.0778,4.3368,0,0.000885,0,0
0:0:25.124,35.2477,4.48849,0,0.000885,0,0
0:0:25.530,36.1285,4.5988,0,0.000885,0,0
0:0:25.933,37.5385,4.77807,0,0.000885,0,0
0:0:26.336,38.357,4.88149,0,0.000885,0,0
0:0:26.733,39.4112,5.01938,0,0.000885,0,0
0:0:27.129,40.5856,5.16417,0,0.000885,0,0
0:0:27.527,41.1727,5.24002,0,0.000885,0,0
0:0:27.927,41.8756,5.32965,0,0.000885,0,0
0:0:28.327,43.0499,5.48133,0,0.000885,0,0
0:0:28.723,43.9306,5.59165,0,0.000885,0,0
0:0:29.119,45.572,5.80539,0,0.000885,0,0
0:0:29.518,46.6263,5.93639,0,0.000885,0,0
0:0:29.920,48.2677,6.14323,0,0.000885,0,0
0:0:30.328,49.3842,6.28802,0,0.000885,0,0
0:0:30.732,50.732,6.46039,0,0.000885,0,0
0:0:31.136,51.2613,6.52934,0,0.000885,0,0
0:0:31.536,51.9641,6.61897,0,0.000885,0,0
0:0:31.937,53.0184,6.74997,0,0.000885,0,0
0:0:32.332,54.3083,6.91544,0,0.000885,0,0
0:0:32.730,55.7184,7.09471,0,0.000885,0,0
0:0:33.127,56.8928,7.24639,0,0.000885,0,0
0:0:33.528,57.8892,7.3705,0,0.000885,0,0
0:0:33.929,58.3562,7.43255,0,0.000885,0,0
0:0:34.325,59.5305,7.57734,0,0.000885,0,0
0:0:34.720,61.4655,7.82555,0,0.000885,0,0
0:0:35.126,62.8133,7.99792,0,0.000885,0,0
0:0:35.532,63.4583,8.08066,0,0.000885,0,0
0:0:35.937,64.9841,8.27371,0,0.000885,0,0
0:0:36.340,66.2741,8.43918,0,0.000885,0,0
0:0:36.737,66.919,8.52192,0,0.000885,0,0
0:0:37.138,68.4448,8.71497,0,0.000885,0,0
0:0:37.536,68.6227,8.73566,0,0.000885,0,0
0:0:37.933,69.7926,8.88734,0,0.000885,0,0
0:0:38.329,71.1449,9.05971,0,0.000885,0,0
0:0:38.728,71.7898,9.14245,0,0.000885,0,0
0:0:39.128,73.3734,9.3424,0,0.000885,0,0
0:0:39.526,74.1341,9.43892,0,0.000885,0,0
0:0:39.932,75.3662,9.5975,0,0.000885,0,0
0:0:40.337,76.4783,9.7354,0,0.000885,0,0
0:0:40.739,77.4168,9.8595,0,0.000885,0,0
0:0:41.143,78.9426,10.0526,0,0.000885,0,0
0:0:41.540,79.7077,10.1491,0,0.000885,0,0
0:0:41.936,81.1133,10.3283,0,0.000885,0,0
0:0:42.336,82.2877,10.48,0,0.000885,0,0
0:0:42.736,83.4575,10.6248,0,0.000885,0,0
0:0:43.131,84.0447,10.7007,0,0.000885,0,0
0:0:43.530,85.4548,10.8799,0,0.000885,0,0
0:0:43.926,86.6869,11.0385,0,0.000885,0,0
0:0:44.328,87.8568,11.1833,0,0.000885,0,0
0:0:44.726,88.8577,11.3143,0,0.000885,0,0
0:0:45.132,89.9697,11.4522,0,0.000885,0,0
0:0:45.538,90.9661,11.5832,0,0.000885,0,0
0:0:45.942,92.3762,11.7625,0,0.000885,0,0
0:0:46.346,93.4883,11.9004,0,0.000885,0,0
0:0:46.743,94.5425,12.0382,0,0.000885,0,0
0:0:47.138,95.1919,12.121,0,0.000885,0,0
0:0:47.536,95.7168,12.1899,0,0.000885,0,0
0:0:47.937,97.1269,12.3692,0,0.000885,0,0
0:0:48.334,98.0032,12.4795,0,0.000885,0,0
0:0:48.731,99.8804,12.7139,0,0.000885,0,0
0:0:49.128,100.819,12.838,0,0.000885,0,0
0:0:49.527,101.878,12.969,0,0.000885,0,0
0:0:49.929,102.638,13.0656,0,0.000885,0,0
0:0:50.336,104.106,13.2517,0,0.000885,0,0
0:0:50.740,104.751,13.3345,0,0.000885,0,0
0:0:51.144,106.215,13.5206,0,0.000885,0,0
0:0:51.545,107.273,13.6585,0,0.000885,0,0
0:0:51.942,108.679,13.8378,0,0.000885,0,0
0:0:52.338,109.675,13.9619,0,0.000885,0,0
0:0:52.736,110.908,14.1205,0,0.000885,0,0
0:0:53.136,112.024,14.2653,0,0.000885,0,0
0:0:53.535,112.785,14.3618,0,0.000885,0,0
0:0:53.931,113.959,14.5066,0,0.000885,0,0
0:0:54.328,115.191,14.6651,0,0.000885,0,0
0:0:54.733,116.423,14.8237,0,0.000885,0,0
0:0:55.139,117.357,14.9409,0,0.000885,0,0
0:0:55.543,119.003,15.1547,0,0.000885,0,0
0:0:55.947,119.822,15.2581,0,0.000885,0,0
0:0:56.343,120.409,15.3339,0,0.000885,0,0
0:0:56.743,121.174,15.4305,0,0.000885,0,0
0:0:57.143,122.873,15.6442,0,0.000885,0,0
0:0:57.539,123.927,15.7821,0,0.000885,0,0
0:0:57.935,124.866,15.8993,0,0.000885,0,0
0:0:58.335,125.747,16.0096,0,0.000885,0,0
0:0:58.735,127.095,16.182,0,0.000885,0,0
0:0:59.134,128.091,16.3061,0,0.000885,0,0
0:0:59.531,129.443,16.4785,0,0.000885,0,0
0:0:59.937,130.613,16.6302,0,0.000885,0,0
0:1:0.343,131.494,16.7405,0,0.000885,0,0
0:1:0.747,132.548,16.8784,0,0.000885,0,0
0:1:1.152,134.016,17.0645,0,0.000885,0,0
0:1:1.549,135.19,17.2162,0,0.000885,0,0
0:1:1.946,136.071,17.3265,0,0.000885,0,0
0:1:2.346,137.125,17.4575,0,0.000885,0,0
0:1:2.747,138.415,17.623,0,0.000885,0,0
0:1:3.142,139.118,17.7126,0,0.000885,0,0
0:1:3.540,140.408,17.8781,0,0.000885,0,0
0:1:3.940,141.467,18.0091,0,0.000885,0,0
0:1:4.339,142.815,18.1815,0,0.000885,0,0
0:1:4.738,143.753,18.3056,0,0.000885,0,0
0:1:5.144,144.75,18.4297,0,0.000885,0,0
0:1:5.549,146.217,18.6158,0,0.000885,0,0
0:1:5.953,147.156,18.7331,0,0.000885,0,0
0:1:6.354,147.387,18.7675,0,0.000885,0,0
0:1:6.751,148.797,18.9468,0,0.000885,0,0
0:1:7.149,150.145,19.1192,0,0.000885,0,0
0:1:7.548,151.142,19.2433,0,0.000885,0,0
0:1:7.948,152.374,19.4018,0,0.000885,0,0
0:1:8.346,153.019,19.4846,0,0.000885,0,0
0:1:8.742,154.367,19.657,0,0.000885,0,0
0:1:9.141,155.599,19.8086,0,0.000885,0,0
0:1:9.542,157.125,20.0086,0,0.000885,0,0
0:1:9.939,158.179,20.1396,0,0.000885,0,0
0:1:10.345,159.18,20.2637,0,0.000885,0,0
0:1:10.751,160.114,20.3878,0,0.000885,0,0
0:1:11.155,161.408,20.5533,0,0.000885,0,0
0:1:11.558,162.053,20.636,0,0.000885,0,0
0:1:11.955,163.459,20.8153,0,0.000885,0,0
0:1:12.353,164.513,20.9463,0,0.000885,0,0
0:1:12.750,165.981,21.1324,0,0.000885,0,0
0:1:13.151,166.977,21.2634,0,0.000885,0,0
0:1:13.550,168.325,21.4289,0,0.000885,0,0
0:1:13.946,168.797,21.491,0,0.000885,0,0
0:1:14.342,170.265,21.6771,0,0.000885,0,0
0:1:14.746,171.492,21.8357,0,0.000885,0,0
0:1:15.152,172.079,21.9115,0,0.000885,0,0
0:1:15.556,173.432,22.0839,0,0.000885,0,0
0:1:15.960,174.602,22.2287,0,0.000885,0,0
0:1:16.368,175.834,22.3873,0,0.000885,0,0
0:1:16.777,176.772,22.5045,0,0.000885,0,0
0:1:17.188,177.889,22.6493,0,0.000885,0,0
0:1:17.585,178.649,22.7458,0,0.000885,0,0
0:1:17.978,179.704,22.8837,0,0.000885,0,0
0:1:18.377,180.642,23.0009,0,0.000885,0,0
0:1:18.778,182.168,23.194,0,0.000885,0,0
0:1:19.175,183.342,23.3456,0,0.000885,0,0
0:1:19.574,184.045,23.4353,0,0.000885,0,0
0:1:19.979,185.513,23.6214,0,0.000885,0,0
0:1:20.388,186.861,23.7938,0,0.000885,0,0
0:1:20.790,187.622,23.8903,0,0.000885,0,0
0:1:21.194,188.56,24.0075,0,0.000885,0,0
0:1:21.591,189.97,24.1868,0,0.000885,0,0
0:1:21.990,191.14,24.3385,0,0.000885,0,0
0:1:22.390,192.079,24.4557,0,0.000885,0,0
0:1:22.786,193.604,24.6488,0,0.000885,0,0
0:1:23.179,194.485,24.766,0,0.000885,0,0
0:1:23.572,195.366,24.8763,0,0.000885,0,0
0:1:23.970,196.42,25.0073,0,0.000885,0,0
0:1:24.367,197.652,25.1659,0,0.000885,0,0
0:1:24.761,198.707,25.2969,0,0.000885,0,0
0:1:25.165,200.348,25.5106,0,0.000885,0,0
0:1:25.567,200.762,25.5589,0,0.000885,0,0
0:1:25.968,201.407,25.6416,0,0.000885,0,0
0:1:26.368,203.515,25.9105,0,0.000885,0,0
0:1:26.785,204.338,26.0139,0,0.000885,0,0
0:1:27.177,205.454,26.1587,0,0.000885,0,0
0:1:27.580,206.273,26.2621,0,0.000885,0,0
0:1:27.978,207.389,26.4069,0,0.000885,0,0
0:1:28.376,208.795,26.5862,0,0.000885,0,0
0:1:28.777,209.618,26.6896,0,0.000885,0,0
0:1:29.181,210.557,26.8068,0,0.000885,0,0
0:1:29.577,211.495,26.9309,0,0.000885,0,0
0:1:29.976,212.02,26.993,0,0.000885,0,0
0:1:30.379,214.191,27.2688,0,0.000885,0,0
0:1:30.781,214.894,27.3584,0,0.000885,0,0
0:1:31.182,216.246,27.5308,0,0.000885,0,0
0:1:31.582,217.242,27.6618,0,0.000885,0,0
0:1:31.979,218.417,27.8066,0,0.000885,0,0
0:1:32.385,219.88,27.9927,0,0.000885,0,0
0:1:32.788,220.819,28.1168,0,0.000885,0,0
0:1:33.191,222.58,28.3375,0,0.000885,0,0
0:1:33.589,223.283,28.4271,0,0.000885,0,0
0:1:33.985,224.337,28.565,0,0.000885,0,0
0:1:34.390,225.454,28.7029,0,0.000885,0,0
0:1:34.792,226.566,28.8477,0,0.000885,0,0
0:1:35.194,227.74,28.9993,0,0.000885,0,0
0:1:35.599,228.621,29.1097,0,0.000885,0,0
0:1:35.999,229.208,29.1855,0,0.000885,0,0
0:1:36.401,230.965,29.4061,0,0.000885,0,0
0:1:36.795,231.494,29.4751,0,0.000885,0,0
0:1:37.192,232.669,29.6268,0,0.000885,0,0
0:1:37.590,233.839,29.7716,0,0.000885,0,0
0:1:37.985,234.719,29.8888,0,0.000885,0,0
0:1:38.376,235.6,29.9991,0,0.000885,0,0
0:1:38.771,237.064,30.1852,0,0.000885,0,0
0:1:39.168,238.354,30.3507,0,0.000885,0,0
0:1:39.564,239.234,30.461,0,0.000885,0,0
0:1:39.968,240.702,30.6472,0,0.000885,0,0
0:1:40.370,241.814,30.792,0,0.000885,0,0
0:1:40.770,242.344,30.854,0,0.000885,0,0
0:1:41.169,243.811,31.0402,0,0.000885,0,0
0:1:41.565,245.044,31.1988,0,0.000885,0,0
0:1:41.978,245.862,31.3022,0,0.000885,0,0
0:1:42.381,246.921,31.4401,0,0.000885,0,0
0:1:42.776,248.091,31.5849,0,0.000885,0,0
0:1:43.176,249.381,31.7504,0,0.000885,0,0
0:1:43.570,250.261,31.8676,0,0.000885,0,0
0:1:43.963,251.142,31.9779,0,0.000885,0,0
0:1:44.358,252.726,32.1778,0,0.000885,0,0
0:1:44.760,253.9,32.3295,0,0.000885,0,0
0:1:45.164,254.425,32.3916,0,0.000885,0,0
0:1:45.565,256.066,32.6053,0,0.000885,0,0
0:1:45.966,256.774,32.6949,0,0.000885,0,0
0:1:46.378,258.237,32.8811,0,0.000885,0,0
0:1:46.786,259.585,33.0535,0,0.000885,0,0
0:1:47.194,260.523,33.1707,0,0.000885,0,0
0:1:47.588,261.289,33.2672,0,0.000885,0,0
0:1:47.979,262.227,33.3844,0,0.000885,0,0
0:1:48.375,263.517,33.5499,0,0.000885,0,0
0:1:48.780,264.749,33.7085,0,0.000885,0,0
0:1:49.188,265.63,33.8188,0,0.000885,0,0
0:1:49.593,266.92,33.9843,0,0.000885,0,0
0:1:49.996,267.916,34.1153,0,0.000885,0,0
0:1:50.400,269.322,34.2945,0,0.000885,0,0
0:1:50.799,269.851,34.3566,0,0.000885,0,0
0:1:51.200,270.79,34.4807,0,0.000885,0,0
0:1:51.594,272.374,34.6806,0,0.000885,0,0
0:1:51.987,273.606,34.8392,0,0.000885,0,0
0:1:52.391,274.486,34.9495,0,0.000885,0,0
0:1:52.791,275.656,35.1012,0,0.000885,0,0
0:1:53.195,277.066,35.2736,0,0.000885,0,0
0:1:53.587,277.591,35.3425,0,0.000885,0,0
0:1:53.992,279.353,35.5701,0,0.000885,0,0
0:1:54.389,280.056,35.6597,0,0.000885,0,0
0:1:54.782,281.23,35.8045,0,0.000885,0,0
0:1:55.187,282.462,35.9631,0,0.000885,0,0
0:1:55.590,283.281,36.0665,0,0.000885,0,0
0:1:55.989,284.219,36.1906,0,0.000885,0,0
0:1:56.389,285.687,36.3767,0,0.000885,0,0
0:1:56.795,286.977,36.5422,0,0.000885,0,0
0:1:57.190,287.738,36.6387,0,0.000885,0,0
0:1:57.590,288.796,36.7697,0,0.000885,0,0
0:1:57.987,289.673,36.8801,0,0.000885,0,0
0:1:58.382,291.141,37.0662,0,0.000885,0,0
0:1:58.778,292.551,37.2455,0,0.000885,0,0
0:1:59.172,293.369,37.3558,0,0.000885,0,0
0:1:59.584,294.014,37.4385,0,0.000885,0,0
0:1:59.988,295.246,37.5902,0,0.000885,0,0
0:2:0.393,296.656,37.7695,0,0.000885,0,0
0:2:0.793,297.884,37.9281,0,0.000885,0,0
0:2:1.194,298.823,38.0453,0,0.000885,0,0
0:2:1.588,299.881,38.1832,0,0.000885,0,0
0:2:1.982,300.82,38.3004,0,0.000885,0,0
0:2:2.382,302.283,38.4865,0,0.000885,0,0
0:2:2.796,303.458,38.6382,0,0.000885,0,0
0:2:3.189,304.632,38.7899,0,0.000885,0,0
0:2:3.593,305.922,38.9485,0,0.000885,0,0
0:2:3.989,305.922,38.9485,0,0.000885,0,0
0:2:4.384,306.861,39.0726,0,0.000885,0,0
0:2:4.778,308.266,39.2519,0,0.000885,0,0
0:2:5.182,309.676,39.4311,0,0.000885,0,0
0:2:5.583,310.908,39.5828,0,0.000885,0,0
0:2:5.984,311.553,39.6655,0,0.000885,0,0
0:2:6.389,313.137,39.8724,0,0.000885,0,0
0:2:6.780,314.076,39.9896,0,0.000885,0,0
0:2:7.195,315.303,40.1482,0,0.000885,0,0
0:2:7.592,315.948,40.2309,0,0.000885,0,0
0:2:7.990,317.71,40.4515,0,0.000885,0,0
0:2:8.393,318.706,40.5756,0,0.000885,0,0
0:2:8.785,319.409,40.6653,0,0.000885,0,0
0:2:9.192,320.699,40.8308,0,0.000885,0,0
0:2:9.590,322.345,41.0445,0,0.000885,0,0
0:2:9.985,323.635,41.2031,0,0.000885,0,0
0:2:10.389,324.395,41.3065,0,0.000885,0,0
0:2:10.791,325.334,41.4237,0,0.000885,0,0
0:2:11.192,326.33,41.5478,0,0.000885,0,0
0:2:11.592,327.211,41.665,0,0.000885,0,0
0:2:11.984,328.208,41.7891,0,0.000885,0,0
0:2:12.376,329.382,41.9408,0,0.000885,0,0
0:2:12.773,330.556,42.0856,0,0.000885,0,0
0:2:13.170,330.965,42.1408,0,0.000885,0,0
0:2:13.565,332.491,42.3338,0,0.000885,0,0
0:2:13.959,333.781,42.4993,0,0.000885,0,0
0:2:14.354,334.835,42.6303,0,0.000885,0,0
0:2:14.753,335.774,42.7544,0,0.000885,0,0
0:2:15.156,337.358,42.9543,0,0.000885,0,0
0:2:15.558,338.18,43.0578,0,0.000885,0,0
0:2:15.959,339.528,43.2301,0,0.000885,0,0
0:2:16.356,340.115,43.306,0,0.000885,0,0
0:2:16.753,341.757,43.5128,0,0.000885,0,0
0:2:17.148,342.753,43.6438,0,0.000885,0,0
0:2:17.542,343.75,43.7679,0,0.000885,0,0
0:2:17.936,345.333,43.9679,0,0.000885,0,0
0:2:18.336,346.743,44.1471,0,0.000885,0,0
0:2:18.731,346.917,44.1678,0,0.000885,0,0
0:2:19.124,348.091,44.3195,0,0.000885,0,0
0:2:19.517,348.972,44.4298,0,0.000885,0,0
0:2:19.920,350.262,44.5953,0,0.000885,0,0
0:2:20.323,351.61,44.7677,0,0.000885,0,0
0:2:20.724,352.197,44.8435,0,0.000885,0,0
0:2:21.126,353.193,44.9676,0,0.000885,0,0
0:2:21.520,354.368,45.1193,0,0.000885,0,0
0:2:21.917,355.893,45.3123,0,0.000885,0,0
0:2:22.314,356.418,45.3813,0,0.000885,0,0
0:2:22.708,357.477,45.5123,0,0.000885,0,0
0:2:23.101,358.94,45.6985,0,0.000885,0,0
0:2:23.497,359.821,45.8157,0,0.000885,0,0
0:2:23.894,361.756,46.057,0,0.000885,0,0
0:2:24.290,362.05,46.0983,0,0.000885,0,0
0:2:24.693,363.633,46.2983,0,0.000885,0,0
0:2:25.096,364.808,46.45,0,0.000885,0,0
0:2:25.497,365.275,46.5051,0,0.000885,0,0
0:2:25.898,366.391,46.6499,0,0.000885,0,0
0:2:26.299,367.739,46.8223,0,0.000885,0,0
0:2:26.693,369.087,46.9947,0,0.000885,0,0
0:2:27.086,369.91,47.0981,0,0.000885,0,0
0:2:27.482,371.142,47.2567,0,0.000885,0,0
0:2:27.879,372.783,47.4635,0,0.000885,0,0
0:2:28.280,373.25,47.5256,0,0.000885,0,0
0:2:28.685,374.247,47.6497,0,0.000885,0,0
0:2:29.082,375.541,47.8151,0,0.000885,0,0
0:2:29.479,376.711,47.9668,0,0.000885,0,0
0:2:29.881,377.592,48.0771,0,0.000885,0,0
0:2:30.284,378.997,48.2564,0,0.000885,0,0
0:2:30.684,379.705,48.346,0,0.000885,0,0
0:2:31.084,380.701,48.4701,0,0.000885,0,0
0:2:31.479,382.049,48.6425,0,0.000885,0,0
0:2:31.873,383.223,48.7942,0,0.000885,0,0
0:2:32.267,383.926,48.8838,0,0.000885,0,0
0:2:32.663,385.332,49.0631,0,0.000885,0,0
0:2:33.060,385.452,49.0769,0,0.000885,0,0
0:2:33.455,387.502,49.3389,0,0.000885,0,0
0:2:33.848,388.325,49.4423,0,0.000885,0,0
0:2:34.246,389.673,49.6147,0,0.000885,0,0
0:2:34.642,391.021,49.787,0,0.000885,0,0
0:2:35.046,391.608,49.8629,0,0.000885,0,0
0:2:35.448,392.84,50.0215,0,0.000885,0,0
0:2:35.849,394.308,50.2076,0,0.000885,0,0
0:2:36.249,395.362,50.3386,0,0.000885,0,0
0:2:36.644,396.652,50.5041,0,0.000885,0,0
0:2:37.038,397.533,50.6144,0,0.000885,0,0
0:2:37.433,398.356,50.7178,0,0.000885,0,0
0:2:37.829,399.526,50.8695,0,0.000885,0,0
0:2:38.227,400.816,51.035,0,0.000885,0,0
0:2:38.620,401.461,51.1177,0,0.000885,0,0
0:2:39.012,403.222,51.3384,0,0.000885,0,0
0:2:39.409,403.396,51.359,0,0.000885,0,0
0:2:39.807,404.628,51.5176,0,0.000885,0,0
0:2:40.212,405.98,51.69,0,0.000885,0,0
0:2:40.613,406.741,51.7865,0,0.000885,0,0
0:2:41.013,407.973,51.9451,0,0.000885,0,0
0:2:41.412,409.321,52.1175,0,0.000885,0,0
0:2:41.808,410.553,52.276,0,0.000885,0,0
0:2:42.202,411.549,52.4002,0,0.000885,0,0
0:2:42.596,412.724,52.5518,0,0.000885,0,0
0:2:42.992,414.25,52.7449,0,0.000885,0,0
0:2:43.388,415.068,52.8483,0,0.000885,0,0
0:2:43.783,415.775,52.9379,0,0.000885,0,0
0:2:44.186,417.181,53.1172,0,0.000885,0,0
0:2:44.586,418.062,53.2275,0,0.000885,0,0
0:2:44.990,419.409,53.3999,0,0.000885,0,0
0:2:45.393,420.464,53.5378,0,0.000885,0,0
0:2:45.793,422.047,53.7377,0,0.000885,0,0
0:2:46.196,422.577,53.8067,0,0.000885,0,0
0:2:46.594,423.693,53.9446,0,0.000885,0,0
0:2:46.990,424.338,54.0273,0,0.000885,0,0
0:2:47.382,425.979,54.2342,0,0.000885,0,0
0:2:47.777,426.798,54.3445,0,0.000885,0,0
0:2:48.174,427.857,54.4755,0,0.000885,0,0
0:2:48.571,429.089,54.6341,0,0.000885,0,0
0:2:48.966,430.027,54.7513,0,0.000885,0,0
0:2:49.359,431.139,54.8961,0,0.000885,0,0
0:2:49.762,432.429,55.0615,0,0.000885,0,0
0:2:50.166,433.252,55.165,0,0.000885,0,0
0:2:50.567,434.716,55.3511,0,0.000885,0,0
0:2:50.968,435.654,55.4683,0,0.000885,0,0
0:2:51.361,436.419,55.5648,0,0.000885,0,0
0:2:51.757,437.709,55.7303,0,0.000885,0,0
0:2:52.156,439.057,55.9027,0,0.000885,0,0
0:2:52.549,439.702,55.9854,0,0.000885,0,0
0:2:52.943,440.992,56.1509,0,0.000885,0,0
0:2:53.337,441.757,56.2474,0,0.000885,0,0
0:2:53.735,443.105,56.4198,0,0.000885,0,0
0:2:54.130,443.924,56.5232,0,0.000885,0,0
0:2:54.523,445.685,56.7439,0,0.000885,0,0
0:2:54.926,446.094,56.799,0,0.000885,0,0
0:2:55.329,447.384,56.9645,0,0.000885,0,0
0:2:55.730,448.737,57.1369,0,0.000885,0,0
0:2:56.130,449.733,57.261,0,0.000885,0,0
0:2:56.523,451.49,57.4885,0,0.000885,0,0
0:2:56.919,451.904,57.5367,0,0.000885,0,0
0:2:57.318,453.545,57.7505,0,0.000885,0,0
0:2:57.713,454.306,57.847,0,0.000885,0,0
0:2:58.105,455.302,57.9711,0,0.000885,0,0
0:2:58.501,456.067,58.0676,0,0.000885,0,0
0:2:58.897,456.77,58.1573,0,0.000885,0,0
0:2:59.290,458.647,58.3986,0,0.000885,0,0
0:2:59.696,459.408,58.4951,0,0.000885,0,0
0:3:0.097,460.876,58.6813,0,0.000885,0,0
0:3:0.497,461.343,58.7433,0,0.000885,0,0
0:3:0.898,462.517,58.8881,0,0.000885,0,0
0:3:1.291,464.101,59.0881,0,0.000885,0,0
0:3:1.697,464.63,59.157,0,0.000885,0,0
0:3:2.090,466.387,59.3845,0,0.000885,0,0
0:3:2.486,467.326,59.5018,0,0.000885,0,0
0:3:2.895,468.264,59.619,0,0.000885,0,0
0:3:3.298,469.674,59.7982,0,0.000885,0,0
0:3:3.692,470.671,59.9292,0,0.000885,0,0
0:3:4.089,471.552,60.0395,0,0.000885,0,0
0:3:4.485,472.842,60.205,0,0.000885,0,0
0:3:4.889,474.247,60.3843,0,0.000885,0,0
0:3:5.290,475.186,60.5015,0,0.000885,0,0
0:3:5.691,476.009,60.6049,0,0.000885,0,0
0:3:6.090,477.592,60.8118,0,0.000885,0,0
0:3:6.497,478.179,60.8807,0,0.000885,0,0
0:3:6.889,479.585,61.06,0,0.000885,0,0
0:3:7.303,480.23,61.1427,0,0.000885,0,0
0:3:7.700,481.284,61.2806,0,0.000885,0,0
0:3:8.099,482.81,61.4737,0,0.000885,0,0
0:3:8.502,483.926,61.6184,0,0.000885,0,0
0:3:8.894,484.571,61.6943,0,0.000885,0,0
0:3:9.290,485.861,61.8598,0,0.000885,0,0
0:3:9.688,486.386,61.9287,0,0.000885,0,0
0:3:10.091,487.681,62.0942,0,0.000885,0,0
0:3:10.491,489.264,62.2941,0,0.000885,0,0
0:3:10.892,490.434,62.4458,0,0.000885,0,0
0:3:11.290,491.666,62.6044,0,0.000885,0,0
0:3:11.686,492.547,62.7147,0,0.000885,0,0
0:3:12.090,493.544,62.8388,0,0.000885,0,0
0:3:12.495,494.66,62.9836,0,0.000885,0,0
0:3:12.898,495.772,63.1215,0,0.000885,0,0
0:3:13.298,496.889,63.2663,0,0.000885,0,0
0:3:13.702,497.943,63.3973,0,0.000885,0,0
0:3:14.093,499.411,63.5835,0,0.000885,0,0
0:3:14.497,500.523,63.7282,0,0.000885,0,0
0:3:14.900,501.697,63.8799,0,0.000885,0,0
0:3:15.303,502.516,63.9833,0,0.000885,0,0
0:3:15.703,503.868,64.1557,0,0.000885,0,0
0:3:16.097,505.1,64.3143,0,0.000885,0,0
0:3:16.502,506.154,64.4453,0,0.000885,0,0
0:3:16.898,506.328,64.466,0,0.000885,0,0
0:3:17.291,507.853,64.659,0,0.000885,0,0
0:3:17.686,508.97,64.8038,0,0.000885,0,0
0:3:18.079,509.788,64.9072,0,0.000885,0,0
0:3:18.477,511.314,65.1003,0,0.000885,0,0
0:3:18.874,512.195,65.2175,0,0.000885,0,0
0:3:19.268,513.427,65.3692,0,0.000885,0,0
0:3:19.670,514.308,65.4864,0,0.000885,0,0
0:3:20.072,515.184,65.5967,0,0.000885,0,0
0:3:20.472,516.536,65.7691,0,0.000885,0,0
0:3:20.874,517.355,65.8725,0,0.000885,0,0
0:3:21.267,518.938,66.0725,0,0.000885,0,0
0:3:21.663,520.113,66.2241,0,0.000885,0,0
0:3:22.061,521.345,66.3827,0,0.000885,0,0
0:3:22.457,522.341,66.5068,0,0.000885,0,0
0:3:22.850,523.164,66.6103,0,0.000885,0,0
0:3:23.245,524.041,66.7206,0,0.000885,0,0
0:3:23.642,525.331,66.886,0,0.000885,0,0
0:3:24.040,526.741,67.0653,0,0.000885,0,0
0:3:24.433,527.795,67.2032,0,0.000885,0,0
0:3:24.835,528.676,67.3135,0,0.000885,0,0
0:3:25.239,530.023,67.4859,0,0.000885,0,0
0:3:25.640,530.726,67.5755,0,0.000885,0,0
0:3:26.042,532.31,67.7755,0,0.000885,0,0
0:3:26.436,533.017,67.8651,0,0.000885,0,0
0:3:26.829,534.423,68.0444,0,0.000885,0,0
0:3:27.228,535.361,68.1616,0,0.000885,0,0
0:3:27.633,536.3,68.2857,0,0.000885,0,0
0:3:28.027,537.181,68.396,0,0.000885,0,0
0:3:28.419,538.119,68.5132,0,0.000885,0,0
0:3:28.815,539.876,68.7407,0,0.000885,0,0
0:3:29.213,540.583,68.8304,0,0.000885,0,0
0:3:29.616,541.344,68.9269,0,0.000885,0,0
0:3:30.020,542.634,69.0924,0,0.000885,0,0
0:3:30.420,543.982,69.2647,0,0.000885,0,0
0:3:30.818,544.805,69.3682,0,0.000885,0,0
0:3:31.215,545.979,69.5129,0,0.000885,0,0
0:3:31.610,547.385,69.6922,0,0.000885,0,0
0:3:32.003,548.266,69.8094,0,0.000885,0,0
0:3:32.400,549.498,69.9611,0,0.000885,0,0
0:3:32.794,550.846,70.1335,0,0.000885,0,0
0:3:33.200,552.136,70.2989,0,0.000885,0,0
0:3:33.592,553.132,70.4299,0,0.000885,0,0
0:3:33.987,553.835,70.5196,0,0.000885,0,0
0:3:34.384,555.187,70.6851,0,0.000885,0,0
0:3:34.787,556.126,70.8092,0,0.000885,0,0
0:3:35.189,557.238,70.9471,0,0.000885,0,0
0:3:35.588,558.118,71.0643,0,0.000885,0,0
0:3:35.989,559.351,71.2159,0,0.000885,0,0
0:3:36.385,559.76,71.2711,0,0.000885,0,0
0:3:36.779,561.108,71.4435,0,0.000885,0,0
0:3:37.180,562.282,71.5952,0,0.000885,0,0
0:3:37.578,563.456,71.7399,0,0.000885,0,0
0:3:37.976,564.453,71.8709,0,0.000885,0,0
0:3:38.370,565.8,72.0433,0,0.000885,0,0
0:3:38.762,566.975,72.1881,0,0.000885,0,0
0:3:39.157,568.265,72.3536,0,0.000885,0,0
0:3:39.556,569.377,72.4984,0,0.000885,0,0
0:3:39.961,570.378,72.6225,0,0.000885,0,0
0:3:40.363,571.138,72.719,0,0.000885,0,0
0:3:40.763,572.37,72.8776,0,0.000885,0,0
0:3:41.162,573.545,73.0224,0,0.000885,0,0
0:3:41.559,574.777,73.181,0,0.000885,0,0
0:3:41.952,575.889,73.3257,0,0.000885,0,0
0:3:42.347,577.063,73.4705,0,0.000885,0,0
0:3:42.742,578.002,73.5946,0,0.000885,0,0
0:3:43.140,579.172,73.7394,0,0.000885,0,0
0:3:43.535,580.404,73.898,0,0.000885,0,0
0:3:43.925,581.227,74.0014,0,0.000885,0,0
0:3:44.330,582.108,74.1186,0,0.000885,0,0
0:3:44.733,583.046,74.2359,0,0.000885,0,0
0:3:45.135,584.452,74.4151,0,0.000885,0,0
0:3:45.536,585.448,74.5392,0,0.000885,0,0
0:3:45.928,586.271,74.6495,0,0.000885,0,0
0:3:46.324,587.561,74.8081,0,0.000885,0,0
0:3:46.722,588.971,74.9874,0,0.000885,0,0
0:3:47.120,589.91,75.1115,0,0.000885,0,0
0:3:47.515,591.142,75.2632,0,0.000885,0,0
0:3:47.910,592.196,75.4011,0,0.000885,0,0
0:3:48.310,593.784,75.601,0,0.000885,0,0
0:3:48.706,594.781,75.732,0,0.000885,0,0
0:3:49.101,595.31,75.7941,0,0.000885,0,0
0:3:49.504,596.128,75.9044,0,0.000885,0,0
0:3:49.910,597.481,76.0768,0,0.000885,0,0
0:3:50.313,599.122,76.2836,0,0.000885,0,0
0:3:50.715,599.945,76.387,0,0.000885,0,0
0:3:51.110,600.359,76.4422,0,0.000885,0,0
0:3:51.507,601.649,76.6076,0,0.000885,0,0
0:3:51.907,602.881,76.7593,0,0.000885,0,0
0:3:52.304,604.113,76.9179,0,0.000885,0,0
0:3:52.700,605.229,77.0627,0,0.000885,0,0
0:3:53.094,606.168,77.1799,0,0.000885,0,0
0:3:53.493,607.285,77.3247,0,0.000885,0,0
0:3:53.903,607.987,77.4143,0,0.000885,0,0
0:3:54.297,609.513,77.6074,0,0.000885,0,0
0:3:54.703,610.745,77.766,0,0.000885,0,0
0:3:55.108,612.098,77.9314,0,0.000885,0,0
0:3:55.512,613.272,78.0831,0,0.000885,0,0
0:3:55.915,614.153,78.1934,0,0.000885,0,0
0:3:56.311,615.5,78.3658,0,0.000885,0,0
0:3:56.707,616.968,78.552,0,0.000885,0,0
0:3:57.106,617.498,78.6209,0,0.000885,0,0
0:3:57.504,618.614,78.7657,0,0.000885,0,0
0:3:57.901,619.668,78.8967,0,0.000885,0,0
0:3:58.293,620.434,78.9932,0,0.000885,0,0
0:3:58.691,621.666,79.1518,0,0.000885,0,0
0:3:59.091,622.662,79.2828,0,0.000885,0,0
0:3:59.496,623.779,79.4207,0,0.000885,0,0
0:3:59.900,625.011,79.5793,0,0.000885,0,0
0:4:0.303,626.007,79.7034,0,0.000885,0,0
0:4:0.702,627.239,79.862,0,0.000885,0,0
0:4:1.100,628.534,80.0274,0,0.000885,0,0
0:4:1.507,629.414,80.1378,0,0.000885,0,0
0:4:1.902,630.469,80.2757,0,0.000885,0,0
0:4:2.300,631.407,80.3929,0,0.000885,0,0
0:4:2.697,632.817,80.5721,0,0.000885,0,0
0:4:3.104,633.698,80.6824,0,0.000885,0,0
0:4:3.498,634.637,80.8066,0,0.000885,0,0
0:4:3.894,636.162,80.9996,0,0.000885,0,0
0:4:4.295,636.87,81.0892,0,0.000885,0,0
0:4:4.702,638.16,81.2547,0,0.000885,0,0
0:4:5.106,640.037,81.4891,0,0.000885,0,0
0:4:5.506,640.388,81.5374,0,0.000885,0,0
0:4:5.904,641.563,81.6891,0,0.000885,0,0
0:4:6.305,642.857,81.8477,0,0.000885,0,0
0:4:6.702,643.502,81.9304,0,0.000885,0,0
0:4:7.094,644.85,82.1028,0,0.000885,0,0
0:4:7.490,645.788,82.2269,0,0.000885,0,0
0:4:7.889,647.083,82.3923,0,0.000885,0,0
0:4:8.287,647.964,82.5027,0,0.000885,0,0
0:4:8.684,649.431,82.6888,0,0.000885,0,0
0:4:9.079,650.837,82.8681,0,0.000885,0,0
0:4:9.483,651.544,82.9577,0,0.000885,0,0
0:4:9.888,652.425,83.068,0,0.000885,0,0
0:4:10.290,653.657,83.2266,0,0.000885,0,0
0:4:10.692,654.302,83.3094,0,0.000885,0,0
0:4:11.097,655.944,83.5162,0,0.000885,0,0
0:4:11.496,657.176,83.6748,0,0.000885,0,0
0:4:11.895,657.763,83.7506,0,0.000885,0,0
0:4:12.293,658.995,83.9092,0,0.000885,0,0
0:4:12.687,660.463,84.0954,0,0.000885,0,0
0:4:13.084,660.877,84.1436,0,0.000885,0,0
0:4:13.482,662.167,84.3091,0,0.000885,0,0
0:4:13.882,663.577,84.4884,0,0.000885,0,0
0:4:14.276,664.809,84.6469,0,0.000885,0,0
0:4:14.680,665.805,84.771,0,0.000885,0,0
0:4:15.085,666.922,84.9158,0,0.000885,0,0
0:4:15.488,668.332,85.0951,0,0.000885,0,0
0:4:15.891,669.035,85.1847,0,0.000885,0,0
0:4:16.296,670.151,85.3295,0,0.000885,0,0
0:4:16.693,671.441,85.4881,0,0.000885,0,0
0:4:17.093,672.264,85.5984,0,0.000885,0,0
0:4:17.490,673.025,85.6949,0,0.000885,0,0
0:4:17.884,674.261,85.8466,0,0.000885,0,0
0:4:18.282,675.551,86.0121,0,0.000885,0,0
0:4:18.680,676.606,86.15,0,0.000885,0,0
0:4:19.079,677.9,86.3155,0,0.000885,0,0
0:4:19.483,678.719,86.4189,0,0.000885,0,0
0:4:19.888,679.835,86.5568,0,0.000885,0,0
0:4:20.290,681.187,86.7292,0,0.000885,0,0
0:4:20.692,682.068,86.8464,0,0.000885,0,0
0:4:21.097,683.945,87.0808,0,0.000885,0,0
0:4:21.493,684.532,87.1566,0,0.000885,0,0
0:4:21.890,685.177,87.2394,0,0.000885,0,0
0:4:22.290,686.174,87.3635,0,0.000885,0,0
0:4:22.688,687.877,87.5841,0,0.000885,0,0
0:4:23.094,688.816,87.7013,0,0.000885,0,0
0:4:23.488,689.812,87.8323,0,0.000885,0,0
0:4:23.885,691.343,88.0254,0,0.000885,0,0
0:4:24.285,692.045,88.115,0,0.000885,0,0
0:4:24.690,693.571,88.3081,0,0.000885,0,0
0:4:25.094,694.336,88.4046,0,0.000885,0,0
0:4:25.497,695.626,88.5701,0,0.000885,0,0
0:4:25.897,696.329,88.6597,0,0.000885,0,0
0:4:26.295,697.446,88.8045,0,0.000885,0,0
0:4:26.690,698.562,88.9424,0,0.000885,0,0
0:4:27.086,699.736,89.0941,0,0.000885,0,0
0:4:27.485,700.911,89.2457,0,0.000885,0,0
0:4:27.884,702.494,89.4457,0,0.000885,0,0
0:4:28.280,703.375,89.556,0,0.000885,0,0
0:4:28.676,704.665,89.7215,0,0.000885,0,0
0:4:29.073,705.604,89.8387,0,0.000885,0,0
0:4:29.474,706.778,89.9904,0,0.000885,0,0
0:4:29.880,707.365,90.0662,0,0.000885,0,0
0:4:30.284,708.539,90.211,0,0.000885,0,0
0:4:30.685,709.242,90.3006,0,0.000885,0,0
0:4:31.085,710.71,90.4937,0,0.000885,0,0
0:4:31.484,711.417,90.5833,0,0.000885,0,0
0:4:31.881,712.529,90.7212,0,0.000885,0,0
0:4:32.277,714.349,90.9556,0,0.000885,0,0
0:4:32.674,715.292,91.0728,0,0.000885,0,0
0:4:33.074,716.875,91.2728,0,0.000885,0,0
0:4:33.470,717.227,91.3211,0,0.000885,0,0
0:4:33.867,717.992,91.4176,0,0.000885,0,0
0:4:34.270,719.282,91.5831,0,0.000885,0,0
0:4:34.676,720.572,91.7485,0,0.000885,0,0
0:4:35.079,721.746,91.8933,0,0.000885,0,0
0:4:35.481,723.098,92.0657,0,0.000885,0,0
0:4:35.877,724.211,92.2105,0,0.000885,0,0
0:4:36.274,725.443,92.3691,0,0.000885,0,0
0:4:36.671,726.559,92.507,0,0.000885,0,0
0:4:37.069,727.382,92.6104,0,0.000885,0,0
0:4:37.465,728.143,92.7069,0,0.000885,0,0
0:4:37.859,729.201,92.8448,0,0.000885,0,0
0:4:38.259,730.612,93.0241,0,0.000885,0,0
0:4:38.658,731.55,93.1413,0,0.000885,0,0
0:4:39.054,732.898,93.3136,0,0.000885,0,0
0:4:39.459,733.779,93.4309,0,0.000885,0,0
0:4:39.864,734.895,93.5688,0,0.000885,0,0
0:4:40.267,736.127,93.7273,0,0.000885,0,0
0:4:40.669,736.892,93.8239,0,0.000885,0,0
0:4:41.066,738.182,93.9893,0,0.000885,0,0
0:4:41.461,738.592,94.0376,0,0.000885,0,0
0:4:41.858,739.766,94.1893,0,0.000885,0,0
0:4:42.256,741.47,94.4099,0,0.000885,0,0
0:4:42.654,742.057,94.4789,0,0.000885,0,0
0:4:43.050,743.64,94.6857,0,0.000885,0,0
0:4:43.447,744.757,94.8236,0,0.000885,0,0
0:4:43.846,745.753,94.9546,0,0.000885,0,0
0:4:44.244,746.812,95.0856,0,0.000885,0,0
0:4:44.649,748.16,95.258,0,0.000885,0,0
0:4:45.053,749.161,95.389,0,0.000885,0,0
0:4:45.455,750.099,95.5062,0,0.000885,0,0
0:4:45.856,751.331,95.6648,0,0.000885,0,0
0:4:46.254,752.386,95.7958,0,0.000885,0,0
0:4:46.650,753.916,95.9888,0,0.000885,0,0
0:4:47.045,754.561,96.0715,0,0.000885,0,0
0:4:47.442,755.735,96.2232,0,0.000885,0,0
0:4:47.843,757.025,96.3887,0,0.000885,0,0
0:4:48.240,758.199,96.5335,0,0.000885,0,0
0:4:48.635,759.374,96.6852,0,0.000885,0,0
0:4:49.031,759.547,96.7059,0,0.000885,0,0
0:4:49.433,760.722,96.8576,0,0.000885,0,0
0:4:49.839,762.074,97.0299,0,0.000885,0,0
0:4:50.243,763.364,97.1954,0,0.000885,0,0
0:4:50.644,764.009,97.2781,0,0.000885,0,0
0:4:51.043,766.006,97.5332,0,0.000885,0,0
0:4:51.441,766.945,97.6504,0,0.000885,0,0
0:4:51.841,768.235,97.8159,0,0.000885,0,0
0:4:52.237,769.115,97.9262,0,0.000885,0,0
0:4:52.629,769.765,98.009,0,0.000885,0,0
0:4:53.029,771.228,98.1951,0,0.000885,0,0
0:4:53.428,772.638,98.3744,0,0.000885,0,0
0:4:53.824,773.519,98.4847,0,0.000885,0,0
0:4:54.221,774.578,98.6226,0,0.000885,0,0
0:4:54.625,775.632,98.7536,0,0.000885,0,0
0:4:55.032,777.042,98.9329,0,0.000885,0,0
0:4:55.434,777.629,99.0087,0,0.000885,0,0
0:4:55.837,778.919,99.1742,0,0.000885,0,0
0:4:56.233,779.916,99.3052,0,0.000885,0,0
0:4:56.628,781.032,99.4431,0,0.000885,0,0
0:4:57.028,782.149,99.5879,0,0.000885,0,0
0:4:57.425,782.972,99.6913,0,0.000885,0,0
0:4:57.820,784.204,99.8499,0,0.000885,0,0
0:4:58.216,785.258,99.9809,0,0.000885,0,0
0:4:58.614,786.432,100.133,0,0.000885,0,0
0:4:59.013,787.607,100.284,0,0.000885,0,0
0:4:59.410,788.429,100.388,0,0.000885,0,0
0:4:59.815,789.777,100.56,0,0.000885,0,0
0:5:0.219,791.014,100.712,0,0.000885,0,0
0:5:0.621,792.126,100.857,0,0.000885,0,0
0:5:1.025,793.242,101.001,0,0.000885,0,0
0:5:1.419,794.301,101.132,0,0.000885,0,0
0:5:1.815,795.355,101.27,0,0.000885,0,0
0:5:2.213,796.765,101.449,0,0.000885,0,0
0:5:2.612,797.175,101.498,0,0.000885,0,0
0:5:3.018,798.585,101.677,0,0.000885,0,0
0:5:3.413,799.23,101.76,0,0.000885,0,0
0:5:3.810,800.578,101.932,0,0.000885,0,0
0:5:4.212,802.223,102.139,0,0.000885,0,0
0:5:4.619,803.22,102.27,0,0.000885,0,0
0:5:5.022,804.336,102.415,0,0.000885,0,0
0:5:5.423,805.511,102.56,0,0.000885,0,0
0:5:5.821,806.507,102.691,0,0.000885,0,0
0:5:6.220,807.036,102.753,0,0.000885,0,0
0:5:6.616,807.975,102.877,0,0.000885,0,0
0:5:7.012,809.385,103.056,0,0.000885,0,0
0:5:7.407,810.675,103.221,0,0.000885,0,0
0:5:7.808,811.792,103.359,0,0.000885,0,0
0:5:8.204,812.73,103.483,0,0.000885,0,0
0:5:8.610,813.847,103.621,0,0.000885,0,0
0:5:9.004,815.194,103.794,0,0.000885,0,0
0:5:9.410,816.017,103.897,0,0.000885,0,0
0:5:9.816,817.37,104.069,0,0.000885,0,0
0:5:10.220,818.602,104.228,0,0.000885,0,0
0:5:10.622,818.953,104.269,0,0.000885,0,0
0:5:11.019,820.657,104.49,0,0.000885,0,0
0:5:11.417,821.475,104.593,0,0.000885,0,0
0:5:11.816,823.001,104.787,0,0.000885,0,0
0:5:12.212,823.944,104.911,0,0.000885,0,0
0:5:12.604,825.056,105.049,0,0.000885,0,0
0:5:13.014,826.057,105.18,0,0.000885,0,0
0:5:13.415,827.525,105.366,0,0.000885,0,0
0:5:13.811,828.286,105.462,0,0.000885,0,0
0:5:14.204,829.402,105.6,0,0.000885,0,0
0:5:14.610,830.341,105.724,0,0.000885,0,0
0:5:15.016,831.164,105.828,0,0.000885,0,0
0:5:15.419,832.396,105.986,0,0.000885,0,0
0:5:15.821,833.806,106.165,0,0.000885,0,0
0:5:16.215,834.682,106.276,0,0.000885,0,0
0:5:16.614,835.799,106.421,0,0.000885,0,0
0:5:17.014,836.857,106.552,0,0.000885,0,0
0:5:17.410,838.147,106.717,0,0.000885,0,0
0:5:17.815,839.379,106.876,0,0.000885,0,0
0:5:18.210,840.024,106.958,0,0.000885,0,0
0:5:18.610,841.434,107.138,0,0.000885,0,0
0:5:19.018,842.431,107.262,0,0.000885,0,0
0:5:19.421,843.841,107.441,0,0.000885,0,0
0:5:19.825,845.073,107.6,0,0.000885,0,0
0:5:20.228,845.954,107.71,0,0.000885,0,0
0:5:20.630,847.07,107.855,0,0.000885,0,0
0:5:21.025,848.245,107.999,0,0.000885,0,0
0:5:21.419,848.89,108.082,0,0.000885,0,0
0:5:21.816,850.531,108.296,0,0.000885,0,0
0:5:22.214,851.474,108.413,0,0.000885,0,0
0:5:22.613,852.413,108.53,0,0.000885,0,0
0:5:23.019,853.761,108.703,0,0.000885,0,0
0:5:23.413,854.348,108.779,0,0.000885,0,0
0:5:23.813,855.931,108.979,0,0.000885,0,0
0:5:24.213,856.754,109.089,0,0.000885,0,0
0:5:24.619,857.693,109.206,0,0.000885,0,0
0:5:25.022,858.694,109.33,0,0.000885,0,0
0:5:25.425,859.632,109.454,0,0.000885,0,0
0:5:25.824,861.394,109.675,0,0.000885,0,0
0:5:26.225,862.568,109.827,0,0.000885,0,0
0:5:26.619,863.507,109.944,0,0.000885,0,0
0:5:27.014,864.325,110.047,0,0.000885,0,0
0:5:27.413,865.619,110.213,0,0.000885,0,0
0:5:27.812,866.38,110.309,0,0.000885,0,0
0:5:28.209,867.261,110.426,0,0.000885,0,0
0:5:28.613,869.374,110.695,0,0.000885,0,0
0:5:29.010,870.019,110.771,0,0.000885,0,0
0:5:29.412,871.429,110.95,0,0.000885,0,0
0:5:29.818,872.31,111.068,0,0.000885,0,0
0:5:30.221,873.368,111.199,0,0.000885,0,0
0:5:30.625,874.249,111.316,0,0.000885,0,0
0:5:31.022,875.481,111.468,0,0.000885,0,0
0:5:31.423,876.42,111.592,0,0.000885,0,0
0:5:31.819,877.474,111.723,0,0.000885,0,0
0:5:32.214,879.062,111.923,0,0.000885,0,0
0:5:32.611,880.001,112.047,0,0.000885,0,0
0:5:33.011,881.411,112.226,0,0.000885,0,0
0:5:33.416,882.113,112.316,0,0.000885,0,0
0:5:33.812,883.11,112.44,0,0.000885,0,0
0:5:34.216,883.933,112.543,0,0.000885,0,0
0:5:34.621,885.516,112.75,0,0.000885,0,0
0:5:35.024,886.749,112.902,0,0.000885,0,0
0:5:35.426,887.336,112.977,0,0.000885,0,0
0:5:35.822,888.568,113.136,0,0.000885,0,0
0:5:36.219,889.804,113.295,0,0.000885,0,0
0:5:36.618,890.685,113.405,0,0.000885,0,0
0:5:37.015,891.682,113.529,0,0.000885,0,0
0:5:37.410,892.914,113.688,0,0.000885,0,0
0:5:37.815,894.44,113.881,0,0.000885,0,0
0:5:38.214,895.32,113.998,0,0.000885,0,0
0:5:38.612,896.673,114.17,0,0.000885,0,0
0:5:39.018,897.611,114.287,0,0.000885,0,0
0:5:39.423,898.55,114.405,0,0.000885,0,0
0:5:39.829,899.666,114.549,0,0.000885,0,0
0:5:40.231,900.778,114.687,0,0.000885,0,0
0:5:40.634,901.895,114.832,0,0.000885,0,0
0:5:41.031,902.891,114.963,0,0.000885,0,0
0:5:41.424,904.301,115.142,0,0.000885,0,0
0:5:41.822,905.533,115.294,0,0.000885,0,0
0:5:42.223,906.472,115.418,0,0.000885,0,0
0:5:42.618,907.531,115.549,0,0.000885,0,0
0:5:43.013,908.585,115.687,0,0.000885,0,0
0:5:43.419,910.173,115.887,0,0.000885,0,0
0:5:43.818,910.818,115.97,0,0.000885,0,0
0:5:44.216,911.579,116.066,0,0.000885,0,0
0:5:44.621,912.873,116.232,0,0.000885,0,0
0:5:45.026,913.812,116.349,0,0.000885,0,0
0:5:45.430,914.924,116.494,0,0.000885,0,0
0:5:45.832,915.804,116.604,0,0.000885,0,0
0:5:46.226,916.805,116.728,0,0.000885,0,0
0:5:46.621,917.802,116.859,0,0.000885,0,0
0:5:47.019,919.563,117.08,0,0.000885,0,0
0:5:47.419,920.386,117.19,0,0.000885,0,0
0:5:47.816,921.56,117.335,0,0.000885,0,0
0:5:48.208,922.792,117.494,0,0.000885,0,0
0:5:48.616,923.967,117.645,0,0.000885,0,0
0:5:49.015,925.257,117.811,0,0.000885,0,0
0:5:49.414,926.08,117.914,0,0.000885,0,0
0:5:49.819,927.428,118.087,0,0.000885,0,0
0:5:50.223,928.428,118.211,0,0.000885,0,0
0:5:50.625,929.718,118.376,0,0.000885,0,0
0:5:51.029,930.657,118.493,0,0.000885,0,0
0:5:51.425,931.716,118.631,0,0.000885,0,0
0:5:51.820,932.712,118.755,0,0.000885,0,0
0:5:52.216,934.06,118.928,0,0.000885,0,0
0:5:52.616,934.767,119.017,0,0.000885,0,0
0:5:53.015,936.057,119.183,0,0.000885,0,0
0:5:53.420,937.053,119.307,0,0.000885,0,0
0:5:53.815,938.584,119.507,0,0.000885,0,0
0:5:54.219,939.344,119.603,0,0.000885,0,0
0:5:54.625,940.167,119.707,0,0.000885,0,0
0:5:55.026,941.515,119.879,0,0.000885,0,0
0:5:55.430,942.574,120.01,0,0.000885,0,0
0:5:55.825,943.454,120.127,0,0.000885,0,0
0:5:56.224,944.687,120.279,0,0.000885,0,0
0:5:56.624,945.861,120.431,0,0.000885,0,0
0:5:57.021,946.977,120.576,0,0.000885,0,0
0:5:57.414,948.032,120.707,0,0.000885,0,0
0:5:57.821,948.797,120.803,0,0.000885,0,0
0:5:58.221,950.323,120.996,0,0.000885,0,0
0:5:58.618,951.79,121.182,0,0.000885,0,0
0:5:59.015,952.787,121.313,0,0.000885,0,0
0:5:59.419,953.846,121.444,0,0.000885,0,0
0:5:59.824,955.078,121.603,0,0.000885,0,0
0:6:0.227,956.31,121.761,0,0.000885,0,0
0:6:0.630,957.484,121.913,0,0.000885,0,0
0:6:1.025,958.423,122.03,0,0.000885,0,0
0:6:1.421,959.068,122.113,0,0.000885,0,0
0:6:1.821,960.184,122.251,0,0.000885,0,0
0:6:2.216,960.593,122.306,0,0.000885,0,0
0:6:2.622,962.239,122.513,0,0.000885,0,0
0:6:3.017,963.058,122.623,0,0.000885,0,0
0:6:3.417,964.526,122.809,0,0.000885,0,0
0:6:3.815,965.642,122.947,0,0.000885,0,0
0:6:4.219,966.817,123.099,0,0.000885,0,0
0:6:4.623,967.813,123.223,0,0.000885,0,0
0:6:5.029,968.814,123.354,0,0.000885,0,0
0:6:5.432,970.162,123.526,0,0.000885,0,0
0:6:5.835,971.158,123.651,0,0.000885,0,0
0:6:6.231,972.097,123.775,0,0.000885,0,0
0:6:6.626,973.333,123.926,0,0.000885,0,0
0:6:7.023,974.445,124.071,0,0.000885,0,0
0:6:7.422,975.797,124.244,0,0.000885,0,0
0:6:7.819,976.678,124.354,0,0.000885,0,0
0:6:8.214,977.732,124.492,0,0.000885,0,0
0:6:8.611,979.32,124.692,0,0.000885,0,0
0:6:9.014,980.375,124.823,0,0.000885,0,0
0:6:9.419,981.255,124.94,0,0.000885,0,0
0:6:9.821,982.666,125.119,0,0.000885,0,0
0:6:10.224,983.604,125.236,0,0.000885,0,0
0:6:10.623,984.952,125.409,0,0.000885,0,0
0:6:11.024,985.539,125.485,0,0.000885,0,0
0:6:11.419,986.189,125.567,0,0.000885,0,0
0:6:11.814,987.714,125.76,0,0.000885,0,0
0:6:12.221,988.946,125.919,0,0.000885,0,0
0:6:12.619,989.769,126.022,0,0.000885,0,0
0:6:13.018,990.939,126.167,0,0.000885,0,0
0:6:13.421,992.234,126.333,0,0.000885,0,0
0:6:13.817,993.172,126.457,0,0.000885,0,0
0:6:14.220,994.111,126.574,0,0.000885,0,0
0:6:14.626,995.227,126.719,0,0.000885,0,0
0:6:15.030,996.282,126.85,0,0.000885,0,0
0:6:15.431,997.514,127.008,0,0.000885,0,0
0:6:15.829,998.63,127.146,0,0.000885,0,0
0:6:16.227,999.453,127.257,0,0.000885,0,0
0:6:16.624,1000.86,127.436,0,0.000885,0,0
0:6:17.020,1002.15,127.601,0,0.000885,0,0
0:6:17.416,1002.98,127.705,0,0.000885,0,0
0:6:17.822,1004.15,127.849,0,0.000885,0,0
0:6:18.222,1005.91,128.077,0,0.000885,0,0
0:6:18.618,1006.49,128.153,0,0.000885,0,0
0:6:19.022,1007.73,128.311,0,0.000885,0,0
0:6:19.425,1009.02,128.47,0,0.000885,0,0
0:6:19.831,1009.78,128.567,0,0.000885,0,0
0:6:20.235,1011.13,128.739,0,0.000885,0,0
0:6:20.638,1012.25,128.884,0,0.000885,0,0
0:6:21.034,1013.19,129.001,0,0.000885,0,0
0:6:21.435,1014.36,129.153,0,0.000885,0,0
0:6:21.832,1014.71,129.201,0,0.000885,0,0
0:6:22.225,1015.77,129.332,0,0.000885,0,0
0:6:22.621,1016.94,129.484,0,0.000885,0,0
0:6:23.020,1017.65,129.573,0,0.000885,0,0
0:6:23.420,1019.23,129.773,0,0.000885,0,0
0:6:23.816,1020.7,129.959,0,0.000885,0,0
0:6:24.208,1022.11,130.139,0,0.000885,0,0
0:6:24.612,1023.11,130.27,0,0.000885,0,0
0:6:25.020,1023.7,130.338,0,0.000885,0,0
0:6:25.422,1024.99,130.504,0,0.000885,0,0
0:6:25.825,1026.1,130.649,0,0.000885,0,0
0:6:26.221,1027.16,130.78,0,0.000885,0,0
0:6:26.620,1028.39,130.938,0,0.000885,0,0
0:6:27.020,1029.56,131.09,0,0.000885,0,0
0:6:27.424,1030.62,131.221,0,0.000885,0,0
0:6:27.821,1032.09,131.407,0,0.000885,0,0
0:6:28.216,1033.32,131.566,0,0.000885,0,0
0:6:28.613,1034.09,131.662,0,0.000885,0,0
0:6:29.012,1035.43,131.835,0,0.000885,0,0
0:6:29.420,1036.37,131.952,0,0.000885,0,0
0:6:29.824,1037.49,132.097,0,0.000885,0,0
0:6:30.227,1037.78,132.138,0,0.000885,0,0
0:6:30.627,1039.19,132.317,0,0.000885,0,0
0:6:31.024,1040.66,132.503,0,0.000885,0,0
0:6:31.420,1041.13,132.559,0,0.000885,0,0
0:6:31.825,1042.19,132.696,0,0.000885,0,0
0:6:32.223,1044.06,132.931,0,0.000885,0,0
0:6:32.621,1044.89,133.041,0,0.000885,0,0
0:6:33.017,1045.94,133.172,0,0.000885,0,0
0:6:33.422,1046.94,133.303,0,0.000885,0,0
0:6:33.820,1048.23,133.462,0,0.000885,0,0
0:6:34.221,1049.23,133.593,0,0.000885,0,0
0:6:34.626,1050.35,133.731,0,0.000885,0,0
0:6:35.032,1051.58,133.889,0,0.000885,0,0
0:6:35.433,1052.69,134.034,0,0.000885,0,0
0:6:35.834,1053.93,134.193,0,0.000885,0,0
0:6:36.231,1054.57,134.275,0,0.000885,0,0
0:6:36.626,1055.63,134.406,0,0.000885,0,0
0:6:37.020,1056.86,134.565,0,0.000885,0,0
0:6:37.419,1058.09,134.724,0,0.000885,0,0
0:6:37.819,1059.44,134.889,0,0.000885,0,0
0:6:38.225,1060.67,135.048,0,0.000885,0,0
0:6:38.620,1062.03,135.22,0,0.000885,0,0
0:6:39.023,1062.61,135.296,0,0.000885,0,0
0:6:39.426,1063.96,135.468,0,0.000885,0,0
0:6:39.833,1064.9,135.585,0,0.000885,0,0
0:6:40.237,1065.72,135.689,0,0.000885,0,0
0:6:40.638,1066.84,135.834,0,0.000885,0,0
0:6:41.037,1068.01,135.985,0,0.000885,0,0
0:6:41.434,1068.95,136.103,0,0.000885,0,0
0:6:41.834,1070.18,136.261,0,0.000885,0,0
0:6:42.227,1071.24,136.392,0,0.000885,0,0
0:6:42.623,1072.3,136.53,0,0.000885,0,0
0:6:43.020,1073.47,136.682,0,0.000885,0,0
0:6:43.419,1074.12,136.758,0,0.000885,0,0
0:6:43.826,1075.53,136.944,0,0.000885,0,0
0:6:44.221,1077.23,137.157,0,0.000885,0,0
0:6:44.626,1077.82,137.233,0,0.000885,0,0
0:6:45.032,1078.99,137.378,0,0.000885,0,0
0:6:45.434,1080.34,137.55,0,0.000885,0,0
0:6:45.837,1081.51,137.702,0,0.000885,0,0
0:6:46.233,1082.51,137.833,0,0.000885,0,0
0:6:46.629,1083.51,137.957,0,0.000885,0,0
0:6:47.030,1084.69,138.109,0,0.000885,0,0
0:6:47.427,1085.68,138.233,0,0.000885,0,0
0:6:47.824,1086.8,138.378,0,0.000885,0,0
0:6:48.219,1087.56,138.474,0,0.000885,0,0
0:6:48.624,1088.79,138.626,0,0.000885,0,0
0:6:49.025,1089.61,138.736,0,0.000885,0,0
0:6:49.423,1090.73,138.874,0,0.000885,0,0
0:6:49.829,1091.85,139.019,0,0.000885,0,0
0:6:50.234,1092.79,139.136,0,0.000885,0,0
0:6:50.635,1093.96,139.288,0,0.000885,0,0
0:6:51.037,1095.54,139.488,0,0.000885,0,0
0:6:51.434,1096.78,139.646,0,0.000885,0,0
0:6:51.827,1097.95,139.798,0,0.000885,0,0
0:6:52.224,1098.6,139.881,0,0.000885,0,0
0:6:52.622,1099.71,140.019,0,0.000885,0,0
0:6:53.022,1101.12,140.198,0,0.000885,0,0
0:6:53.427,1102.35,140.357,0,0.000885,0,0
0:6:53.821,1102.94,140.432,0,0.000885,0,0
0:6:54.225,1103.82,140.543,0,0.000885,0,0
0:6:54.631,1105.46,140.75,0,0.000885,0,0
0:6:55.034,1106.7,140.908,0,0.000885,0,0
0:6:55.436,1107.69,141.039,0,0.000885,0,0
0:6:55.832,1108.93,141.191,0,0.000885,0,0
0:6:56.232,1110.51,141.398,0,0.000885,0,0
0:6:56.630,1111.21,141.487,0,0.000885,0,0
0:6:57.023,1111.8,141.556,0,0.000885,0,0
0:6:57.420,1113.15,141.729,0,0.000885,0,0
0:6:57.819,1114.09,141.853,0,0.000885,0,0
0:6:58.226,1115.15,141.984,0,0.000885,0,0
0:6:58.623,1115.97,142.087,0,0.000885,0,0
0:6:59.019,1117.44,142.273,0,0.000885,0,0
0:6:59.423,1118.85,142.453,0,0.000885,0,0
0:6:59.827,1119.49,142.535,0,0.000885,0,0
0:7:0.229,1120.2,142.625,0,0.000885,0,0
0:7:0.631,1121.84,142.839,0,0.000885,0,0
0:7:1.027,1123.07,142.997,0,0.000885,0,0
0:7:1.425,1124.07,143.121,0,0.000885,0,0
0:7:1.825,1124.84,143.218,0,0.000885,0,0
0:7:2.221,1126.07,143.376,0,0.000885,0,0
0:7:2.625,1127.48,143.556,0,0.000885,0,0
0:7:3.023,1128.77,143.721,0,0.000885,0,0
0:7:3.421,1130,143.873,0,0.000885,0,0
0:7:3.827,1130.94,143.997,0,0.000885,0,0
0:7:4.223,1131.64,144.087,0,0.000885,0,0
0:7:4.627,1132.35,144.176,0,0.000885,0,0
0:7:5.032,1133.87,144.369,0,0.000885,0,0
0:7:5.435,1134.75,144.48,0,0.000885,0,0
0:7:5.838,1136.57,144.714,0,0.000885,0,0
0:7:6.234,1137.57,144.838,0,0.000885,0,0
0:7:6.630,1138.45,144.955,0,0.000885,0,0
0:7:7.031,1139.92,145.142,0,0.000885,0,0
0:7:7.427,1140.1,145.162,0,0.000885,0,0
0:7:7.821,1141.56,145.348,0,0.000885,0,0
0:7:8.228,1142.33,145.445,0,0.000885,0,0
0:7:8.625,1143.56,145.603,0,0.000885,0,0
0:7:9.025,1144.79,145.762,0,0.000885,0,0
0:7:9.430,1145.73,145.879,0,0.000885,0,0
0:7:9.834,1147.14,146.059,0,0.000885,0,0
0:7:10.237,1147.85,146.148,0,0.000885,0,0
0:7:10.636,1149.67,146.383,0,0.000885,0,0
0:7:11.035,1150.72,146.514,0,0.000885,0,0
0:7:11.432,1151.66,146.631,0,0.000885,0,0
0:7:11.826,1153.25,146.838,0,0.000885,0,0
0:7:12.223,1153.66,146.886,0,0.000885,0,0
0:7:12.623,1154.89,147.044,0,0.000885,0,0
0:7:13.030,1156.18,147.21,0,0.000885,0,0
0:7:13.423,1156.53,147.251,0,0.000885,0,0
0:7:13.821,1158.41,147.493,0,0.000885,0,0
0:7:14.222,1159.17,147.589,0,0.000885,0,0
0:7:14.627,1160.58,147.768,0,0.000885,0,0
0:7:15.032,1161.64,147.906,0,0.000885,0,0
0:7:15.434,1162.75,148.044,0,0.000885,0,0
0:7:15.833,1163.93,148.196,0,0.000885,0,0
0:7:16.232,1165.1,148.348,0,0.000885,0,0
0:7:16.626,1165.57,148.403,0,0.000885,0,0
0:7:17.023,1166.8,148.561,0,0.000885,0,0
0:7:17.429,1168.15,148.734,0,0.000885,0,0
0:7:17.828,1169.45,148.899,0,0.000885,0,0
0:7:18.227,1170.33,149.009,0,0.000885,0,0
0:7:18.631,1171.32,149.14,0,0.000885,0,0
0:7:19.026,1172.09,149.237,0,0.000885,0,0
0:7:19.430,1173.67,149.437,0,0.000885,0,0
0:7:19.836,1174.61,149.554,0,0.000885,0,0
0:7:20.239,1175.84,149.713,0,0.000885,0,0
0:7:20.641,1176.84,149.837,0,0.000885,0,0
0:7:21.038,1177.78,149.961,0,0.000885,0,0
0:7:21.436,1178.72,150.078,0,0.000885,0,0
0:7:21.835,1179.95,150.237,0,0.000885,0,0
0:7:22.232,1180.54,150.313,0,0.000885,0,0
0:7:22.626,1182.36,150.54,0,0.000885,0,0
0:7:23.022,1183.48,150.685,0,0.000885,0,0
0:7:23.421,1184.71,150.843,0,0.000885,0,0
0:7:23.830,1186.06,151.016,0,0.000885,0,0
0:7:24.225,1187.06,151.14,0,0.000885,0,0
0:7:24.632,1188,151.257,0,0.000885,0,0
0:7:25.035,1188.88,151.374,0,0.000885,0,0
0:7:25.439,1190.64,151.595,0,0.000885,0,0
0:7:25.842,1191.46,151.698,0,0.000885,0,0
0:7:26.239,1192.75,151.864,0,0.000885,0,0
0:7:26.634,1193.57,151.967,0,0.000885,0,0
0:7:27.032,1194.39,152.078,0,0.000885,0,0
0:7:27.431,1195.27,152.188,0,0.000885,0,0
0:7:27.829,1196.56,152.353,0,0.000885,0,0
0:7:28.223,1198.03,152.54,0,0.000885,0,0
0:7:28.629,1198.85,152.643,0,0.000885,0,0
0:7:29.029,1200.21,152.815,0,0.000885,0,0
0:7:29.426,1201.26,152.946,0,0.000885,0,0
0:7:29.830,1201.55,152.988,0,0.000885,0,0
0:7:30.234,1203.02,153.174,0,0.000885,0,0
0:7:30.637,1204.43,153.353,0,0.000885,0,0
0:7:31.039,1205.72,153.519,0,0.000885,0,0
0:7:31.436,1206.95,153.677,0,0.000885,0,0
0:7:31.832,1207.89,153.794,0,0.000885,0,0
0:7:32.226,1208.89,153.919,0,0.000885,0,0
0:7:32.626,1209.89,154.05,0,0.000885,0,0
0:7:33.027,1211.12,154.208,0,0.000885,0,0
0:7:33.432,1211.82,154.298,0,0.000885,0,0
0:7:33.827,1213.76,154.539,0,0.000885,0,0
0:7:34.232,1214.41,154.622,0,0.000885,0,0
0:7:34.636,1215.82,154.801,0,0.000885,0,0
0:7:35.040,1216.93,154.946,0,0.000885,0,0
0:7:35.441,1217.7,155.042,0,0.000885,0,0
0:7:35.836,1218.58,155.153,0,0.000885,0,0
0:7:36.234,1219.69,155.298,0,0.000885,0,0
0:7:36.633,1220.69,155.422,0,0.000885,0,0
0:7:37.027,1221.98,155.587,0,0.000885,0,0
0:7:37.424,1222.86,155.697,0,0.000885,0,0
0:7:37.831,1223.92,155.835,0,0.000885,0,0
0:7:38.232,1224.68,155.932,0,0.000885,0,0
0:7:38.630,1226.56,156.173,0,0.000885,0,0
0:7:39.033,1227.5,156.29,0,0.000885,0,0
0:7:39.437,1228.09,156.366,0,0.000885,0,0
0:7:39.842,1229.32,156.525,0,0.000885,0,0
0:7:40.246,1230.67,156.69,0,0.000885,0,0
0:7:40.647,1231.78,156.835,0,0.000885,0,0
0:7:41.043,1232.66,156.945,0,0.000885,0,0
0:7:41.440,1234.19,157.145,0,0.000885,0,0
0:7:41.839,1235.31,157.283,0,0.000885,0,0
0:7:42.236,1236.13,157.387,0,0.000885,0,0
0:7:42.632,1237.54,157.566,0,0.000885,0,0
0:7:43.026,1238.89,157.738,0,0.000885,0,0
0:7:43.426,1239.71,157.842,0,0.000885,0,0
0:7:43.835,1240.82,157.986,0,0.000885,0,0
0:7:44.230,1241.7,158.097,0,0.000885,0,0
0:7:44.634,1242.64,158.221,0,0.000885,0,0
0:7:45.039,1243.94,158.379,0,0.000885,0,0
0:7:45.440,1244.35,158.435,0,0.000885,0,0
0:7:45.844,1245.64,158.6,0,0.000885,0,0
0:7:46.240,1247.4,158.821,0,0.000885,0,0
0:7:46.636,1248.04,158.903,0,0.000885,0,0
0:7:47.035,1249.69,159.117,0,0.000885,0,0
0:7:47.433,1250.51,159.221,0,0.000885,0,0
0:7:47.828,1251.97,159.407,0,0.000885,0,0
0:7:48.232,1252.62,159.49,0,0.000885,0,0
0:7:48.629,1253.97,159.662,0,0.000885,0,0
0:7:49.030,1254.39,159.71,0,0.000885,0,0
0:7:49.426,1256.03,159.924,0,0.000885,0,0
0:7:49.832,1257.26,160.082,0,0.000885,0,0
0:7:50.236,1258.32,160.213,0,0.000885,0,0
0:7:50.637,1259.2,160.324,0,0.000885,0,0
0:7:51.041,1260.55,160.496,0,0.000885,0,0
0:7:51.436,1261.72,160.648,0,0.000885,0,0
0:7:51.831,1262.37,160.731,0,0.000885,0,0
0:7:52.227,1262.42,160.737,0,0.000885,0,0
0:7:52.626,1263.07,160.82,0,0.000885,0,0
0:7:53.033,1264.54,161.006,0,0.000885,0,0
0:7:53.286,967.813,123.223,0,0.000885,0,0