File: DataFile2021-06-06_051955.csv
Test ID:,Date Tested:,Time:,Test Type:,Diameter Avg. (mm):,Cyl. Corr. Factor:,Height (mm):,Age (days):,Weight (kN):,Break Type:,Ramp Rate (MPa/s):,Load at Break (kN):,Stress at Break (MPa):
12,6/6/2021,05:19,Cylinder,150,1,300,0,13.39,3,0.24,759.2,42.96
Sample Time,Load (kN),Stress (MPa),Long. Strain,Trans. Strain,Chan1 Deflection (mm),Chan2 Deflection (mm)
0:0:18.621,5.80493,0.330948,0,0.000885,0,0
0:0:18.829,11.6721,0.661897,0,0.000885,0,0
0:0:19.026,13.6071,0.772213,0,0.000885,0,0
0:0:19.228,12.4328,0.703265,0,0.000885,0,0
0:0:19.424,12.0814,0.682581,0,0.000885,0,0
0:0:19.624,12.1392,0.689476,0,0.000885,0,0
0:0:19.831,11.552,0.655002,0,0.000885,0,0
0:0:20.029,11.3207,0.641212,0,0.000885,0,0
0:0:20.229,12.3171,0.69637,0,0.000885,0,0
0:0:20.445,12.4328,0.703265,0,0.000885,0,0
0:0:20.644,12.8465,0.72395,0,0.000885,0,0
0:0:20.843,13.2557,0.751529,0,0.000885,0,0
0:0:21.040,14.9549,0.848055,0,0.000885,0,0
0:0:21.242,15.8935,0.896318,0,0.000885,0,0
0:0:21.439,16.7742,0.951477,0,0.000885,0,0
0:0:21.634,17.3036,0.979056,0,0.000885,0,0
0:0:21.836,18.4156,1.04111,0,0.000885,0,0
0:0:22.031,19.5321,1.10316,0,0.000885,0,0
0:0:22.233,20.6442,1.16521,0,0.000885,0,0
0:0:22.432,21.4093,1.21348,0,0.000885,0,0
0:0:22.642,22.8149,1.28932,0,0.000885,0,0
0:0:22.843,23.2864,1.3169,0,0.000885,0,0
0:0:23.036,24.87,1.40653,0,0.000885,0,0
0:0:23.240,25.6885,1.45479,0,0.000885,0,0
0:0:23.439,26.5692,1.50306,0,0.000885,0,0
0:0:23.634,27.3299,1.54443,0,0.000885,0,0
0:0:23.835,28.8556,1.63406,0,0.000885,0,0
0:0:24.041,29.6785,1.68232,0,0.000885,0,0
0:0:24.245,31.0842,1.75816,0,0.000885,0,0
0:0:24.447,31.7292,1.79264,0,0.000885,0,0
0:0:24.649,33.4328,1.88916,0,0.000885,0,0
0:0:24.851,33.8999,1.91674,0,0.000885,0,0
0:0:25.053,35.0164,1.9788,0,0.000885,0,0
0:0:25.254,35.5413,2.01327,0,0.000885,0,0
0:0:25.456,36.6578,2.07532,0,0.000885,0,0
0:0:25.653,36.9514,2.08911,0,0.000885,0,0
0:0:25.854,37.6542,2.13048,0,0.000885,0,0
0:0:26.052,38.8285,2.19943,0,0.000885,0,0
0:0:26.250,39.1177,2.21322,0,0.000885,0,0
0:0:26.451,40.0562,2.26838,0,0.000885,0,0
0:0:26.647,40.7012,2.30285,0,0.000885,0,0
0:0:26.848,41.8177,2.3649,0,0.000885,0,0
0:0:27.047,42.5206,2.40627,0,0.000885,0,0
0:0:27.244,43.7527,2.47522,0,0.000885,0,0
0:0:27.446,43.9885,2.48901,0,0.000885,0,0
0:0:27.644,45.5142,2.57864,0,0.000885,0,0
0:0:27.844,45.9234,2.59932,0,0.000885,0,0
0:0:28.043,47.4492,2.68206,0,0.000885,0,0
0:0:28.240,47.7428,2.70274,0,0.000885,0,0
0:0:28.441,49.0906,2.77859,0,0.000885,0,0
0:0:28.640,49.3263,2.79238,0,0.000885,0,0
0:0:28.835,50.9099,2.88201,0,0.000885,0,0
0:0:29.036,51.3191,2.90269,0,0.000885,0,0
0:0:29.242,52.787,2.98543,0,0.000885,0,0
0:0:29.446,53.4899,3.0268,0,0.000885,0,0
0:0:29.647,54.2505,3.06817,0,0.000885,0,0
0:0:29.849,54.6642,3.09575,0,0.000885,0,0
0:0:30.050,55.0734,3.11643,0,0.000885,0,0
0:0:30.252,55.9542,3.16469,0,0.000885,0,0
0:0:30.454,57.0084,3.22675,0,0.000885,0,0
0:0:30.654,58.3562,3.30259,0,0.000885,0,0
0:0:30.850,58.8277,3.33017,0,0.000885,0,0
0:0:31.052,60.1755,3.40601,0,0.000885,0,0
0:0:31.247,60.4691,3.4198,0,0.000885,0,0
0:0:31.448,61.8748,3.50254,0,0.000885,0,0
0:0:31.649,62.9334,3.56459,0,0.000885,0,0
0:0:31.845,63.872,3.61285,0,0.000885,0,0
0:0:32.047,64.8106,3.66801,0,0.000885,0,0
0:0:32.244,66.2162,3.74385,0,0.000885,0,0
0:0:32.442,66.6877,3.77143,0,0.000885,0,0
0:0:32.644,67.4484,3.8197,0,0.000885,0,0
0:0:32.849,68.209,3.86106,0,0.000885,0,0
0:0:33.052,69.7348,3.9438,0,0.000885,0,0
0:0:33.249,70.0284,3.96449,0,0.000885,0,0
0:0:33.447,71.6119,4.05412,0,0.000885,0,0
0:0:33.648,72.4348,4.09549,0,0.000885,0,0
0:0:33.845,73.2533,4.14375,0,0.000885,0,0
0:0:34.046,73.667,4.17133,0,0.000885,0,0
0:0:34.248,75.0148,4.24717,0,0.000885,0,0
0:0:34.452,75.6598,4.28164,0,0.000885,0,0
0:0:34.654,77.3012,4.37128,0,0.000885,0,0
0:0:34.856,77.7727,4.39886,0,0.000885,0,0
0:0:35.058,78.649,4.45401,0,0.000885,0,0
0:0:35.259,79.294,4.48849,0,0.000885,0,0
0:0:35.460,80.4105,4.55054,0,0.000885,0,0
0:0:35.661,80.8197,4.57122,0,0.000885,0,0
0:0:35.859,81.229,4.5988,0,0.000885,0,0
0:0:36.060,82.5812,4.67465,0,0.000885,0,0
0:0:36.260,82.9905,4.69533,0,0.000885,0,0
0:0:36.456,84.3383,4.77117,0,0.000885,0,0
0:0:36.658,84.6897,4.79186,0,0.000885,0,0
0:0:36.854,86.4512,4.89528,0,0.000885,0,0
0:0:37.054,86.6247,4.90217,0,0.000885,0,0
0:0:37.256,87.7412,4.96423,0,0.000885,0,0
0:0:37.451,88.3862,4.9987,0,0.000885,0,0
0:0:37.652,89.6183,5.07454,0,0.000885,0,0
0:0:37.851,90.4412,5.11591,0,0.000885,0,0
0:0:38.049,91.3754,5.17107,0,0.000885,0,0
0:0:38.252,92.434,5.23312,0,0.000885,0,0
0:0:38.446,93.4304,5.28828,0,0.000885,0,0
0:0:38.647,94.0176,5.32275,0,0.000885,0,0
0:0:38.847,95.014,5.37791,0,0.000885,0,0
0:0:39.044,96.0682,5.43307,0,0.000885,0,0
0:0:39.246,96.6554,5.46754,0,0.000885,0,0
0:0:39.449,97.1847,5.50202,0,0.000885,0,0
0:0:39.651,97.5362,5.5227,0,0.000885,0,0
0:0:39.854,98.5904,5.57786,0,0.000885,0,0
0:0:40.057,99.529,5.63302,0,0.000885,0,0
0:0:40.257,100.939,5.70886,0,0.000885,0,0
0:0:40.459,101.642,5.75023,0,0.000885,0,0
0:0:40.661,103.461,5.85365,0,0.000885,0,0
0:0:40.863,104.164,5.89502,0,0.000885,0,0
0:0:41.057,105.16,5.95018,0,0.000885,0,0
0:0:41.259,105.512,5.97086,0,0.000885,0,0
0:0:41.459,107.153,6.06049,0,0.000885,0,0
0:0:41.655,107.447,6.08118,0,0.000885,0,0
0:0:41.858,108.385,6.13633,0,0.000885,0,0
0:0:42.054,109.266,6.1846,0,0.000885,0,0
0:0:42.253,110.263,6.23976,0,0.000885,0,0
0:0:42.454,110.908,6.27423,0,0.000885,0,0
0:0:42.649,111.379,6.30181,0,0.000885,0,0
0:0:42.851,112.375,6.35697,0,0.000885,0,0
0:0:43.048,113.545,6.42591,0,0.000885,0,0
0:0:43.246,114.132,6.46039,0,0.000885,0,0
0:0:43.448,115.307,6.52244,0,0.000885,0,0
0:0:43.645,116.01,6.56381,0,0.000885,0,0
0:0:43.846,116.597,6.59828,0,0.000885,0,0
0:0:44.048,117.945,6.67413,0,0.000885,0,0
0:0:44.252,118.768,6.72239,0,0.000885,0,0
0:0:44.456,119.706,6.77065,0,0.000885,0,0
0:0:44.656,120.351,6.81202,0,0.000885,0,0
0:0:44.858,121.583,6.88097,0,0.000885,0,0
0:0:45.059,122.58,6.93613,0,0.000885,0,0
0:0:45.261,123.927,7.01197,0,0.000885,0,0
0:0:45.462,123.754,7.00507,0,0.000885,0,0
0:0:45.660,125.395,7.09471,0,0.000885,0,0
0:0:45.859,125.983,7.12918,0,0.000885,0,0
0:0:46.060,127.095,7.19123,0,0.000885,0,0
0:0:46.254,127.566,7.21881,0,0.000885,0,0
0:0:46.457,128.856,7.29465,0,0.000885,0,0
0:0:46.655,129.323,7.31534,0,0.000885,0,0
0:0:46.854,129.968,7.35671,0,0.000885,0,0
0:0:47.055,130.555,7.39118,0,0.000885,0,0
0:0:47.250,131.436,7.43944,0,0.000885,0,0
0:0:47.452,132.139,7.48081,0,0.000885,0,0
0:0:47.651,133.313,7.54286,0,0.000885,0,0
0:0:47.849,134.31,7.59802,0,0.000885,0,0
0:0:48.051,136.009,7.69455,0,0.000885,0,0
0:0:48.246,136.654,7.73592,0,0.000885,0,0
0:0:48.447,136.716,7.73592,0,0.000885,0,0
0:0:48.646,138.3,7.82555,0,0.000885,0,0
0:0:48.845,139.354,7.8876,0,0.000885,0,0
0:0:49.048,139.999,7.92208,0,0.000885,0,0
0:0:49.251,140.528,7.94966,0,0.000885,0,0
0:0:49.455,141.525,8.01171,0,0.000885,0,0
0:0:49.657,142.05,8.03929,0,0.000885,0,0
0:0:49.859,142.695,8.07376,0,0.000885,0,0
0:0:50.059,143.927,8.14271,0,0.000885,0,0
0:0:50.262,144.928,8.19787,0,0.000885,0,0
0:0:50.464,145.862,8.25302,0,0.000885,0,0
0:0:50.662,147.623,8.35645,0,0.000885,0,0
0:0:50.860,147.801,8.36334,0,0.000885,0,0
0:0:51.062,148.74,8.4185,0,0.000885,0,0
0:0:51.259,149.5,8.45987,0,0.000885,0,0
0:0:51.460,150.906,8.5426,0,0.000885,0,0
0:0:51.659,151.671,8.58397,0,0.000885,0,0
0:0:51.857,152.903,8.65292,0,0.000885,0,0
0:0:52.058,154.015,8.71497,0,0.000885,0,0
0:0:52.256,154.429,8.73566,0,0.000885,0,0
0:0:52.456,155.012,8.77013,0,0.000885,0,0
0:0:52.655,155.892,8.81839,0,0.000885,0,0
0:0:52.851,156.422,8.85287,0,0.000885,0,0
0:0:53.053,157.534,8.91492,0,0.000885,0,0
0:0:53.251,158.063,8.9425,0,0.000885,0,0
0:0:53.451,158.592,8.97697,0,0.000885,0,0
0:0:53.651,159.825,9.04592,0,0.000885,0,0
0:0:53.846,160.349,9.0735,0,0.000885,0,0
0:0:54.049,162.053,9.17003,0,0.000885,0,0
0:0:54.250,162.872,9.21829,0,0.000885,0,0
0:0:54.453,164.162,9.28724,0,0.000885,0,0
0:0:54.656,164.749,9.32171,0,0.000885,0,0
0:0:54.859,165.452,9.36308,0,0.000885,0,0
0:0:55.059,166.159,9.40445,0,0.000885,0,0
0:0:55.261,167.213,9.45961,0,0.000885,0,0
0:0:55.464,167.8,9.49408,0,0.000885,0,0
0:0:55.666,168.797,9.54924,0,0.000885,0,0
0:0:55.861,169.557,9.5975,0,0.000885,0,0
0:0:56.063,170.265,9.63198,0,0.000885,0,0
0:0:56.262,171.199,9.68713,0,0.000885,0,0
0:0:56.460,172.493,9.76298,0,0.000885,0,0
0:0:56.661,173.018,9.79056,0,0.000885,0,0
0:0:56.857,174.308,9.8664,0,0.000885,0,0
0:0:57.058,175.189,9.91466,0,0.000885,0,0
0:0:57.257,176.83,10.0043,0,0.000885,0,0
0:0:57.457,177.711,10.0595,0,0.000885,0,0
0:0:57.658,178.592,10.1077,0,0.000885,0,0
0:0:57.853,179.117,10.1353,0,0.000885,0,0
0:0:58.055,179.588,10.1629,0,0.000885,0,0
0:0:58.253,180.82,10.2318,0,0.000885,0,0
0:0:58.452,181.229,10.2525,0,0.000885,0,0
0:0:58.655,182.404,10.3215,0,0.000885,0,0
0:0:58.849,183.107,10.3628,0,0.000885,0,0
0:0:59.050,184.339,10.4318,0,0.000885,0,0
0:0:59.252,184.69,10.4525,0,0.000885,0,0
0:0:59.456,185.744,10.5145,0,0.000885,0,0
0:0:59.658,186.389,10.549,0,0.000885,0,0
0:0:59.861,187.212,10.5972,0,0.000885,0,0
0:1:0.063,188.093,10.6455,0,0.000885,0,0
0:1:0.265,189.089,10.7007,0,0.000885,0,0
0:1:0.466,189.677,10.7351,0,0.000885,0,0
0:1:0.668,191.202,10.8179,0,0.000885,0,0
0:1:0.866,191.905,10.8592,0,0.000885,0,0
0:1:1.066,193.137,10.9282,0,0.000885,0,0
0:1:1.265,193.84,10.9696,0,0.000885,0,0
0:1:1.458,195.072,11.0385,0,0.000885,0,0
0:1:1.659,195.539,11.0661,0,0.000885,0,0
0:1:1.855,197.007,11.1488,0,0.000885,0,0
0:1:2.053,197.359,11.1695,0,0.000885,0,0
0:1:2.253,198.827,11.2522,0,0.000885,0,0
0:1:2.447,199,11.2591,0,0.000885,0,0
0:1:2.648,199.645,11.3005,0,0.000885,0,0
0:1:2.844,200.935,11.3695,0,0.000885,0,0
0:1:3.039,201.113,11.3832,0,0.000885,0,0
0:1:3.239,202.87,11.4798,0,0.000885,0,0
0:1:3.443,203.515,11.5142,0,0.000885,0,0
0:1:3.644,204.222,11.5556,0,0.000885,0,0
0:1:3.843,205.334,11.6177,0,0.000885,0,0
0:1:4.047,206.157,11.6659,0,0.000885,0,0
0:1:4.248,207.038,11.7142,0,0.000885,0,0
0:1:4.449,207.447,11.7418,0,0.000885,0,0
0:1:4.650,208.444,11.7969,0,0.000885,0,0
0:1:4.852,209.382,11.8452,0,0.000885,0,0
0:1:5.052,210.205,11.8935,0,0.000885,0,0
0:1:5.253,211.259,11.9555,0,0.000885,0,0
0:1:5.453,212.082,12.0038,0,0.000885,0,0
0:1:5.654,213.252,12.0658,0,0.000885,0,0
0:1:5.850,213.724,12.0934,0,0.000885,0,0
0:1:6.048,215.072,12.1692,0,0.000885,0,0
0:1:6.249,215.659,12.2037,0,0.000885,0,0
0:1:6.443,217.184,12.2934,0,0.000885,0,0
0:1:6.640,217.536,12.3071,0,0.000885,0,0
0:1:6.838,218.061,12.3416,0,0.000885,0,0
0:1:7.034,219.293,12.4106,0,0.000885,0,0
0:1:7.235,220.116,12.4588,0,0.000885,0,0
0:1:7.432,220.997,12.5071,0,0.000885,0,0
0:1:7.629,221.29,12.5209,0,0.000885,0,0
0:1:7.829,222.58,12.5967,0,0.000885,0,0
0:1:8.033,223.225,12.6312,0,0.000885,0,0
0:1:8.234,224.631,12.7139,0,0.000885,0,0
0:1:8.429,225.396,12.7553,0,0.000885,0,0
0:1:8.627,226.392,12.8105,0,0.000885,0,0
0:1:8.827,227.153,12.8518,0,0.000885,0,0
0:1:9.030,228.327,12.9208,0,0.000885,0,0
0:1:9.231,228.794,12.9484,0,0.000885,0,0
0:1:9.434,229.853,13.0035,0,0.000885,0,0
0:1:9.634,230.614,13.0518,0,0.000885,0,0
0:1:9.835,232.082,13.1345,0,0.000885,0,0
0:1:10.034,232.9,13.1828,0,0.000885,0,0
0:1:10.236,234.016,13.2448,0,0.000885,0,0
0:1:10.435,234.368,13.2655,0,0.000885,0,0
0:1:10.630,235.364,13.3207,0,0.000885,0,0
0:1:10.831,236.361,13.3758,0,0.000885,0,0
0:1:11.024,236.832,13.4034,0,0.000885,0,0
0:1:11.223,238.122,13.4724,0,0.000885,0,0
0:1:11.423,238.825,13.5137,0,0.000885,0,0
0:1:11.628,239.999,13.5827,0,0.000885,0,0
0:1:11.829,240.351,13.6034,0,0.000885,0,0
0:1:12.023,241.699,13.6792,0,0.000885,0,0
0:1:12.232,242.344,13.7137,0,0.000885,0,0
0:1:12.431,243.398,13.7757,0,0.000885,0,0
0:1:12.626,244.105,13.8102,0,0.000885,0,0
0:1:12.826,245.333,13.886,0,0.000885,0,0
0:1:13.021,245.804,13.9067,0,0.000885,0,0
0:1:13.218,247.094,13.9826,0,0.000885,0,0
0:1:13.418,247.739,14.017,0,0.000885,0,0
0:1:13.614,248.971,14.086,0,0.000885,0,0
0:1:13.814,249.438,14.1136,0,0.000885,0,0
0:1:14.015,250.083,14.1549,0,0.000885,0,0
0:1:14.218,250.791,14.1894,0,0.000885,0,0
0:1:14.419,251.609,14.2377,0,0.000885,0,0
0:1:14.621,252.668,14.2997,0,0.000885,0,0
0:1:14.822,253.135,14.3273,0,0.000885,0,0
0:1:15.023,254.074,14.3756,0,0.000885,0,0
0:1:15.224,254.776,14.4169,0,0.000885,0,0
0:1:15.425,256.244,14.4997,0,0.000885,0,0
0:1:15.628,256.48,14.5135,0,0.000885,0,0
0:1:15.829,258.064,14.6031,0,0.000885,0,0
0:1:16.033,258.94,14.6514,0,0.000885,0,0
0:1:16.241,260.234,14.7272,0,0.000885,0,0
0:1:16.440,260.644,14.7479,0,0.000885,0,0
0:1:16.647,261.818,14.8168,0,0.000885,0,0
0:1:16.848,262.463,14.8513,0,0.000885,0,0
0:1:17.044,263.691,14.9203,0,0.000885,0,0
0:1:17.238,264.571,14.9685,0,0.000885,0,0
0:1:17.439,265.452,15.0237,0,0.000885,0,0
0:1:17.646,266.506,15.0788,0,0.000885,0,0
0:1:17.845,267.445,15.134,0,0.000885,0,0
0:1:18.044,268.152,15.1754,0,0.000885,0,0
0:1:18.248,268.855,15.2167,0,0.000885,0,0
0:1:18.448,269.264,15.2374,0,0.000885,0,0
0:1:18.645,270.203,15.2926,0,0.000885,0,0
0:1:18.839,270.906,15.327,0,0.000885,0,0
0:1:19.040,272.316,15.4098,0,0.000885,0,0
0:1:19.245,273.018,15.4512,0,0.000885,0,0
0:1:19.447,274.251,15.5201,0,0.000885,0,0
0:1:19.648,274.602,15.5408,0,0.000885,0,0
0:1:19.848,276.008,15.6166,0,0.000885,0,0
0:1:20.048,276.715,15.658,0,0.000885,0,0
0:1:20.249,278.005,15.7338,0,0.000885,0,0
0:1:20.449,278.299,15.7476,0,0.000885,0,0
0:1:20.645,279.94,15.8442,0,0.000885,0,0
0:1:20.841,280.234,15.8579,0,0.000885,0,0
0:1:21.042,280.994,15.8993,0,0.000885,0,0
0:1:21.247,282.342,15.9752,0,0.000885,0,0
0:1:21.446,282.813,16.0027,0,0.000885,0,0
0:1:21.644,284.046,16.0717,0,0.000885,0,0
0:1:21.849,284.633,16.1062,0,0.000885,0,0
0:1:22.050,285.629,16.1613,0,0.000885,0,0
0:1:22.242,286.39,16.2096,0,0.000885,0,0
0:1:22.441,287.622,16.2785,0,0.000885,0,0
0:1:22.640,288.383,16.3199,0,0.000885,0,0
0:1:22.835,289.384,16.375,0,0.000885,0,0
0:1:23.036,290.086,16.4164,0,0.000885,0,0
0:1:23.241,290.496,16.4371,0,0.000885,0,0
0:1:23.450,291.67,16.506,0,0.000885,0,0
0:1:23.649,292.195,16.5336,0,0.000885,0,0
0:1:23.842,293.253,16.5957,0,0.000885,0,0
0:1:24.042,294.014,16.637,0,0.000885,0,0
0:1:24.245,294.543,16.6646,0,0.000885,0,0
0:1:24.448,296.007,16.7474,0,0.000885,0,0
0:1:24.649,297.181,16.8163,0,0.000885,0,0
0:1:24.849,298.356,16.8853,0,0.000885,0,0
0:1:25.049,298.591,16.8991,0,0.000885,0,0
0:1:25.250,300.175,16.9887,0,0.000885,0,0
0:1:25.450,301.051,17.0369,0,0.000885,0,0
0:1:25.650,301.287,17.0507,0,0.000885,0,0
0:1:25.854,302.813,17.1335,0,0.000885,0,0
0:1:26.052,303.222,17.1611,0,0.000885,0,0
0:1:26.252,304.218,17.2162,0,0.000885,0,0
0:1:26.446,304.983,17.2576,0,0.000885,0,0
0:1:26.647,305.802,17.3058,0,0.000885,0,0
0:1:26.841,306.861,17.3679,0,0.000885,0,0
0:1:27.038,307.741,17.4162,0,0.000885,0,0
0:1:27.238,308.502,17.4575,0,0.000885,0,0
0:1:27.432,309.325,17.5058,0,0.000885,0,0
0:1:27.633,309.97,17.5403,0,0.000885,0,0
0:1:27.839,310.904,17.5954,0,0.000885,0,0
0:1:28.045,312.021,17.6575,0,0.000885,0,0
0:1:28.246,312.781,17.6988,0,0.000885,0,0
0:1:28.440,314.071,17.7747,0,0.000885,0,0
0:1:28.639,315.188,17.8367,0,0.000885,0,0
0:1:28.837,315.245,17.8367,0,0.000885,0,0
0:1:29.031,316.887,17.9333,0,0.000885,0,0
0:1:29.232,317.358,17.9608,0,0.000885,0,0
0:1:29.431,317.946,17.9953,0,0.000885,0,0
0:1:29.634,319.115,18.0574,0,0.000885,0,0
0:1:29.835,319.645,18.0849,0,0.000885,0,0
0:1:30.036,320.583,18.1401,0,0.000885,0,0
0:1:30.237,321.58,18.1953,0,0.000885,0,0
0:1:30.437,322.576,18.2573,0,0.000885,0,0
0:1:30.637,323.635,18.3125,0,0.000885,0,0
0:1:30.838,324.573,18.3676,0,0.000885,0,0
0:1:31.041,325.04,18.3952,0,0.000885,0,0
0:1:31.241,326.508,18.4779,0,0.000885,0,0
0:1:31.439,327.389,18.5262,0,0.000885,0,0
0:1:31.635,328.208,18.5745,0,0.000885,0,0
0:1:31.836,328.853,18.6089,0,0.000885,0,0
0:1:32.030,329.733,18.6572,0,0.000885,0,0
0:1:32.229,330.494,18.7055,0,0.000885,0,0
0:1:32.437,331.784,18.7744,0,0.000885,0,0
0:1:32.641,332.491,18.8158,0,0.000885,0,0
0:1:32.843,333.252,18.8572,0,0.000885,0,0
0:1:33.038,333.839,18.8916,0,0.000885,0,0
0:1:33.236,335.245,18.9744,0,0.000885,0,0
0:1:33.436,335.716,18.9951,0,0.000885,0,0
0:1:33.639,337.473,19.0985,0,0.000885,0,0
0:1:33.840,337.945,19.1261,0,0.000885,0,0
0:1:34.041,339.057,19.1881,0,0.000885,0,0
0:1:34.243,339.235,19.195,0,0.000885,0,0
0:1:34.447,340.583,19.2708,0,0.000885,0,0
0:1:34.647,341.521,19.326,0,0.000885,0,0
0:1:34.847,342.05,19.3536,0,0.000885,0,0
0:1:35.047,343.105,19.4156,0,0.000885,0,0
0:1:35.248,343.576,19.4432,0,0.000885,0,0
0:1:35.449,345.04,19.526,0,0.000885,0,0
0:1:35.642,345.218,19.5328,0,0.000885,0,0
0:1:35.842,346.801,19.6225,0,0.000885,0,0
0:1:36.041,347.268,19.6501,0,0.000885,0,0
0:1:36.235,348.207,19.7052,0,0.000885,0,0
0:1:36.436,348.678,19.7328,0,0.000885,0,0
0:1:36.631,350.204,19.8155,0,0.000885,0,0
0:1:36.830,351.08,19.8638,0,0.000885,0,0
0:1:37.029,352.197,19.9327,0,0.000885,0,0
0:1:37.242,353.015,19.9741,0,0.000885,0,0
0:1:37.443,353.78,20.0224,0,0.000885,0,0
0:1:37.639,354.368,20.05,0,0.000885,0,0
0:1:37.837,355.186,20.0982,0,0.000885,0,0
0:1:38.038,355.893,20.1396,0,0.000885,0,0
0:1:38.232,357.183,20.2154,0,0.000885,0,0
0:1:38.432,358.122,20.2637,0,0.000885,0,0
0:1:38.638,358.06,20.2637,0,0.000885,0,0
0:1:38.843,359.705,20.3533,0,0.000885,0,0
0:1:39.047,361.169,20.4361,0,0.000885,0,0
0:1:39.248,361.934,20.4843,0,0.000885,0,0
0:1:39.451,362.459,20.5119,0,0.000885,0,0
0:1:39.652,363.455,20.5671,0,0.000885,0,0
0:1:39.851,363.869,20.5877,0,0.000885,0,0
0:1:40.052,365.395,20.6774,0,0.000885,0,0
0:1:40.251,365.626,20.6912,0,0.000885,0,0
0:1:40.453,367.094,20.7739,0,0.000885,0,0
0:1:40.651,367.445,20.7946,0,0.000885,0,0
0:1:40.843,368.793,20.8704,0,0.000885,0,0
0:1:41.044,369.79,20.9256,0,0.000885,0,0
0:1:41.242,370.612,20.9739,0,0.000885,0,0
0:1:41.449,371.257,21.0083,0,0.000885,0,0
0:1:41.650,372.196,21.0635,0,0.000885,0,0
0:1:41.841,373.135,21.1117,0,0.000885,0,0
0:1:42.042,374.367,21.1876,0,0.000885,0,0
0:1:42.240,374.896,21.2152,0,0.000885,0,0
0:1:42.446,375.893,21.2703,0,0.000885,0,0
0:1:42.647,376.417,21.2979,0,0.000885,0,0
0:1:42.840,377.414,21.36,0,0.000885,0,0
0:1:43.040,377.707,21.3737,0,0.000885,0,0
0:1:43.238,378.997,21.4496,0,0.000885,0,0
0:1:43.433,379.762,21.491,0,0.000885,0,0
0:1:43.634,380.35,21.5254,0,0.000885,0,0
0:1:43.838,381.933,21.6151,0,0.000885,0,0
0:1:44.037,382.636,21.6495,0,0.000885,0,0
0:1:44.238,383.69,21.7116,0,0.000885,0,0
0:1:44.438,384.335,21.7461,0,0.000885,0,0
0:1:44.641,385.51,21.815,0,0.000885,0,0
0:1:44.840,386.155,21.8495,0,0.000885,0,0
0:1:45.041,387.387,21.9184,0,0.000885,0,0
0:1:45.242,387.796,21.946,0,0.000885,0,0
0:1:45.442,389.322,22.0287,0,0.000885,0,0
0:1:45.643,390.025,22.0701,0,0.000885,0,0
0:1:45.852,391.435,22.1529,0,0.000885,0,0
0:1:46.047,392.022,22.1804,0,0.000885,0,0
0:1:46.249,392.725,22.2218,0,0.000885,0,0
0:1:46.454,393.543,22.2701,0,0.000885,0,0
0:1:46.653,394.25,22.3114,0,0.000885,0,0
0:1:46.851,394.717,22.339,0,0.000885,0,0
0:1:47.042,396.301,22.4286,0,0.000885,0,0
0:1:47.243,396.71,22.4493,0,0.000885,0,0
0:1:47.441,398,22.5252,0,0.000885,0,0
0:1:47.638,398.707,22.5596,0,0.000885,0,0
0:1:47.838,400.113,22.6424,0,0.000885,0,0
0:1:48.032,400.994,22.6906,0,0.000885,0,0
0:1:48.232,401.403,22.7182,0,0.000885,0,0
0:1:48.430,402.577,22.7803,0,0.000885,0,0
0:1:48.636,403.107,22.8079,0,0.000885,0,0
0:1:48.836,404.334,22.8837,0,0.000885,0,0
0:1:49.036,404.864,22.9113,0,0.000885,0,0
0:1:49.238,405.629,22.9526,0,0.000885,0,0
0:1:49.440,406.212,22.9871,0,0.000885,0,0
0:1:49.639,407.915,23.0836,0,0.000885,0,0
0:1:49.840,408.502,23.1181,0,0.000885,0,0
0:1:50.039,409.499,23.1733,0,0.000885,0,0
0:1:50.241,410.024,23.2009,0,0.000885,0,0
0:1:50.439,411.082,23.2629,0,0.000885,0,0
0:1:50.634,411.901,23.3112,0,0.000885,0,0
0:1:50.835,412.666,23.3525,0,0.000885,0,0
0:1:51.039,413.191,23.3801,0,0.000885,0,0
0:1:51.237,414.774,23.4698,0,0.000885,0,0
0:1:51.437,415.655,23.518,0,0.000885,0,0
0:1:51.632,416.42,23.5663,0,0.000885,0,0
0:1:51.833,417.003,23.6008,0,0.000885,0,0
0:1:52.039,418.119,23.6628,0,0.000885,0,0
0:1:52.248,418.587,23.6904,0,0.000885,0,0
0:1:52.447,419.939,23.7662,0,0.000885,0,0
0:1:52.652,420.348,23.7869,0,0.000885,0,0
0:1:52.853,421.816,23.8696,0,0.000885,0,0
0:1:53.049,422.755,23.9248,0,0.000885,0,0
0:1:53.244,423.457,23.9662,0,0.000885,0,0
0:1:53.444,423.924,23.9869,0,0.000885,0,0
0:1:53.639,424.863,24.042,0,0.000885,0,0
0:1:53.837,426.037,24.111,0,0.000885,0,0
0:1:54.038,426.74,24.1454,0,0.000885,0,0
0:1:54.241,428.03,24.2213,0,0.000885,0,0
0:1:54.442,428.444,24.242,0,0.000885,0,0
0:1:54.643,429.556,24.3109,0,0.000885,0,0
0:1:54.843,431.024,24.3937,0,0.000885,0,0
0:1:55.044,432.136,24.4557,0,0.000885,0,0
0:1:55.243,432.723,24.4902,0,0.000885,0,0
0:1:55.445,433.426,24.5247,0,0.000885,0,0
0:1:55.641,433.777,24.5453,0,0.000885,0,0
0:1:55.837,435.361,24.635,0,0.000885,0,0
0:1:56.038,436.184,24.6832,0,0.000885,0,0
0:1:56.242,437.3,24.7453,0,0.000885,0,0
0:1:56.442,437.652,24.766,0,0.000885,0,0
0:1:56.639,438.822,24.8349,0,0.000885,0,0
0:1:56.835,439.293,24.8556,0,0.000885,0,0
0:1:57.037,440.232,24.9108,0,0.000885,0,0
0:1:57.232,441.05,24.959,0,0.000885,0,0
0:1:57.432,441.579,24.9866,0,0.000885,0,0
0:1:57.637,443.341,25.09,0,0.000885,0,0
0:1:57.844,444.395,25.1452,0,0.000885,0,0
0:1:58.045,444.689,25.1659,0,0.000885,0,0
0:1:58.251,445.921,25.2348,0,0.000885,0,0
0:1:58.449,446.214,25.2486,0,0.000885,0,0
0:1:58.645,446.802,25.2831,0,0.000885,0,0
0:1:58.842,447.914,25.3451,0,0.000885,0,0
0:1:59.041,448.674,25.3865,0,0.000885,0,0
0:1:59.243,449.733,25.4485,0,0.000885,0,0
0:1:59.445,450.614,25.4968,0,0.000885,0,0
0:1:59.649,451.552,25.552,0,0.000885,0,0
0:1:59.848,452.429,25.6002,0,0.000885,0,0
0:2:0.049,454.012,25.6899,0,0.000885,0,0
0:2:0.249,454.542,25.7243,0,0.000885,0,0
0:2:0.451,455.889,25.8002,0,0.000885,0,0
0:2:0.649,456.534,25.8347,0,0.000885,0,0
0:2:0.853,457.237,25.876,0,0.000885,0,0
0:2:1.055,458.176,25.9243,0,0.000885,0,0
0:2:1.249,459.408,26.0001,0,0.000885,0,0
0:2:1.449,459.822,26.0208,0,0.000885,0,0
0:2:1.646,460.76,26.076,0,0.000885,0,0
0:2:1.839,461.343,26.1036,0,0.000885,0,0
0:2:2.041,462.637,26.1794,0,0.000885,0,0
0:2:2.238,463.047,26.2001,0,0.000885,0,0
0:2:2.435,463.514,26.2277,0,0.000885,0,0
0:2:2.635,464.63,26.2897,0,0.000885,0,0
0:2:2.839,465.275,26.3311,0,0.000885,0,0
0:2:3.038,466.329,26.3862,0,0.000885,0,0
0:2:3.235,466.916,26.4207,0,0.000885,0,0
0:2:3.433,468.384,26.5034,0,0.000885,0,0
0:2:3.633,469.261,26.5517,0,0.000885,0,0
0:2:3.827,470.026,26.6,0,0.000885,0,0
0:2:4.027,470.613,26.6344,0,0.000885,0,0
0:2:4.228,472.019,26.7103,0,0.000885,0,0
0:2:4.430,472.957,26.7654,0,0.000885,0,0
0:2:4.632,474.189,26.8344,0,0.000885,0,0
0:2:4.832,474.892,26.8758,0,0.000885,0,0
0:2:5.033,476.066,26.9378,0,0.000885,0,0
0:2:5.234,476.302,26.9516,0,0.000885,0,0
0:2:5.435,477.299,27.0068,0,0.000885,0,0
0:2:5.635,477.886,27.0412,0,0.000885,0,0
0:2:5.831,479.349,27.124,0,0.000885,0,0
0:2:6.029,480.288,27.1791,0,0.000885,0,0
0:2:6.236,481.636,27.255,0,0.000885,0,0
0:2:6.441,481.991,27.2757,0,0.000885,0,0
0:2:6.643,483.161,27.3446,0,0.000885,0,0
0:2:6.858,483.455,27.3584,0,0.000885,0,0
0:2:7.058,484.451,27.4136,0,0.000885,0,0
0:2:7.256,484.981,27.4411,0,0.000885,0,0
0:2:7.452,486.213,27.517,0,0.000885,0,0
0:2:7.652,486.974,27.5583,0,0.000885,0,0
0:2:7.845,487.561,27.5928,0,0.000885,0,0
0:2:8.044,488.09,27.6204,0,0.000885,0,0
0:2:8.243,489.029,27.6756,0,0.000885,0,0
0:2:8.437,490.376,27.7514,0,0.000885,0,0
0:2:8.638,491.431,27.8066,0,0.000885,0,0
0:2:8.836,492.783,27.8824,0,0.000885,0,0
0:2:9.032,493.601,27.9307,0,0.000885,0,0
0:2:9.233,494.304,27.972,0,0.000885,0,0
0:2:9.436,494.66,27.9927,0,0.000885,0,0
0:2:9.637,495.83,28.0617,0,0.000885,0,0
0:2:9.837,496.066,28.0686,0,0.000885,0,0
0:2:10.038,497.356,28.1444,0,0.000885,0,0
0:2:10.238,498.588,28.2133,0,0.000885,0,0
0:2:10.438,499.82,28.2823,0,0.000885,0,0
0:2:10.638,500.581,28.3306,0,0.000885,0,0
0:2:10.836,501.577,28.3857,0,0.000885,0,0
0:2:11.033,502.164,28.4202,0,0.000885,0,0
0:2:11.234,503.161,28.4753,0,0.000885,0,0
0:2:11.446,503.868,28.5098,0,0.000885,0,0
0:2:11.645,504.571,28.5512,0,0.000885,0,0
0:2:11.844,505.1,28.5857,0,0.000885,0,0
0:2:12.040,505.745,28.6201,0,0.000885,0,0
0:2:12.241,507.266,28.7029,0,0.000885,0,0
0:2:12.434,507.911,28.7442,0,0.000885,0,0
0:2:12.635,508.85,28.7925,0,0.000885,0,0
0:2:12.833,509.321,28.8201,0,0.000885,0,0
0:2:13.039,511.199,28.9304,0,0.000885,0,0
0:2:13.239,511.844,28.9649,0,0.000885,0,0
0:2:13.443,513.427,29.0545,0,0.000885,0,0
0:2:13.642,513.894,29.0821,0,0.000885,0,0
0:2:13.840,515.126,29.151,0,0.000885,0,0
0:2:14.037,515.536,29.1717,0,0.000885,0,0
0:2:14.238,516.888,29.2476,0,0.000885,0,0
0:2:14.439,517.769,29.3027,0,0.000885,0,0
0:2:14.641,518.293,29.3303,0,0.000885,0,0
0:2:14.843,518.645,29.351,0,0.000885,0,0
0:2:15.044,519.761,29.413,0,0.000885,0,0
0:2:15.244,520.171,29.4337,0,0.000885,0,0
0:2:15.444,521.403,29.5027,0,0.000885,0,0
0:2:15.645,521.99,29.5371,0,0.000885,0,0
0:2:15.843,523.222,29.6061,0,0.000885,0,0
0:2:16.051,523.747,29.6406,0,0.000885,0,0
0:2:16.252,525.041,29.7095,0,0.000885,0,0
0:2:16.445,525.508,29.7371,0,0.000885,0,0
0:2:16.644,527.15,29.8336,0,0.000885,0,0
0:2:16.842,527.853,29.8681,0,0.000885,0,0
0:2:17.046,528.733,29.9232,0,0.000885,0,0
0:2:17.246,529.378,29.9577,0,0.000885,0,0
0:2:17.444,530.201,30.006,0,0.000885,0,0
0:2:17.652,531.371,30.068,0,0.000885,0,0
0:2:17.851,531.843,30.0956,0,0.000885,0,0
0:2:18.043,532.839,30.1508,0,0.000885,0,0
0:2:18.245,533.836,30.2059,0,0.000885,0,0
0:2:18.443,534.774,30.2611,0,0.000885,0,0
0:2:18.652,535.361,30.2956,0,0.000885,0,0
0:2:18.852,536.536,30.3645,0,0.000885,0,0
0:2:19.054,537.416,30.4128,0,0.000885,0,0
0:2:19.257,538.413,30.4679,0,0.000885,0,0
0:2:19.456,539.351,30.5231,0,0.000885,0,0
0:2:19.658,540.406,30.5782,0,0.000885,0,0
0:2:19.857,540.815,30.6058,0,0.000885,0,0
0:2:20.058,541.811,30.661,0,0.000885,0,0
0:2:20.257,542.75,30.7161,0,0.000885,0,0
0:2:20.457,544.044,30.7851,0,0.000885,0,0
0:2:20.652,544.863,30.8334,0,0.000885,0,0
0:2:20.852,546.153,30.9092,0,0.000885,0,0
0:2:21.045,546.562,30.9299,0,0.000885,0,0
0:2:21.244,547.091,30.9575,0,0.000885,0,0
0:2:21.444,547.385,30.9781,0,0.000885,0,0
0:2:21.647,548.853,31.0609,0,0.000885,0,0
0:2:21.848,549.44,31.0885,0,0.000885,0,0
0:2:22.043,550.201,31.1367,0,0.000885,0,0
0:2:22.252,551.548,31.2126,0,0.000885,0,0
0:2:22.451,552.251,31.2539,0,0.000885,0,0
0:2:22.656,553.132,31.3022,0,0.000885,0,0
0:2:22.856,553.661,31.3298,0,0.000885,0,0
0:2:23.053,554.836,31.3987,0,0.000885,0,0
0:2:23.248,555.596,31.4401,0,0.000885,0,0
0:2:23.448,557.238,31.5366,0,0.000885,0,0
0:2:23.654,557.883,31.5711,0,0.000885,0,0
0:2:23.854,558.941,31.6263,0,0.000885,0,0
0:2:24.055,559.702,31.6745,0,0.000885,0,0
0:2:24.257,560.992,31.7435,0,0.000885,0,0
0:2:24.458,561.753,31.7917,0,0.000885,0,0
0:2:24.659,563.105,31.8676,0,0.000885,0,0
0:2:24.858,563.865,31.9089,0,0.000885,0,0
0:2:25.059,564.275,31.9296,0,0.000885,0,0
0:2:25.259,564.626,31.9503,0,0.000885,0,0
0:2:25.459,565.333,31.9917,0,0.000885,0,0
0:2:25.656,565.978,32.0261,0,0.000885,0,0
0:2:25.854,567.62,32.1227,0,0.000885,0,0
0:2:26.054,568.265,32.1571,0,0.000885,0,0
0:2:26.246,569.906,32.2468,0,0.000885,0,0
0:2:26.446,570.258,32.2675,0,0.000885,0,0
0:2:26.643,570.671,32.295,0,0.000885,0,0
0:2:26.840,571.841,32.3571,0,0.000885,0,0
0:2:27.041,572.37,32.3916,0,0.000885,0,0
0:2:27.245,573.425,32.4467,0,0.000885,0,0
0:2:27.443,574.012,32.4812,0,0.000885,0,0
0:2:27.642,574.835,32.5295,0,0.000885,0,0
0:2:27.837,575.36,32.557,0,0.000885,0,0
0:2:28.038,577.006,32.6536,0,0.000885,0,0
0:2:28.235,577.824,32.6949,0,0.000885,0,0
0:2:28.431,578.705,32.7501,0,0.000885,0,0
0:2:28.631,579.528,32.7915,0,0.000885,0,0
0:2:28.836,580.64,32.8604,0,0.000885,0,0
0:2:29.037,581.52,32.9087,0,0.000885,0,0
0:2:29.237,583.278,33.0052,0,0.000885,0,0
0:2:29.440,583.749,33.0328,0,0.000885,0,0
0:2:29.642,584.803,33.0948,0,0.000885,0,0
0:2:29.842,585.333,33.1224,0,0.000885,0,0
0:2:30.042,586.445,33.1845,0,0.000885,0,0
0:2:30.242,587.325,33.2327,0,0.000885,0,0
0:2:30.443,588.673,33.3155,0,0.000885,0,0
0:2:30.643,589.26,33.343,0,0.000885,0,0
0:2:30.837,589.438,33.3568,0,0.000885,0,0
0:2:31.037,590.025,33.3913,0,0.000885,0,0
0:2:31.236,590.377,33.4051,0,0.000885,0,0
0:2:31.433,591.845,33.4947,0,0.000885,0,0
0:2:31.634,592.076,33.5016,0,0.000885,0,0
0:2:31.830,593.428,33.5844,0,0.000885,0,0
0:2:32.028,594.251,33.6257,0,0.000885,0,0
0:2:32.229,595.835,33.7154,0,0.000885,0,0
0:2:32.443,596.773,33.7705,0,0.000885,0,0
0:2:32.645,597.712,33.8257,0,0.000885,0,0
0:2:32.853,598.477,33.867,0,0.000885,0,0
0:2:33.049,599.651,33.936,0,0.000885,0,0
0:2:33.252,600.176,33.9636,0,0.000885,0,0
0:2:33.446,601.057,34.0118,0,0.000885,0,0
0:2:33.647,601.702,34.0463,0,0.000885,0,0
0:2:33.845,603.29,34.1359,0,0.000885,0,0
0:2:34.040,603.877,34.1704,0,0.000885,0,0
0:2:34.242,605.283,34.2532,0,0.000885,0,0
0:2:34.443,605.697,34.2738,0,0.000885,0,0
0:2:34.647,606.813,34.3359,0,0.000885,0,0
0:2:34.849,607.044,34.3497,0,0.000885,0,0
0:2:35.053,607.867,34.3979,0,0.000885,0,0
0:2:35.255,608.512,34.4324,0,0.000885,0,0
0:2:35.455,609.807,34.5083,0,0.000885,0,0
0:2:35.657,610.452,34.5427,0,0.000885,0,0
0:2:35.859,612.093,34.6393,0,0.000885,0,0
0:2:36.053,612.738,34.6737,0,0.000885,0,0
0:2:36.255,613.21,34.7013,0,0.000885,0,0
0:2:36.453,614.62,34.7772,0,0.000885,0,0
0:2:36.648,614.971,34.7978,0,0.000885,0,0
0:2:36.852,615.852,34.853,0,0.000885,0,0
0:2:37.045,616.733,34.9013,0,0.000885,0,0
0:2:37.245,617.613,34.9495,0,0.000885,0,0
0:2:37.446,618.725,35.0116,0,0.000885,0,0
0:2:37.641,619.842,35.0736,0,0.000885,0,0
0:2:37.843,619.958,35.0805,0,0.000885,0,0
0:2:38.039,621.425,35.1633,0,0.000885,0,0
0:2:38.247,621.781,35.1839,0,0.000885,0,0
0:2:38.448,623.481,35.2805,0,0.000885,0,0
0:2:38.654,624.481,35.3356,0,0.000885,0,0
0:2:38.856,625.478,35.3977,0,0.000885,0,0
0:2:39.058,626.007,35.4253,0,0.000885,0,0
0:2:39.262,626.888,35.4735,0,0.000885,0,0
0:2:39.463,627.297,35.5011,0,0.000885,0,0
0:2:39.665,628.765,35.5838,0,0.000885,0,0
0:2:39.867,629.41,35.6183,0,0.000885,0,0
0:2:40.068,630.584,35.6804,0,0.000885,0,0
0:2:40.270,630.936,35.7011,0,0.000885,0,0
0:2:40.472,631.994,35.7631,0,0.000885,0,0
0:2:40.667,632.697,35.8045,0,0.000885,0,0
0:2:40.869,633.814,35.8665,0,0.000885,0,0
0:2:41.065,634.574,35.9079,0,0.000885,0,0
0:2:41.262,635.282,35.9493,0,0.000885,0,0
0:2:41.464,636.981,36.0458,0,0.000885,0,0
0:2:41.659,637.688,36.0872,0,0.000885,0,0
0:2:41.860,638.569,36.1354,0,0.000885,0,0
0:2:42.059,639.094,36.163,0,0.000885,0,0
0:2:42.254,640.326,36.2319,0,0.000885,0,0
0:2:42.456,640.62,36.2526,0,0.000885,0,0
0:2:42.653,641.678,36.3147,0,0.000885,0,0
0:2:42.849,642.381,36.3492,0,0.000885,0,0
0:2:43.053,643.498,36.4112,0,0.000885,0,0
0:2:43.245,644.263,36.4595,0,0.000885,0,0
0:2:43.447,645.201,36.5077,0,0.000885,0,0
0:2:43.645,645.731,36.5422,0,0.000885,0,0
0:2:43.843,646.549,36.5905,0,0.000885,0,0
0:2:44.045,647.781,36.6594,0,0.000885,0,0
0:2:44.247,649.076,36.7284,0,0.000885,0,0
0:2:44.449,649.836,36.7766,0,0.000885,0,0
0:2:44.653,650.953,36.8387,0,0.000885,0,0
0:2:44.855,651.598,36.8732,0,0.000885,0,0
0:2:45.056,652.536,36.9283,0,0.000885,0,0
0:2:45.258,653.417,36.9766,0,0.000885,0,0
0:2:45.460,653.946,37.0042,0,0.000885,0,0
0:2:45.658,655.063,37.0662,0,0.000885,0,0
0:2:45.851,655.53,37.0938,0,0.000885,0,0
0:2:46.055,656.589,37.1558,0,0.000885,0,0
0:2:46.254,657.176,37.1903,0,0.000885,0,0
0:2:46.462,658.172,37.2455,0,0.000885,0,0
0:2:46.661,658.875,37.2868,0,0.000885,0,0
0:2:46.856,660.637,37.3834,0,0.000885,0,0
0:2:47.057,661.05,37.411,0,0.000885,0,0
0:2:47.257,662.104,37.4661,0,0.000885,0,0
0:2:47.451,662.749,37.5075,0,0.000885,0,0
0:2:47.655,663.515,37.5488,0,0.000885,0,0
0:2:47.847,663.924,37.5695,0,0.000885,0,0
0:2:48.048,665.512,37.6592,0,0.000885,0,0
0:2:48.248,666.45,37.7143,0,0.000885,0,0
0:2:48.443,667.683,37.7833,0,0.000885,0,0
0:2:48.645,668.328,37.8177,0,0.000885,0,0
0:2:48.841,669.386,37.8798,0,0.000885,0,0
0:2:49.049,669.738,37.9005,0,0.000885,0,0
0:2:49.251,671.379,37.9901,0,0.000885,0,0
0:2:49.455,671.908,38.0246,0,0.000885,0,0
0:2:49.657,673.025,38.0866,0,0.000885,0,0
0:2:49.860,673.55,38.1142,0,0.000885,0,0
0:2:50.061,674.137,38.1487,0,0.000885,0,0
0:2:50.263,675.253,38.2107,0,0.000885,0,0
0:2:50.462,675.547,38.2314,0,0.000885,0,0
0:2:50.664,676.957,38.3073,0,0.000885,0,0
0:2:50.863,677.718,38.3486,0,0.000885,0,0
0:2:51.060,678.598,38.4038,0,0.000885,0,0
0:2:51.261,679.479,38.4521,0,0.000885,0,0
0:2:51.458,680.48,38.5072,0,0.000885,0,0
0:2:51.658,681.125,38.5417,0,0.000885,0,0
0:2:51.857,682.651,38.6313,0,0.000885,0,0
0:2:52.050,683.411,38.6727,0,0.000885,0,0
0:2:52.254,684.292,38.721,0,0.000885,0,0
0:2:52.450,684.706,38.7485,0,0.000885,0,0
0:2:52.648,685.644,38.7968,0,0.000885,0,0
0:2:52.849,686.992,38.8726,0,0.000885,0,0
0:2:53.043,687.873,38.9278,0,0.000885,0,0
0:2:53.244,688.518,38.9623,0,0.000885,0,0
0:2:53.444,689.812,39.0381,0,0.000885,0,0
0:2:53.649,690.279,39.0588,0,0.000885,0,0
0:2:53.852,691.454,39.1277,0,0.000885,0,0
0:2:54.056,692.041,39.1622,0,0.000885,0,0
0:2:54.260,692.806,39.2036,0,0.000885,0,0
0:2:54.461,693.687,39.2519,0,0.000885,0,0
0:2:54.662,694.977,39.3277,0,0.000885,0,0
0:2:54.864,695.742,39.3691,0,0.000885,0,0
0:2:55.065,696.56,39.4173,0,0.000885,0,0
0:2:55.267,696.916,39.438,0,0.000885,0,0
0:2:55.465,697.677,39.4794,0,0.000885,0,0
0:2:55.663,698.264,39.5139,0,0.000885,0,0
0:2:55.865,699.087,39.5621,0,0.000885,0,0
0:2:56.062,700.555,39.6449,0,0.000885,0,0
0:2:56.260,701.436,39.6931,0,0.000885,0,0
0:2:56.461,702.548,39.7552,0,0.000885,0,0
0:2:56.656,703.664,39.8172,0,0.000885,0,0
0:2:56.858,704.603,39.8724,0,0.000885,0,0
0:2:57.055,705.368,39.9137,0,0.000885,0,0
0:2:57.251,706.364,39.9689,0,0.000885,0,0
0:2:57.452,706.951,40.0034,0,0.000885,0,0
0:2:57.659,707.832,40.0585,0,0.000885,0,0
0:2:57.861,708.713,40.1068,0,0.000885,0,0
0:2:58.058,709.767,40.162,0,0.000885,0,0
0:2:58.251,710.239,40.1895,0,0.000885,0,0
0:2:58.456,712.116,40.2999,0,0.000885,0,0
0:2:58.649,712.178,40.2999,0,0.000885,0,0
0:2:58.850,713.877,40.3964,0,0.000885,0,0
0:2:59.050,714.229,40.4171,0,0.000885,0,0
0:2:59.257,714.7,40.4446,0,0.000885,0,0
0:2:59.460,715.754,40.5067,0,0.000885,0,0
0:2:59.660,716.577,40.5481,0,0.000885,0,0
0:2:59.862,717.636,40.6101,0,0.000885,0,0
0:3:0.061,718.103,40.6377,0,0.000885,0,0
0:3:0.263,719.513,40.7135,0,0.000885,0,0
0:3:0.463,719.807,40.7342,0,0.000885,0,0
0:3:0.660,721.159,40.8101,0,0.000885,0,0
0:3:0.857,722.213,40.8721,0,0.000885,0,0
0:3:1.057,722.916,40.9066,0,0.000885,0,0
0:3:1.255,722.978,40.9135,0,0.000885,0,0
0:3:1.456,724.09,40.9755,0,0.000885,0,0
0:3:1.651,725.091,41.0307,0,0.000885,0,0
0:3:1.849,726.439,41.1065,0,0.000885,0,0
0:3:2.050,727.204,41.1479,0,0.000885,0,0
0:3:2.246,728.085,41.2031,0,0.000885,0,0
0:3:2.446,728.73,41.2375,0,0.000885,0,0
0:3:2.646,730.02,41.3134,0,0.000885,0,0
0:3:2.840,730.549,41.341,0,0.000885,0,0
0:3:3.041,731.488,41.3961,0,0.000885,0,0
0:3:3.241,732.133,41.4306,0,0.000885,0,0
0:3:3.439,732.778,41.4651,0,0.000885,0,0
0:3:3.640,733.659,41.5133,0,0.000885,0,0
0:3:3.834,734.597,41.5685,0,0.000885,0,0
0:3:4.036,735.714,41.6305,0,0.000885,0,0
0:3:4.236,736.537,41.6788,0,0.000885,0,0
0:3:4.439,738.004,41.7615,0,0.000885,0,0
0:3:4.641,738.24,41.7753,0,0.000885,0,0
0:3:4.843,739.588,41.8512,0,0.000885,0,0
0:3:5.045,740.411,41.8994,0,0.000885,0,0
0:3:5.246,741.234,41.9477,0,0.000885,0,0
0:3:5.447,741.585,41.9684,0,0.000885,0,0
0:3:5.649,742.991,42.0442,0,0.000885,0,0
0:3:5.845,743.698,42.0856,0,0.000885,0,0
0:3:6.046,744.695,42.1408,0,0.000885,0,0
0:3:6.246,745.34,42.1752,0,0.000885,0,0
0:3:6.442,746.22,42.2304,0,0.000885,0,0
0:3:6.642,746.514,42.2442,0,0.000885,0,0
0:3:6.840,747.688,42.3131,0,0.000885,0,0
0:3:7.038,747.924,42.3269,0,0.000885,0,0
0:3:7.240,749.272,42.4028,0,0.000885,0,0
0:3:7.435,749.45,42.4097,0,0.000885,0,0
0:3:7.636,749.979,42.4372,0,0.000885,0,0
0:3:7.834,751.563,42.5269,0,0.000885,0,0
0:3:8.039,751.856,42.5475,0,0.000885,0,0
0:3:8.242,752.443,42.582,0,0.000885,0,0
0:3:8.448,754.027,42.6717,0,0.000885,0,0
0:3:8.648,754.089,42.6717,0,0.000885,0,0
0:3:8.846,754.556,42.6992,0,0.000885,0,0
0:3:9.041,753.853,42.6579,0,0.000885,0,0
0:3:9.244,753.676,42.651,0,0.000885,0,0
0:3:9.444,753.911,42.6648,0,0.000885,0,0
0:3:9.648,753.969,42.6648,0,0.000885,0,0
0:3:9.850,754.734,42.7061,0,0.000885,0,0
0:3:10.050,754.85,42.713,0,0.000885,0,0
0:3:10.252,755.321,42.7406,0,0.000885,0,0
0:3:10.456,755.731,42.7682,0,0.000885,0,0
0:3:10.657,756.963,42.8371,0,0.000885,0,0
0:3:10.857,757.434,42.8647,0,0.000885,0,0
0:3:11.051,758.666,42.9337,0,0.000885,0,0
0:3:11.252,759.196,42.9612,0,0.000885,0,0
0:3:11.461,759.196,42.9612,0,0.000885,0,0
0:3:11.658,758.253,42.9061,0,0.000885,0,0
0:3:11.859,756.963,42.8371,0,0.000885,0,0
0:3:12.063,755.379,42.7475,0,0.000885,0,0
0:3:12.262,752.092,42.5613,0,0.000885,0,0
0:3:12.460,749.565,42.4165,0,0.000885,0,0
0:3:12.657,743.578,42.0787,0,0.000885,0,0
0:3:12.859,740.469,41.8994,0,0.000885,0,0
0:3:13.052,732.72,41.4651,0,0.000885,0,0
0:3:13.250,728.494,41.2238,0,0.000885,0,0
0:3:13.449,723.797,40.9618,0,0.000885,0,0
0:3:13.643,711.177,40.2447,0,0.000885,0,0
0:3:13.845,701.667,39.7069,0,0.000885,0,0
0:3:14.047,624.597,35.3425,0,0.000885,0,0
0:3:14.129,624.597,35.3425,0,0.000885,0,0