File: DataFile2021-06-08_051408.csv
Test ID:,Date Tested:,Time:,Test Type:,Diameter Avg. (mm):,Cyl. Corr. Factor:,Height (mm):,Age (days):,Weight (kN):,Break Type:,Ramp Rate (MPa/s):,Load at Break (kN):,Stress at Break (MPa):
12,6/8/2021,05:14,Cylinder,150,1,300,0,3.6,6,0.24,772.52,43.71
Sample Time,Load (kN),Stress (MPa),Long. Strain,Trans. Strain,Chan1 Deflection (mm),Chan2 Deflection (mm)
0:0:13.689,5.10211,0.28958,0,0.000885,0,0
0:0:13.886,12.5529,0.71016,0,0.000885,0,0
0:0:14.084,21.347,1.20658,0,0.000885,0,0
0:0:14.286,21.7029,1.22727,0,0.000885,0,0
0:0:14.481,21.1735,1.19969,0,0.000885,0,0
0:0:14.682,20.9378,1.1859,0,0.000885,0,0
0:0:14.882,20.8221,1.179,0,0.000885,0,0
0:0:15.079,20.5864,1.16521,0,0.000885,0,0
0:0:15.279,20.235,1.14453,0,0.000885,0,0
0:0:15.473,20.3506,1.15142,0,0.000885,0,0
0:0:15.673,19.9992,1.13074,0,0.000885,0,0
0:0:15.873,20.1193,1.13763,0,0.000885,0,0
0:0:16.069,19.9992,1.13074,0,0.000885,0,0
0:0:16.272,20.235,1.14453,0,0.000885,0,0
0:0:16.467,19.7634,1.11695,0,0.000885,0,0
0:0:16.666,19.8836,1.12385,0,0.000885,0,0
0:0:16.865,20.057,1.13763,0,0.000885,0,0
0:0:17.061,19.8257,1.12385,0,0.000885,0,0
0:0:17.263,20.88,1.179,0,0.000885,0,0
0:0:17.457,21.2892,1.20658,0,0.000885,0,0
0:0:17.668,22.1699,1.25485,0,0.000885,0,0
0:0:17.868,22.7571,1.28932,0,0.000885,0,0
0:0:18.065,23.1085,1.31,0,0.000885,0,0
0:0:18.267,24.6921,1.39964,0,0.000885,0,0
0:0:18.464,25.6307,1.4479,0,0.000885,0,0
0:0:18.662,26.9206,1.52374,0,0.000885,0,0
0:0:18.864,27.917,1.5789,0,0.000885,0,0
0:0:19.067,29.0335,1.64095,0,0.000885,0,0
0:0:19.270,30.2034,1.7099,0,0.000885,0,0
0:0:19.472,31.3199,1.77195,0,0.000885,0,0
0:0:19.675,31.8493,1.79953,0,0.000885,0,0
0:0:19.878,33.9577,1.92364,0,0.000885,0,0
0:0:20.079,34.7806,1.96501,0,0.000885,0,0
0:0:20.280,35.8927,2.03395,0,0.000885,0,0
0:0:20.482,36.4799,2.06153,0,0.000885,0,0
0:0:20.677,36.6578,2.07532,0,0.000885,0,0
0:0:20.879,37.245,2.1098,0,0.000885,0,0
0:0:21.076,37.89,2.14427,0,0.000885,0,0
0:0:21.277,38.6506,2.18564,0,0.000885,0,0
0:0:21.479,39.5892,2.2408,0,0.000885,0,0
0:0:21.673,40.4121,2.28906,0,0.000885,0,0
0:0:21.875,41.9334,2.3718,0,0.000885,0,0
0:0:22.073,42.3471,2.39938,0,0.000885,0,0
0:0:22.270,43.0499,2.43385,0,0.000885,0,0
0:0:22.473,44.9849,2.54417,0,0.000885,0,0
0:0:22.669,45.1005,2.55106,0,0.000885,0,0
0:0:22.870,46.3905,2.6269,0,0.000885,0,0
0:0:23.069,46.6263,2.64069,0,0.000885,0,0
0:0:23.266,47.9741,2.71653,0,0.000885,0,0
0:0:23.467,48.797,2.7648,0,0.000885,0,0
0:0:23.666,49.6777,2.81306,0,0.000885,0,0
0:0:23.863,50.0291,2.83375,0,0.000885,0,0
0:0:24.066,51.2613,2.90269,0,0.000885,0,0
0:0:24.270,51.6705,2.92338,0,0.000885,0,0
0:0:24.472,52.9027,2.99232,0,0.000885,0,0
0:0:24.675,53.3119,3.0199,0,0.000885,0,0
0:0:24.877,55.0156,3.11643,0,0.000885,0,0
0:0:25.079,55.3092,3.13022,0,0.000885,0,0
0:0:25.281,56.8305,3.21296,0,0.000885,0,0
0:0:25.483,57.4755,3.25433,0,0.000885,0,0
0:0:25.682,58.7076,3.32327,0,0.000885,0,0
0:0:25.880,59.2948,3.35775,0,0.000885,0,0
0:0:26.082,60.2334,3.40601,0,0.000885,0,0
0:0:26.277,61.2876,3.46806,0,0.000885,0,0
0:0:26.478,62.5198,3.53701,0,0.000885,0,0
0:0:26.679,63.1647,3.57148,0,0.000885,0,0
0:0:26.875,63.9877,3.61975,0,0.000885,0,0
0:0:27.078,64.9841,3.67491,0,0.000885,0,0
0:0:27.272,65.4556,3.70248,0,0.000885,0,0
0:0:27.473,66.1584,3.74385,0,0.000885,0,0
0:0:27.674,66.5676,3.76454,0,0.000885,0,0
0:0:27.869,67.9154,3.84038,0,0.000885,0,0
0:0:28.071,68.3291,3.86796,0,0.000885,0,0
0:0:28.269,69.7348,3.9438,0,0.000885,0,0
0:0:28.467,70.3219,3.97827,0,0.000885,0,0
0:0:28.669,71.9633,4.0748,0,0.000885,0,0
0:0:28.866,72.6661,4.10928,0,0.000885,0,0
0:0:29.068,73.667,4.17133,0,0.000885,0,0
0:0:29.269,74.6634,4.22649,0,0.000885,0,0
0:0:29.473,76.3626,4.32301,0,0.000885,0,0
0:0:29.677,76.4783,4.32991,0,0.000885,0,0
0:0:29.879,77.0076,4.35749,0,0.000885,0,0
0:0:30.081,77.537,4.38507,0,0.000885,0,0
0:0:30.283,78.649,4.45401,0,0.000885,0,0
0:0:30.484,79.6454,4.50917,0,0.000885,0,0
0:0:30.687,80.4683,4.55054,0,0.000885,0,0
0:0:30.884,80.9977,4.58501,0,0.000885,0,0
0:0:31.084,82.1675,4.64707,0,0.000885,0,0
0:0:31.283,82.9326,4.69533,0,0.000885,0,0
0:0:31.479,84.107,4.75738,0,0.000885,0,0
0:0:31.681,84.6897,4.79186,0,0.000885,0,0
0:0:31.880,85.5126,4.84012,0,0.000885,0,0
0:0:32.078,86.9805,4.92286,0,0.000885,0,0
0:0:32.280,87.4476,4.95044,0,0.000885,0,0
0:0:32.476,88.5018,5.00559,0,0.000885,0,0
0:0:32.676,89.4404,5.06075,0,0.000885,0,0
0:0:32.875,91.3175,5.16417,0,0.000885,0,0
0:0:33.075,91.4955,5.17796,0,0.000885,0,0
0:0:33.278,91.9047,5.19865,0,0.000885,0,0
0:0:33.472,92.1983,5.21933,0,0.000885,0,0
0:0:33.673,93.4304,5.28828,0,0.000885,0,0
0:0:33.872,93.8975,5.31586,0,0.000885,0,0
0:0:34.070,95.2498,5.3917,0,0.000885,0,0
0:0:34.272,96.0682,5.43307,0,0.000885,0,0
0:0:34.475,97.4205,5.51581,0,0.000885,0,0
0:0:34.679,97.8876,5.53649,0,0.000885,0,0
0:0:34.882,99.4133,5.62612,0,0.000885,0,0
0:0:35.085,100.116,5.66749,0,0.000885,0,0
0:0:35.286,101.935,5.77091,0,0.000885,0,0
0:0:35.487,102.229,5.7847,0,0.000885,0,0
0:0:35.690,102.932,5.82607,0,0.000885,0,0
0:0:35.891,103.399,5.85365,0,0.000885,0,0
0:0:36.087,104.515,5.9157,0,0.000885,0,0
0:0:36.289,105.276,5.95707,0,0.000885,0,0
0:0:36.488,106.099,6.00533,0,0.000885,0,0
0:0:36.686,106.98,6.0536,0,0.000885,0,0
0:0:36.889,107.856,6.10186,0,0.000885,0,0
0:0:37.083,108.563,6.14323,0,0.000885,0,0
0:0:37.283,109.03,6.17081,0,0.000885,0,0
0:0:37.485,110.498,6.25354,0,0.000885,0,0
0:0:37.680,111.379,6.30181,0,0.000885,0,0
0:0:37.882,112.024,6.33628,0,0.000885,0,0
0:0:38.080,112.607,6.37076,0,0.000885,0,0
0:0:38.279,114.253,6.46728,0,0.000885,0,0
0:0:38.480,114.72,6.49486,0,0.000885,0,0
0:0:38.677,116.188,6.5776,0,0.000885,0,0
0:0:38.878,116.655,6.59828,0,0.000885,0,0
0:0:39.081,118.123,6.68102,0,0.000885,0,0
0:0:39.285,118.883,6.72928,0,0.000885,0,0
0:0:39.488,119.88,6.78444,0,0.000885,0,0
0:0:39.690,120.645,6.82581,0,0.000885,0,0
0:0:39.892,121.405,6.86718,0,0.000885,0,0
0:0:40.093,121.699,6.88786,0,0.000885,0,0
0:0:40.295,123.34,6.97749,0,0.000885,0,0
0:0:40.497,124.105,7.02576,0,0.000885,0,0
0:0:40.695,124.693,7.05334,0,0.000885,0,0
0:0:40.895,125.217,7.08781,0,0.000885,0,0
0:0:41.093,126.57,7.16365,0,0.000885,0,0
0:0:41.290,126.859,7.17744,0,0.000885,0,0
0:0:41.493,128.269,7.26018,0,0.000885,0,0
0:0:41.689,129.15,7.30844,0,0.000885,0,0
0:0:41.889,129.501,7.32913,0,0.000885,0,0
0:0:42.089,130.965,7.41186,0,0.000885,0,0
0:0:42.285,131.552,7.44634,0,0.000885,0,0
0:0:42.487,132.49,7.4946,0,0.000885,0,0
0:0:42.686,133.255,7.54286,0,0.000885,0,0
0:0:42.884,135.133,7.64629,0,0.000885,0,0
0:0:43.085,135.19,7.65318,0,0.000885,0,0
0:0:43.280,136.187,7.70834,0,0.000885,0,0
0:0:43.481,136.774,7.74281,0,0.000885,0,0
0:0:43.681,137.828,7.79797,0,0.000885,0,0
0:0:43.878,138.593,7.83934,0,0.000885,0,0
0:0:44.080,139.883,7.91518,0,0.000885,0,0
0:0:44.283,140.408,7.94276,0,0.000885,0,0
0:0:44.487,142.227,8.04618,0,0.000885,0,0
0:0:44.690,142.405,8.05997,0,0.000885,0,0
0:0:44.892,143.927,8.14271,0,0.000885,0,0
0:0:45.094,144.105,8.1565,0,0.000885,0,0
0:0:45.297,145.337,8.22545,0,0.000885,0,0
0:0:45.499,145.862,8.25302,0,0.000885,0,0
0:0:45.700,147.214,8.32887,0,0.000885,0,0
0:0:45.896,147.975,8.37713,0,0.000885,0,0
0:0:46.099,148.797,8.4185,0,0.000885,0,0
0:0:46.296,149.442,8.45987,0,0.000885,0,0
0:0:46.494,150.497,8.51503,0,0.000885,0,0
0:0:46.696,151.084,8.5495,0,0.000885,0,0
0:0:46.890,151.787,8.59087,0,0.000885,0,0
0:0:47.092,152.552,8.63224,0,0.000885,0,0
0:0:47.291,153.197,8.66671,0,0.000885,0,0
0:0:47.488,153.779,8.70118,0,0.000885,0,0
0:0:47.690,154.367,8.73566,0,0.000885,0,0
0:0:47.888,156.07,8.83218,0,0.000885,0,0
0:0:48.087,156.947,8.88045,0,0.000885,0,0
0:0:48.288,158.708,8.98387,0,0.000885,0,0
0:0:48.485,159.411,9.01834,0,0.000885,0,0
0:0:48.688,161.115,9.11487,0,0.000885,0,0
0:0:48.884,161.524,9.14245,0,0.000885,0,0
0:0:49.085,162.405,9.19071,0,0.000885,0,0
0:0:49.288,162.578,9.19761,0,0.000885,0,0
0:0:49.492,163.81,9.26655,0,0.000885,0,0
0:0:49.696,163.93,9.27345,0,0.000885,0,0
0:0:49.897,165.572,9.36998,0,0.000885,0,0
0:0:50.099,165.923,9.39066,0,0.000885,0,0
0:0:50.301,167.271,9.4665,0,0.000885,0,0
0:0:50.503,167.68,9.48719,0,0.000885,0,0
0:0:50.705,169.09,9.56992,0,0.000885,0,0
0:0:50.902,169.557,9.5975,0,0.000885,0,0
0:0:51.100,170.554,9.65266,0,0.000885,0,0
0:0:51.302,171.319,9.69403,0,0.000885,0,0
0:0:51.498,172.079,9.7354,0,0.000885,0,0
0:0:51.700,173.196,9.79745,0,0.000885,0,0
0:0:51.897,174.077,9.85261,0,0.000885,0,0
0:0:52.097,175.482,9.92845,0,0.000885,0,0
0:0:52.298,175.949,9.95603,0,0.000885,0,0
0:0:52.494,177.066,10.0181,0,0.000885,0,0
0:0:52.698,178.004,10.0732,0,0.000885,0,0
0:0:52.893,179.059,10.1353,0,0.000885,0,0
0:0:53.092,179.41,10.156,0,0.000885,0,0
0:0:53.296,180.82,10.2318,0,0.000885,0,0
0:0:53.489,180.994,10.2456,0,0.000885,0,0
0:0:53.691,182.226,10.3146,0,0.000885,0,0
0:0:53.889,182.697,10.3352,0,0.000885,0,0
0:0:54.086,184.103,10.418,0,0.000885,0,0
0:0:54.288,184.339,10.4318,0,0.000885,0,0
0:0:54.491,185.744,10.5145,0,0.000885,0,0
0:0:54.694,186.274,10.5421,0,0.000885,0,0
0:0:54.898,187.39,10.6041,0,0.000885,0,0
0:0:55.100,188.329,10.6593,0,0.000885,0,0
0:0:55.303,189.499,10.7213,0,0.000885,0,0
0:0:55.504,189.912,10.7489,0,0.000885,0,0
0:0:55.707,191.202,10.8179,0,0.000885,0,0
0:0:55.908,191.669,10.8455,0,0.000885,0,0
0:0:56.105,193.137,10.9282,0,0.000885,0,0
0:0:56.306,193.84,10.9696,0,0.000885,0,0
0:0:56.501,194.076,10.9833,0,0.000885,0,0
0:0:56.700,195.775,11.0799,0,0.000885,0,0
0:0:56.898,196.478,11.1212,0,0.000885,0,0
0:0:57.091,197.359,11.1695,0,0.000885,0,0
0:0:57.292,197.946,11.204,0,0.000885,0,0
0:0:57.488,198.942,11.2591,0,0.000885,0,0
0:0:57.687,199.529,11.2936,0,0.000885,0,0
0:0:57.886,200.704,11.3557,0,0.000885,0,0
0:0:58.079,201.758,11.4177,0,0.000885,0,0
0:0:58.281,202.99,11.4867,0,0.000885,0,0
0:0:58.476,203.693,11.528,0,0.000885,0,0
0:0:58.675,204.28,11.5625,0,0.000885,0,0
0:0:58.876,205.512,11.6315,0,0.000885,0,0
0:0:59.078,206.157,11.6659,0,0.000885,0,0
0:0:59.280,207.154,11.7211,0,0.000885,0,0
0:0:59.481,207.683,11.7556,0,0.000885,0,0
0:0:59.681,208.622,11.8038,0,0.000885,0,0
0:0:59.881,209.031,11.8314,0,0.000885,0,0
0:1:0.083,210.379,11.9072,0,0.000885,0,0
0:1:0.282,211.433,11.9624,0,0.000885,0,0
0:1:0.479,212.02,11.9969,0,0.000885,0,0
0:1:0.677,212.607,12.0314,0,0.000885,0,0
0:1:0.876,214.075,12.1141,0,0.000885,0,0
0:1:1.071,214.249,12.121,0,0.000885,0,0
0:1:1.271,216.246,12.2382,0,0.000885,0,0
0:1:1.468,216.477,12.252,0,0.000885,0,0
0:1:1.663,217.829,12.3278,0,0.000885,0,0
0:1:1.862,218.239,12.3485,0,0.000885,0,0
0:1:2.059,219.293,12.4106,0,0.000885,0,0
0:1:2.257,219.88,12.445,0,0.000885,0,0
0:1:2.455,220.174,12.4588,0,0.000885,0,0
0:1:2.649,221.935,12.5622,0,0.000885,0,0
0:1:2.850,222.344,12.5829,0,0.000885,0,0
0:1:3.047,223.399,12.645,0,0.000885,0,0
0:1:3.244,223.87,12.6657,0,0.000885,0,0
0:1:3.444,225.396,12.7553,0,0.000885,0,0
0:1:3.637,226.099,12.7967,0,0.000885,0,0
0:1:3.839,227.037,12.8449,0,0.000885,0,0
0:1:4.038,227.74,12.8863,0,0.000885,0,0
0:1:4.241,228.501,12.9277,0,0.000885,0,0
0:1:4.442,229.266,12.9759,0,0.000885,0,0
0:1:4.643,230.729,13.0587,0,0.000885,0,0
0:1:4.844,231.201,13.0862,0,0.000885,0,0
0:1:5.044,232.9,13.1828,0,0.000885,0,0
0:1:5.244,233.251,13.1966,0,0.000885,0,0
0:1:5.446,234.777,13.2862,0,0.000885,0,0
0:1:5.641,234.897,13.2931,0,0.000885,0,0
0:1:5.840,235.6,13.3345,0,0.000885,0,0
0:1:6.040,236.832,13.4034,0,0.000885,0,0
0:1:6.234,237.184,13.4241,0,0.000885,0,0
0:1:6.435,238.589,13.4999,0,0.000885,0,0
0:1:6.631,238.883,13.5206,0,0.000885,0,0
0:1:6.828,240.466,13.6103,0,0.000885,0,0
0:1:7.028,240.938,13.6309,0,0.000885,0,0
0:1:7.224,242.344,13.7137,0,0.000885,0,0
0:1:7.425,242.579,13.7275,0,0.000885,0,0
0:1:7.621,243.927,13.8033,0,0.000885,0,0
0:1:7.816,244.163,13.8171,0,0.000885,0,0
0:1:8.017,245.626,13.8998,0,0.000885,0,0
0:1:8.214,246.507,13.9481,0,0.000885,0,0
0:1:8.412,246.627,13.955,0,0.000885,0,0
0:1:8.611,248.033,14.0377,0,0.000885,0,0
0:1:8.806,248.678,14.0722,0,0.000885,0,0
0:1:9.007,250.083,14.1549,0,0.000885,0,0
0:1:9.208,250.964,14.2032,0,0.000885,0,0
0:1:9.410,251.961,14.2584,0,0.000885,0,0
0:1:9.611,252.49,14.2859,0,0.000885,0,0
0:1:9.812,253.544,14.348,0,0.000885,0,0
0:1:10.013,254.545,14.4031,0,0.000885,0,0
0:1:10.214,255.421,14.4514,0,0.000885,0,0
0:1:10.414,256.418,14.5135,0,0.000885,0,0
0:1:10.616,257.298,14.5617,0,0.000885,0,0
0:1:10.809,257.943,14.5962,0,0.000885,0,0
0:1:11.010,258.766,14.6445,0,0.000885,0,0
0:1:11.206,259.118,14.6651,0,0.000885,0,0
0:1:11.403,260.172,14.7203,0,0.000885,0,0
0:1:11.604,260.995,14.7686,0,0.000885,0,0
0:1:11.798,261.934,14.8237,0,0.000885,0,0
0:1:11.997,262.752,14.872,0,0.000885,0,0
0:1:12.196,263.459,14.9065,0,0.000885,0,0
0:1:12.390,264.513,14.9685,0,0.000885,0,0
0:1:12.591,265.746,15.0375,0,0.000885,0,0
0:1:12.786,266.506,15.0788,0,0.000885,0,0
0:1:12.984,267.271,15.1271,0,0.000885,0,0
0:1:13.185,268.326,15.1823,0,0.000885,0,0
0:1:13.379,268.913,15.2167,0,0.000885,0,0
0:1:13.579,270.145,15.2857,0,0.000885,0,0
0:1:13.775,270.732,15.3202,0,0.000885,0,0
0:1:13.970,272.138,15.4029,0,0.000885,0,0
0:1:14.171,272.316,15.4098,0,0.000885,0,0
0:1:14.372,273.721,15.4925,0,0.000885,0,0
0:1:14.573,274.193,15.5132,0,0.000885,0,0
0:1:14.775,275.069,15.5684,0,0.000885,0,0
0:1:14.975,276.359,15.6373,0,0.000885,0,0
0:1:15.176,276.831,15.6649,0,0.000885,0,0
0:1:15.377,278.356,15.7545,0,0.000885,0,0
0:1:15.577,279.468,15.8166,0,0.000885,0,0
0:1:15.778,280.758,15.8855,0,0.000885,0,0
0:1:15.972,281.581,15.9338,0,0.000885,0,0
0:1:16.173,281.933,15.9545,0,0.000885,0,0
0:1:16.368,282.342,15.9752,0,0.000885,0,0
0:1:16.575,283.165,16.0234,0,0.000885,0,0
0:1:16.776,283.516,16.0441,0,0.000885,0,0
0:1:16.971,284.633,16.1062,0,0.000885,0,0
0:1:17.169,285.158,16.1337,0,0.000885,0,0
0:1:17.368,286.39,16.2096,0,0.000885,0,0
0:1:17.563,286.741,16.2234,0,0.000885,0,0
0:1:17.763,288.325,16.313,0,0.000885,0,0
0:1:17.960,288.796,16.3406,0,0.000885,0,0
0:1:18.157,289.441,16.3819,0,0.000885,0,0
0:1:18.356,291.025,16.4716,0,0.000885,0,0
0:1:18.550,291.612,16.4992,0,0.000885,0,0
0:1:18.750,293.253,16.5957,0,0.000885,0,0
0:1:18.950,294.014,16.637,0,0.000885,0,0
0:1:19.153,295.131,16.6991,0,0.000885,0,0
0:1:19.353,295.833,16.7405,0,0.000885,0,0
0:1:19.555,296.421,16.7749,0,0.000885,0,0
0:1:19.755,297.59,16.837,0,0.000885,0,0
0:1:19.956,298.529,16.8922,0,0.000885,0,0
0:1:20.157,299.41,16.9404,0,0.000885,0,0
0:1:20.357,300.233,16.9887,0,0.000885,0,0
0:1:20.552,301.113,17.0369,0,0.000885,0,0
0:1:20.750,302.226,17.1059,0,0.000885,0,0
0:1:20.951,302.283,17.1059,0,0.000885,0,0
0:1:21.144,303.573,17.1817,0,0.000885,0,0
0:1:21.344,304.16,17.2093,0,0.000885,0,0
0:1:21.542,305.744,17.2989,0,0.000885,0,0
0:1:21.737,305.802,17.3058,0,0.000885,0,0
0:1:21.938,306.216,17.3265,0,0.000885,0,0
0:1:22.133,307.679,17.4093,0,0.000885,0,0
0:1:22.332,307.799,17.4162,0,0.000885,0,0
0:1:22.530,309.325,17.5058,0,0.000885,0,0
0:1:22.724,309.85,17.5334,0,0.000885,0,0
0:1:22.925,311.318,17.6161,0,0.000885,0,0
0:1:23.122,312.021,17.6575,0,0.000885,0,0
0:1:23.320,313.075,17.7195,0,0.000885,0,0
0:1:23.519,314.249,17.7816,0,0.000885,0,0
0:1:23.712,314.952,17.8229,0,0.000885,0,0
0:1:23.914,315.833,17.8712,0,0.000885,0,0
0:1:24.114,316.887,17.9333,0,0.000885,0,0
0:1:24.316,317.768,17.9815,0,0.000885,0,0
0:1:24.519,318.47,18.0229,0,0.000885,0,0
0:1:24.718,319.351,18.0712,0,0.000885,0,0
0:1:24.918,319.823,18.0987,0,0.000885,0,0
0:1:25.119,321.286,18.1815,0,0.000885,0,0
0:1:25.318,321.931,18.2159,0,0.000885,0,0
0:1:25.519,322.928,18.2711,0,0.000885,0,0
0:1:25.712,324.044,18.3401,0,0.000885,0,0
0:1:25.912,324.511,18.3607,0,0.000885,0,0
0:1:26.111,325.512,18.4228,0,0.000885,0,0
0:1:26.306,326.388,18.4711,0,0.000885,0,0
0:1:26.507,327.033,18.5055,0,0.000885,0,0
0:1:26.703,327.798,18.5469,0,0.000885,0,0
0:1:26.900,328.617,18.5952,0,0.000885,0,0
0:1:27.100,329.849,18.6641,0,0.000885,0,0
0:1:27.293,330.788,18.7193,0,0.000885,0,0
0:1:27.494,331.61,18.7675,0,0.000885,0,0
0:1:27.691,332.429,18.8089,0,0.000885,0,0
0:1:27.887,332.665,18.8227,0,0.000885,0,0
0:1:28.088,334.368,18.9192,0,0.000885,0,0
0:1:28.283,334.951,18.9537,0,0.000885,0,0
0:1:28.483,335.832,19.002,0,0.000885,0,0
0:1:28.681,336.655,19.0502,0,0.000885,0,0
0:1:28.876,338.06,19.133,0,0.000885,0,0
0:1:29.077,338.354,19.1467,0,0.000885,0,0
0:1:29.279,339.702,19.2226,0,0.000885,0,0
0:1:29.479,340.289,19.2571,0,0.000885,0,0
0:1:29.681,341.405,19.3191,0,0.000885,0,0
0:1:29.882,341.641,19.3329,0,0.000885,0,0
0:1:30.083,343.047,19.4156,0,0.000885,0,0
0:1:30.283,343.514,19.4363,0,0.000885,0,0
0:1:30.484,345.04,19.526,0,0.000885,0,0
0:1:30.684,344.982,19.5191,0,0.000885,0,0
0:1:30.878,346.45,19.6018,0,0.000885,0,0
0:1:31.078,346.565,19.6087,0,0.000885,0,0
0:1:31.274,347.562,19.6707,0,0.000885,0,0
0:1:31.472,348.678,19.7328,0,0.000885,0,0
0:1:31.672,349.03,19.7535,0,0.000885,0,0
0:1:31.865,350.435,19.8293,0,0.000885,0,0
0:1:32.064,350.849,19.8569,0,0.000885,0,0
0:1:32.262,352.548,19.9534,0,0.000885,0,0
0:1:32.469,353.545,20.0086,0,0.000885,0,0
0:1:32.668,354.661,20.0706,0,0.000885,0,0
0:1:32.874,355.658,20.1258,0,0.000885,0,0
0:1:33.072,356.303,20.1603,0,0.000885,0,0
0:1:33.271,357.183,20.2154,0,0.000885,0,0
0:1:33.464,357.65,20.2361,0,0.000885,0,0
0:1:33.663,358.767,20.3051,0,0.000885,0,0
0:1:33.864,359.879,20.3671,0,0.000885,0,0
0:1:34.069,360.582,20.4016,0,0.000885,0,0
0:1:34.271,361.64,20.4636,0,0.000885,0,0
0:1:34.471,362.401,20.505,0,0.000885,0,0
0:1:34.671,363.282,20.5602,0,0.000885,0,0
0:1:34.871,363.869,20.5877,0,0.000885,0,0
0:1:35.071,365.039,20.6567,0,0.000885,0,0
0:1:35.272,365.977,20.7119,0,0.000885,0,0
0:1:35.465,366.978,20.767,0,0.000885,0,0
0:1:35.665,367.561,20.8015,0,0.000885,0,0
0:1:35.863,368.562,20.8566,0,0.000885,0,0
0:1:36.070,369.207,20.8911,0,0.000885,0,0
0:1:36.269,370.497,20.967,0,0.000885,0,0
0:1:36.464,371.142,21.0014,0,0.000885,0,0
0:1:36.662,371.845,21.0428,0,0.000885,0,0
0:1:36.862,372.254,21.0635,0,0.000885,0,0
0:1:37.057,373.192,21.1186,0,0.000885,0,0
0:1:37.255,374.309,21.1807,0,0.000885,0,0
0:1:37.462,375.127,21.229,0,0.000885,0,0
0:1:37.669,376.124,21.2841,0,0.000885,0,0
0:1:37.870,376.947,21.3324,0,0.000885,0,0
0:1:38.063,377.943,21.3875,0,0.000885,0,0
0:1:38.262,378.472,21.4151,0,0.000885,0,0
0:1:38.460,379.998,21.5047,0,0.000885,0,0
0:1:38.663,380.407,21.5254,0,0.000885,0,0
0:1:38.865,382.285,21.6357,0,0.000885,0,0
0:1:39.064,382.814,21.6633,0,0.000885,0,0
0:1:39.269,383.926,21.7254,0,0.000885,0,0
0:1:39.470,384.571,21.7599,0,0.000885,0,0
0:1:39.672,385.394,21.8081,0,0.000885,0,0
0:1:39.872,386.742,21.884,0,0.000885,0,0
0:1:40.071,386.977,21.8977,0,0.000885,0,0
0:1:40.273,388.792,22.0012,0,0.000885,0,0
0:1:40.473,389.264,22.0287,0,0.000885,0,0
0:1:40.677,390.145,22.077,0,0.000885,0,0
0:1:40.876,391.021,22.1253,0,0.000885,0,0
0:1:41.075,391.959,22.1804,0,0.000885,0,0
0:1:41.271,392.08,22.1873,0,0.000885,0,0
0:1:41.473,393.249,22.2563,0,0.000885,0,0
0:1:41.675,394.015,22.2976,0,0.000885,0,0
0:1:41.874,395.069,22.3597,0,0.000885,0,0
0:1:42.074,395.42,22.3735,0,0.000885,0,0
0:1:42.266,397.004,22.4631,0,0.000885,0,0
0:1:42.469,397.417,22.4907,0,0.000885,0,0
0:1:42.662,398.939,22.5734,0,0.000885,0,0
0:1:42.871,399.526,22.6079,0,0.000885,0,0
0:1:43.071,400.7,22.6769,0,0.000885,0,0
0:1:43.265,400.816,22.6838,0,0.000885,0,0
0:1:43.465,402.284,22.7665,0,0.000885,0,0
0:1:43.662,402.751,22.7941,0,0.000885,0,0
0:1:43.858,403.107,22.8079,0,0.000885,0,0
0:1:44.058,405.042,22.9182,0,0.000885,0,0
0:1:44.259,405.1,22.9251,0,0.000885,0,0
0:1:44.462,406.038,22.9802,0,0.000885,0,0
0:1:44.663,406.447,23.0009,0,0.000885,0,0
0:1:44.863,408.618,23.125,0,0.000885,0,0
0:1:45.064,408.912,23.1388,0,0.000885,0,0
0:1:45.263,410.144,23.2078,0,0.000885,0,0
0:1:45.465,410.437,23.2284,0,0.000885,0,0
0:1:45.665,411.843,23.3043,0,0.000885,0,0
0:1:45.860,412.488,23.3388,0,0.000885,0,0
0:1:46.060,413.311,23.387,0,0.000885,0,0
0:1:46.257,414.25,23.4422,0,0.000885,0,0
0:1:46.456,415.01,23.4835,0,0.000885,0,0
0:1:46.655,416.358,23.5594,0,0.000885,0,0
0:1:46.850,417.297,23.6145,0,0.000885,0,0
0:1:47.048,417.884,23.649,0,0.000885,0,0
0:1:47.255,419.352,23.7318,0,0.000885,0,0
0:1:47.452,419.761,23.7524,0,0.000885,0,0
0:1:47.652,420.526,23.7938,0,0.000885,0,0
0:1:47.865,421.696,23.8628,0,0.000885,0,0
0:1:48.065,422.812,23.9248,0,0.000885,0,0
0:1:48.263,423.337,23.9593,0,0.000885,0,0
0:1:48.460,423.809,23.98,0,0.000885,0,0
0:1:48.661,425.099,24.0558,0,0.000885,0,0
0:1:48.862,425.744,24.0903,0,0.000885,0,0
0:1:49.064,426.682,24.1454,0,0.000885,0,0
0:1:49.264,427.327,24.1799,0,0.000885,0,0
0:1:49.466,428.088,24.2282,0,0.000885,0,0
0:1:49.665,428.969,24.2764,0,0.000885,0,0
0:1:49.866,429.849,24.3247,0,0.000885,0,0
0:1:50.065,430.846,24.3799,0,0.000885,0,0
0:1:50.266,431.611,24.4212,0,0.000885,0,0
0:1:50.459,432.723,24.4902,0,0.000885,0,0
0:1:50.660,434.133,24.566,0,0.000885,0,0
0:1:50.857,434.542,24.5867,0,0.000885,0,0
0:1:51.053,435.832,24.6625,0,0.000885,0,0
0:1:51.254,436.126,24.6763,0,0.000885,0,0
0:1:51.448,437.767,24.7729,0,0.000885,0,0
0:1:51.648,438.297,24.8004,0,0.000885,0,0
0:1:51.847,438.822,24.8349,0,0.000885,0,0
0:1:52.042,439.938,24.897,0,0.000885,0,0
0:1:52.243,440.405,24.9245,0,0.000885,0,0
0:1:52.438,441.931,25.0073,0,0.000885,0,0
0:1:52.634,442.282,25.028,0,0.000885,0,0
0:1:52.836,443.692,25.1107,0,0.000885,0,0
0:1:53.029,444.279,25.1383,0,0.000885,0,0
0:1:53.232,445.507,25.2072,0,0.000885,0,0
0:1:53.428,446.446,25.2624,0,0.000885,0,0
0:1:53.624,447.153,25.3038,0,0.000885,0,0
0:1:53.824,447.914,25.3451,0,0.000885,0,0
0:1:54.025,448.616,25.3865,0,0.000885,0,0
0:1:54.227,449.439,25.4348,0,0.000885,0,0
0:1:54.429,450.494,25.4899,0,0.000885,0,0
0:1:54.628,451.432,25.5451,0,0.000885,0,0
0:1:54.829,452.486,25.6071,0,0.000885,0,0
0:1:55.029,453.074,25.6416,0,0.000885,0,0
0:1:55.231,454.599,25.7243,0,0.000885,0,0
0:1:55.430,454.893,25.745,0,0.000885,0,0
0:1:55.625,455.832,25.7933,0,0.000885,0,0
0:1:55.825,456.361,25.8278,0,0.000885,0,0
0:1:56.023,457.179,25.8691,0,0.000885,0,0
0:1:56.221,458.176,25.9243,0,0.000885,0,0
0:1:56.420,458.883,25.9657,0,0.000885,0,0
0:1:56.615,460.346,26.0484,0,0.000885,0,0
0:1:56.813,460.76,26.076,0,0.000885,0,0
0:1:57.012,461.872,26.138,0,0.000885,0,0
0:1:57.207,462.402,26.1656,0,0.000885,0,0
0:1:57.409,463.514,26.2277,0,0.000885,0,0
0:1:57.602,463.927,26.2552,0,0.000885,0,0
0:1:57.802,465.333,26.3311,0,0.000885,0,0
0:1:58.001,465.742,26.3587,0,0.000885,0,0
0:1:58.195,466.271,26.3862,0,0.000885,0,0
0:1:58.397,467.913,26.4759,0,0.000885,0,0
0:1:58.592,468.5,26.5103,0,0.000885,0,0
0:1:58.788,469.906,26.5931,0,0.000885,0,0
0:1:58.988,470.319,26.6138,0,0.000885,0,0
0:1:59.191,471.667,26.6896,0,0.000885,0,0
0:1:59.393,472.37,26.731,0,0.000885,0,0
0:1:59.594,473.66,26.8068,0,0.000885,0,0
0:1:59.796,474.131,26.8275,0,0.000885,0,0
0:1:59.997,475.244,26.8964,0,0.000885,0,0
0:2:0.194,476.24,26.9516,0,0.000885,0,0
0:2:0.397,476.889,26.9861,0,0.000885,0,0
0:2:0.597,477.824,27.0412,0,0.000885,0,0
0:2:0.790,478.411,27.0757,0,0.000885,0,0
0:2:0.991,479.291,27.124,0,0.000885,0,0
0:2:1.187,480.639,27.1998,0,0.000885,0,0
0:2:1.386,481.226,27.2343,0,0.000885,0,0
0:2:1.586,482.107,27.2826,0,0.000885,0,0
0:2:1.779,482.752,27.317,0,0.000885,0,0
0:2:1.980,483.749,27.3722,0,0.000885,0,0
0:2:2.176,484.629,27.4273,0,0.000885,0,0
0:2:2.373,485.274,27.4618,0,0.000885,0,0
0:2:2.574,486.622,27.5377,0,0.000885,0,0
0:2:2.777,487.036,27.5583,0,0.000885,0,0
0:2:2.977,488.619,27.648,0,0.000885,0,0
0:2:3.174,488.557,27.648,0,0.000885,0,0
0:2:3.369,490.261,27.7445,0,0.000885,0,0
0:2:3.572,490.67,27.7652,0,0.000885,0,0
0:2:3.772,492.605,27.8755,0,0.000885,0,0
0:2:3.974,492.547,27.8755,0,0.000885,0,0
0:2:4.176,493.779,27.9445,0,0.000885,0,0
0:2:4.377,494.366,27.972,0,0.000885,0,0
0:2:4.577,495.599,28.0479,0,0.000885,0,0
0:2:4.777,496.244,28.0823,0,0.000885,0,0
0:2:4.977,497.24,28.1375,0,0.000885,0,0
0:2:5.177,498.236,28.1927,0,0.000885,0,0
0:2:5.369,498.646,28.2202,0,0.000885,0,0
0:2:5.568,499.82,28.2823,0,0.000885,0,0
0:2:5.767,500.171,28.303,0,0.000885,0,0
0:2:5.963,501.519,28.3788,0,0.000885,0,0
0:2:6.163,502.164,28.4202,0,0.000885,0,0
0:2:6.358,503.161,28.4753,0,0.000885,0,0
0:2:6.555,503.748,28.5029,0,0.000885,0,0
0:2:6.756,504.744,28.565,0,0.000885,0,0
0:2:6.951,506.039,28.6339,0,0.000885,0,0
0:2:7.151,506.857,28.6822,0,0.000885,0,0
0:2:7.347,507.329,28.7098,0,0.000885,0,0
0:2:7.544,508.267,28.7649,0,0.000885,0,0
0:2:7.745,509.143,28.8132,0,0.000885,0,0
0:2:7.939,510.669,28.8959,0,0.000885,0,0
0:2:8.139,510.963,28.9166,0,0.000885,0,0
0:2:8.337,511.844,28.9649,0,0.000885,0,0
0:2:8.532,512.489,28.9993,0,0.000885,0,0
0:2:8.732,513.191,29.0407,0,0.000885,0,0
0:2:8.933,514.246,29.1028,0,0.000885,0,0
0:2:9.136,514.891,29.1372,0,0.000885,0,0
0:2:9.337,516.594,29.2338,0,0.000885,0,0
0:2:9.537,516.946,29.2545,0,0.000885,0,0
0:2:9.737,518.471,29.3372,0,0.000885,0,0
0:2:9.937,519.116,29.3786,0,0.000885,0,0
0:2:10.139,520.291,29.4406,0,0.000885,0,0
0:2:10.337,521.051,29.4889,0,0.000885,0,0
0:2:10.532,521.932,29.5371,0,0.000885,0,0
0:2:10.732,522.871,29.5854,0,0.000885,0,0
0:2:10.930,523.516,29.6268,0,0.000885,0,0
0:2:11.127,524.512,29.6819,0,0.000885,0,0
0:2:11.326,525.331,29.7302,0,0.000885,0,0
0:2:11.521,525.86,29.7578,0,0.000885,0,0
0:2:11.721,526.914,29.8198,0,0.000885,0,0
0:2:11.919,527.501,29.8474,0,0.000885,0,0
0:2:12.115,528.266,29.8957,0,0.000885,0,0
0:2:12.314,529.205,29.9439,0,0.000885,0,0
0:2:12.510,530.081,29.9991,0,0.000885,0,0
0:2:12.708,530.846,30.0405,0,0.000885,0,0
0:2:12.907,531.958,30.1025,0,0.000885,0,0
0:2:13.102,532.603,30.137,0,0.000885,0,0
0:2:13.302,533.248,30.1784,0,0.000885,0,0
0:2:13.499,534.832,30.268,0,0.000885,0,0
0:2:13.694,535.477,30.3025,0,0.000885,0,0
0:2:13.895,536.771,30.3783,0,0.000885,0,0
0:2:14.097,537.123,30.3921,0,0.000885,0,0
0:2:14.300,538.764,30.4886,0,0.000885,0,0
0:2:14.501,539.231,30.5162,0,0.000885,0,0
0:2:14.702,540.17,30.5645,0,0.000885,0,0
0:2:14.902,540.815,30.6058,0,0.000885,0,0
0:2:15.101,541.753,30.6541,0,0.000885,0,0
0:2:15.302,543.043,30.7299,0,0.000885,0,0
0:2:15.502,543.395,30.7506,0,0.000885,0,0
0:2:15.696,544.453,30.8127,0,0.000885,0,0
0:2:15.897,545.392,30.8609,0,0.000885,0,0
0:2:16.093,546.331,30.9161,0,0.000885,0,0
0:2:16.291,547.149,30.9644,0,0.000885,0,0
0:2:16.491,548.145,31.0195,0,0.000885,0,0
0:2:16.684,548.911,31.0609,0,0.000885,0,0
0:2:16.884,549.907,31.116,0,0.000885,0,0
0:2:17.080,550.378,31.1436,0,0.000885,0,0
0:2:17.278,551.255,31.1919,0,0.000885,0,0
0:2:17.479,551.548,31.2126,0,0.000885,0,0
0:2:17.673,553.074,31.2953,0,0.000885,0,0
0:2:17.869,553.603,31.3298,0,0.000885,0,0
0:2:18.067,554.248,31.3643,0,0.000885,0,0
0:2:18.263,555.89,31.4539,0,0.000885,0,0
0:2:18.463,556.005,31.4608,0,0.000885,0,0
0:2:18.664,557.767,31.5642,0,0.000885,0,0
0:2:18.866,558.354,31.5987,0,0.000885,0,0
0:2:19.067,559.524,31.6607,0,0.000885,0,0
0:2:19.268,560.814,31.7366,0,0.000885,0,0
0:2:19.468,561.228,31.7573,0,0.000885,0,0
0:2:19.668,562.166,31.8124,0,0.000885,0,0
0:2:19.869,562.869,31.8538,0,0.000885,0,0
0:2:20.069,564.043,31.9158,0,0.000885,0,0
0:2:20.264,564.159,31.9227,0,0.000885,0,0
0:2:20.461,565.333,31.9917,0,0.000885,0,0
0:2:20.662,566.094,32.033,0,0.000885,0,0
0:2:20.866,566.975,32.0813,0,0.000885,0,0
0:2:21.066,567.971,32.1434,0,0.000885,0,0
0:2:21.270,568.558,32.1709,0,0.000885,0,0
0:2:21.468,570.026,32.2537,0,0.000885,0,0
0:2:21.669,569.964,32.2537,0,0.000885,0,0
0:2:21.875,571.49,32.3364,0,0.000885,0,0
0:2:22.075,572.193,32.3778,0,0.000885,0,0
0:2:22.269,573.367,32.4467,0,0.000885,0,0
0:2:22.478,574.421,32.5088,0,0.000885,0,0
0:2:22.679,575.302,32.557,0,0.000885,0,0
0:2:22.882,576.125,32.6053,0,0.000885,0,0
0:2:23.082,577.766,32.6949,0,0.000885,0,0
0:2:23.280,578.763,32.7501,0,0.000885,0,0
0:2:23.474,578.998,32.7639,0,0.000885,0,0
0:2:23.675,580.64,32.8604,0,0.000885,0,0
0:2:23.876,580.875,32.8742,0,0.000885,0,0
0:2:24.079,582.045,32.9363,0,0.000885,0,0
0:2:24.280,581.988,32.9363,0,0.000885,0,0
0:2:24.481,583.749,33.0328,0,0.000885,0,0
0:2:24.680,584.216,33.0604,0,0.000885,0,0
0:2:24.881,585.212,33.1155,0,0.000885,0,0
0:2:25.082,585.275,33.1224,0,0.000885,0,0
0:2:25.282,586.623,33.1983,0,0.000885,0,0
0:2:25.477,587.21,33.2258,0,0.000885,0,0
0:2:25.679,588.148,33.281,0,0.000885,0,0
0:2:25.874,589.029,33.3293,0,0.000885,0,0
0:2:26.070,589.732,33.3706,0,0.000885,0,0
0:2:26.269,590.728,33.4258,0,0.000885,0,0
0:2:26.464,592.076,33.5016,0,0.000885,0,0
0:2:26.664,592.663,33.5361,0,0.000885,0,0
0:2:26.871,593.66,33.5913,0,0.000885,0,0
0:2:27.081,594.598,33.6464,0,0.000885,0,0
0:2:27.283,595.715,33.7085,0,0.000885,0,0
0:2:27.478,596.538,33.7567,0,0.000885,0,0
0:2:27.679,597.361,33.805,0,0.000885,0,0
0:2:27.877,598.828,33.8877,0,0.000885,0,0
0:2:28.074,599.002,33.8946,0,0.000885,0,0
0:2:28.276,600.821,33.998,0,0.000885,0,0
0:2:28.469,601.115,34.0187,0,0.000885,0,0
0:2:28.669,602.409,34.0877,0,0.000885,0,0
0:2:28.870,602.409,34.0877,0,0.000885,0,0
0:2:29.076,603.815,34.1704,0,0.000885,0,0
0:2:29.278,604.402,34.2049,0,0.000885,0,0
0:2:29.481,604.989,34.2325,0,0.000885,0,0
0:2:29.681,605.99,34.2945,0,0.000885,0,0
0:2:29.882,606.866,34.3428,0,0.000885,0,0
0:2:30.083,607.925,34.4048,0,0.000885,0,0
0:2:30.286,608.806,34.4531,0,0.000885,0,0
0:2:30.483,609.687,34.5014,0,0.000885,0,0
0:2:30.681,611.097,34.5841,0,0.000885,0,0
0:2:30.882,611.212,34.5841,0,0.000885,0,0
0:2:31.078,612.271,34.6462,0,0.000885,0,0
0:2:31.279,613.383,34.7082,0,0.000885,0,0
0:2:31.476,613.734,34.7289,0,0.000885,0,0
0:2:31.682,614.678,34.7841,0,0.000885,0,0
0:2:31.884,615.967,34.8599,0,0.000885,0,0
0:2:32.080,616.79,34.9013,0,0.000885,0,0
0:2:32.281,618.374,34.9909,0,0.000885,0,0
0:2:32.479,619.077,35.0323,0,0.000885,0,0
0:2:32.675,619.255,35.0461,0,0.000885,0,0
0:2:32.877,620.603,35.1219,0,0.000885,0,0
0:2:33.082,622.128,35.2046,0,0.000885,0,0
0:2:33.283,622.013,35.1977,0,0.000885,0,0
0:2:33.484,622.893,35.246,0,0.000885,0,0
0:2:33.688,623.596,35.2874,0,0.000885,0,0
0:2:33.890,624.246,35.3218,0,0.000885,0,0
0:2:34.092,625.416,35.3908,0,0.000885,0,0
0:2:34.294,625.709,35.4046,0,0.000885,0,0
0:2:34.495,627.297,35.5011,0,0.000885,0,0
0:2:34.696,627.884,35.5287,0,0.000885,0,0
0:2:34.898,629.174,35.6045,0,0.000885,0,0
0:2:35.093,630.055,35.6528,0,0.000885,0,0
0:2:35.292,631.051,35.7079,0,0.000885,0,0
0:2:35.493,631.816,35.7562,0,0.000885,0,0
0:2:35.688,632.346,35.7838,0,0.000885,0,0
0:2:35.889,632.813,35.8114,0,0.000885,0,0
0:2:36.088,634.396,35.901,0,0.000885,0,0
0:2:36.283,635.104,35.9424,0,0.000885,0,0
0:2:36.486,636.394,36.0113,0,0.000885,0,0
0:2:36.682,637.159,36.0527,0,0.000885,0,0
0:2:36.881,638.742,36.1423,0,0.000885,0,0
0:2:37.080,638.8,36.1492,0,0.000885,0,0
0:2:37.276,639.859,36.2113,0,0.000885,0,0
0:2:37.478,640.504,36.2457,0,0.000885,0,0
0:2:37.676,641.327,36.294,0,0.000885,0,0
0:2:37.873,642.497,36.3561,0,0.000885,0,0
0:2:38.071,642.853,36.3767,0,0.000885,0,0
0:2:38.268,644.32,36.4595,0,0.000885,0,0
0:2:38.469,644.672,36.4802,0,0.000885,0,0
0:2:38.670,646.371,36.5767,0,0.000885,0,0
0:2:38.876,646.843,36.6043,0,0.000885,0,0
0:2:39.079,648.017,36.6732,0,0.000885,0,0
0:2:39.279,648.778,36.7146,0,0.000885,0,0
0:2:39.481,649.427,36.7491,0,0.000885,0,0
0:2:39.682,649.894,36.7766,0,0.000885,0,0
0:2:39.884,651.713,36.8801,0,0.000885,0,0
0:2:40.086,652.421,36.9214,0,0.000885,0,0
0:2:40.281,653.595,36.9835,0,0.000885,0,0
0:2:40.483,654.182,37.018,0,0.000885,0,0
0:2:40.680,655.121,37.0731,0,0.000885,0,0
0:2:40.878,655.179,37.0731,0,0.000885,0,0
0:2:41.080,656.646,37.1558,0,0.000885,0,0
0:2:41.283,656.998,37.1765,0,0.000885,0,0
0:2:41.485,658.052,37.2386,0,0.000885,0,0
0:2:41.683,658.995,37.2937,0,0.000885,0,0
0:2:41.881,660.401,37.3696,0,0.000885,0,0
0:2:42.083,660.872,37.3972,0,0.000885,0,0
0:2:42.278,662.807,37.5075,0,0.000885,0,0
0:2:42.479,663.221,37.5282,0,0.000885,0,0
0:2:42.686,663.688,37.5557,0,0.000885,0,0
0:2:42.883,664.511,37.604,0,0.000885,0,0
0:2:43.084,665.156,37.6385,0,0.000885,0,0
0:2:43.280,666.215,37.7005,0,0.000885,0,0
0:2:43.481,666.739,37.7281,0,0.000885,0,0
0:2:43.682,668.034,37.804,0,0.000885,0,0
0:2:43.884,668.621,37.8384,0,0.000885,0,0
0:2:44.087,670.147,37.9212,0,0.000885,0,0
0:2:44.289,670.734,37.9556,0,0.000885,0,0
0:2:44.491,671.437,37.997,0,0.000885,0,0
0:2:44.692,671.966,38.0246,0,0.000885,0,0
0:2:44.894,673.608,38.1211,0,0.000885,0,0
0:2:45.094,674.137,38.1487,0,0.000885,0,0
0:2:45.292,675.369,38.2176,0,0.000885,0,0
0:2:45.491,675.898,38.2452,0,0.000885,0,0
0:2:45.691,677.424,38.3349,0,0.000885,0,0
0:2:45.887,677.544,38.3417,0,0.000885,0,0
0:2:46.088,678.598,38.4038,0,0.000885,0,0
0:2:46.284,679.301,38.4383,0,0.000885,0,0
0:2:46.485,680.244,38.4934,0,0.000885,0,0
0:2:46.683,681.241,38.5486,0,0.000885,0,0
0:2:46.879,682.882,38.6451,0,0.000885,0,0
0:2:47.081,683.469,38.6796,0,0.000885,0,0
0:2:47.278,684.234,38.721,0,0.000885,0,0
0:2:47.486,684.995,38.7623,0,0.000885,0,0
0:2:47.687,685.289,38.7761,0,0.000885,0,0
0:2:47.881,686.699,38.8589,0,0.000885,0,0
0:2:48.082,686.992,38.8726,0,0.000885,0,0
0:2:48.282,688.167,38.9416,0,0.000885,0,0
0:2:48.479,688.869,38.983,0,0.000885,0,0
0:2:48.681,690.337,39.0657,0,0.000885,0,0
0:2:48.883,690.982,39.1002,0,0.000885,0,0
0:2:49.087,691.69,39.1415,0,0.000885,0,0
0:2:49.288,692.57,39.1898,0,0.000885,0,0
0:2:49.490,693.86,39.2656,0,0.000885,0,0
0:2:49.689,693.86,39.2656,0,0.000885,0,0
0:2:49.892,695.328,39.3484,0,0.000885,0,0
0:2:50.093,695.858,39.376,0,0.000885,0,0
0:2:50.293,697.263,39.4587,0,0.000885,0,0
0:2:50.490,697.735,39.4863,0,0.000885,0,0
0:2:50.692,698.793,39.5414,0,0.000885,0,0
0:2:50.886,699.612,39.5897,0,0.000885,0,0
0:2:51.087,701.316,39.6862,0,0.000885,0,0
0:2:51.287,701.845,39.7138,0,0.000885,0,0
0:2:51.484,702.49,39.7552,0,0.000885,0,0
0:2:51.685,703.371,39.8034,0,0.000885,0,0
0:2:51.880,704.073,39.8448,0,0.000885,0,0
0:2:52.080,705.132,39.9,0,0.000885,0,0
0:2:52.279,705.306,39.9137,0,0.000885,0,0
0:2:52.477,706.716,39.9896,0,0.000885,0,0
0:2:52.679,707.774,40.0516,0,0.000885,0,0
0:2:52.884,708.535,40.093,0,0.000885,0,0
0:2:53.083,709.709,40.162,0,0.000885,0,0
0:2:53.284,710.474,40.2033,0,0.000885,0,0
0:2:53.479,710.999,40.2378,0,0.000885,0,0
0:2:53.681,712.174,40.2999,0,0.000885,0,0
0:2:53.881,712.761,40.3343,0,0.000885,0,0
0:2:54.085,714.287,40.4171,0,0.000885,0,0
0:2:54.288,714.932,40.4584,0,0.000885,0,0
0:2:54.489,716.106,40.5205,0,0.000885,0,0
0:2:54.691,716.871,40.5688,0,0.000885,0,0
0:2:54.892,718.103,40.6377,0,0.000885,0,0
0:2:55.093,718.397,40.6515,0,0.000885,0,0
0:2:55.295,719.629,40.7204,0,0.000885,0,0
0:2:55.489,719.455,40.7135,0,0.000885,0,0
0:2:55.690,720.625,40.7825,0,0.000885,0,0
0:2:55.890,721.684,40.8376,0,0.000885,0,0
0:2:56.084,723.036,40.9135,0,0.000885,0,0
0:2:56.286,723.623,40.948,0,0.000885,0,0
0:2:56.482,723.912,40.9618,0,0.000885,0,0
0:2:56.682,725.087,41.0307,0,0.000885,0,0
0:2:56.883,725.558,41.0583,0,0.000885,0,0
0:2:57.078,726.968,41.141,0,0.000885,0,0
0:2:57.279,727.849,41.1893,0,0.000885,0,0
0:2:57.485,729.197,41.2651,0,0.000885,0,0
0:2:57.684,730.02,41.3134,0,0.000885,0,0
0:2:57.885,730.958,41.3616,0,0.000885,0,0
0:2:58.079,731.724,41.4099,0,0.000885,0,0
0:2:58.280,732.662,41.4582,0,0.000885,0,0
0:2:58.479,733.423,41.5064,0,0.000885,0,0
0:2:58.687,734.361,41.5547,0,0.000885,0,0
0:2:58.888,734.833,41.5823,0,0.000885,0,0
0:2:59.090,735.656,41.6305,0,0.000885,0,0
0:2:59.294,736.243,41.665,0,0.000885,0,0
0:2:59.497,737.769,41.7478,0,0.000885,0,0
0:2:59.699,738.943,41.8167,0,0.000885,0,0
0:2:59.900,740.117,41.8788,0,0.000885,0,0
0:3:0.100,740.82,41.9201,0,0.000885,0,0
0:3:0.303,741.643,41.9684,0,0.000885,0,0
0:3:0.502,742.23,42.0029,0,0.000885,0,0
0:3:0.697,743.227,42.058,0,0.000885,0,0
0:3:0.898,743.814,42.0925,0,0.000885,0,0
0:3:1.097,745.162,42.1683,0,0.000885,0,0
0:3:1.294,745.691,42.1959,0,0.000885,0,0
0:3:1.495,746.75,42.258,0,0.000885,0,0
0:3:1.689,747.452,42.2993,0,0.000885,0,0
0:3:1.891,748.275,42.3407,0,0.000885,0,0
0:3:2.090,748.805,42.3752,0,0.000885,0,0
0:3:2.286,749.33,42.4028,0,0.000885,0,0
0:3:2.488,750.504,42.4717,0,0.000885,0,0
0:3:2.683,751.149,42.5062,0,0.000885,0,0
0:3:2.883,752.795,42.6027,0,0.000885,0,0
0:3:3.084,753.204,42.6234,0,0.000885,0,0
0:3:3.278,754.614,42.6992,0,0.000885,0,0
0:3:3.480,754.908,42.7199,0,0.000885,0,0
0:3:3.682,756.318,42.7958,0,0.000885,0,0
0:3:3.885,756.727,42.8233,0,0.000885,0,0
0:3:4.088,757.901,42.8854,0,0.000885,0,0
0:3:4.288,758.373,42.913,0,0.000885,0,0
0:3:4.490,759.427,42.975,0,0.000885,0,0
0:3:4.691,760.192,43.0164,0,0.000885,0,0
0:3:4.893,761.424,43.0853,0,0.000885,0,0
0:3:5.094,761.834,43.1129,0,0.000885,0,0
0:3:5.290,763.244,43.1888,0,0.000885,0,0
0:3:5.491,764.124,43.2439,0,0.000885,0,0
0:3:5.688,765.005,43.2922,0,0.000885,0,0
0:3:5.885,765.179,43.2991,0,0.000885,0,0
0:3:6.087,766.473,43.3749,0,0.000885,0,0
0:3:6.283,766.824,43.3956,0,0.000885,0,0
0:3:6.483,767.412,43.4232,0,0.000885,0,0
0:3:6.683,768.172,43.4714,0,0.000885,0,0
0:3:6.887,769.053,43.5197,0,0.000885,0,0
0:3:7.089,770.17,43.5818,0,0.000885,0,0
0:3:7.286,770.285,43.5887,0,0.000885,0,0
0:3:7.483,771.166,43.6369,0,0.000885,0,0
0:3:7.684,771.873,43.6783,0,0.000885,0,0
0:3:7.879,771.931,43.6852,0,0.000885,0,0
0:3:8.079,772.518,43.7128,0,0.000885,0,0
0:3:8.278,772.518,43.7128,0,0.000885,0,0
0:3:8.473,772.282,43.699,0,0.000885,0,0
0:3:8.673,770.699,43.6093,0,0.000885,0,0
0:3:8.875,770.347,43.5956,0,0.000885,0,0
0:3:9.080,767.06,43.4094,0,0.000885,0,0
0:3:9.282,764.004,43.237,0,0.000885,0,0
0:3:9.481,744.637,42.1408,0,0.000885,0,0
0:3:9.682,720.274,40.7618,0,0.000885,0,0
0:3:9.883,629.997,35.6528,0,0.000885,0,0
0:3:10.082,578.878,32.757,0,0.000885,0,0
0:3:10.123,578.878,32.757,0,0.000885,0,0