File: DataFile2021-06-29_044044.csv
Test ID:,Date Tested:,Time:,Test Type:,Width (mm):,Depth (mm):,Height (mm):,Age (days):,Weight (kN):,Ramp Rate (MPa/s):,Load at Break (kN):,Stress at Break (MPa):
12,6/29/2021,04:40,Cube,150,150,150,7,8.37,0.01,72.9,3.24
Sample Time,Load (kN),Stress (MPa),Long. Strain,Trans. Strain,Chan1 Deflection (mm),Chan2 Deflection (mm)
0:0:10.447,9.55923,0.427475,0,0.000885,0,0
0:0:10.642,10.262,0.455054,0,0.000885,0,0
0:0:10.840,10.907,0.482633,0,0.000885,0,0
0:0:11.030,10.7336,0.475738,0,0.000885,0,0
0:0:11.228,10.9693,0.489528,0,0.000885,0,0
0:0:11.436,11.1428,0.496423,0,0.000885,0,0
0:0:11.640,11.7878,0.524002,0,0.000885,0,0
0:0:11.838,11.6143,0.517107,0,0.000885,0,0
0:0:12.040,12.0814,0.537791,0,0.000885,0,0
0:0:12.239,13.1356,0.586054,0,0.000885,0,0
0:0:12.444,13.1979,0.586054,0,0.000885,0,0
0:0:12.638,13.3714,0.592949,0,0.000885,0,0
0:0:12.837,14.43,0.641212,0,0.000885,0,0
0:0:13.039,14.8393,0.661897,0,0.000885,0,0
0:0:13.236,15.1328,0.675686,0,0.000885,0,0
0:0:13.441,15.4843,0.689476,0,0.000885,0,0
0:0:13.636,16.1293,0.717055,0,0.000885,0,0
0:0:13.832,16.1293,0.717055,0,0.000885,0,0
0:0:14.038,16.8321,0.751529,0,0.000885,0,0
0:0:14.244,17.1835,0.765318,0,0.000885,0,0
0:0:14.440,17.7128,0.786002,0,0.000885,0,0
0:0:14.635,18.1221,0.806687,0,0.000885,0,0
0:0:14.831,18.7092,0.834266,0,0.000885,0,0
0:0:15.037,19.0606,0.848055,0,0.000885,0,0
0:0:15.242,19.3542,0.861845,0,0.000885,0,0
0:0:15.440,20.2928,0.903213,0,0.000885,0,0
0:0:15.643,20.6442,0.917003,0,0.000885,0,0
0:0:15.843,21.347,0.951477,0,0.000885,0,0
0:0:16.043,21.7029,0.965266,0,0.000885,0,0
0:0:16.243,22.1699,0.98595,0,0.000885,0,0
0:0:16.443,22.637,1.00663,0,0.000885,0,0
0:0:16.643,23.1663,1.02732,0,0.000885,0,0
0:0:16.842,23.6378,1.048,0,0.000885,0,0
0:0:17.041,24.5141,1.08937,0,0.000885,0,0
0:0:17.238,25.1591,1.11695,0,0.000885,0,0
0:0:17.437,25.8664,1.15142,0,0.000885,0,0
0:0:17.641,26.3335,1.17211,0,0.000885,0,0
0:0:17.839,27.2142,1.20658,0,0.000885,0,0
0:0:18.036,27.1564,1.20658,0,0.000885,0,0
0:0:18.239,27.7436,1.23416,0,0.000885,0,0
0:0:18.438,27.8014,1.23416,0,0.000885,0,0
0:0:18.640,27.9749,1.24106,0,0.000885,0,0
0:0:18.837,28.5042,1.26864,0,0.000885,0,0
0:0:19.044,29.385,1.30311,0,0.000885,0,0
0:0:19.239,29.6207,1.3169,0,0.000885,0,0
0:0:19.437,29.9721,1.33069,0,0.000885,0,0
0:0:19.640,29.9721,1.33069,0,0.000885,0,0
0:0:19.837,30.3814,1.35137,0,0.000885,0,0
0:0:20.032,30.9107,1.37206,0,0.000885,0,0
0:0:20.238,30.8484,1.37206,0,0.000885,0,0
0:0:20.437,31.4356,1.39964,0,0.000885,0,0
0:0:20.638,31.787,1.41343,0,0.000885,0,0
0:0:20.836,32.3742,1.441,0,0.000885,0,0
0:0:21.032,32.6099,1.4479,0,0.000885,0,0
0:0:21.236,33.077,1.46858,0,0.000885,0,0
0:0:21.436,33.3127,1.48237,0,0.000885,0,0
0:0:21.632,33.8421,1.50306,0,0.000885,0,0
0:0:21.831,34.2513,1.52374,0,0.000885,0,0
0:0:22.031,35.5413,1.5789,0,0.000885,0,0
0:0:22.228,35.5413,1.5789,0,0.000885,0,0
0:0:22.428,35.8349,1.59269,0,0.000885,0,0
0:0:22.632,36.4799,1.62027,0,0.000885,0,0
0:0:22.840,36.8891,1.64095,0,0.000885,0,0
0:0:23.038,37.0092,1.64785,0,0.000885,0,0
0:0:23.230,37.7698,1.67543,0,0.000885,0,0
0:0:23.428,38.0634,1.68922,0,0.000885,0,0
0:0:23.633,38.4727,1.7099,0,0.000885,0,0
0:0:23.841,39.7048,1.76506,0,0.000885,0,0
0:0:24.038,39.5892,1.75816,0,0.000885,0,0
0:0:24.242,40.7635,1.81332,0,0.000885,0,0
0:0:24.440,40.8792,1.82022,0,0.000885,0,0
0:0:24.645,41.1149,1.82711,0,0.000885,0,0
0:0:24.841,41.6398,1.84779,0,0.000885,0,0
0:0:25.040,42.6985,1.89606,0,0.000885,0,0
0:0:25.242,43.3435,1.92364,0,0.000885,0,0
0:0:25.441,43.4591,1.93053,0,0.000885,0,0
0:0:25.637,43.6949,1.94432,0,0.000885,0,0
0:0:25.841,44.2242,1.96501,0,0.000885,0,0
0:0:26.040,44.282,1.96501,0,0.000885,0,0
0:0:26.241,45.2206,2.00637,0,0.000885,0,0
0:0:26.440,45.2784,2.01327,0,0.000885,0,0
0:0:26.640,45.6877,2.03395,0,0.000885,0,0
0:0:26.838,45.8656,2.04085,0,0.000885,0,0
0:0:27.038,46.5684,2.06843,0,0.000885,0,0
0:0:27.237,46.9198,2.08222,0,0.000885,0,0
0:0:27.432,47.0978,2.09601,0,0.000885,0,0
0:0:27.631,47.2713,2.1029,0,0.000885,0,0
0:0:27.836,48.2677,2.14427,0,0.000885,0,0
0:0:28.033,48.797,2.17185,0,0.000885,0,0
0:0:28.238,49.6199,2.20632,0,0.000885,0,0
0:0:28.432,49.3842,2.19253,0,0.000885,0,0
0:0:28.630,49.7934,2.21322,0,0.000885,0,0
0:0:28.833,50.732,2.25459,0,0.000885,0,0
0:0:29.032,51.0255,2.26838,0,0.000885,0,0
0:0:29.239,51.3191,2.28216,0,0.000885,0,0
0:0:29.431,51.5549,2.28906,0,0.000885,0,0
0:0:29.631,52.1999,2.31664,0,0.000885,0,0
0:0:29.837,52.4935,2.33043,0,0.000885,0,0
0:0:30.032,53.432,2.3718,0,0.000885,0,0
0:0:30.238,53.432,2.3718,0,0.000885,0,0
0:0:30.443,54.4284,2.42006,0,0.000885,0,0
0:0:30.643,54.5441,2.42695,0,0.000885,0,0
0:0:30.842,54.8955,2.44074,0,0.000885,0,0
0:0:31.043,55.3092,2.46143,0,0.000885,0,0
0:0:31.243,55.8919,2.48211,0,0.000885,0,0
0:0:31.442,56.1855,2.4959,0,0.000885,0,0
0:0:31.641,57.0662,2.53727,0,0.000885,0,0
0:0:31.838,57.3598,2.55106,0,0.000885,0,0
0:0:32.039,57.947,2.57864,0,0.000885,0,0
0:0:32.233,58.4763,2.59932,0,0.000885,0,0
0:0:32.438,58.592,2.60622,0,0.000885,0,0
0:0:32.637,59.0012,2.62001,0,0.000885,0,0
0:0:32.842,59.9398,2.66138,0,0.000885,0,0
0:0:33.039,60.4113,2.68206,0,0.000885,0,0
0:0:33.232,60.5848,2.69585,0,0.000885,0,0
0:0:33.438,60.9985,2.70964,0,0.000885,0,0
0:0:33.634,61.0563,2.71653,0,0.000885,0,0
0:0:33.840,61.7013,2.74411,0,0.000885,0,0
0:0:34.038,62.1105,2.7579,0,0.000885,0,0
0:0:34.244,62.6399,2.78548,0,0.000885,0,0
0:0:34.437,63.0491,2.79927,0,0.000885,0,0
0:0:34.633,63.6363,2.82685,0,0.000885,0,0
0:0:34.840,63.6363,2.82685,0,0.000885,0,0
0:0:35.038,64.3391,2.86132,0,0.000885,0,0
0:0:35.242,64.2813,2.85443,0,0.000885,0,0
0:0:35.446,65.2777,2.90269,0,0.000885,0,0
0:0:35.645,65.2777,2.90269,0,0.000885,0,0
0:0:35.844,66.2162,2.94406,0,0.000885,0,0
0:0:36.045,66.5098,2.95785,0,0.000885,0,0
0:0:36.246,67.1548,2.98543,0,0.000885,0,0
0:0:36.443,67.2705,2.99232,0,0.000885,0,0
0:0:36.644,68.1512,3.0268,0,0.000885,0,0
0:0:36.842,68.2713,3.03369,0,0.000885,0,0
0:0:37.040,68.7384,3.05438,0,0.000885,0,0
0:0:37.240,69.0898,3.06817,0,0.000885,0,0
0:0:37.442,69.3834,3.08196,0,0.000885,0,0
0:0:37.641,69.6769,3.09575,0,0.000885,0,0
0:0:37.834,70.0284,3.10954,0,0.000885,0,0
0:0:38.031,70.8513,3.1509,0,0.000885,0,0
0:0:38.230,71.2605,3.16469,0,0.000885,0,0
0:0:38.432,71.3183,3.17159,0,0.000885,0,0
0:0:38.630,71.4963,3.17848,0,0.000885,0,0
0:0:38.835,71.7276,3.18538,0,0.000885,0,0
0:0:39.042,72.0212,3.19917,0,0.000885,0,0
0:0:39.242,72.2569,3.21296,0,0.000885,0,0
0:0:39.443,72.4927,3.21985,0,0.000885,0,0
0:0:39.643,72.8441,3.24054,0,0.000885,0,0
0:0:39.839,72.9019,3.24054,0,0.000885,0,0
0:0:40.043,72.9019,3.24054,0,0.000885,0,0
0:0:40.241,73.022,3.24743,0,0.000885,0,0
0:0:40.443,71.4963,3.17848,0,0.000885,0,0
0:0:40.640,70.7312,3.14401,0,0.000885,0,0
0:0:40.838,69.2677,3.07506,0,0.000885,0,0
0:0:41.039,68.0934,3.0268,0,0.000885,0,0
0:0:41.235,67.2705,2.99232,0,0.000885,0,0
0:0:41.434,67.097,2.98543,0,0.000885,0,0
0:0:41.632,66.7456,2.96475,0,0.000885,0,0
0:0:41.830,66.8612,2.97164,0,0.000885,0,0
0:0:42.029,66.5676,2.95785,0,0.000885,0,0
0:0:42.239,65.9805,2.93027,0,0.000885,0,0
0:0:42.443,62.9913,2.79927,0,0.000885,0,0
0:0:42.640,60.2334,2.67517,0,0.000885,0,0
0:0:42.845,59.0012,2.62001,0,0.000885,0,0
0:0:43.039,58.7076,2.60622,0,0.000885,0,0
0:0:43.235,58.7076,2.60622,0,0.000885,0,0
0:0:43.441,58.4763,2.59932,0,0.000885,0,0
0:0:43.635,58.5341,2.59932,0,0.000885,0,0
0:0:43.831,58.7699,2.61311,0,0.000885,0,0
0:0:44.045,58.8856,2.62001,0,0.000885,0,0
0:0:44.243,58.8856,2.62001,0,0.000885,0,0
0:0:44.440,58.9434,2.62001,0,0.000885,0,0
0:0:44.644,58.592,2.60622,0,0.000885,0,0
0:0:44.842,58.3562,2.59243,0,0.000885,0,0
0:0:45.044,58.3562,2.59243,0,0.000885,0,0
0:0:45.240,58.5341,2.59932,0,0.000885,0,0
0:0:45.435,58.2406,2.58553,0,0.000885,0,0
0:0:45.640,58.0626,2.57864,0,0.000885,0,0
0:0:45.839,57.1241,2.53727,0,0.000885,0,0
0:0:46.039,56.8305,2.52348,0,0.000885,0,0
0:0:46.239,54.7798,2.43385,0,0.000885,0,0
0:0:46.439,54.3706,2.41317,0,0.000885,0,0
0:0:46.633,52.3734,2.33043,0,0.000885,0,0
0:0:46.831,51.9641,2.30974,0,0.000885,0,0
0:0:47.030,51.7862,2.30285,0,0.000885,0,0
0:0:47.227,52.1421,2.31664,0,0.000885,0,0
0:0:47.425,52.1421,2.31664,0,0.000885,0,0
0:0:47.640,52.0798,2.31664,0,0.000885,0,0
0:0:47.833,52.4356,2.33043,0,0.000885,0,0
0:0:48.041,52.787,2.34422,0,0.000885,0,0
0:0:48.244,52.9027,2.35111,0,0.000885,0,0
0:0:48.443,53.1963,2.3649,0,0.000885,0,0
0:0:48.645,53.2541,2.3649,0,0.000885,0,0
0:0:48.843,53.6633,2.38559,0,0.000885,0,0
0:0:49.048,53.9569,2.39938,0,0.000885,0,0
0:0:49.241,54.2505,2.41317,0,0.000885,0,0
0:0:49.441,54.3706,2.41317,0,0.000885,0,0
0:0:49.643,54.4863,2.42006,0,0.000885,0,0
0:0:49.836,54.6642,2.42695,0,0.000885,0,0
0:0:50.034,55.2469,2.45453,0,0.000885,0,0
0:0:50.246,54.8955,2.44074,0,0.000885,0,0
0:0:50.446,55.1891,2.45453,0,0.000885,0,0
0:0:50.639,55.6606,2.47522,0,0.000885,0,0
0:0:50.845,56.1277,2.4959,0,0.000885,0,0
0:0:51.044,56.2478,2.5028,0,0.000885,0,0
0:0:51.244,56.1855,2.4959,0,0.000885,0,0
0:0:51.443,56.5369,2.50969,0,0.000885,0,0
0:0:51.642,56.4791,2.50969,0,0.000885,0,0
0:0:51.840,56.5369,2.50969,0,0.000885,0,0
0:0:52.039,56.7148,2.52348,0,0.000885,0,0
0:0:52.235,56.9506,2.53038,0,0.000885,0,0
0:0:52.432,57.302,2.54417,0,0.000885,0,0
0:0:52.628,57.4176,2.55106,0,0.000885,0,0
0:0:52.832,57.4755,2.55795,0,0.000885,0,0
0:0:53.030,57.6534,2.56485,0,0.000885,0,0
0:0:53.233,57.5956,2.55795,0,0.000885,0,0
0:0:53.429,57.3598,2.55106,0,0.000885,0,0
0:0:53.626,57.2442,2.54417,0,0.000885,0,0
0:0:53.841,57.4176,2.55106,0,0.000885,0,0
0:0:54.040,57.2442,2.54417,0,0.000885,0,0
0:0:54.243,57.5377,2.55795,0,0.000885,0,0
0:0:54.436,57.1863,2.54417,0,0.000885,0,0
0:0:54.634,57.3598,2.55106,0,0.000885,0,0
0:0:54.846,57.4176,2.55106,0,0.000885,0,0
0:0:55.044,57.302,2.54417,0,0.000885,0,0
0:0:55.241,57.1241,2.53727,0,0.000885,0,0
0:0:55.443,56.8305,2.52348,0,0.000885,0,0
0:0:55.643,56.8928,2.53038,0,0.000885,0,0
0:0:55.841,56.8928,2.53038,0,0.000885,0,0
0:0:56.042,56.7727,2.52348,0,0.000885,0,0
0:0:56.241,56.5992,2.51659,0,0.000885,0,0
0:0:56.439,56.8928,2.53038,0,0.000885,0,0
0:0:56.636,56.7727,2.52348,0,0.000885,0,0
0:0:56.833,56.8928,2.53038,0,0.000885,0,0
0:0:57.032,56.7727,2.52348,0,0.000885,0,0
0:0:57.230,56.4212,2.50969,0,0.000885,0,0
0:0:57.444,56.1277,2.4959,0,0.000885,0,0
0:0:57.642,56.1277,2.4959,0,0.000885,0,0
0:0:57.845,55.9542,2.48901,0,0.000885,0,0
0:0:58.041,55.5405,2.46832,0,0.000885,0,0
0:0:58.236,55.1891,2.45453,0,0.000885,0,0
0:0:58.441,55.2469,2.45453,0,0.000885,0,0
0:0:58.636,55.1313,2.44764,0,0.000885,0,0
0:0:58.842,55.0734,2.44764,0,0.000885,0,0
0:0:59.046,55.0156,2.44764,0,0.000885,0,0
0:0:59.244,54.722,2.43385,0,0.000885,0,0
0:0:59.447,54.6019,2.42695,0,0.000885,0,0
0:0:59.644,54.7798,2.43385,0,0.000885,0,0
0:0:59.848,54.6019,2.42695,0,0.000885,0,0
0:1:0.042,54.3083,2.41317,0,0.000885,0,0
0:1:0.241,54.1349,2.40627,0,0.000885,0,0
0:1:0.444,53.432,2.3718,0,0.000885,0,0
0:1:0.641,53.4899,2.37869,0,0.000885,0,0
0:1:0.836,53.0806,2.35801,0,0.000885,0,0
0:1:1.036,52.6091,2.33732,0,0.000885,0,0
0:1:1.236,52.6669,2.34422,0,0.000885,0,0
0:1:1.434,52.7248,2.34422,0,0.000885,0,0
0:1:1.633,52.3155,2.32353,0,0.000885,0,0
0:1:1.830,52.2577,2.32353,0,0.000885,0,0
0:1:2.029,52.0798,2.31664,0,0.000885,0,0
0:1:2.227,52.1999,2.31664,0,0.000885,0,0
0:1:2.433,52.4356,2.33043,0,0.000885,0,0
0:1:2.636,52.2577,2.32353,0,0.000885,0,0
0:1:2.835,52.022,2.30974,0,0.000885,0,0
0:1:3.036,52.1999,2.31664,0,0.000885,0,0
0:1:3.233,52.0798,2.31664,0,0.000885,0,0
0:1:3.442,51.8485,2.30285,0,0.000885,0,0
0:1:3.645,51.7284,2.29595,0,0.000885,0,0
0:1:3.843,52.022,2.30974,0,0.000885,0,0
0:1:4.035,51.7862,2.30285,0,0.000885,0,0
0:1:4.242,51.7862,2.30285,0,0.000885,0,0
0:1:4.440,51.6127,2.29595,0,0.000885,0,0
0:1:4.643,51.9063,2.30974,0,0.000885,0,0
0:1:4.842,51.7862,2.30285,0,0.000885,0,0
0:1:5.034,51.377,2.28216,0,0.000885,0,0
0:1:5.236,51.5549,2.28906,0,0.000885,0,0
0:1:5.435,51.377,2.28216,0,0.000885,0,0
0:1:5.640,51.2613,2.27527,0,0.000885,0,0
0:1:5.835,51.4971,2.28906,0,0.000885,0,0
0:1:6.035,51.377,2.28216,0,0.000885,0,0
0:1:6.236,51.1412,2.27527,0,0.000885,0,0
0:1:6.435,50.5585,2.24769,0,0.000885,0,0
0:1:6.633,50.732,2.25459,0,0.000885,0,0
0:1:6.831,50.4962,2.24769,0,0.000885,0,0
0:1:7.028,50.4962,2.24769,0,0.000885,0,0
0:1:7.226,50.087,2.22701,0,0.000885,0,0
0:1:7.425,49.9135,2.22011,0,0.000885,0,0
0:1:7.627,49.7934,2.21322,0,0.000885,0,0
0:1:7.824,49.9135,2.22011,0,0.000885,0,0
0:1:8.022,49.6199,2.20632,0,0.000885,0,0
0:1:8.232,49.4998,2.19943,0,0.000885,0,0
0:1:8.430,49.2062,2.18564,0,0.000885,0,0
0:1:8.635,49.2062,2.18564,0,0.000885,0,0
0:1:8.841,49.2062,2.18564,0,0.000885,0,0
0:1:9.041,48.9126,2.17185,0,0.000885,0,0
0:1:9.242,48.6813,2.16495,0,0.000885,0,0
0:1:9.437,48.3299,2.15116,0,0.000885,0,0
0:1:9.633,48.2677,2.14427,0,0.000885,0,0
0:1:9.835,48.3878,2.15116,0,0.000885,0,0
0:1:10.035,48.2098,2.14427,0,0.000885,0,0
0:1:10.238,48.152,2.13737,0,0.000885,0,0
0:1:10.447,48.2098,2.14427,0,0.000885,0,0
0:1:10.642,48.2677,2.14427,0,0.000885,0,0
0:1:10.845,48.2098,2.14427,0,0.000885,0,0
0:1:11.043,48.4456,2.15116,0,0.000885,0,0
0:1:11.242,48.0942,2.13737,0,0.000885,0,0
0:1:11.442,48.0942,2.13737,0,0.000885,0,0
0:1:11.642,48.3299,2.15116,0,0.000885,0,0
0:1:11.838,48.3878,2.15116,0,0.000885,0,0
0:1:12.036,48.6813,2.16495,0,0.000885,0,0
0:1:12.234,48.3878,2.15116,0,0.000885,0,0
0:1:12.432,48.5034,2.15806,0,0.000885,0,0
0:1:12.631,48.797,2.17185,0,0.000885,0,0
0:1:12.844,48.6191,2.15806,0,0.000885,0,0
0:1:13.042,48.797,2.17185,0,0.000885,0,0
0:1:13.248,48.9749,2.17874,0,0.000885,0,0
0:1:13.451,48.7392,2.16495,0,0.000885,0,0
0:1:13.649,48.9126,2.17185,0,0.000885,0,0
0:1:13.842,48.797,2.17185,0,0.000885,0,0
0:1:14.049,49.0906,2.17874,0,0.000885,0,0
0:1:14.245,49.2685,2.19253,0,0.000885,0,0
0:1:14.435,49.0906,2.17874,0,0.000885,0,0
0:1:14.633,49.3263,2.19253,0,0.000885,0,0
0:1:14.837,49.6199,2.20632,0,0.000885,0,0
0:1:15.045,49.0327,2.17874,0,0.000885,0,0
0:1:15.243,49.1484,2.18564,0,0.000885,0,0
0:1:15.445,49.0327,2.17874,0,0.000885,0,0
0:1:15.643,48.9126,2.17185,0,0.000885,0,0
0:1:15.841,48.8548,2.17185,0,0.000885,0,0
0:1:16.042,49.5576,2.19943,0,0.000885,0,0
0:1:16.252,49.3263,2.19253,0,0.000885,0,0
0:1:16.450,49.2062,2.18564,0,0.000885,0,0
0:1:16.647,49.2685,2.19253,0,0.000885,0,0
0:1:16.846,49.6199,2.20632,0,0.000885,0,0
0:1:17.044,49.6777,2.20632,0,0.000885,0,0
0:1:17.242,49.3842,2.19253,0,0.000885,0,0
0:1:17.446,49.4998,2.19943,0,0.000885,0,0
0:1:17.642,49.9135,2.22011,0,0.000885,0,0
0:1:17.849,49.7934,2.21322,0,0.000885,0,0
0:1:18.042,49.5576,2.19943,0,0.000885,0,0
0:1:18.237,49.6777,2.20632,0,0.000885,0,0
0:1:18.444,50.0291,2.22011,0,0.000885,0,0
0:1:18.637,50.0291,2.22011,0,0.000885,0,0
0:1:18.834,49.9713,2.22011,0,0.000885,0,0
0:1:19.036,49.7934,2.21322,0,0.000885,0,0
0:1:19.234,49.9135,2.22011,0,0.000885,0,0
0:1:19.430,49.9713,2.22011,0,0.000885,0,0
0:1:19.633,50.087,2.22701,0,0.000885,0,0
0:1:19.831,50.3227,2.2339,0,0.000885,0,0
0:1:20.045,50.2649,2.2339,0,0.000885,0,0
0:1:20.242,50.3227,2.2339,0,0.000885,0,0
0:1:20.437,50.4962,2.24769,0,0.000885,0,0
0:1:20.651,50.8521,2.26148,0,0.000885,0,0
0:1:20.851,50.9099,2.26148,0,0.000885,0,0
0:1:21.050,50.7898,2.25459,0,0.000885,0,0
0:1:21.251,51.0255,2.26838,0,0.000885,0,0
0:1:21.450,50.6163,2.24769,0,0.000885,0,0
0:1:21.649,50.6163,2.24769,0,0.000885,0,0
0:1:21.847,50.7898,2.25459,0,0.000885,0,0
0:1:22.046,50.8521,2.26148,0,0.000885,0,0
0:1:22.243,51.0834,2.26838,0,0.000885,0,0
0:1:22.438,51.0834,2.26838,0,0.000885,0,0
0:1:22.643,51.0834,2.26838,0,0.000885,0,0
0:1:22.838,51.0834,2.26838,0,0.000885,0,0
0:1:23.046,51.2035,2.27527,0,0.000885,0,0
0:1:23.249,51.2613,2.27527,0,0.000885,0,0
0:1:23.447,51.1412,2.27527,0,0.000885,0,0
0:1:23.637,51.377,2.28216,0,0.000885,0,0
0:1:23.834,51.2035,2.27527,0,0.000885,0,0
0:1:24.043,51.377,2.28216,0,0.000885,0,0
0:1:24.245,51.3191,2.28216,0,0.000885,0,0
0:1:24.443,51.3191,2.28216,0,0.000885,0,0
0:1:24.646,51.6127,2.29595,0,0.000885,0,0
0:1:24.845,51.5549,2.28906,0,0.000885,0,0
0:1:25.051,51.6705,2.29595,0,0.000885,0,0
0:1:25.242,51.6127,2.29595,0,0.000885,0,0
0:1:25.439,51.5549,2.28906,0,0.000885,0,0
0:1:25.645,51.3191,2.28216,0,0.000885,0,0
0:1:25.850,51.4348,2.28906,0,0.000885,0,0
0:1:26.049,51.6127,2.29595,0,0.000885,0,0
0:1:26.249,51.4971,2.28906,0,0.000885,0,0
0:1:26.448,51.7284,2.29595,0,0.000885,0,0
0:1:26.647,51.4348,2.28906,0,0.000885,0,0
0:1:26.847,51.4971,2.28906,0,0.000885,0,0
0:1:27.043,51.4348,2.28906,0,0.000885,0,0
0:1:27.243,51.3191,2.28216,0,0.000885,0,0
0:1:27.437,51.6127,2.29595,0,0.000885,0,0
0:1:27.645,51.5549,2.28906,0,0.000885,0,0
0:1:27.847,51.4348,2.28906,0,0.000885,0,0
0:1:28.047,51.0255,2.26838,0,0.000885,0,0
0:1:28.250,51.4348,2.28906,0,0.000885,0,0
0:1:28.447,51.377,2.28216,0,0.000885,0,0
0:1:28.643,51.0255,2.26838,0,0.000885,0,0
0:1:28.845,51.1412,2.27527,0,0.000885,0,0
0:1:29.045,51.4971,2.28906,0,0.000885,0,0
0:1:29.248,51.377,2.28216,0,0.000885,0,0
0:1:29.440,51.4348,2.28906,0,0.000885,0,0
0:1:29.638,51.2613,2.27527,0,0.000885,0,0
0:1:29.852,51.2613,2.27527,0,0.000885,0,0
0:1:30.050,51.3191,2.28216,0,0.000885,0,0
0:1:30.246,51.0255,2.26838,0,0.000885,0,0
0:1:30.448,51.2613,2.27527,0,0.000885,0,0
0:1:30.647,51.2035,2.27527,0,0.000885,0,0
0:1:30.846,51.0255,2.26838,0,0.000885,0,0
0:1:31.046,50.8521,2.26148,0,0.000885,0,0
0:1:31.245,50.9099,2.26148,0,0.000885,0,0
0:1:31.444,50.9677,2.26838,0,0.000885,0,0
0:1:31.639,51.0255,2.26838,0,0.000885,0,0
0:1:31.838,51.3191,2.28216,0,0.000885,0,0
0:1:32.035,51.3191,2.28216,0,0.000885,0,0
0:1:32.234,51.4348,2.28906,0,0.000885,0,0
0:1:32.447,51.5549,2.28906,0,0.000885,0,0
0:1:32.646,51.9641,2.30974,0,0.000885,0,0
0:1:32.849,51.8485,2.30285,0,0.000885,0,0
0:1:33.045,51.6127,2.29595,0,0.000885,0,0
0:1:33.243,51.3191,2.28216,0,0.000885,0,0
0:1:33.445,51.3191,2.28216,0,0.000885,0,0
0:1:33.643,51.6127,2.29595,0,0.000885,0,0
0:1:33.848,51.6127,2.29595,0,0.000885,0,0
0:1:34.050,51.6127,2.29595,0,0.000885,0,0
0:1:34.249,51.6705,2.29595,0,0.000885,0,0
0:1:34.453,51.7284,2.29595,0,0.000885,0,0
0:1:34.648,51.7284,2.29595,0,0.000885,0,0
0:1:34.846,51.7862,2.30285,0,0.000885,0,0
0:1:35.048,51.7862,2.30285,0,0.000885,0,0
0:1:35.246,52.022,2.30974,0,0.000885,0,0
0:1:35.451,52.0798,2.31664,0,0.000885,0,0
0:1:35.647,52.2577,2.32353,0,0.000885,0,0
0:1:35.844,52.022,2.30974,0,0.000885,0,0
0:1:36.044,52.0798,2.31664,0,0.000885,0,0
0:1:36.240,52.0798,2.31664,0,0.000885,0,0
0:1:36.440,52.3734,2.33043,0,0.000885,0,0
0:1:36.638,52.3734,2.33043,0,0.000885,0,0
0:1:36.836,52.3155,2.32353,0,0.000885,0,0
0:1:37.036,52.3734,2.33043,0,0.000885,0,0
0:1:37.234,52.3155,2.32353,0,0.000885,0,0
0:1:37.429,52.1999,2.31664,0,0.000885,0,0
0:1:37.632,52.4356,2.33043,0,0.000885,0,0
0:1:37.830,52.5513,2.33732,0,0.000885,0,0
0:1:38.045,52.6091,2.33732,0,0.000885,0,0
0:1:38.251,52.7248,2.34422,0,0.000885,0,0
0:1:38.448,52.6091,2.33732,0,0.000885,0,0
0:1:38.651,52.5513,2.33732,0,0.000885,0,0
0:1:38.850,52.7248,2.34422,0,0.000885,0,0
0:1:39.054,52.5513,2.33732,0,0.000885,0,0
0:1:39.248,52.5513,2.33732,0,0.000885,0,0
0:1:39.446,52.4356,2.33043,0,0.000885,0,0
0:1:39.648,52.7248,2.34422,0,0.000885,0,0
0:1:39.846,52.5513,2.33732,0,0.000885,0,0
0:1:40.039,52.3155,2.32353,0,0.000885,0,0
0:1:40.245,52.6091,2.33732,0,0.000885,0,0
0:1:40.440,52.6669,2.34422,0,0.000885,0,0
0:1:40.646,52.4935,2.33043,0,0.000885,0,0
0:1:40.840,52.4935,2.33043,0,0.000885,0,0
0:1:41.038,52.7248,2.34422,0,0.000885,0,0
0:1:41.238,53.0184,2.35801,0,0.000885,0,0
0:1:41.438,52.787,2.34422,0,0.000885,0,0
0:1:41.636,52.787,2.34422,0,0.000885,0,0
0:1:41.834,52.8449,2.35111,0,0.000885,0,0
0:1:42.033,52.6669,2.34422,0,0.000885,0,0
0:1:42.230,52.4935,2.33043,0,0.000885,0,0
0:1:42.430,52.4356,2.33043,0,0.000885,0,0
0:1:42.633,52.2577,2.32353,0,0.000885,0,0
0:1:42.827,52.3734,2.33043,0,0.000885,0,0
0:1:43.026,52.4356,2.33043,0,0.000885,0,0
0:1:43.236,52.5513,2.33732,0,0.000885,0,0
0:1:43.435,52.3734,2.33043,0,0.000885,0,0
0:1:43.639,52.2577,2.32353,0,0.000885,0,0
0:1:43.846,52.6669,2.34422,0,0.000885,0,0
0:1:44.045,52.787,2.34422,0,0.000885,0,0
0:1:44.247,52.9027,2.35111,0,0.000885,0,0
0:1:44.441,52.6669,2.34422,0,0.000885,0,0
0:1:44.637,52.7248,2.34422,0,0.000885,0,0
0:1:44.840,52.9605,2.35111,0,0.000885,0,0
0:1:45.039,52.8449,2.35111,0,0.000885,0,0
0:1:45.245,52.9605,2.35111,0,0.000885,0,0
0:1:45.438,52.787,2.34422,0,0.000885,0,0
0:1:45.647,52.9605,2.35111,0,0.000885,0,0
0:1:45.850,52.9027,2.35111,0,0.000885,0,0
0:1:46.048,52.787,2.34422,0,0.000885,0,0
0:1:46.246,52.7248,2.34422,0,0.000885,0,0
0:1:46.447,53.0184,2.35801,0,0.000885,0,0
0:1:46.646,52.9027,2.35111,0,0.000885,0,0
0:1:46.841,52.9605,2.35111,0,0.000885,0,0
0:1:47.041,53.0184,2.35801,0,0.000885,0,0
0:1:47.250,52.787,2.34422,0,0.000885,0,0
0:1:47.448,52.6669,2.34422,0,0.000885,0,0
0:1:47.647,52.9027,2.35111,0,0.000885,0,0
0:1:47.847,52.6669,2.34422,0,0.000885,0,0
0:1:48.047,52.5513,2.33732,0,0.000885,0,0
0:1:48.241,52.787,2.34422,0,0.000885,0,0
0:1:48.447,52.6669,2.34422,0,0.000885,0,0
0:1:48.646,52.4935,2.33043,0,0.000885,0,0
0:1:48.847,52.6669,2.34422,0,0.000885,0,0
0:1:49.042,52.787,2.34422,0,0.000885,0,0
0:1:49.250,52.5513,2.33732,0,0.000885,0,0
0:1:49.442,52.5513,2.33732,0,0.000885,0,0
0:1:49.640,52.4356,2.33043,0,0.000885,0,0
0:1:49.842,52.8449,2.35111,0,0.000885,0,0
0:1:50.039,52.9027,2.35111,0,0.000885,0,0
0:1:50.237,53.0806,2.35801,0,0.000885,0,0
0:1:50.440,52.9605,2.35111,0,0.000885,0,0
0:1:50.638,53.2541,2.3649,0,0.000885,0,0
0:1:50.837,53.0184,2.35801,0,0.000885,0,0
0:1:51.038,52.9027,2.35111,0,0.000885,0,0
0:1:51.238,53.0184,2.35801,0,0.000885,0,0
0:1:51.435,52.7248,2.34422,0,0.000885,0,0
0:1:51.634,53.1385,2.3649,0,0.000885,0,0
0:1:51.833,52.9605,2.35111,0,0.000885,0,0
0:1:52.031,52.6091,2.33732,0,0.000885,0,0
0:1:52.236,52.6091,2.33732,0,0.000885,0,0
0:1:52.452,52.6091,2.33732,0,0.000885,0,0
0:1:52.651,52.6669,2.34422,0,0.000885,0,0
0:1:52.854,52.3155,2.32353,0,0.000885,0,0
0:1:53.050,52.3155,2.32353,0,0.000885,0,0
0:1:53.247,52.4356,2.33043,0,0.000885,0,0
0:1:53.448,52.2577,2.32353,0,0.000885,0,0
0:1:53.648,52.6669,2.34422,0,0.000885,0,0
0:1:53.852,52.9605,2.35111,0,0.000885,0,0
0:1:54.046,52.787,2.34422,0,0.000885,0,0
0:1:54.241,52.4356,2.33043,0,0.000885,0,0
0:1:54.447,52.3734,2.33043,0,0.000885,0,0
0:1:54.646,52.4356,2.33043,0,0.000885,0,0
0:1:54.849,52.4935,2.33043,0,0.000885,0,0
0:1:55.053,52.3734,2.33043,0,0.000885,0,0
0:1:55.251,52.787,2.34422,0,0.000885,0,0
0:1:55.442,52.4935,2.33043,0,0.000885,0,0
0:1:55.639,52.7248,2.34422,0,0.000885,0,0
0:1:55.839,52.7248,2.34422,0,0.000885,0,0
0:1:56.038,52.9605,2.35111,0,0.000885,0,0
0:1:56.238,52.6669,2.34422,0,0.000885,0,0
0:1:56.436,52.9027,2.35111,0,0.000885,0,0
0:1:56.634,52.8449,2.35111,0,0.000885,0,0
0:1:56.833,53.0806,2.35801,0,0.000885,0,0
0:1:57.031,52.9027,2.35111,0,0.000885,0,0
0:1:57.230,53.0184,2.35801,0,0.000885,0,0
0:1:57.432,53.1963,2.3649,0,0.000885,0,0
0:1:57.638,53.0806,2.35801,0,0.000885,0,0
0:1:57.835,52.4356,2.33043,0,0.000885,0,0
0:1:58.038,52.3734,2.33043,0,0.000885,0,0
0:1:58.236,52.7248,2.34422,0,0.000885,0,0
0:1:58.449,52.8449,2.35111,0,0.000885,0,0
0:1:58.643,52.6091,2.33732,0,0.000885,0,0
0:1:58.841,52.787,2.34422,0,0.000885,0,0
0:1:59.042,52.6091,2.33732,0,0.000885,0,0
0:1:59.241,52.7248,2.34422,0,0.000885,0,0
0:1:59.447,52.4356,2.33043,0,0.000885,0,0
0:1:59.652,52.3734,2.33043,0,0.000885,0,0
0:1:59.850,52.2577,2.32353,0,0.000885,0,0
0:2:0.040,52.1999,2.31664,0,0.000885,0,0
0:2:0.238,52.4356,2.33043,0,0.000885,0,0
0:2:0.441,52.4935,2.33043,0,0.000885,0,0
0:2:0.636,52.4356,2.33043,0,0.000885,0,0
0:2:0.835,52.2577,2.32353,0,0.000885,0,0
0:2:1.035,52.2577,2.32353,0,0.000885,0,0
0:2:1.234,51.9641,2.30974,0,0.000885,0,0
0:2:1.434,51.7284,2.29595,0,0.000885,0,0
0:2:1.632,51.6127,2.29595,0,0.000885,0,0
0:2:1.830,51.7862,2.30285,0,0.000885,0,0
0:2:2.028,51.9641,2.30974,0,0.000885,0,0
0:2:2.226,51.6127,2.29595,0,0.000885,0,0
0:2:2.432,51.4348,2.28906,0,0.000885,0,0
0:2:2.636,51.4971,2.28906,0,0.000885,0,0
0:2:2.834,51.3191,2.28216,0,0.000885,0,0
0:2:3.037,51.4971,2.28906,0,0.000885,0,0
0:2:3.234,51.2613,2.27527,0,0.000885,0,0
0:2:3.430,51.2035,2.27527,0,0.000885,0,0
0:2:3.633,51.4971,2.28906,0,0.000885,0,0
0:2:3.831,51.377,2.28216,0,0.000885,0,0
0:2:4.043,51.4971,2.28906,0,0.000885,0,0
0:2:4.241,51.0834,2.26838,0,0.000885,0,0
0:2:4.447,51.0834,2.26838,0,0.000885,0,0
0:2:4.651,51.2613,2.27527,0,0.000885,0,0
0:2:4.849,51.2613,2.27527,0,0.000885,0,0
0:2:5.052,50.9677,2.26838,0,0.000885,0,0
0:2:5.249,51.0255,2.26838,0,0.000885,0,0
0:2:5.454,51.0834,2.26838,0,0.000885,0,0
0:2:5.648,51.3191,2.28216,0,0.000885,0,0
0:2:5.847,51.1412,2.27527,0,0.000885,0,0
0:2:6.043,50.9677,2.26838,0,0.000885,0,0
0:2:6.243,50.9677,2.26838,0,0.000885,0,0
0:2:6.443,51.1412,2.27527,0,0.000885,0,0
0:2:6.640,50.9099,2.26148,0,0.000885,0,0
0:2:6.838,51.0834,2.26838,0,0.000885,0,0
0:2:7.036,50.9677,2.26838,0,0.000885,0,0
0:2:7.234,50.6163,2.24769,0,0.000885,0,0
0:2:7.434,50.6163,2.24769,0,0.000885,0,0
0:2:7.644,50.3806,2.2408,0,0.000885,0,0
0:2:7.843,49.9135,2.22011,0,0.000885,0,0
0:2:8.049,49.8512,2.21322,0,0.000885,0,0
0:2:8.252,49.1484,2.18564,0,0.000885,0,0
0:2:8.451,48.797,2.17185,0,0.000885,0,0
0:2:8.653,48.0942,2.13737,0,0.000885,0,0
0:2:8.851,48.152,2.13737,0,0.000885,0,0
0:2:9.054,47.9741,2.13048,0,0.000885,0,0
0:2:9.250,47.6227,2.11669,0,0.000885,0,0
0:2:9.448,47.4492,2.1098,0,0.000885,0,0
0:2:9.650,47.8006,2.12359,0,0.000885,0,0
0:2:9.848,47.3914,2.1029,0,0.000885,0,0
0:2:10.041,47.507,2.1098,0,0.000885,0,0
0:2:10.247,47.6849,2.11669,0,0.000885,0,0
0:2:10.443,47.6849,2.11669,0,0.000885,0,0
0:2:10.647,47.6227,2.11669,0,0.000885,0,0
0:2:10.842,47.507,2.1098,0,0.000885,0,0
0:2:11.041,47.3914,2.1029,0,0.000885,0,0
0:2:11.242,47.2713,2.1029,0,0.000885,0,0
0:2:11.443,47.2713,2.1029,0,0.000885,0,0
0:2:11.640,47.6849,2.11669,0,0.000885,0,0
0:2:11.839,47.5648,2.11669,0,0.000885,0,0
0:2:12.036,47.2713,2.1029,0,0.000885,0,0
0:2:12.234,47.4492,2.1098,0,0.000885,0,0
0:2:12.433,47.3914,2.1029,0,0.000885,0,0
0:2:12.636,47.6227,2.11669,0,0.000885,0,0
0:2:12.843,47.3291,2.1029,0,0.000885,0,0
0:2:13.040,47.3914,2.1029,0,0.000885,0,0
0:2:13.242,47.2713,2.1029,0,0.000885,0,0
0:2:13.440,47.3291,2.1029,0,0.000885,0,0
0:2:13.647,47.2713,2.1029,0,0.000885,0,0
0:2:13.852,47.1556,2.09601,0,0.000885,0,0
0:2:14.050,47.2134,2.09601,0,0.000885,0,0
0:2:14.251,47.3914,2.1029,0,0.000885,0,0
0:2:14.450,47.1556,2.09601,0,0.000885,0,0
0:2:14.643,47.2134,2.09601,0,0.000885,0,0
0:2:14.838,47.6227,2.11669,0,0.000885,0,0
0:2:15.036,47.0978,2.09601,0,0.000885,0,0
0:2:15.249,47.2713,2.1029,0,0.000885,0,0
0:2:15.444,47.3291,2.1029,0,0.000885,0,0
0:2:15.641,47.2713,2.1029,0,0.000885,0,0
0:2:15.843,47.3291,2.1029,0,0.000885,0,0
0:2:16.043,47.3291,2.1029,0,0.000885,0,0
0:2:16.242,47.507,2.1098,0,0.000885,0,0
0:2:16.441,47.8584,2.13048,0,0.000885,0,0
0:2:16.641,47.4492,2.1098,0,0.000885,0,0
0:2:16.838,47.5648,2.11669,0,0.000885,0,0
0:2:17.038,47.507,2.1098,0,0.000885,0,0
0:2:17.237,47.507,2.1098,0,0.000885,0,0
0:2:17.434,47.5648,2.11669,0,0.000885,0,0
0:2:17.641,47.4492,2.1098,0,0.000885,0,0
0:2:17.855,47.5648,2.11669,0,0.000885,0,0
0:2:18.053,47.5648,2.11669,0,0.000885,0,0
0:2:18.256,47.507,2.1098,0,0.000885,0,0
0:2:18.451,47.2713,2.1029,0,0.000885,0,0
0:2:18.649,47.4492,2.1098,0,0.000885,0,0
0:2:18.851,47.3291,2.1029,0,0.000885,0,0
0:2:19.051,47.4492,2.1098,0,0.000885,0,0
0:2:19.255,47.0355,2.08911,0,0.000885,0,0
0:2:19.448,46.862,2.08222,0,0.000885,0,0
0:2:19.644,47.2134,2.09601,0,0.000885,0,0
0:2:19.848,47.2713,2.1029,0,0.000885,0,0
0:2:20.043,47.3291,2.1029,0,0.000885,0,0
0:2:20.240,47.1556,2.09601,0,0.000885,0,0
0:2:20.454,47.0355,2.08911,0,0.000885,0,0
0:2:20.652,46.6841,2.07532,0,0.000885,0,0
0:2:20.851,46.8042,2.08222,0,0.000885,0,0
0:2:21.051,46.8042,2.08222,0,0.000885,0,0
0:2:21.251,47.0355,2.08911,0,0.000885,0,0
0:2:21.449,46.6263,2.07532,0,0.000885,0,0
0:2:21.644,46.7464,2.07532,0,0.000885,0,0
0:2:21.843,47.0978,2.09601,0,0.000885,0,0
0:2:22.040,47.2713,2.1029,0,0.000885,0,0
0:2:22.238,47.1556,2.09601,0,0.000885,0,0
0:2:22.453,47.0355,2.08911,0,0.000885,0,0
0:2:22.651,46.8042,2.08222,0,0.000885,0,0
0:2:22.844,47.0978,2.09601,0,0.000885,0,0
0:2:23.050,46.9198,2.08222,0,0.000885,0,0
0:2:23.248,46.8042,2.08222,0,0.000885,0,0
0:2:23.452,46.5684,2.06843,0,0.000885,0,0
0:2:23.657,46.5684,2.06843,0,0.000885,0,0
0:2:23.853,46.4528,2.06153,0,0.000885,0,0
0:2:24.055,46.5106,2.06843,0,0.000885,0,0
0:2:24.253,46.4528,2.06153,0,0.000885,0,0
0:2:24.449,46.4528,2.06153,0,0.000885,0,0
0:2:24.652,46.217,2.05464,0,0.000885,0,0
0:2:24.851,46.8042,2.08222,0,0.000885,0,0
0:2:25.052,46.5684,2.06843,0,0.000885,0,0
0:2:25.249,46.4528,2.06153,0,0.000885,0,0
0:2:25.455,46.6841,2.07532,0,0.000885,0,0
0:2:25.649,46.5106,2.06843,0,0.000885,0,0
0:2:25.844,46.7464,2.07532,0,0.000885,0,0
0:2:26.044,46.5106,2.06843,0,0.000885,0,0
0:2:26.244,46.4528,2.06153,0,0.000885,0,0
0:2:26.443,46.5106,2.06843,0,0.000885,0,0
0:2:26.642,46.3905,2.06153,0,0.000885,0,0
0:2:26.840,46.6263,2.07532,0,0.000885,0,0
0:2:27.038,46.5684,2.06843,0,0.000885,0,0
0:2:27.235,46.217,2.05464,0,0.000885,0,0
0:2:27.434,45.8656,2.04085,0,0.000885,0,0
0:2:27.635,46.217,2.05464,0,0.000885,0,0
0:2:27.833,46.3905,2.06153,0,0.000885,0,0
0:2:28.038,46.1592,2.05464,0,0.000885,0,0
0:2:28.242,45.9813,2.04085,0,0.000885,0,0
0:2:28.441,45.8078,2.03395,0,0.000885,0,0
0:2:28.655,45.8656,2.04085,0,0.000885,0,0
0:2:28.852,45.8656,2.04085,0,0.000885,0,0
0:2:29.057,45.9813,2.04085,0,0.000885,0,0
0:2:29.251,46.1014,2.04774,0,0.000885,0,0
0:2:29.445,45.9234,2.04085,0,0.000885,0,0
0:2:29.651,45.9234,2.04085,0,0.000885,0,0
0:2:29.846,45.9234,2.04085,0,0.000885,0,0
0:2:30.054,46.0391,2.04774,0,0.000885,0,0
0:2:30.244,46.1592,2.05464,0,0.000885,0,0
0:2:30.442,46.0391,2.04774,0,0.000885,0,0
0:2:30.646,46.1014,2.04774,0,0.000885,0,0
0:2:30.855,45.9813,2.04085,0,0.000885,0,0
0:2:31.052,46.0391,2.04774,0,0.000885,0,0
0:2:31.253,46.0391,2.04774,0,0.000885,0,0
0:2:31.452,46.0391,2.04774,0,0.000885,0,0
0:2:31.651,46.1014,2.04774,0,0.000885,0,0
0:2:31.850,45.9813,2.04085,0,0.000885,0,0
0:2:32.046,46.1014,2.04774,0,0.000885,0,0
0:2:32.243,46.3327,2.06153,0,0.000885,0,0
0:2:32.441,46.4528,2.06153,0,0.000885,0,0
0:2:32.645,46.4528,2.06153,0,0.000885,0,0
0:2:32.840,46.1014,2.04774,0,0.000885,0,0
0:2:33.040,45.9234,2.04085,0,0.000885,0,0
0:2:33.242,45.9813,2.04085,0,0.000885,0,0
0:2:33.438,46.1592,2.05464,0,0.000885,0,0
0:2:33.635,45.9813,2.04085,0,0.000885,0,0
0:2:33.838,45.8078,2.03395,0,0.000885,0,0
0:2:34.036,45.8078,2.03395,0,0.000885,0,0
0:2:34.251,45.8078,2.03395,0,0.000885,0,0
0:2:34.457,45.7455,2.03395,0,0.000885,0,0
0:2:34.654,45.4519,2.02016,0,0.000885,0,0
0:2:34.856,45.5142,2.02016,0,0.000885,0,0
0:2:35.055,45.7455,2.03395,0,0.000885,0,0
0:2:35.258,45.6299,2.02706,0,0.000885,0,0
0:2:35.452,44.1041,1.95811,0,0.000885,0,0
0:2:35.652,38.7663,1.72369,0,0.000885,0,0
0:2:35.851,36.7734,1.63406,0,0.000885,0,0
0:2:36.051,36.9514,1.64095,0,0.000885,0,0
0:2:36.251,37.1827,1.65474,0,0.000885,0,0
0:2:36.445,37.1827,1.65474,0,0.000885,0,0
0:2:36.644,36.8313,1.63406,0,0.000885,0,0
0:2:36.841,37.067,1.64785,0,0.000885,0,0
0:2:37.040,37.3606,1.66164,0,0.000885,0,0
0:2:37.238,37.3028,1.65474,0,0.000885,0,0
0:2:37.451,37.3606,1.66164,0,0.000885,0,0
0:2:37.651,37.4184,1.66164,0,0.000885,0,0
0:2:37.854,37.067,1.64785,0,0.000885,0,0
0:2:38.059,37.1827,1.65474,0,0.000885,0,0
0:2:38.257,37.1827,1.65474,0,0.000885,0,0
0:2:38.459,37.3606,1.66164,0,0.000885,0,0
0:2:38.657,37.3606,1.66164,0,0.000885,0,0
0:2:38.851,37.3606,1.66164,0,0.000885,0,0
0:2:39.056,37.6542,1.67543,0,0.000885,0,0
0:2:39.254,37.1827,1.65474,0,0.000885,0,0
0:2:39.456,37.4184,1.66164,0,0.000885,0,0
0:2:39.653,37.1827,1.65474,0,0.000885,0,0
0:2:39.857,37.4184,1.66164,0,0.000885,0,0
0:2:40.052,37.4184,1.66164,0,0.000885,0,0
0:2:40.258,37.3028,1.65474,0,0.000885,0,0
0:2:40.453,37.5964,1.66853,0,0.000885,0,0
0:2:40.647,37.4763,1.66853,0,0.000885,0,0
0:2:40.844,37.5385,1.66853,0,0.000885,0,0
0:2:41.045,37.245,1.65474,0,0.000885,0,0
0:2:41.245,37.1827,1.65474,0,0.000885,0,0
0:2:41.442,37.3606,1.66164,0,0.000885,0,0
0:2:41.641,37.7698,1.67543,0,0.000885,0,0
0:2:41.840,37.3606,1.66164,0,0.000885,0,0
0:2:42.037,37.4763,1.66853,0,0.000885,0,0
0:2:42.236,37.4184,1.66164,0,0.000885,0,0
0:2:42.441,37.4184,1.66164,0,0.000885,0,0
0:2:42.644,37.4184,1.66164,0,0.000885,0,0
0:2:42.842,37.712,1.67543,0,0.000885,0,0
0:2:43.056,37.5964,1.66853,0,0.000885,0,0
0:2:43.253,38.0634,1.68922,0,0.000885,0,0
0:2:43.447,37.6542,1.67543,0,0.000885,0,0
0:2:43.653,37.6542,1.67543,0,0.000885,0,0
0:2:43.851,37.7698,1.67543,0,0.000885,0,0
0:2:44.053,37.5964,1.66853,0,0.000885,0,0
0:2:44.247,37.5964,1.66853,0,0.000885,0,0
0:2:44.445,37.6542,1.67543,0,0.000885,0,0
0:2:44.647,37.712,1.67543,0,0.000885,0,0
0:2:44.845,37.6542,1.67543,0,0.000885,0,0
0:2:45.051,37.4184,1.66164,0,0.000885,0,0
0:2:45.255,37.5385,1.66853,0,0.000885,0,0
0:2:45.453,37.5964,1.66853,0,0.000885,0,0
0:2:45.655,37.3606,1.66164,0,0.000885,0,0
0:2:45.853,37.4763,1.66853,0,0.000885,0,0
0:2:46.053,37.1827,1.65474,0,0.000885,0,0
0:2:46.253,37.1827,1.65474,0,0.000885,0,0
0:2:46.452,37.4184,1.66164,0,0.000885,0,0
0:2:46.648,37.5964,1.66853,0,0.000885,0,0
0:2:46.847,37.5385,1.66853,0,0.000885,0,0
0:2:47.045,37.3028,1.65474,0,0.000885,0,0
0:2:47.243,37.245,1.65474,0,0.000885,0,0
0:2:47.440,37.245,1.65474,0,0.000885,0,0
0:2:47.655,37.712,1.67543,0,0.000885,0,0
0:2:47.853,37.3028,1.65474,0,0.000885,0,0
0:2:48.048,37.4763,1.66853,0,0.000885,0,0
0:2:48.252,37.245,1.65474,0,0.000885,0,0
0:2:48.448,37.3606,1.66164,0,0.000885,0,0
0:2:48.654,37.3028,1.65474,0,0.000885,0,0
0:2:48.859,37.3606,1.66164,0,0.000885,0,0
0:2:49.057,37.3028,1.65474,0,0.000885,0,0
0:2:49.259,37.0092,1.64785,0,0.000885,0,0
0:2:49.456,36.8891,1.64095,0,0.000885,0,0
0:2:49.652,37.1249,1.64785,0,0.000885,0,0
0:2:49.857,37.067,1.64785,0,0.000885,0,0
0:2:50.056,37.0092,1.64785,0,0.000885,0,0
0:2:50.257,36.8313,1.63406,0,0.000885,0,0
0:2:50.454,37.1249,1.64785,0,0.000885,0,0
0:2:50.659,36.9514,1.64095,0,0.000885,0,0
0:2:50.855,37.0092,1.64785,0,0.000885,0,0
0:2:51.054,37.0092,1.64785,0,0.000885,0,0
0:2:51.253,36.6578,1.62716,0,0.000885,0,0
0:2:51.452,36.8891,1.64095,0,0.000885,0,0
0:2:51.652,37.0092,1.64785,0,0.000885,0,0
0:2:51.852,36.8313,1.63406,0,0.000885,0,0
0:2:52.045,36.8313,1.63406,0,0.000885,0,0
0:2:52.244,36.8891,1.64095,0,0.000885,0,0
0:2:52.304,36.8891,1.64095,0,0.000885,0,0