File: DataFile2021-07-28_092346.csv
Test ID:,Date Tested:,Time:,Test Type:,Diameter Avg. (mm):,Cyl. Corr. Factor:,Height (mm):,Age (days):,Weight (kN):,Break Type:,Ramp Rate (MPa/s):,Load at Break (kN):,Stress at Break (MPa):
12,7/28/2021,09:23,Cylinder,150,1,300,0,13.69,3,0.35,1763.5,99.79
Sample Time,Load (kN),Stress (MPa),Long. Strain,Trans. Strain,Chan1 Deflection (mm),Chan2 Deflection (mm)
0:0:11.684,5.45352,0.310264,0,0.000885,0,0
0:0:11.984,7.97566,0.448159,0,0.000885,0,0
0:0:12.281,9.14999,0.517107,0,0.000885,0,0
0:0:12.582,12.0235,0.682581,0,0.000885,0,0
0:0:12.879,12.9043,0.730844,0,0.000885,0,0
0:0:13.177,13.785,0.779108,0,0.000885,0,0
0:0:13.478,14.9549,0.848055,0,0.000885,0,0
0:0:13.773,16.5385,0.937687,0,0.000885,0,0
0:0:14.075,19.3542,1.09627,0,0.000885,0,0
0:0:14.370,20.4084,1.15832,0,0.000885,0,0
0:0:14.672,22.4635,1.26864,0,0.000885,0,0
0:0:14.969,23.7535,1.34448,0,0.000885,0,0
0:0:15.267,26.7427,1.51685,0,0.000885,0,0
0:0:15.568,27.45,1.55132,0,0.000885,0,0
0:0:15.864,28.6821,1.62027,0,0.000885,0,0
0:0:16.165,30.4392,1.72369,0,0.000885,0,0
0:0:16.461,31.8493,1.79953,0,0.000885,0,0
0:0:16.760,33.6641,1.90295,0,0.000885,0,0
0:0:17.060,35.1899,1.99258,0,0.000885,0,0
0:0:17.364,36.6578,2.07532,0,0.000885,0,0
0:0:17.670,38.2414,2.16495,0,0.000885,0,0
0:0:17.974,40.5856,2.29595,0,0.000885,0,0
0:0:18.276,41.8756,2.3718,0,0.000885,0,0
0:0:18.579,43.7527,2.47522,0,0.000885,0,0
0:0:18.878,45.5142,2.57864,0,0.000885,0,0
0:0:19.180,47.2134,2.67517,0,0.000885,0,0
0:0:19.474,49.9713,2.82685,0,0.000885,0,0
0:0:19.775,51.6705,2.92338,0,0.000885,0,0
0:0:20.072,53.5477,3.0268,0,0.000885,0,0
0:0:20.371,55.367,3.13022,0,0.000885,0,0
0:0:20.670,57.5956,3.26122,0,0.000885,0,0
0:0:20.968,60.6426,3.43359,0,0.000885,0,0
0:0:21.270,62.5198,3.53701,0,0.000885,0,0
0:0:21.564,64.6327,3.65422,0,0.000885,0,0
0:0:21.864,66.7456,3.77833,0,0.000885,0,0
0:0:22.162,68.854,3.89554,0,0.000885,0,0
0:0:22.466,71.8477,4.06791,0,0.000885,0,0
0:0:22.772,74.3698,4.2058,0,0.000885,0,0
0:0:23.075,76.1269,4.30922,0,0.000885,0,0
0:0:23.378,78.2976,4.43333,0,0.000885,0,0
0:0:23.681,81.1133,4.59191,0,0.000885,0,0
0:0:23.979,83.0483,4.70222,0,0.000885,0,0
0:0:24.281,85.1034,4.81254,0,0.000885,0,0
0:0:24.577,86.6247,4.90217,0,0.000885,0,0
0:0:24.879,88.2082,4.9918,0,0.000885,0,0
0:0:25.175,89.3826,5.06075,0,0.000885,0,0
0:0:25.474,90.7927,5.13659,0,0.000885,0,0
0:0:25.772,91.7891,5.19175,0,0.000885,0,0
0:0:26.069,93.6084,5.29517,0,0.000885,0,0
0:0:26.372,95.8948,5.42617,0,0.000885,0,0
0:0:26.667,97.8297,5.53649,0,0.000885,0,0
0:0:26.970,99.8225,5.64681,0,0.000885,0,0
0:0:27.275,101.815,5.76402,0,0.000885,0,0
0:0:27.580,104.044,5.88812,0,0.000885,0,0
0:0:27.883,105.218,5.95707,0,0.000885,0,0
0:0:28.184,106.744,6.03981,0,0.000885,0,0
0:0:28.487,108.563,6.14323,0,0.000885,0,0
0:0:28.782,110.614,6.26044,0,0.000885,0,0
0:0:29.083,113.723,6.43281,0,0.000885,0,0
0:0:29.381,115.716,6.55002,0,0.000885,0,0
0:0:29.680,117.362,6.63965,0,0.000885,0,0
0:0:29.981,118.941,6.72928,0,0.000885,0,0
0:0:30.275,119.648,6.77065,0,0.000885,0,0
0:0:30.578,122.695,6.94302,0,0.000885,0,0
0:0:30.874,124.163,7.02576,0,0.000885,0,0
0:0:31.172,125.925,7.12918,0,0.000885,0,0
0:0:31.472,128.269,7.26018,0,0.000885,0,0
0:0:31.767,129.675,7.33602,0,0.000885,0,0
0:0:32.070,131.61,7.44634,0,0.000885,0,0
0:0:32.375,133.02,7.52907,0,0.000885,0,0
0:0:32.679,135.012,7.63939,0,0.000885,0,0
0:0:32.983,137.01,7.74971,0,0.000885,0,0
0:0:33.285,139.176,7.87381,0,0.000885,0,0
0:0:33.590,140.937,7.97723,0,0.000885,0,0
0:0:33.884,142.463,8.05997,0,0.000885,0,0
0:0:34.185,143.753,8.13581,0,0.000885,0,0
0:0:34.483,146.449,8.2875,0,0.000885,0,0
0:0:34.783,148.268,8.39092,0,0.000885,0,0
0:0:35.082,150.03,8.48745,0,0.000885,0,0
0:0:35.379,151.787,8.59087,0,0.000885,0,0
0:0:35.680,153.37,8.6805,0,0.000885,0,0
0:0:35.977,156.07,8.83218,0,0.000885,0,0
0:0:36.276,157.654,8.92182,0,0.000885,0,0
0:0:36.575,159.531,9.02524,0,0.000885,0,0
0:0:36.873,161.115,9.11487,0,0.000885,0,0
0:0:37.174,162.698,9.2045,0,0.000885,0,0
0:0:37.480,165.042,9.3424,0,0.000885,0,0
0:0:37.784,166.684,9.43203,0,0.000885,0,0
0:0:38.089,168.209,9.52166,0,0.000885,0,0
0:0:38.391,169.971,9.61819,0,0.000885,0,0
0:0:38.695,172.902,9.78366,0,0.000885,0,0
0:0:38.992,174.659,9.88708,0,0.000885,0,0
0:0:39.294,176.421,9.98361,0,0.000885,0,0
0:0:39.590,178.12,10.0801,0,0.000885,0,0
0:0:39.889,179.882,10.1767,0,0.000885,0,0
0:0:40.190,182.404,10.3215,0,0.000885,0,0
0:0:40.485,184.397,10.4318,0,0.000885,0,0
0:0:40.789,185.687,10.5076,0,0.000885,0,0
0:0:41.083,187.448,10.6041,0,0.000885,0,0
0:0:41.384,189.499,10.7213,0,0.000885,0,0
0:0:41.683,191.024,10.811,0,0.000885,0,0
0:0:41.979,192.43,10.8868,0,0.000885,0,0
0:0:42.277,194.192,10.9902,0,0.000885,0,0
0:0:42.580,195.717,11.073,0,0.000885,0,0
0:0:42.883,198.591,11.2385,0,0.000885,0,0
0:0:43.184,200.41,11.3419,0,0.000885,0,0
0:0:43.484,201.7,11.4108,0,0.000885,0,0
0:0:43.785,203.577,11.5211,0,0.000885,0,0
0:0:44.078,205.277,11.6177,0,0.000885,0,0
0:0:44.380,207.977,11.7694,0,0.000885,0,0
0:0:44.674,209.734,11.8659,0,0.000885,0,0
0:0:44.971,211.726,11.9831,0,0.000885,0,0
0:0:45.267,213.43,12.0796,0,0.000885,0,0
0:0:45.561,215.014,12.1692,0,0.000885,0,0
0:0:45.863,217.3,12.2934,0,0.000885,0,0
0:0:46.156,219.062,12.3968,0,0.000885,0,0
0:0:46.455,220.645,12.4864,0,0.000885,0,0
0:0:46.753,222.051,12.5622,0,0.000885,0,0
0:0:47.053,224.222,12.6864,0,0.000885,0,0
0:0:47.357,226.041,12.7898,0,0.000885,0,0
0:0:47.658,228.091,12.907,0,0.000885,0,0
0:0:47.959,229.439,12.9828,0,0.000885,0,0
0:0:48.260,230.907,13.0656,0,0.000885,0,0
0:0:48.556,233.896,13.2379,0,0.000885,0,0
0:0:48.856,235.013,13.3,0,0.000885,0,0
0:0:49.146,236.948,13.4103,0,0.000885,0,0
0:0:49.448,239.061,13.5275,0,0.000885,0,0
0:0:49.742,240.173,13.5896,0,0.000885,0,0
0:0:50.039,242.873,13.7413,0,0.000885,0,0
0:0:50.345,244.456,13.8309,0,0.000885,0,0
0:0:50.638,245.453,13.8929,0,0.000885,0,0
0:0:50.940,247.33,13.9964,0,0.000885,0,0
0:0:51.233,249.323,14.1067,0,0.000885,0,0
0:0:51.531,252.254,14.2721,0,0.000885,0,0
0:0:51.837,253.9,14.3687,0,0.000885,0,0
0:0:52.140,255.599,14.4652,0,0.000885,0,0
0:0:52.442,257.592,14.5755,0,0.000885,0,0
0:0:52.744,259.878,14.7065,0,0.000885,0,0
0:0:53.044,261.698,14.8099,0,0.000885,0,0
0:0:53.344,263.869,14.934,0,0.000885,0,0
0:0:53.650,264.985,14.9961,0,0.000885,0,0
0:0:53.949,267.151,15.1202,0,0.000885,0,0
0:0:54.241,269.38,15.2443,0,0.000885,0,0
0:0:54.540,270.496,15.3064,0,0.000885,0,0
0:0:54.836,272.316,15.4098,0,0.000885,0,0
0:0:55.132,274.015,15.5063,0,0.000885,0,0
0:0:55.431,275.247,15.5753,0,0.000885,0,0
0:0:55.725,277.654,15.7132,0,0.000885,0,0
0:0:56.024,279.82,15.8373,0,0.000885,0,0
0:0:56.320,280.994,15.8993,0,0.000885,0,0
0:0:56.616,282.636,15.9958,0,0.000885,0,0
0:0:56.913,284.806,16.1199,0,0.000885,0,0
0:0:57.216,286.861,16.2303,0,0.000885,0,0
0:0:57.519,288.445,16.3199,0,0.000885,0,0
0:0:57.820,290.322,16.4302,0,0.000885,0,0
0:0:58.121,292.137,16.5336,0,0.000885,0,0
0:0:58.424,294.192,16.6508,0,0.000885,0,0
0:0:58.719,296.069,16.7543,0,0.000885,0,0
0:0:59.018,298.062,16.8646,0,0.000885,0,0
0:0:59.312,299.646,16.9542,0,0.000885,0,0
0:0:59.611,301.287,17.0507,0,0.000885,0,0
0:0:59.907,303.28,17.1611,0,0.000885,0,0
0:1:0.203,305.508,17.2852,0,0.000885,0,0
0:1:0.503,306.625,17.3541,0,0.000885,0,0
0:1:0.796,308.675,17.4644,0,0.000885,0,0
0:1:1.096,310.201,17.5541,0,0.000885,0,0
0:1:1.390,311.963,17.6506,0,0.000885,0,0
0:1:1.689,314.6,17.8023,0,0.000885,0,0
0:1:1.984,316.478,17.9057,0,0.000885,0,0
0:1:2.287,318.47,18.0229,0,0.000885,0,0
0:1:2.591,319.645,18.0849,0,0.000885,0,0
0:1:2.893,322.225,18.2366,0,0.000885,0,0
0:1:3.194,324.044,18.3401,0,0.000885,0,0
0:1:3.495,325.921,18.4435,0,0.000885,0,0
0:1:3.790,327.563,18.5331,0,0.000885,0,0
0:1:4.089,329.031,18.6158,0,0.000885,0,0
0:1:4.392,331.784,18.7744,0,0.000885,0,0
0:1:4.691,333.368,18.8641,0,0.000885,0,0
0:1:4.987,334.72,18.9399,0,0.000885,0,0
0:1:5.281,336.828,19.064,0,0.000885,0,0
0:1:5.581,338.06,19.133,0,0.000885,0,0
0:1:5.875,340.876,19.2915,0,0.000885,0,0
0:1:6.174,342.695,19.395,0,0.000885,0,0
0:1:6.467,344.279,19.4846,0,0.000885,0,0
0:1:6.766,345.685,19.5604,0,0.000885,0,0
0:1:7.063,347.21,19.6501,0,0.000885,0,0
0:1:7.366,349.848,19.7948,0,0.000885,0,0
0:1:7.668,351.494,19.8914,0,0.000885,0,0
0:1:7.969,352.726,19.9603,0,0.000885,0,0
0:1:8.269,354.835,20.0775,0,0.000885,0,0
0:1:8.572,357.357,20.2223,0,0.000885,0,0
0:1:8.866,359.176,20.3257,0,0.000885,0,0
0:1:9.167,360.875,20.4223,0,0.000885,0,0
0:1:9.460,362.343,20.505,0,0.000885,0,0
0:1:9.757,364.042,20.6015,0,0.000885,0,0
0:1:10.055,365.92,20.705,0,0.000885,0,0
0:1:10.351,368.268,20.8429,0,0.000885,0,0
0:1:10.650,370.145,20.9463,0,0.000885,0,0
0:1:10.952,371.902,21.0428,0,0.000885,0,0
0:1:11.253,373.486,21.1324,0,0.000885,0,0
0:1:11.545,375.185,21.229,0,0.000885,0,0
0:1:11.848,377.592,21.3669,0,0.000885,0,0
0:1:12.152,379.175,21.4565,0,0.000885,0,0
0:1:12.454,381.462,21.5875,0,0.000885,0,0
0:1:12.752,383.045,21.6771,0,0.000885,0,0
0:1:13.054,385.274,21.8012,0,0.000885,0,0
0:1:13.352,386.8,21.8909,0,0.000885,0,0
0:1:13.647,388.267,21.9736,0,0.000885,0,0
0:1:13.954,390.145,22.077,0,0.000885,0,0
0:1:14.254,392.315,22.2011,0,0.000885,0,0
0:1:14.556,394.015,22.2976,0,0.000885,0,0
0:1:14.856,395.95,22.408,0,0.000885,0,0
0:1:15.151,397.297,22.4838,0,0.000885,0,0
0:1:15.447,399.117,22.5872,0,0.000885,0,0
0:1:15.758,401.639,22.7251,0,0.000885,0,0
0:1:16.048,403.338,22.8216,0,0.000885,0,0
0:1:16.348,405.451,22.9458,0,0.000885,0,0
0:1:16.653,406.919,23.0285,0,0.000885,0,0
0:1:16.955,408.325,23.1043,0,0.000885,0,0
0:1:17.258,410.731,23.2422,0,0.000885,0,0
0:1:17.560,412.194,23.325,0,0.000885,0,0
0:1:17.860,414.192,23.4353,0,0.000885,0,0
0:1:18.161,415.833,23.5318,0,0.000885,0,0
0:1:18.461,418.235,23.6697,0,0.000885,0,0
0:1:18.758,420.054,23.7731,0,0.000885,0,0
0:1:19.053,421.109,23.8283,0,0.000885,0,0
0:1:19.348,423.164,23.9455,0,0.000885,0,0
0:1:19.642,424.569,24.0282,0,0.000885,0,0
0:1:19.942,426.976,24.1592,0,0.000885,0,0
0:1:20.257,429.204,24.2902,0,0.000885,0,0
0:1:20.555,430.552,24.3661,0,0.000885,0,0
0:1:20.853,432.839,24.4971,0,0.000885,0,0
0:1:21.157,435.539,24.6488,0,0.000885,0,0
0:1:21.456,437.064,24.7315,0,0.000885,0,0
0:1:21.748,438.764,24.828,0,0.000885,0,0
0:1:22.049,440.992,24.9521,0,0.000885,0,0
0:1:22.354,442.34,25.0349,0,0.000885,0,0
0:1:22.655,444.689,25.1659,0,0.000885,0,0
0:1:22.955,446.152,25.2486,0,0.000885,0,0
0:1:23.254,448.149,25.3589,0,0.000885,0,0
0:1:23.554,449.675,25.4485,0,0.000885,0,0
0:1:23.847,451.196,25.5313,0,0.000885,0,0
0:1:24.145,453.719,25.6761,0,0.000885,0,0
0:1:24.442,455.129,25.7519,0,0.000885,0,0
0:1:24.736,456.534,25.8347,0,0.000885,0,0
0:1:25.036,458.589,25.9519,0,0.000885,0,0
0:1:25.331,460.053,26.0346,0,0.000885,0,0
0:1:25.628,462.869,26.1932,0,0.000885,0,0
0:1:25.926,464.572,26.2897,0,0.000885,0,0
0:1:26.219,466.329,26.3862,0,0.000885,0,0
0:1:26.518,467.913,26.4759,0,0.000885,0,0
0:1:26.813,469.261,26.5517,0,0.000885,0,0
0:1:27.112,472.019,26.7103,0,0.000885,0,0
0:1:27.416,473.66,26.8068,0,0.000885,0,0
0:1:27.718,475.421,26.9033,0,0.000885,0,0
0:1:28.019,477.063,26.993,0,0.000885,0,0
0:1:28.318,478.998,27.1033,0,0.000885,0,0
0:1:28.619,480.702,27.1998,0,0.000885,0,0
0:1:28.914,482.343,27.2963,0,0.000885,0,0
0:1:29.210,484.451,27.4136,0,0.000885,0,0
0:1:29.509,485.977,27.5032,0,0.000885,0,0
0:1:29.801,487.445,27.5859,0,0.000885,0,0
0:1:30.102,490.67,27.7652,0,0.000885,0,0
0:1:30.399,492.369,27.8617,0,0.000885,0,0
0:1:30.695,493.779,27.9445,0,0.000885,0,0
0:1:30.992,495.185,28.0203,0,0.000885,0,0
0:1:31.285,496.946,28.1237,0,0.000885,0,0
0:1:31.586,499.704,28.2754,0,0.000885,0,0
0:1:31.878,501.168,28.3581,0,0.000885,0,0
0:1:32.180,502.929,28.4616,0,0.000885,0,0
0:1:32.482,505.1,28.5857,0,0.000885,0,0
0:1:32.783,506.39,28.6546,0,0.000885,0,0
0:1:33.084,509.379,28.827,0,0.000885,0,0
0:1:33.386,510.789,28.9028,0,0.000885,0,0
0:1:33.685,512.137,28.9787,0,0.000885,0,0
0:1:33.980,513.836,29.0752,0,0.000885,0,0
0:1:34.276,515.713,29.1855,0,0.000885,0,0
0:1:34.574,518.058,29.3165,0,0.000885,0,0
0:1:34.867,519.29,29.3855,0,0.000885,0,0
0:1:35.169,520.873,29.4751,0,0.000885,0,0
0:1:35.461,522.457,29.5647,0,0.000885,0,0
0:1:35.761,524.454,29.675,0,0.000885,0,0
0:1:36.057,527.15,29.8336,0,0.000885,0,0
0:1:36.349,528.676,29.9164,0,0.000885,0,0
0:1:36.649,530.259,30.006,0,0.000885,0,0
0:1:36.953,532.546,30.137,0,0.000885,0,0
0:1:37.255,533.893,30.2128,0,0.000885,0,0
0:1:37.555,536.593,30.3645,0,0.000885,0,0
0:1:37.857,538.061,30.4472,0,0.000885,0,0
0:1:38.158,540.228,30.5714,0,0.000885,0,0
0:1:38.450,541.58,30.6472,0,0.000885,0,0
0:1:38.751,543.982,30.7851,0,0.000885,0,0
0:1:39.045,546.095,30.9023,0,0.000885,0,0
0:1:39.342,547.972,31.0057,0,0.000885,0,0
0:1:39.640,549.204,31.0816,0,0.000885,0,0
0:1:39.944,550.668,31.1643,0,0.000885,0,0
0:1:40.244,553.252,31.3091,0,0.000885,0,0
0:1:40.539,554.715,31.3918,0,0.000885,0,0
0:1:40.836,556.535,31.4953,0,0.000885,0,0
0:1:41.142,558.47,31.6056,0,0.000885,0,0
0:1:41.456,560.814,31.7366,0,0.000885,0,0
0:1:41.757,562.575,31.8331,0,0.000885,0,0
0:1:42.059,564.101,31.9227,0,0.000885,0,0
0:1:42.362,565.627,32.0055,0,0.000885,0,0
0:1:42.663,567.856,32.1365,0,0.000885,0,0
0:1:42.964,569.79,32.2468,0,0.000885,0,0
0:1:43.264,571.548,32.3433,0,0.000885,0,0
0:1:43.558,573.545,32.4536,0,0.000885,0,0
0:1:43.859,574.893,32.5295,0,0.000885,0,0
0:1:44.154,577.357,32.6743,0,0.000885,0,0
0:1:44.460,579.056,32.7708,0,0.000885,0,0
0:1:44.757,580.582,32.8535,0,0.000885,0,0
0:1:45.050,582.81,32.9776,0,0.000885,0,0
0:1:45.350,584.158,33.0535,0,0.000885,0,0
0:1:45.642,586.565,33.1914,0,0.000885,0,0
0:1:45.942,588.384,33.2948,0,0.000885,0,0
0:1:46.239,590.439,33.412,0,0.000885,0,0
0:1:46.538,591.551,33.474,0,0.000885,0,0
0:1:46.836,592.961,33.5568,0,0.000885,0,0
0:1:47.140,595.897,33.7223,0,0.000885,0,0
0:1:47.444,596.951,33.7774,0,0.000885,0,0
0:1:47.746,598.949,33.8946,0,0.000885,0,0
0:1:48.047,600.532,33.9843,0,0.000885,0,0
0:1:48.350,603.174,34.1359,0,0.000885,0,0
0:1:48.647,605.287,34.2532,0,0.000885,0,0
0:1:48.948,606.813,34.3359,0,0.000885,0,0
0:1:49.250,608.868,34.4531,0,0.000885,0,0
0:1:49.552,610.042,34.522,0,0.000885,0,0
0:1:49.848,612.685,34.6737,0,0.000885,0,0
0:1:50.156,614.562,34.7772,0,0.000885,0,0
0:1:50.455,616.088,34.8668,0,0.000885,0,0
0:1:50.750,617.204,34.9288,0,0.000885,0,0
0:1:51.051,619.726,35.0667,0,0.000885,0,0
0:1:51.344,622.075,35.2046,0,0.000885,0,0
0:1:51.645,623.369,35.2736,0,0.000885,0,0
0:1:51.942,625.246,35.3839,0,0.000885,0,0
0:1:52.245,626.95,35.4804,0,0.000885,0,0
0:1:52.549,628.885,35.5907,0,0.000885,0,0
0:1:52.855,630.882,35.7011,0,0.000885,0,0
0:1:53.156,632.466,35.7907,0,0.000885,0,0
0:1:53.459,634.343,35.8941,0,0.000885,0,0
0:1:53.757,636.047,35.9906,0,0.000885,0,0
0:1:54.057,638.511,36.1354,0,0.000885,0,0
0:1:54.350,640.45,36.2388,0,0.000885,0,0
0:1:54.650,642.15,36.3354,0,0.000885,0,0
0:1:54.944,643.56,36.4181,0,0.000885,0,0
0:1:55.255,646.202,36.5698,0,0.000885,0,0
0:1:55.563,647.612,36.6456,0,0.000885,0,0
0:1:55.860,649.311,36.7422,0,0.000885,0,0
0:1:56.161,650.837,36.8318,0,0.000885,0,0
0:1:56.452,652.363,36.9145,0,0.000885,0,0
0:1:56.757,655.067,37.0662,0,0.000885,0,0
0:1:57.061,656.531,37.149,0,0.000885,0,0
0:1:57.365,658.644,37.2731,0,0.000885,0,0
0:1:57.667,659.996,37.3489,0,0.000885,0,0
0:1:57.969,663.047,37.5213,0,0.000885,0,0
0:1:58.272,664.28,37.5902,0,0.000885,0,0
0:1:58.567,666.099,37.6936,0,0.000885,0,0
0:1:58.866,667.918,37.7971,0,0.000885,0,0
0:1:59.166,669.093,37.866,0,0.000885,0,0
0:1:59.461,671.677,38.0108,0,0.000885,0,0
0:1:59.763,672.909,38.0797,0,0.000885,0,0
0:2:0.057,674.906,38.1901,0,0.000885,0,0
0:2:0.358,676.784,38.3004,0,0.000885,0,0
0:2:0.651,678.781,38.4107,0,0.000885,0,0
0:2:0.950,681.187,38.5486,0,0.000885,0,0
0:2:1.250,682.477,38.6175,0,0.000885,0,0
0:2:1.564,684.532,38.7347,0,0.000885,0,0
0:2:1.867,685.942,38.8175,0,0.000885,0,0
0:2:2.169,688.643,38.9692,0,0.000885,0,0
0:2:2.474,690.52,39.0726,0,0.000885,0,0
0:2:2.775,691.988,39.1553,0,0.000885,0,0
0:2:3.076,693.162,39.2243,0,0.000885,0,0
0:2:3.379,695.511,39.3553,0,0.000885,0,0
0:2:3.674,697.388,39.4656,0,0.000885,0,0
0:2:3.974,698.736,39.5414,0,0.000885,0,0
0:2:4.271,700.675,39.6517,0,0.000885,0,0
0:2:4.568,702.61,39.7621,0,0.000885,0,0
0:2:4.869,704.785,39.8793,0,0.000885,0,0
0:2:5.162,706.72,39.9896,0,0.000885,0,0
0:2:5.465,708.953,40.1206,0,0.000885,0,0
0:2:5.759,710.479,40.2033,0,0.000885,0,0
0:2:6.058,711.591,40.2654,0,0.000885,0,0
0:2:6.365,714.585,40.4378,0,0.000885,0,0
0:2:6.661,715.995,40.5136,0,0.000885,0,0
0:2:6.963,717.934,40.6239,0,0.000885,0,0
0:2:7.266,719.575,40.7204,0,0.000885,0,0
0:2:7.571,722.391,40.879,0,0.000885,0,0
0:2:7.873,724.095,40.9755,0,0.000885,0,0
0:2:8.174,725.385,41.0514,0,0.000885,0,0
0:2:8.477,727.266,41.1548,0,0.000885,0,0
0:2:8.772,729.086,41.2582,0,0.000885,0,0
0:2:9.073,731.608,41.403,0,0.000885,0,0
0:2:9.368,733.369,41.4995,0,0.000885,0,0
0:2:9.668,735.015,41.5961,0,0.000885,0,0
0:2:9.966,736.95,41.6995,0,0.000885,0,0
0:2:10.261,738.067,41.7684,0,0.000885,0,0
0:2:10.562,740.825,41.9201,0,0.000885,0,0
0:2:10.854,742.057,41.9891,0,0.000885,0,0
0:2:11.157,743.876,42.0925,0,0.000885,0,0
0:2:11.451,746.167,42.2235,0,0.000885,0,0
0:2:11.753,747.928,42.3269,0,0.000885,0,0
0:2:12.060,750.393,42.4648,0,0.000885,0,0
0:2:12.363,751.918,42.5475,0,0.000885,0,0
0:2:12.666,753.916,42.6648,0,0.000885,0,0
0:2:12.967,755.615,42.7613,0,0.000885,0,0
0:2:13.267,758.084,42.8992,0,0.000885,0,0
0:2:13.564,759.725,42.9888,0,0.000885,0,0
0:2:13.862,761.544,43.0922,0,0.000885,0,0
0:2:14.162,762.839,43.1681,0,0.000885,0,0
0:2:14.454,764.422,43.2577,0,0.000885,0,0
0:2:14.754,767.002,43.4025,0,0.000885,0,0
0:2:15.052,768.942,43.5128,0,0.000885,0,0
0:2:15.349,770.232,43.5887,0,0.000885,0,0
0:2:15.647,771.642,43.6645,0,0.000885,0,0
0:2:15.953,774.52,43.83,0,0.000885,0,0
0:2:16.254,776.046,43.9127,0,0.000885,0,0
0:2:16.548,777.923,44.023,0,0.000885,0,0
0:2:16.850,779.506,44.1127,0,0.000885,0,0
0:2:17.154,780.916,44.1885,0,0.000885,0,0
0:2:17.460,783.732,44.3471,0,0.000885,0,0
0:2:17.762,784.849,44.416,0,0.000885,0,0
0:2:18.065,786.432,44.5057,0,0.000885,0,0
0:2:18.366,788.252,44.6091,0,0.000885,0,0
0:2:18.663,791.072,44.7677,0,0.000885,0,0
0:2:18.961,792.833,44.8642,0,0.000885,0,0
0:2:19.260,794.417,44.9538,0,0.000885,0,0
0:2:19.564,795.827,45.0366,0,0.000885,0,0
0:2:19.865,797.233,45.1124,0,0.000885,0,0
0:2:20.161,799.345,45.2365,0,0.000885,0,0
0:2:20.461,801.107,45.333,0,0.000885,0,0
0:2:20.758,803.34,45.4571,0,0.000885,0,0
0:2:21.052,805.044,45.5537,0,0.000885,0,0
0:2:21.352,807.094,45.6709,0,0.000885,0,0
0:2:21.648,809.914,45.8295,0,0.000885,0,0
0:2:21.950,810.911,45.8915,0,0.000885,0,0
0:2:22.255,812.437,45.9742,0,0.000885,0,0
0:2:22.559,814.082,46.0708,0,0.000885,0,0
0:2:22.862,816.662,46.2156,0,0.000885,0,0
0:2:23.164,818.424,46.3121,0,0.000885,0,0
0:2:23.466,819.776,46.3879,0,0.000885,0,0
0:2:23.761,821.417,46.4845,0,0.000885,0,0
0:2:24.059,823.063,46.5741,0,0.000885,0,0
0:2:24.367,825.706,46.7258,0,0.000885,0,0
0:2:24.663,827.463,46.8223,0,0.000885,0,0
0:2:24.965,829.518,46.9395,0,0.000885,0,0
0:2:25.255,831.106,47.0291,0,0.000885,0,0
0:2:25.558,833.45,47.167,0,0.000885,0,0
0:2:25.865,834.918,47.2498,0,0.000885,0,0
0:2:26.162,836.622,47.3463,0,0.000885,0,0
0:2:26.462,838.147,47.429,0,0.000885,0,0
0:2:26.755,840.024,47.5325,0,0.000885,0,0
0:2:27.060,843.138,47.7117,0,0.000885,0,0
0:2:27.364,844.722,47.8014,0,0.000885,0,0
0:2:27.669,846.19,47.8841,0,0.000885,0,0
0:2:27.971,848.187,47.9944,0,0.000885,0,0
0:2:28.274,850.536,48.1323,0,0.000885,0,0
0:2:28.575,851.532,48.1875,0,0.000885,0,0
0:2:28.870,853.525,48.2978,0,0.000885,0,0
0:2:29.171,855.58,48.415,0,0.000885,0,0
0:2:29.466,857.461,48.5253,0,0.000885,0,0
0:2:29.765,859.748,48.6494,0,0.000885,0,0
0:2:30.065,860.864,48.7184,0,0.000885,0,0
0:2:30.360,862.977,48.8356,0,0.000885,0,0
0:2:30.662,864.445,48.9183,0,0.000885,0,0
0:2:30.955,866.264,49.0217,0,0.000885,0,0
0:2:31.255,868.262,49.132,0,0.000885,0,0
0:2:31.551,870.197,49.2424,0,0.000885,0,0
0:2:31.854,871.722,49.332,0,0.000885,0,0
0:2:32.157,873.898,49.4492,0,0.000885,0,0
0:2:32.462,875.597,49.5457,0,0.000885,0,0
0:2:32.763,876.535,49.6009,0,0.000885,0,0
0:2:33.066,878.123,49.6905,0,0.000885,0,0
0:2:33.363,880.001,49.8008,0,0.000885,0,0
0:2:33.663,881.998,49.9111,0,0.000885,0,0
0:2:33.957,885.223,50.0904,0,0.000885,0,0
0:2:34.259,886.811,50.18,0,0.000885,0,0
0:2:34.552,888.804,50.2973,0,0.000885,0,0
0:2:34.852,890.685,50.4007,0,0.000885,0,0
0:2:35.150,892.384,50.4972,0,0.000885,0,0
0:2:35.447,895.084,50.6489,0,0.000885,0,0
0:2:35.747,896.673,50.7385,0,0.000885,0,0
0:2:36.053,898.55,50.8488,0,0.000885,0,0
0:2:36.354,900.253,50.9454,0,0.000885,0,0
0:2:36.650,902.833,51.0902,0,0.000885,0,0
0:2:36.953,904.421,51.1798,0,0.000885,0,0
0:2:37.255,906.063,51.2694,0,0.000885,0,0
0:2:37.560,907.882,51.3728,0,0.000885,0,0
0:2:37.863,909.759,51.4832,0,0.000885,0,0
0:2:38.165,911.111,51.559,0,0.000885,0,0
0:2:38.465,913.046,51.6693,0,0.000885,0,0
0:2:38.764,914.692,51.7589,0,0.000885,0,0
0:2:39.056,916.512,51.8624,0,0.000885,0,0
0:2:39.356,919.39,52.0278,0,0.000885,0,0
0:2:39.652,920.266,52.0761,0,0.000885,0,0
0:2:39.953,921.854,52.1657,0,0.000885,0,0
0:2:40.249,923.967,52.2829,0,0.000885,0,0
0:2:40.548,925.257,52.3588,0,0.000885,0,0
0:2:40.847,927.49,52.4829,0,0.000885,0,0
0:2:41.141,929.425,52.5932,0,0.000885,0,0
0:2:41.441,931.364,52.7035,0,0.000885,0,0
0:2:41.737,933.063,52.8001,0,0.000885,0,0
0:2:42.038,934.767,52.8966,0,0.000885,0,0
0:2:42.344,937.583,53.0552,0,0.000885,0,0
0:2:42.647,939.286,53.1517,0,0.000885,0,0
0:2:42.949,940.812,53.2413,0,0.000885,0,0
0:2:43.250,941.871,53.2965,0,0.000885,0,0
0:2:43.552,944.687,53.4551,0,0.000885,0,0
0:2:43.849,946.332,53.5516,0,0.000885,0,0
0:2:44.147,947.974,53.6412,0,0.000885,0,0
0:2:44.445,949.5,53.7308,0,0.000885,0,0
0:2:44.751,951.083,53.8205,0,0.000885,0,0
0:2:45.052,953.668,53.9653,0,0.000885,0,0
0:2:45.368,955.251,54.0549,0,0.000885,0,0
0:2:45.668,956.955,54.1514,0,0.000885,0,0
0:2:45.966,958.952,54.2686,0,0.000885,0,0
0:2:46.262,961.594,54.4134,0,0.000885,0,0
0:2:46.562,962.884,54.4893,0,0.000885,0,0
0:2:46.856,964.939,54.6065,0,0.000885,0,0
0:2:47.158,966.759,54.7099,0,0.000885,0,0
0:2:47.465,968.578,54.8133,0,0.000885,0,0
0:2:47.769,970.749,54.9305,0,0.000885,0,0
0:2:48.071,972.332,55.0202,0,0.000885,0,0
0:2:48.373,974.33,55.1374,0,0.000885,0,0
0:2:48.674,975.562,55.2063,0,0.000885,0,0
0:2:48.971,978.262,55.358,0,0.000885,0,0
0:2:49.271,979.908,55.4545,0,0.000885,0,0
0:2:49.567,981.313,55.5304,0,0.000885,0,0
0:2:49.865,983.195,55.6407,0,0.000885,0,0
0:2:50.164,984.543,55.7165,0,0.000885,0,0
0:2:50.458,987.656,55.8889,0,0.000885,0,0
0:2:50.758,989.476,55.9923,0,0.000885,0,0
0:2:51.056,991.295,56.0957,0,0.000885,0,0
0:2:51.365,993.057,56.1923,0,0.000885,0,0
0:2:51.664,995.169,56.3164,0,0.000885,0,0
0:2:51.966,996.402,56.3853,0,0.000885,0,0
0:2:52.270,997.927,56.4681,0,0.000885,0,0
0:2:52.573,999.805,56.5784,0,0.000885,0,0
0:2:52.873,1001.39,56.668,0,0.000885,0,0
0:2:53.177,1003.97,56.8128,0,0.000885,0,0
0:2:53.473,1006.21,56.9369,0,0.000885,0,0
0:2:53.774,1007.73,57.0265,0,0.000885,0,0
0:2:54.069,1009.08,57.1024,0,0.000885,0,0
0:2:54.371,1011.37,57.2334,0,0.000885,0,0
0:2:54.667,1013.48,57.3506,0,0.000885,0,0
0:2:54.964,1015.19,57.4471,0,0.000885,0,0
0:2:55.264,1016.94,57.5505,0,0.000885,0,0
0:2:55.567,1018.12,57.6126,0,0.000885,0,0
0:2:55.870,1020.52,57.7505,0,0.000885,0,0
0:2:56.163,1022.11,57.8401,0,0.000885,0,0
0:2:56.465,1023.81,57.9366,0,0.000885,0,0
0:2:56.763,1025.75,58.047,0,0.000885,0,0
0:2:57.065,1027.51,58.1435,0,0.000885,0,0
0:2:57.371,1029.98,58.2814,0,0.000885,0,0
0:2:57.672,1031.56,58.371,0,0.000885,0,0
0:2:57.975,1033.32,58.4744,0,0.000885,0,0
0:2:58.277,1035.49,58.5985,0,0.000885,0,0
0:2:58.575,1037.61,58.7158,0,0.000885,0,0
0:2:58.874,1039.49,58.8261,0,0.000885,0,0
0:2:59.168,1041.54,58.9364,0,0.000885,0,0
0:2:59.469,1042.83,59.0122,0,0.000885,0,0
0:2:59.764,1044.12,59.0881,0,0.000885,0,0
0:3:0.064,1046.59,59.226,0,0.000885,0,0
0:3:0.362,1048.47,59.3294,0,0.000885,0,0
0:3:0.657,1050.35,59.4397,0,0.000885,0,0
0:3:0.956,1051.7,59.5155,0,0.000885,0,0
0:3:1.251,1053.05,59.5914,0,0.000885,0,0
0:3:1.552,1056.45,59.7844,0,0.000885,0,0
0:3:1.848,1057.8,59.8603,0,0.000885,0,0
0:3:2.150,1059.09,59.9292,0,0.000885,0,0
0:3:2.455,1060.74,60.0258,0,0.000885,0,0
0:3:2.758,1063.55,60.1843,0,0.000885,0,0
0:3:3.062,1065.14,60.274,0,0.000885,0,0
0:3:3.362,1066.96,60.3774,0,0.000885,0,0
0:3:3.663,1069.01,60.4946,0,0.000885,0,0
0:3:3.959,1070.13,60.5567,0,0.000885,0,0
0:3:4.256,1072.3,60.6808,0,0.000885,0,0
0:3:4.556,1074.18,60.7842,0,0.000885,0,0
0:3:4.851,1076.23,60.9014,0,0.000885,0,0
0:3:5.153,1077.35,60.9634,0,0.000885,0,0
0:3:5.446,1079.99,61.1151,0,0.000885,0,0
0:3:5.747,1081.81,61.2185,0,0.000885,0,0
0:3:6.046,1084.04,61.3427,0,0.000885,0,0
0:3:6.341,1085.09,61.4047,0,0.000885,0,0
0:3:6.642,1087.03,61.515,0,0.000885,0,0
0:3:6.946,1089.03,61.6253,0,0.000885,0,0
0:3:7.250,1091.02,61.7426,0,0.000885,0,0
0:3:7.551,1093.25,61.8667,0,0.000885,0,0
0:3:7.853,1094.72,61.9494,0,0.000885,0,0
0:3:8.155,1096.48,62.0459,0,0.000885,0,0
0:3:8.451,1098.54,62.1631,0,0.000885,0,0
0:3:8.752,1100.47,62.2734,0,0.000885,0,0
0:3:9.048,1102.53,62.3907,0,0.000885,0,0
0:3:9.348,1103.47,62.4458,0,0.000885,0,0
0:3:9.645,1105.23,62.5423,0,0.000885,0,0
0:3:9.942,1107.81,62.6871,0,0.000885,0,0
0:3:10.242,1109.52,62.7837,0,0.000885,0,0
0:3:10.537,1111.1,62.8733,0,0.000885,0,0
0:3:10.838,1113.03,62.9836,0,0.000885,0,0
0:3:11.133,1114.5,63.0663,0,0.000885,0,0
0:3:11.433,1117.09,63.2111,0,0.000885,0,0
0:3:11.732,1118.67,63.3008,0,0.000885,0,0
0:3:12.035,1120.96,63.4318,0,0.000885,0,0
0:3:12.339,1122.08,63.4938,0,0.000885,0,0
0:3:12.643,1125.42,63.6869,0,0.000885,0,0
0:3:12.943,1126.01,63.7213,0,0.000885,0,0
0:3:13.246,1128.18,63.8386,0,0.000885,0,0
0:3:13.544,1129.47,63.9144,0,0.000885,0,0
0:3:13.843,1131.17,64.0109,0,0.000885,0,0
0:3:14.138,1133.76,64.1557,0,0.000885,0,0
0:3:14.439,1135.99,64.2867,0,0.000885,0,0
0:3:14.736,1137.45,64.3695,0,0.000885,0,0
0:3:15.033,1138.86,64.4453,0,0.000885,0,0
0:3:15.332,1140.8,64.5556,0,0.000885,0,0
0:3:15.628,1142.56,64.659,0,0.000885,0,0
0:3:15.931,1144.03,64.7418,0,0.000885,0,0
0:3:16.226,1145.96,64.8452,0,0.000885,0,0
0:3:16.525,1147.79,64.9486,0,0.000885,0,0
0:3:16.824,1150.43,65.1003,0,0.000885,0,0
0:3:17.127,1152.72,65.2313,0,0.000885,0,0
0:3:17.431,1154.36,65.3209,0,0.000885,0,0
0:3:17.733,1155.47,65.3899,0,0.000885,0,0
0:3:18.036,1157.29,65.4864,0,0.000885,0,0
0:3:18.339,1159.88,65.6381,0,0.000885,0,0
0:3:18.635,1161.88,65.7484,0,0.000885,0,0
0:3:18.937,1163.05,65.8174,0,0.000885,0,0
0:3:19.230,1164.69,65.907,0,0.000885,0,0
0:3:19.532,1167.63,66.0725,0,0.000885,0,0
0:3:19.827,1169.27,66.169,0,0.000885,0,0
0:3:20.126,1170.86,66.2586,0,0.000885,0,0
0:3:20.425,1172.26,66.3345,0,0.000885,0,0
0:3:20.721,1174.55,66.4655,0,0.000885,0,0
0:3:21.022,1176.78,66.5896,0,0.000885,0,0
0:3:21.319,1178.31,66.6792,0,0.000885,0,0
0:3:21.616,1179.95,66.7688,0,0.000885,0,0
0:3:21.913,1181.71,66.8723,0,0.000885,0,0
0:3:22.217,1183.06,66.9481,0,0.000885,0,0
0:3:22.522,1185.47,67.086,0,0.000885,0,0
0:3:22.824,1187.52,67.2032,0,0.000885,0,0
0:3:23.126,1189.23,67.2997,0,0.000885,0,0
0:3:23.430,1190.29,67.3549,0,0.000885,0,0
0:3:23.726,1193.28,67.5273,0,0.000885,0,0
0:3:24.028,1194.81,67.61,0,0.000885,0,0
0:3:24.324,1196.45,67.7065,0,0.000885,0,0
0:3:24.622,1197.97,67.7893,0,0.000885,0,0
0:3:24.920,1199.56,67.8789,0,0.000885,0,0
0:3:25.217,1202.2,68.0306,0,0.000885,0,0
0:3:25.516,1203.96,68.1271,0,0.000885,0,0
0:3:25.812,1205.9,68.2374,0,0.000885,0,0
0:3:26.112,1207.66,68.3408,0,0.000885,0,0
0:3:26.410,1209.36,68.4374,0,0.000885,0,0
0:3:26.712,1212.12,68.589,0,0.000885,0,0
0:3:27.016,1214,68.6994,0,0.000885,0,0
0:3:27.319,1214.53,68.7269,0,0.000885,0,0
0:3:27.622,1216.46,68.8373,0,0.000885,0,0
0:3:27.924,1218.69,68.9614,0,0.000885,0,0
0:3:28.222,1220.34,69.0579,0,0.000885,0,0
0:3:28.523,1222.34,69.1682,0,0.000885,0,0
0:3:28.818,1224.39,69.2854,0,0.000885,0,0
0:3:29.118,1226.21,69.3888,0,0.000885,0,0
0:3:29.415,1228.32,69.506,0,0.000885,0,0
0:3:29.714,1230.2,69.6164,0,0.000885,0,0
0:3:30.013,1232.14,69.7267,0,0.000885,0,0
0:3:30.308,1233.49,69.8025,0,0.000885,0,0
0:3:30.609,1234.96,69.8853,0,0.000885,0,0
0:3:30.905,1237.71,70.0369,0,0.000885,0,0
0:3:31.205,1239.65,70.1473,0,0.000885,0,0
0:3:31.501,1241,70.2231,0,0.000885,0,0
0:3:31.804,1242.35,70.3058,0,0.000885,0,0
0:3:32.108,1244.52,70.4231,0,0.000885,0,0
0:3:32.412,1246.99,70.5678,0,0.000885,0,0
0:3:32.715,1248.75,70.6644,0,0.000885,0,0
0:3:33.015,1250.27,70.754,0,0.000885,0,0
0:3:33.314,1251.8,70.8367,0,0.000885,0,0
0:3:33.614,1254.56,70.9953,0,0.000885,0,0
0:3:33.910,1256.32,71.0918,0,0.000885,0,0
0:3:34.212,1257.9,71.1815,0,0.000885,0,0
0:3:34.507,1259.02,71.2435,0,0.000885,0,0
0:3:34.806,1261.02,71.3607,0,0.000885,0,0
0:3:35.105,1263.72,71.5124,0,0.000885,0,0
0:3:35.400,1265.42,71.6089,0,0.000885,0,0
0:3:35.701,1267.06,71.6986,0,0.000885,0,0
0:3:35.997,1268.77,71.7951,0,0.000885,0,0
0:3:36.297,1270.06,71.8709,0,0.000885,0,0
0:3:36.593,1272.64,72.0157,0,0.000885,0,0
0:3:36.896,1274.52,72.1261,0,0.000885,0,0
0:3:37.201,1276.69,72.2433,0,0.000885,0,0
0:3:37.503,1277.98,72.3191,0,0.000885,0,0
0:3:37.806,1280.33,72.4501,0,0.000885,0,0
0:3:38.107,1282.09,72.5535,0,0.000885,0,0
0:3:38.405,1283.73,72.6432,0,0.000885,0,0
0:3:38.705,1285.61,72.7535,0,0.000885,0,0
0:3:39.001,1287.37,72.85,0,0.000885,0,0
0:3:39.302,1289.9,72.9948,0,0.000885,0,0
0:3:39.596,1291.25,73.0706,0,0.000885,0,0
0:3:39.896,1292.83,73.1603,0,0.000885,0,0
0:3:40.196,1294.83,73.2706,0,0.000885,0,0
0:3:40.489,1296.12,73.3464,0,0.000885,0,0
0:3:40.793,1298.76,73.4981,0,0.000885,0,0
0:3:41.088,1300.29,73.5808,0,0.000885,0,0
0:3:41.387,1302.05,73.6774,0,0.000885,0,0
0:3:41.684,1303.4,73.7601,0,0.000885,0,0
0:3:41.987,1305.39,73.8704,0,0.000885,0,0
0:3:42.293,1307.68,74.0014,0,0.000885,0,0
0:3:42.595,1309.45,74.098,0,0.000885,0,0
0:3:42.897,1311.32,74.2083,0,0.000885,0,0
0:3:43.198,1313.26,74.3186,0,0.000885,0,0
0:3:43.497,1315.55,74.4427,0,0.000885,0,0
0:3:43.798,1316.9,74.5185,0,0.000885,0,0
0:3:44.093,1318.6,74.6151,0,0.000885,0,0
0:3:44.394,1320.13,74.7047,0,0.000885,0,0
0:3:44.691,1322.3,74.8288,0,0.000885,0,0
0:3:44.987,1324,74.9253,0,0.000885,0,0
0:3:45.286,1326,75.0356,0,0.000885,0,0
0:3:45.581,1327.87,75.1391,0,0.000885,0,0
0:3:45.882,1329.28,75.2218,0,0.000885,0,0
0:3:46.176,1331.34,75.339,0,0.000885,0,0
0:3:46.476,1334.21,75.5045,0,0.000885,0,0
0:3:46.773,1335.92,75.5941,0,0.000885,0,0
0:3:47.077,1337.27,75.6769,0,0.000885,0,0
0:3:47.380,1339.38,75.7941,0,0.000885,0,0
0:3:47.682,1341.37,75.9044,0,0.000885,0,0
0:3:47.984,1343.14,76.0078,0,0.000885,0,0
0:3:48.286,1344.66,76.0905,0,0.000885,0,0
0:3:48.582,1346.13,76.1733,0,0.000885,0,0
0:3:48.884,1348.42,76.3043,0,0.000885,0,0
0:3:49.177,1350.88,76.4422,0,0.000885,0,0
0:3:49.480,1352.53,76.5387,0,0.000885,0,0
0:3:49.775,1354.41,76.6421,0,0.000885,0,0
0:3:50.072,1355.7,76.718,0,0.000885,0,0
0:3:50.371,1357.4,76.8145,0,0.000885,0,0
0:3:50.667,1359.63,76.9386,0,0.000885,0,0
0:3:50.969,1361.16,77.0282,0,0.000885,0,0
0:3:51.261,1363.27,77.1454,0,0.000885,0,0
0:3:51.562,1364.97,77.242,0,0.000885,0,0
0:3:51.859,1366.5,77.3247,0,0.000885,0,0
0:3:52.160,1368.96,77.4695,0,0.000885,0,0
0:3:52.468,1370.96,77.5798,0,0.000885,0,0
0:3:52.771,1372.31,77.6557,0,0.000885,0,0
0:3:53.073,1373.84,77.7453,0,0.000885,0,0
0:3:53.376,1376.54,77.897,0,0.000885,0,0
0:3:53.673,1378.36,78.0004,0,0.000885,0,0
0:3:53.973,1379.7,78.0762,0,0.000885,0,0
0:3:54.267,1380.82,78.1383,0,0.000885,0,0
0:3:54.569,1383.29,78.2762,0,0.000885,0,0
0:3:54.862,1385.58,78.4072,0,0.000885,0,0
0:3:55.162,1387.4,78.5106,0,0.000885,0,0
0:3:55.459,1389.27,78.614,0,0.000885,0,0
0:3:55.756,1391.09,78.7174,0,0.000885,0,0
0:3:56.056,1393.73,78.8691,0,0.000885,0,0
0:3:56.372,1394.79,78.9312,0,0.000885,0,0
0:3:56.674,1396.49,79.0277,0,0.000885,0,0
0:3:56.978,1398.2,79.1242,0,0.000885,0,0
0:3:57.283,1400.66,79.2621,0,0.000885,0,0
0:3:57.584,1402.54,79.3656,0,0.000885,0,0
0:3:57.888,1404.01,79.4483,0,0.000885,0,0
0:3:58.188,1405.47,79.531,0,0.000885,0,0
0:3:58.486,1407.23,79.6344,0,0.000885,0,0
0:3:58.783,1409.64,79.7723,0,0.000885,0,0
0:3:59.083,1411.93,79.8964,0,0.000885,0,0
0:3:59.378,1413.64,79.993,0,0.000885,0,0
0:3:59.680,1414.98,80.0688,0,0.000885,0,0
0:3:59.975,1416.8,80.1722,0,0.000885,0,0
0:4:0.274,1419.21,80.3101,0,0.000885,0,0
0:4:0.573,1421.09,80.4204,0,0.000885,0,0
0:4:0.877,1422.55,80.5032,0,0.000885,0,0
0:4:1.179,1424.32,80.5997,0,0.000885,0,0
0:4:1.475,1426.49,80.7238,0,0.000885,0,0
0:4:1.777,1428.55,80.841,0,0.000885,0,0
0:4:2.082,1429.78,80.91,0,0.000885,0,0
0:4:2.384,1431.36,80.9996,0,0.000885,0,0
0:4:2.686,1433.94,81.1444,0,0.000885,0,0
0:4:2.989,1436.47,81.2892,0,0.000885,0,0
0:4:3.291,1437.94,81.3719,0,0.000885,0,0
0:4:3.588,1439.87,81.4822,0,0.000885,0,0
0:4:3.882,1440.81,81.5305,0,0.000885,0,0
0:4:4.183,1443.69,81.696,0,0.000885,0,0
0:4:4.479,1445.21,81.7856,0,0.000885,0,0
0:4:4.779,1446.86,81.8752,0,0.000885,0,0
0:4:5.076,1448.62,81.9718,0,0.000885,0,0
0:4:5.374,1449.97,82.0545,0,0.000885,0,0
0:4:5.674,1452.96,82.22,0,0.000885,0,0
0:4:5.966,1453.9,82.2751,0,0.000885,0,0
0:4:6.269,1455.6,82.3717,0,0.000885,0,0
0:4:6.564,1457.66,82.4889,0,0.000885,0,0
0:4:6.866,1459.01,82.5647,0,0.000885,0,0
0:4:7.173,1461.59,82.7095,0,0.000885,0,0
0:4:7.477,1463.59,82.8198,0,0.000885,0,0
0:4:7.777,1465.47,82.9301,0,0.000885,0,0
0:4:8.079,1466.81,83.006,0,0.000885,0,0
0:4:8.378,1469.05,83.1301,0,0.000885,0,0
0:4:8.678,1471.04,83.2473,0,0.000885,0,0
0:4:8.974,1472.98,83.3507,0,0.000885,0,0
0:4:9.275,1474.62,83.4472,0,0.000885,0,0
0:4:9.578,1476.44,83.5507,0,0.000885,0,0
0:4:9.878,1478.44,83.661,0,0.000885,0,0
0:4:10.175,1480.03,83.7506,0,0.000885,0,0
0:4:10.472,1481.68,83.8471,0,0.000885,0,0
0:4:10.772,1483.74,83.9644,0,0.000885,0,0
0:4:11.066,1485.22,84.0471,0,0.000885,0,0
0:4:11.367,1488.04,84.2057,0,0.000885,0,0
0:4:11.662,1489.57,84.2953,0,0.000885,0,0
0:4:11.964,1491.75,84.4125,0,0.000885,0,0
0:4:12.269,1493.17,84.4953,0,0.000885,0,0
0:4:12.573,1495.35,84.6194,0,0.000885,0,0
0:4:12.876,1496.76,84.7021,0,0.000885,0,0
0:4:13.178,1498.64,84.8055,0,0.000885,0,0
0:4:13.476,1500.41,84.9089,0,0.000885,0,0
0:4:13.776,1502.29,85.0124,0,0.000885,0,0
0:4:14.072,1504.3,85.1227,0,0.000885,0,0
0:4:14.374,1505.77,85.2123,0,0.000885,0,0
0:4:14.679,1507.48,85.3088,0,0.000885,0,0
0:4:14.977,1509.18,85.4054,0,0.000885,0,0
0:4:15.277,1512.01,85.5639,0,0.000885,0,0
0:4:15.571,1513.6,85.6536,0,0.000885,0,0
0:4:15.874,1515.6,85.7639,0,0.000885,0,0
0:4:16.178,1517.13,85.8535,0,0.000885,0,0
0:4:16.477,1519.07,85.9638,0,0.000885,0,0
0:4:16.774,1521.43,86.0948,0,0.000885,0,0
0:4:17.077,1522.84,86.1776,0,0.000885,0,0
0:4:17.382,1524.43,86.2672,0,0.000885,0,0
0:4:17.685,1525.96,86.3499,0,0.000885,0,0
0:4:17.986,1528.38,86.4878,0,0.000885,0,0
0:4:18.288,1530.38,86.605,0,0.000885,0,0
0:4:18.587,1532.2,86.7085,0,0.000885,0,0
0:4:18.886,1533.91,86.805,0,0.000885,0,0
0:4:19.182,1535.27,86.8808,0,0.000885,0,0
0:4:19.484,1537.74,87.0187,0,0.000885,0,0
0:4:19.778,1539.86,87.1359,0,0.000885,0,0
0:4:20.076,1541.51,87.2325,0,0.000885,0,0
0:4:20.375,1543.22,87.329,0,0.000885,0,0
0:4:20.671,1544.93,87.4255,0,0.000885,0,0
0:4:20.971,1547.28,87.5565,0,0.000885,0,0
0:4:21.276,1549.22,87.6668,0,0.000885,0,0
0:4:21.578,1550.81,87.7565,0,0.000885,0,0
0:4:21.883,1552.11,87.8323,0,0.000885,0,0
0:4:22.186,1555.23,88.0047,0,0.000885,0,0
0:4:22.489,1556.76,88.0943,0,0.000885,0,0
0:4:22.792,1558.23,88.1771,0,0.000885,0,0
0:4:23.093,1560.06,88.2805,0,0.000885,0,0
0:4:23.387,1562.23,88.4046,0,0.000885,0,0
0:4:23.688,1564.12,88.508,0,0.000885,0,0
0:4:23.983,1565.53,88.5907,0,0.000885,0,0
0:4:24.279,1566.94,88.6735,0,0.000885,0,0
0:4:24.579,1568.65,88.77,0,0.000885,0,0
0:4:24.875,1571.6,88.9355,0,0.000885,0,0
0:4:25.176,1573.01,89.0113,0,0.000885,0,0
0:4:25.472,1574.72,89.1078,0,0.000885,0,0
0:4:25.780,1576.66,89.2182,0,0.000885,0,0
0:4:26.079,1578.54,89.3285,0,0.000885,0,0
0:4:26.373,1580.96,89.4664,0,0.000885,0,0
0:4:26.675,1582.78,89.5698,0,0.000885,0,0
0:4:26.979,1584.02,89.6387,0,0.000885,0,0
0:4:27.281,1585.55,89.7215,0,0.000885,0,0
0:4:27.584,1587.26,89.818,0,0.000885,0,0
0:4:27.886,1590.09,89.9835,0,0.000885,0,0
0:4:28.189,1591.62,90.0662,0,0.000885,0,0
0:4:28.483,1593.44,90.1696,0,0.000885,0,0
0:4:28.785,1595.03,90.2593,0,0.000885,0,0
0:4:29.081,1597.8,90.4178,0,0.000885,0,0
0:4:29.380,1599.04,90.4868,0,0.000885,0,0
0:4:29.678,1601.1,90.604,0,0.000885,0,0
0:4:29.974,1602.33,90.673,0,0.000885,0,0
0:4:30.276,1604.46,90.7902,0,0.000885,0,0
0:4:30.578,1606.81,90.9281,0,0.000885,0,0
0:4:30.879,1608.05,90.997,0,0.000885,0,0
0:4:31.177,1609.7,91.0935,0,0.000885,0,0
0:4:31.473,1611.76,91.2038,0,0.000885,0,0
0:4:31.773,1613.29,91.2935,0,0.000885,0,0
0:4:32.076,1615.76,91.4314,0,0.000885,0,0
0:4:32.380,1617.41,91.5279,0,0.000885,0,0
0:4:32.682,1619.29,91.6313,0,0.000885,0,0
0:4:32.984,1621,91.7279,0,0.000885,0,0
0:4:33.287,1623.36,91.8657,0,0.000885,0,0
0:4:33.582,1625.24,91.9692,0,0.000885,0,0
0:4:33.884,1626.83,92.0588,0,0.000885,0,0
0:4:34.178,1628.54,92.1553,0,0.000885,0,0
0:4:34.477,1629.83,92.2312,0,0.000885,0,0
0:4:34.775,1632.54,92.3829,0,0.000885,0,0
0:4:35.080,1634.6,92.5001,0,0.000885,0,0
0:4:35.382,1636.07,92.5828,0,0.000885,0,0
0:4:35.676,1637.84,92.6862,0,0.000885,0,0
0:4:35.978,1640.31,92.8241,0,0.000885,0,0
0:4:36.273,1642.2,92.9275,0,0.000885,0,0
0:4:36.580,1643.55,93.0034,0,0.000885,0,0
0:4:36.878,1645.44,93.1137,0,0.000885,0,0
0:4:37.182,1646.79,93.1895,0,0.000885,0,0
0:4:37.485,1649.26,93.3274,0,0.000885,0,0
0:4:37.787,1651.09,93.4309,0,0.000885,0,0
0:4:38.089,1652.5,93.5136,0,0.000885,0,0
0:4:38.393,1654.09,93.6032,0,0.000885,0,0
0:4:38.689,1656.62,93.748,0,0.000885,0,0
0:4:38.991,1658.21,93.8376,0,0.000885,0,0
0:4:39.283,1659.98,93.9342,0,0.000885,0,0
0:4:39.585,1661.69,94.0307,0,0.000885,0,0
0:4:39.881,1663.81,94.1548,0,0.000885,0,0
0:4:40.177,1666.16,94.2858,0,0.000885,0,0
0:4:40.476,1667.93,94.3823,0,0.000885,0,0
0:4:40.772,1669.46,94.472,0,0.000885,0,0
0:4:41.074,1670.87,94.5547,0,0.000885,0,0
0:4:41.377,1672.41,94.6374,0,0.000885,0,0
0:4:41.679,1675.29,94.8029,0,0.000885,0,0
0:4:41.984,1676.94,94.8925,0,0.000885,0,0
0:4:42.287,1678.71,94.996,0,0.000885,0,0
0:4:42.591,1680.65,95.1063,0,0.000885,0,0
0:4:42.892,1682.94,95.2373,0,0.000885,0,0
0:4:43.194,1684.59,95.3269,0,0.000885,0,0
0:4:43.489,1686.3,95.4234,0,0.000885,0,0
0:4:43.787,1688.24,95.5338,0,0.000885,0,0
0:4:44.086,1689.89,95.6303,0,0.000885,0,0
0:4:44.381,1692.01,95.7475,0,0.000885,0,0
0:4:44.682,1694.13,95.8716,0,0.000885,0,0
0:4:44.978,1695.43,95.9405,0,0.000885,0,0
0:4:45.276,1697.08,96.0371,0,0.000885,0,0
0:4:45.574,1698.2,96.0991,0,0.000885,0,0
0:4:45.880,1701.44,96.2784,0,0.000885,0,0
0:4:46.181,1703.08,96.3749,0,0.000885,0,0
0:4:46.475,1704.55,96.4577,0,0.000885,0,0
0:4:46.777,1706.15,96.5473,0,0.000885,0,0
0:4:47.082,1708.62,96.6852,0,0.000885,0,0
0:4:47.385,1710.56,96.7955,0,0.000885,0,0
0:4:47.688,1712.27,96.892,0,0.000885,0,0
0:4:47.988,1713.8,96.9817,0,0.000885,0,0
0:4:48.289,1716.16,97.1127,0,0.000885,0,0
0:4:48.584,1716.33,97.1264,0,0.000885,0,0
0:4:48.883,1717.28,97.1747,0,0.000885,0,0
0:4:49.182,1718.92,97.2712,0,0.000885,0,0
0:4:49.477,1720.16,97.3402,0,0.000885,0,0
0:4:49.779,1723.34,97.5194,0,0.000885,0,0
0:4:50.074,1725.4,97.6367,0,0.000885,0,0
0:4:50.375,1726.64,97.7056,0,0.000885,0,0
0:4:50.679,1729.17,97.8504,0,0.000885,0,0
0:4:50.978,1731.23,97.9676,0,0.000885,0,0
0:4:51.278,1734.17,98.1331,0,0.000885,0,0
0:4:51.571,1736.11,98.2434,0,0.000885,0,0
0:4:51.871,1737.82,98.3399,0,0.000885,0,0
0:4:52.177,1739.94,98.464,0,0.000885,0,0
0:4:52.481,1741.53,98.5537,0,0.000885,0,0
0:4:52.784,1744.07,98.6916,0,0.000885,0,0
0:4:53.085,1745.83,98.795,0,0.000885,0,0
0:4:53.388,1746.66,98.8432,0,0.000885,0,0
0:4:53.682,1748.07,98.9191,0,0.000885,0,0
0:4:53.982,1750.25,99.0432,0,0.000885,0,0
0:4:54.278,1752.43,99.1673,0,0.000885,0,0
0:4:54.577,1753.43,99.2225,0,0.000885,0,0
0:4:54.876,1753.13,99.2087,0,0.000885,0,0
0:4:55.178,1754.9,99.3052,0,0.000885,0,0
0:4:55.482,1758.2,99.4913,0,0.000885,0,0
0:4:55.776,1760.67,99.6361,0,0.000885,0,0
0:4:56.076,1763.5,99.7947,0,0.000885,0,0
0:4:56.381,1755.43,99.3397,0,0.000885,0,0
0:4:56.684,1622.88,91.8382,0,0.000885,0,0
0:4:56.986,1622.71,91.8244,0,0.000885,0,0
0:4:57.289,1625.47,91.983,0,0.000885,0,0
0:4:57.589,1627.95,92.1209,0,0.000885,0,0
0:4:57.892,1631.19,92.307,0,0.000885,0,0
0:4:58.188,1636.07,92.5828,0,0.000885,0,0
0:4:58.486,1639.67,92.7827,0,0.000885,0,0
0:4:58.782,1642.73,92.962,0,0.000885,0,0
0:4:59.081,1644.61,93.0654,0,0.000885,0,0
0:4:59.374,1646.55,93.1757,0,0.000885,0,0
0:4:59.672,1650.62,93.4033,0,0.000885,0,0
0:4:59.980,1652.33,93.4998,0,0.000885,0,0
0:5:0.274,1653.92,93.5894,0,0.000885,0,0
0:5:0.572,1655.98,93.7066,0,0.000885,0,0
0:5:0.877,1648.44,93.2792,0,0.000885,0,0
0:5:1.178,1640.08,92.8103,0,0.000885,0,0
0:5:1.481,1633.89,92.4587,0,0.000885,0,0
0:5:1.783,1626.47,92.0381,0,0.000885,0,0
0:5:2.087,1424.49,80.6066,0,0.000885,0,0