File: DataFile2021-07-25_070244.csv
Test ID:,Date Tested:,Time:,Test Type:,Diameter Avg. (mm):,Cyl. Corr. Factor:,Height (mm):,Age (days):,Weight (kN):,Break Type:,Ramp Rate (MPa/s):,Load at Break (kN):,Stress at Break (MPa):
12,7/25/2021,07:02,Cylinder,100,1,200,0,3.5,3,0.3,211.61,26.94
Sample Time,Load (kN),Stress (MPa),Long. Strain,Trans. Strain,Chan1 Deflection (mm),Chan2 Deflection (mm)
0:0:15.458,7.91783,1.00663,0,0.000885,0,0
0:0:15.558,12.0814,1.53753,0,0.000885,0,0
0:0:15.659,12.0814,1.53753,0,0.000885,0,0
0:0:15.758,14.0163,1.78574,0,0.000885,0,0
0:0:15.853,14.8393,1.88916,0,0.000885,0,0
0:0:15.954,14.8971,1.89606,0,0.000885,0,0
0:0:16.056,14.8971,1.89606,0,0.000885,0,0
0:0:16.156,14.6613,1.86848,0,0.000885,0,0
0:0:16.255,14.4879,1.84779,0,0.000885,0,0
0:0:16.351,14.4879,1.84779,0,0.000885,0,0
0:0:16.450,14.4879,1.84779,0,0.000885,0,0
0:0:16.551,14.4879,1.84779,0,0.000885,0,0
0:0:16.651,14.2521,1.81332,0,0.000885,0,0
0:0:16.750,14.5457,1.85469,0,0.000885,0,0
0:0:16.847,14.5457,1.85469,0,0.000885,0,0
0:0:16.956,14.3099,1.82022,0,0.000885,0,0
0:0:17.057,14.2521,1.81332,0,0.000885,0,0
0:0:17.157,14.1364,1.79953,0,0.000885,0,0
0:0:17.256,14.1364,1.79953,0,0.000885,0,0
0:0:17.353,14.0163,1.78574,0,0.000885,0,0
0:0:17.451,13.9007,1.77195,0,0.000885,0,0
0:0:17.553,13.9007,1.77195,0,0.000885,0,0
0:0:17.652,13.9585,1.77885,0,0.000885,0,0
0:0:17.750,13.9585,1.77885,0,0.000885,0,0
0:0:17.848,13.8429,1.76506,0,0.000885,0,0
0:0:17.956,13.8429,1.76506,0,0.000885,0,0
0:0:18.057,13.8429,1.76506,0,0.000885,0,0
0:0:18.157,13.7228,1.74437,0,0.000885,0,0
0:0:18.257,13.7228,1.74437,0,0.000885,0,0
0:0:18.354,13.7228,1.74437,0,0.000885,0,0
0:0:18.451,13.9007,1.77195,0,0.000885,0,0
0:0:18.552,13.8429,1.76506,0,0.000885,0,0
0:0:18.652,14.1364,1.79953,0,0.000885,0,0
0:0:18.753,14.1364,1.79953,0,0.000885,0,0
0:0:18.849,13.3714,1.70301,0,0.000885,0,0
0:0:18.947,13.6649,1.73748,0,0.000885,0,0
0:0:19.047,13.3714,1.70301,0,0.000885,0,0
0:0:19.148,13.3714,1.70301,0,0.000885,0,0
0:0:19.248,14.0742,1.79264,0,0.000885,0,0
0:0:19.346,14.43,1.83401,0,0.000885,0,0
0:0:19.453,14.7192,1.87537,0,0.000885,0,0
0:0:19.554,14.7192,1.87537,0,0.000885,0,0
0:0:19.655,14.6613,1.86848,0,0.000885,0,0
0:0:19.756,14.8393,1.88916,0,0.000885,0,0
0:0:19.852,14.8393,1.88916,0,0.000885,0,0
0:0:19.949,15.4843,1.9719,0,0.000885,0,0
0:0:20.049,15.9513,2.03395,0,0.000885,0,0
0:0:20.149,16.5385,2.1029,0,0.000885,0,0
0:0:20.250,16.5385,2.1029,0,0.000885,0,0
0:0:20.350,17.1835,2.18564,0,0.000885,0,0
0:0:20.447,17.3614,2.21322,0,0.000885,0,0
0:0:20.544,17.8863,2.27527,0,0.000885,0,0
0:0:20.647,17.8863,2.27527,0,0.000885,0,0
0:0:20.748,18.6514,2.3718,0,0.000885,0,0
0:0:20.849,19.0606,2.42695,0,0.000885,0,0
0:0:20.951,19.7634,2.51659,0,0.000885,0,0
0:0:21.052,19.7634,2.51659,0,0.000885,0,0
0:0:21.155,19.8257,2.52348,0,0.000885,0,0
0:0:21.256,20.1193,2.55795,0,0.000885,0,0
0:0:21.358,20.8221,2.64759,0,0.000885,0,0
0:0:21.457,20.8221,2.64759,0,0.000885,0,0
0:0:21.559,21.0534,2.68206,0,0.000885,0,0
0:0:21.659,21.992,2.79927,0,0.000885,0,0
0:0:21.761,22.0543,2.80617,0,0.000885,0,0
0:0:21.861,22.0543,2.80617,0,0.000885,0,0
0:0:21.962,22.5213,2.86822,0,0.000885,0,0
0:0:22.063,23.0507,2.93717,0,0.000885,0,0
0:0:22.165,23.4599,2.98543,0,0.000885,0,0
0:0:22.264,23.4599,2.98543,0,0.000885,0,0
0:0:22.365,23.7535,3.0268,0,0.000885,0,0
0:0:22.465,24.5764,3.13022,0,0.000885,0,0
0:0:22.562,25.2214,3.21296,0,0.000885,0,0
0:0:22.663,25.2214,3.21296,0,0.000885,0,0
0:0:22.764,25.5728,3.25433,0,0.000885,0,0
0:0:22.865,26.2178,3.33706,0,0.000885,0,0
0:0:22.963,26.2178,3.33706,0,0.000885,0,0
0:0:23.059,26.0977,3.32327,0,0.000885,0,0
0:0:23.161,26.5692,3.38533,0,0.000885,0,0
0:0:23.261,27.1564,3.45427,0,0.000885,0,0
0:0:23.362,27.1564,3.45427,0,0.000885,0,0
0:0:23.461,27.8592,3.54391,0,0.000885,0,0
0:0:23.558,28.2106,3.59217,0,0.000885,0,0
0:0:23.657,28.4464,3.61975,0,0.000885,0,0
0:0:23.759,28.4464,3.61975,0,0.000885,0,0
0:0:23.859,28.8556,3.67491,0,0.000885,0,0
0:0:23.958,29.0914,3.70248,0,0.000885,0,0
0:0:24.054,29.6785,3.77833,0,0.000885,0,0
0:0:24.153,29.6785,3.77833,0,0.000885,0,0
0:0:24.254,30.0299,3.82659,0,0.000885,0,0
0:0:24.357,30.3235,3.86106,0,0.000885,0,0
0:0:24.454,30.3235,3.86106,0,0.000885,0,0
0:0:24.552,30.5548,3.88864,0,0.000885,0,0
0:0:24.651,31.5557,4.01964,0,0.000885,0,0
0:0:24.753,31.7292,4.04033,0,0.000885,0,0
0:0:24.853,31.7292,4.04033,0,0.000885,0,0
0:0:24.952,32.1384,4.09549,0,0.000885,0,0
0:0:25.049,32.2585,4.10928,0,0.000885,0,0
0:0:25.147,32.9613,4.19891,0,0.000885,0,0
0:0:25.248,32.9613,4.19891,0,0.000885,0,0
0:0:25.350,33.3127,4.24028,0,0.000885,0,0
0:0:25.450,33.4328,4.25407,0,0.000885,0,0
0:0:25.548,33.7842,4.30233,0,0.000885,0,0
0:0:25.656,33.7842,4.30233,0,0.000885,0,0
0:0:25.757,34.0156,4.32991,0,0.000885,0,0
0:0:25.857,34.0156,4.32991,0,0.000885,0,0
0:0:25.959,34.3091,4.37128,0,0.000885,0,0
0:0:26.059,34.3091,4.37128,0,0.000885,0,0
0:0:26.162,34.7228,4.41954,0,0.000885,0,0
0:0:26.263,34.7806,4.42643,0,0.000885,0,0
0:0:26.366,35.1899,4.48159,0,0.000885,0,0
0:0:26.467,35.1899,4.48159,0,0.000885,0,0
0:0:26.568,35.5991,4.52986,0,0.000885,0,0
0:0:26.669,35.8349,4.56433,0,0.000885,0,0
0:0:26.770,35.8927,4.57122,0,0.000885,0,0
0:0:26.871,35.8927,4.57122,0,0.000885,0,0
0:0:26.972,36.1863,4.6057,0,0.000885,0,0
0:0:27.073,36.7734,4.68154,0,0.000885,0,0
0:0:27.175,37.1249,4.7298,0,0.000885,0,0
0:0:27.274,37.1249,4.7298,0,0.000885,0,0
0:0:27.376,37.3028,4.75049,0,0.000885,0,0
0:0:27.477,37.89,4.82633,0,0.000885,0,0
0:0:27.575,38.2414,4.8677,0,0.000885,0,0
0:0:27.673,38.2414,4.8677,0,0.000885,0,0
0:0:27.774,38.5349,4.90907,0,0.000885,0,0
0:0:27.874,38.8285,4.94354,0,0.000885,0,0
0:0:27.976,39.3534,5.01249,0,0.000885,0,0
0:0:28.074,39.3534,5.01249,0,0.000885,0,0
0:0:28.172,39.5313,5.03317,0,0.000885,0,0
0:0:28.271,40.1763,5.11591,0,0.000885,0,0
0:0:28.373,40.1763,5.11591,0,0.000885,0,0
0:0:28.472,40.7012,5.18486,0,0.000885,0,0
0:0:28.572,41.2884,5.25381,0,0.000885,0,0
0:0:28.669,41.6398,5.30207,0,0.000885,0,0
0:0:28.769,41.6398,5.30207,0,0.000885,0,0
0:0:28.870,41.9334,5.33654,0,0.000885,0,0
0:0:28.971,42.4049,5.39859,0,0.000885,0,0
0:0:29.071,43.1077,5.48823,0,0.000885,0,0
0:0:29.167,43.1077,5.48823,0,0.000885,0,0
0:0:29.266,43.4013,5.5227,0,0.000885,0,0
0:0:29.367,43.6949,5.56407,0,0.000885,0,0
0:0:29.468,44.2242,5.63302,0,0.000885,0,0
0:0:29.568,44.2242,5.63302,0,0.000885,0,0
0:0:29.664,44.4555,5.6606,0,0.000885,0,0
0:0:29.763,44.6335,5.68128,0,0.000885,0,0
0:0:29.864,44.6335,5.68128,0,0.000885,0,0
0:0:29.965,45.1005,5.74333,0,0.000885,0,0
0:0:30.066,45.5142,5.7916,0,0.000885,0,0
0:0:30.164,45.9234,5.84675,0,0.000885,0,0
0:0:30.261,45.9234,5.84675,0,0.000885,0,0
0:0:30.361,46.1014,5.86744,0,0.000885,0,0
0:0:30.463,46.6841,5.94328,0,0.000885,0,0
0:0:30.563,46.9198,5.97086,0,0.000885,0,0
0:0:30.661,46.9198,5.97086,0,0.000885,0,0
0:0:30.759,47.4492,6.03981,0,0.000885,0,0
0:0:30.860,47.507,6.0467,0,0.000885,0,0
0:0:30.961,47.507,6.0467,0,0.000885,0,0
0:0:31.062,47.507,6.0467,0,0.000885,0,0
0:0:31.163,48.152,6.12944,0,0.000885,0,0
0:0:31.265,48.3299,6.15012,0,0.000885,0,0
0:0:31.368,48.6191,6.19149,0,0.000885,0,0
0:0:31.469,48.6191,6.19149,0,0.000885,0,0
0:0:31.571,49.3263,6.28112,0,0.000885,0,0
0:0:31.672,49.8512,6.35007,0,0.000885,0,0
0:0:31.773,50.087,6.37765,0,0.000885,0,0
0:0:31.875,50.087,6.37765,0,0.000885,0,0
0:0:31.975,50.5585,6.4397,0,0.000885,0,0
0:0:32.076,50.9099,6.48107,0,0.000885,0,0
0:0:32.177,51.4971,6.55691,0,0.000885,0,0
0:0:32.278,51.4971,6.55691,0,0.000885,0,0
0:0:32.379,51.8485,6.59828,0,0.000885,0,0
0:0:32.480,52.1999,6.64655,0,0.000885,0,0
0:0:32.581,52.4935,6.68102,0,0.000885,0,0
0:0:32.679,52.4935,6.68102,0,0.000885,0,0
0:0:32.776,52.7248,6.71549,0,0.000885,0,0
0:0:32.876,53.3698,6.79823,0,0.000885,0,0
0:0:32.977,53.6055,6.82581,0,0.000885,0,0
0:0:33.078,53.6055,6.82581,0,0.000885,0,0
0:0:33.178,53.8413,6.85339,0,0.000885,0,0
0:0:33.276,54.1927,6.90165,0,0.000885,0,0
0:0:33.373,54.1927,6.90165,0,0.000885,0,0
0:0:33.476,54.7798,6.97749,0,0.000885,0,0
0:0:33.576,55.1313,7.01886,0,0.000885,0,0
0:0:33.676,55.4248,7.06023,0,0.000885,0,0
0:0:33.773,55.4248,7.06023,0,0.000885,0,0
0:0:33.871,55.6606,7.08781,0,0.000885,0,0
0:0:33.973,56.1277,7.14986,0,0.000885,0,0
0:0:34.073,56.3634,7.17744,0,0.000885,0,0
0:0:34.173,56.3634,7.17744,0,0.000885,0,0
0:0:34.272,56.657,7.21192,0,0.000885,0,0
0:0:34.370,57.1863,7.28086,0,0.000885,0,0
0:0:34.470,57.4755,7.31534,0,0.000885,0,0
0:0:34.571,57.4755,7.31534,0,0.000885,0,0
0:0:34.671,57.7691,7.35671,0,0.000885,0,0
0:0:34.769,58.1827,7.40497,0,0.000885,0,0
0:0:34.867,58.1827,7.40497,0,0.000885,0,0
0:0:34.966,58.6498,7.46702,0,0.000885,0,0
0:0:35.068,58.7699,7.48081,0,0.000885,0,0
0:0:35.169,59.4149,7.56355,0,0.000885,0,0
0:0:35.267,59.4149,7.56355,0,0.000885,0,0
0:0:35.365,59.7663,7.61181,0,0.000885,0,0
0:0:35.466,60.0599,7.64629,0,0.000885,0,0
0:0:35.566,60.9362,7.7566,0,0.000885,0,0
0:0:35.667,60.9362,7.7566,0,0.000885,0,0
0:0:35.768,60.9985,7.7635,0,0.000885,0,0
0:0:35.871,61.2298,7.79797,0,0.000885,0,0
0:0:35.972,61.5812,7.83934,0,0.000885,0,0
0:0:36.074,61.5812,7.83934,0,0.000885,0,0
0:0:36.176,61.9949,7.8945,0,0.000885,0,0
0:0:36.277,62.582,7.97034,0,0.000885,0,0
0:0:36.378,63.1069,8.03239,0,0.000885,0,0
0:0:36.479,63.1069,8.03239,0,0.000885,0,0
0:0:36.580,63.227,8.05308,0,0.000885,0,0
0:0:36.681,63.6363,8.10134,0,0.000885,0,0
0:0:36.781,64.2234,8.17718,0,0.000885,0,0
0:0:36.882,64.2234,8.17718,0,0.000885,0,0
0:0:36.983,64.5748,8.21855,0,0.000885,0,0
0:0:37.084,65.162,8.29439,0,0.000885,0,0
0:0:37.185,65.2777,8.30818,0,0.000885,0,0
0:0:37.284,65.2777,8.30818,0,0.000885,0,0
0:0:37.382,65.6869,8.36334,0,0.000885,0,0
0:0:37.483,65.5712,8.34955,0,0.000885,0,0
0:0:37.584,66.0383,8.4116,0,0.000885,0,0
0:0:37.685,66.0383,8.4116,0,0.000885,0,0
0:0:37.781,66.452,8.45987,0,0.000885,0,0
0:0:37.879,66.8034,8.50813,0,0.000885,0,0
0:0:37.980,66.8034,8.50813,0,0.000885,0,0
0:0:38.081,67.2126,8.55639,0,0.000885,0,0
0:0:38.182,67.564,8.60466,0,0.000885,0,0
0:0:38.281,67.6219,8.61155,0,0.000885,0,0
0:0:38.378,67.6219,8.61155,0,0.000885,0,0
0:0:38.478,68.0934,8.66671,0,0.000885,0,0
0:0:38.580,68.6227,8.73566,0,0.000885,0,0
0:0:38.681,68.9163,8.77703,0,0.000885,0,0
0:0:38.779,68.9163,8.77703,0,0.000885,0,0
0:0:38.876,69.3834,8.83218,0,0.000885,0,0
0:0:38.976,69.7926,8.88734,0,0.000885,0,0
0:0:39.078,70.3798,8.96318,0,0.000885,0,0
0:0:39.177,70.3798,8.96318,0,0.000885,0,0
0:0:39.276,70.8513,9.01834,0,0.000885,0,0
0:0:39.375,71.0826,9.05282,0,0.000885,0,0
0:0:39.474,71.4963,9.10108,0,0.000885,0,0
0:0:39.575,71.4963,9.10108,0,0.000885,0,0
0:0:39.677,71.5541,9.10797,0,0.000885,0,0
0:0:39.774,72.0834,9.17692,0,0.000885,0,0
0:0:39.871,72.0834,9.17692,0,0.000885,0,0
0:0:39.971,72.2569,9.19761,0,0.000885,0,0
0:0:40.072,72.6661,9.25276,0,0.000885,0,0
0:0:40.173,73.1377,9.31482,0,0.000885,0,0
0:0:40.272,73.1377,9.31482,0,0.000885,0,0
0:0:40.370,73.4891,9.35619,0,0.000885,0,0
0:0:40.469,73.7248,9.38376,0,0.000885,0,0
0:0:40.571,74.4855,9.48719,0,0.000885,0,0
0:0:40.672,74.4855,9.48719,0,0.000885,0,0
0:0:40.773,74.957,9.54234,0,0.000885,0,0
0:0:40.874,75.2506,9.58371,0,0.000885,0,0
0:0:40.978,75.424,9.6044,0,0.000885,0,0
0:0:41.077,75.424,9.6044,0,0.000885,0,0
0:0:41.179,75.9534,9.67334,0,0.000885,0,0
0:0:41.280,75.9534,9.67334,0,0.000885,0,0
0:0:41.382,76.5405,9.74229,0,0.000885,0,0
0:0:41.483,76.5405,9.74229,0,0.000885,0,0
0:0:41.584,76.6562,9.76298,0,0.000885,0,0
0:0:41.685,77.1855,9.82503,0,0.000885,0,0
0:0:41.786,77.537,9.87329,0,0.000885,0,0
0:0:41.886,77.537,9.87329,0,0.000885,0,0
0:0:41.987,77.5948,9.88019,0,0.000885,0,0
0:0:42.088,78.2398,9.96292,0,0.000885,0,0
0:0:42.189,78.5334,9.9974,0,0.000885,0,0
0:0:42.289,78.5334,9.9974,0,0.000885,0,0
0:0:42.387,79.1783,10.0801,0,0.000885,0,0
0:0:42.484,79.1783,10.0801,0,0.000885,0,0
0:0:42.586,79.5298,10.1284,0,0.000885,0,0
0:0:42.686,79.5298,10.1284,0,0.000885,0,0
0:0:42.787,79.8812,10.1698,0,0.000885,0,0
0:0:42.885,80.4105,10.2387,0,0.000885,0,0
0:0:42.982,80.4105,10.2387,0,0.000885,0,0
0:0:43.084,80.7041,10.2732,0,0.000885,0,0
0:0:43.185,81.2912,10.349,0,0.000885,0,0
0:0:43.285,81.7005,10.4042,0,0.000885,0,0
0:0:43.382,81.7005,10.4042,0,0.000885,0,0
0:0:43.480,81.7583,10.4111,0,0.000885,0,0
0:0:43.581,82.1097,10.4525,0,0.000885,0,0
0:0:43.682,82.4611,10.5007,0,0.000885,0,0
0:0:43.782,82.4611,10.5007,0,0.000885,0,0
0:0:43.881,83.3997,10.6179,0,0.000885,0,0
0:0:43.979,83.8134,10.6731,0,0.000885,0,0
0:0:44.079,84.2226,10.7213,0,0.000885,0,0
0:0:44.180,84.2226,10.7213,0,0.000885,0,0
0:0:44.280,84.8676,10.8041,0,0.000885,0,0
0:0:44.378,85.219,10.8523,0,0.000885,0,0
0:0:44.476,85.219,10.8523,0,0.000885,0,0
0:0:44.576,85.5704,10.8937,0,0.000885,0,0
0:0:44.677,85.7484,10.9144,0,0.000885,0,0
0:0:44.778,85.8062,10.9282,0,0.000885,0,0
0:0:44.877,85.8062,10.9282,0,0.000885,0,0
0:0:44.974,86.509,11.0178,0,0.000885,0,0
0:0:45.075,87.2741,11.1143,0,0.000885,0,0
0:0:45.174,87.6255,11.1557,0,0.000885,0,0
0:0:45.275,87.6255,11.1557,0,0.000885,0,0
0:0:45.372,87.3898,11.1281,0,0.000885,0,0
0:0:45.470,87.9769,11.204,0,0.000885,0,0
0:0:45.570,88.2082,11.2316,0,0.000885,0,0
0:0:45.672,88.2082,11.2316,0,0.000885,0,0
0:0:45.771,88.5018,11.266,0,0.000885,0,0
0:0:45.872,88.7954,11.3074,0,0.000885,0,0
0:0:45.974,88.9155,11.3212,0,0.000885,0,0
0:0:46.076,88.9155,11.3212,0,0.000885,0,0
0:0:46.177,89.1468,11.3488,0,0.000885,0,0
0:0:46.280,89.6761,11.4177,0,0.000885,0,0
0:0:46.381,90.1477,11.4798,0,0.000885,0,0
0:0:46.482,90.1477,11.4798,0,0.000885,0,0
0:0:46.582,90.6725,11.5418,0,0.000885,0,0
0:0:46.684,91.3175,11.6246,0,0.000885,0,0
0:0:46.784,91.669,11.6728,0,0.000885,0,0
0:0:46.884,91.669,11.6728,0,0.000885,0,0
0:0:46.985,91.7312,11.6797,0,0.000885,0,0
0:0:47.086,92.1405,11.7349,0,0.000885,0,0
0:0:47.188,92.6075,11.79,0,0.000885,0,0
0:0:47.288,92.6075,11.79,0,0.000885,0,0
0:0:47.389,93.079,11.8521,0,0.000885,0,0
0:0:47.486,93.2525,11.8728,0,0.000885,0,0
0:0:47.585,93.2525,11.8728,0,0.000885,0,0
0:0:47.686,93.4883,11.9004,0,0.000885,0,0
0:0:47.787,94.0754,11.9762,0,0.000885,0,0
0:0:47.887,94.2534,12.0038,0,0.000885,0,0
0:0:47.985,94.2534,12.0038,0,0.000885,0,0
0:0:48.084,94.7204,12.0589,0,0.000885,0,0
0:0:48.185,95.2498,12.1279,0,0.000885,0,0
0:0:48.286,95.3076,12.1348,0,0.000885,0,0
0:0:48.385,95.3076,12.1348,0,0.000885,0,0
0:0:48.482,95.7168,12.1899,0,0.000885,0,0
0:0:48.581,96.4197,12.2796,0,0.000885,0,0
0:0:48.683,96.949,12.3416,0,0.000885,0,0
0:0:48.782,96.949,12.3416,0,0.000885,0,0
0:0:48.882,97.1269,12.3692,0,0.000885,0,0
0:0:48.981,97.4783,12.4106,0,0.000885,0,0
0:0:49.080,98.1233,12.4933,0,0.000885,0,0
0:0:49.181,98.1233,12.4933,0,0.000885,0,0
0:0:49.282,98.4169,12.5278,0,0.000885,0,0
0:0:49.382,98.5904,12.5554,0,0.000885,0,0
0:0:49.478,98.5904,12.5554,0,0.000885,0,0
0:0:49.577,98.6482,12.5622,0,0.000885,0,0
0:0:49.678,99.1197,12.6174,0,0.000885,0,0
0:0:49.779,99.3555,12.6519,0,0.000885,0,0
0:0:49.878,99.3555,12.6519,0,0.000885,0,0
0:0:49.976,99.7069,12.6932,0,0.000885,0,0
0:0:50.076,100.468,12.7898,0,0.000885,0,0
0:0:50.177,100.645,12.8174,0,0.000885,0,0
0:0:50.278,100.645,12.8174,0,0.000885,0,0
0:0:50.378,100.703,12.8242,0,0.000885,0,0
0:0:50.476,101.113,12.8725,0,0.000885,0,0
0:0:50.573,101.758,12.9552,0,0.000885,0,0
0:0:50.673,101.758,12.9552,0,0.000885,0,0
0:0:50.773,102.051,12.9966,0,0.000885,0,0
0:0:50.875,102.345,13.0311,0,0.000885,0,0
0:0:50.976,102.754,13.0862,0,0.000885,0,0
0:0:51.078,102.754,13.0862,0,0.000885,0,0
0:0:51.179,102.816,13.0931,0,0.000885,0,0
0:0:51.282,103.577,13.1897,0,0.000885,0,0
0:0:51.383,104.106,13.2517,0,0.000885,0,0
0:0:51.484,104.106,13.2517,0,0.000885,0,0
0:0:51.585,104.222,13.2724,0,0.000885,0,0
0:0:51.686,104.809,13.3414,0,0.000885,0,0
0:0:51.787,105.512,13.431,0,0.000885,0,0
0:0:51.888,105.512,13.431,0,0.000885,0,0
0:0:51.988,106.041,13.4999,0,0.000885,0,0
0:0:52.090,105.921,13.4861,0,0.000885,0,0
0:0:52.190,106.628,13.5758,0,0.000885,0,0
0:0:52.291,106.628,13.5758,0,0.000885,0,0
0:0:52.392,106.802,13.5965,0,0.000885,0,0
0:0:52.492,107.153,13.6447,0,0.000885,0,0
0:0:52.589,107.153,13.6447,0,0.000885,0,0
0:0:52.690,107.447,13.6792,0,0.000885,0,0
0:0:52.791,107.683,13.7137,0,0.000885,0,0
0:0:52.892,108.385,13.8033,0,0.000885,0,0
0:0:52.988,108.385,13.8033,0,0.000885,0,0
0:0:53.087,108.737,13.8447,0,0.000885,0,0
0:0:53.187,108.857,13.8585,0,0.000885,0,0
0:0:53.289,109.56,13.9481,0,0.000885,0,0
0:0:53.390,109.56,13.9481,0,0.000885,0,0
0:0:53.487,109.911,13.9964,0,0.000885,0,0
0:0:53.585,109.969,14.0033,0,0.000885,0,0
0:0:53.686,110.614,14.086,0,0.000885,0,0
0:0:53.787,110.614,14.086,0,0.000885,0,0
0:0:53.887,110.734,14.0998,0,0.000885,0,0
0:0:53.986,111.085,14.1411,0,0.000885,0,0
0:0:54.082,111.023,14.1343,0,0.000885,0,0
0:0:54.183,111.023,14.1343,0,0.000885,0,0
0:0:54.284,111.73,14.2239,0,0.000885,0,0
0:0:54.384,112.14,14.279,0,0.000885,0,0
0:0:54.484,112.14,14.279,0,0.000885,0,0
0:0:54.581,112.14,14.279,0,0.000885,0,0
0:0:54.679,112.727,14.3549,0,0.000885,0,0
0:0:54.780,113.194,14.41,0,0.000885,0,0
0:0:54.881,113.194,14.41,0,0.000885,0,0
0:0:54.980,113.372,14.4376,0,0.000885,0,0
0:0:55.078,113.781,14.4859,0,0.000885,0,0
0:0:55.178,114.31,14.5548,0,0.000885,0,0
0:0:55.278,114.31,14.5548,0,0.000885,0,0
0:0:55.379,114.604,14.5893,0,0.000885,0,0
0:0:55.479,114.955,14.6376,0,0.000885,0,0
0:0:55.577,115.191,14.6651,0,0.000885,0,0
0:0:55.675,115.191,14.6651,0,0.000885,0,0
0:0:55.775,115.716,14.7341,0,0.000885,0,0
0:0:55.876,116.361,14.8168,0,0.000885,0,0
0:0:55.977,116.775,14.8651,0,0.000885,0,0
0:0:56.078,116.775,14.8651,0,0.000885,0,0
0:0:56.181,117.242,14.9271,0,0.000885,0,0
0:0:56.281,117.887,15.0099,0,0.000885,0,0
0:0:56.384,118.296,15.065,0,0.000885,0,0
0:0:56.484,118.296,15.065,0,0.000885,0,0
0:0:56.585,118.238,15.0581,0,0.000885,0,0
0:0:56.685,118.532,15.0926,0,0.000885,0,0
0:0:56.787,118.883,15.134,0,0.000885,0,0
0:0:56.886,118.883,15.134,0,0.000885,0,0
0:0:56.987,119.297,15.1892,0,0.000885,0,0
0:0:57.088,119.706,15.2443,0,0.000885,0,0
0:0:57.189,119.706,15.2443,0,0.000885,0,0
0:0:57.290,120,15.2788,0,0.000885,0,0
0:0:57.392,120.173,15.2995,0,0.000885,0,0
0:0:57.493,120.996,15.4029,0,0.000885,0,0
0:0:57.589,120.996,15.4029,0,0.000885,0,0
0:0:57.688,121.463,15.4649,0,0.000885,0,0
0:0:57.789,121.641,15.4856,0,0.000885,0,0
0:0:57.891,122.286,15.5684,0,0.000885,0,0
0:0:57.990,122.286,15.5684,0,0.000885,0,0
0:0:58.088,122.522,15.6028,0,0.000885,0,0
0:0:58.186,123.34,15.7063,0,0.000885,0,0
0:0:58.286,123.403,15.7132,0,0.000885,0,0
0:0:58.387,123.403,15.7132,0,0.000885,0,0
0:0:58.487,123.692,15.7476,0,0.000885,0,0
0:0:58.586,123.985,15.789,0,0.000885,0,0
0:0:58.684,124.105,15.8028,0,0.000885,0,0
0:0:58.785,124.105,15.8028,0,0.000885,0,0
0:0:58.886,124.63,15.8717,0,0.000885,0,0
0:0:58.986,125.16,15.9338,0,0.000885,0,0
0:0:59.084,125.16,15.9338,0,0.000885,0,0
0:0:59.182,125.217,15.9407,0,0.000885,0,0
0:0:59.282,125.511,15.982,0,0.000885,0,0
0:0:59.384,125.805,16.0165,0,0.000885,0,0
0:0:59.483,125.805,16.0165,0,0.000885,0,0
0:0:59.582,126.156,16.0648,0,0.000885,0,0
0:0:59.681,126.685,16.1268,0,0.000885,0,0
0:0:59.781,127.152,16.1889,0,0.000885,0,0
0:0:59.883,127.152,16.1889,0,0.000885,0,0
0:0:59.982,127.682,16.2578,0,0.000885,0,0
0:1:0.080,127.975,16.2923,0,0.000885,0,0
0:1:0.178,128.563,16.3682,0,0.000885,0,0
0:1:0.277,128.563,16.3682,0,0.000885,0,0
0:1:0.378,128.563,16.3682,0,0.000885,0,0
0:1:0.479,129.15,16.444,0,0.000885,0,0
0:1:0.576,129.15,16.444,0,0.000885,0,0
0:1:0.675,129.15,16.444,0,0.000885,0,0
0:1:0.774,129.675,16.5129,0,0.000885,0,0
0:1:0.876,130.146,16.5681,0,0.000885,0,0
0:1:0.976,130.146,16.5681,0,0.000885,0,0
0:1:1.078,130.44,16.6095,0,0.000885,0,0
0:1:1.178,130.733,16.6439,0,0.000885,0,0
0:1:1.281,131.027,16.6853,0,0.000885,0,0
0:1:1.382,131.027,16.6853,0,0.000885,0,0
0:1:1.483,131.32,16.7198,0,0.000885,0,0
0:1:1.584,131.965,16.8025,0,0.000885,0,0
0:1:1.687,132.081,16.8163,0,0.000885,0,0
0:1:1.786,132.081,16.8163,0,0.000885,0,0
0:1:1.888,132.49,16.8715,0,0.000885,0,0
0:1:1.987,133.135,16.9542,0,0.000885,0,0
0:1:2.089,133.255,16.968,0,0.000885,0,0
0:1:2.189,133.255,16.968,0,0.000885,0,0
0:1:2.290,133.78,17.0369,0,0.000885,0,0
0:1:2.391,134.132,17.0783,0,0.000885,0,0
0:1:2.493,134.194,17.0852,0,0.000885,0,0
0:1:2.591,134.194,17.0852,0,0.000885,0,0
0:1:2.689,134.955,17.1817,0,0.000885,0,0
0:1:2.788,135.542,17.2576,0,0.000885,0,0
0:1:2.890,135.715,17.2783,0,0.000885,0,0
0:1:2.990,135.715,17.2783,0,0.000885,0,0
0:1:3.091,135.893,17.3058,0,0.000885,0,0
0:1:3.188,136.071,17.3265,0,0.000885,0,0
0:1:3.286,136.774,17.4162,0,0.000885,0,0
0:1:3.386,136.774,17.4162,0,0.000885,0,0
0:1:3.488,136.947,17.4368,0,0.000885,0,0
0:1:3.588,137.299,17.4851,0,0.000885,0,0
0:1:3.685,137.299,17.4851,0,0.000885,0,0
0:1:3.782,137.828,17.5472,0,0.000885,0,0
0:1:3.882,137.944,17.5609,0,0.000885,0,0
0:1:3.984,138.3,17.6092,0,0.000885,0,0
0:1:4.085,138.3,17.6092,0,0.000885,0,0
0:1:4.184,138.767,17.6713,0,0.000885,0,0
0:1:4.282,139.527,17.7678,0,0.000885,0,0
0:1:4.381,140.177,17.8505,0,0.000885,0,0
0:1:4.483,140.177,17.8505,0,0.000885,0,0
0:1:4.582,140.586,17.8988,0,0.000885,0,0
0:1:4.682,140.528,17.8919,0,0.000885,0,0
0:1:4.779,140.995,17.9539,0,0.000885,0,0
0:1:4.878,140.995,17.9539,0,0.000885,0,0
0:1:4.979,141.231,17.9815,0,0.000885,0,0
0:1:5.079,141.876,18.0643,0,0.000885,0,0
0:1:5.180,142.17,18.0987,0,0.000885,0,0
0:1:5.278,142.17,18.0987,0,0.000885,0,0
0:1:5.376,142.521,18.147,0,0.000885,0,0
0:1:5.477,142.988,18.2091,0,0.000885,0,0
0:1:5.577,142.988,18.2091,0,0.000885,0,0
0:1:5.678,142.93,18.1953,0,0.000885,0,0
0:1:5.778,143.46,18.2642,0,0.000885,0,0
0:1:5.880,143.46,18.2642,0,0.000885,0,0
0:1:5.982,143.46,18.2642,0,0.000885,0,0
0:1:6.084,144.22,18.3607,0,0.000885,0,0
0:1:6.185,144.398,18.3883,0,0.000885,0,0
0:1:6.287,144.928,18.4504,0,0.000885,0,0
0:1:6.387,144.928,18.4504,0,0.000885,0,0
0:1:6.489,145.279,18.4986,0,0.000885,0,0
0:1:6.589,145.159,18.4848,0,0.000885,0,0
0:1:6.690,146.391,18.6365,0,0.000885,0,0
0:1:6.791,146.391,18.6365,0,0.000885,0,0
0:1:6.893,146.511,18.6572,0,0.000885,0,0
0:1:6.994,146.685,18.6779,0,0.000885,0,0
0:1:7.095,147.214,18.7468,0,0.000885,0,0
0:1:7.194,147.214,18.7468,0,0.000885,0,0
0:1:7.294,147.739,18.8089,0,0.000885,0,0
0:1:7.391,147.975,18.8434,0,0.000885,0,0
0:1:7.491,148.504,18.9054,0,0.000885,0,0
0:1:7.592,148.504,18.9054,0,0.000885,0,0
0:1:7.693,148.677,18.933,0,0.000885,0,0
0:1:7.792,148.971,18.9675,0,0.000885,0,0
0:1:7.889,149.265,19.002,0,0.000885,0,0
0:1:7.988,149.265,19.002,0,0.000885,0,0
0:1:8.089,149.852,19.0778,0,0.000885,0,0
0:1:8.190,150.087,19.1123,0,0.000885,0,0
0:1:8.291,150.381,19.1467,0,0.000885,0,0
0:1:8.387,150.381,19.1467,0,0.000885,0,0
0:1:8.486,150.848,19.2088,0,0.000885,0,0
0:1:8.587,151.377,19.2708,0,0.000885,0,0
0:1:8.688,151.377,19.2708,0,0.000885,0,0
0:1:8.788,152.022,19.3536,0,0.000885,0,0
0:1:8.884,152.432,19.4087,0,0.000885,0,0
0:1:8.982,152.61,19.4294,0,0.000885,0,0
0:1:9.084,152.61,19.4294,0,0.000885,0,0
0:1:9.185,153.077,19.4915,0,0.000885,0,0
0:1:9.286,153.134,19.4984,0,0.000885,0,0
0:1:9.385,153.548,19.5535,0,0.000885,0,0
0:1:9.481,153.548,19.5535,0,0.000885,0,0
0:1:9.582,153.722,19.5742,0,0.000885,0,0
0:1:9.683,154.602,19.6845,0,0.000885,0,0
0:1:9.784,154.718,19.6983,0,0.000885,0,0
0:1:9.882,154.718,19.6983,0,0.000885,0,0
0:1:9.979,154.954,19.7328,0,0.000885,0,0
0:1:10.080,155.247,19.7673,0,0.000885,0,0
0:1:10.180,155.247,19.7673,0,0.000885,0,0
0:1:10.281,155.541,19.8017,0,0.000885,0,0
0:1:10.380,155.777,19.8362,0,0.000885,0,0
0:1:10.478,156.128,19.8776,0,0.000885,0,0
0:1:10.578,156.128,19.8776,0,0.000885,0,0
0:1:10.679,156.773,19.9603,0,0.000885,0,0
0:1:10.780,157.125,20.0086,0,0.000885,0,0
0:1:10.881,157.827,20.0982,0,0.000885,0,0
0:1:10.983,157.827,20.0982,0,0.000885,0,0
0:1:11.085,157.77,20.0844,0,0.000885,0,0
0:1:11.187,158.592,20.1947,0,0.000885,0,0
0:1:11.289,158.53,20.1878,0,0.000885,0,0
0:1:11.388,158.53,20.1878,0,0.000885,0,0
0:1:11.489,159.002,20.243,0,0.000885,0,0
0:1:11.591,159.002,20.243,0,0.000885,0,0
0:1:11.692,159.762,20.3395,0,0.000885,0,0
0:1:11.792,159.762,20.3395,0,0.000885,0,0
0:1:11.892,160.056,20.3809,0,0.000885,0,0
0:1:11.992,160.056,20.3809,0,0.000885,0,0
0:1:12.093,160.879,20.4843,0,0.000885,0,0
0:1:12.195,160.879,20.4843,0,0.000885,0,0
0:1:12.296,161.23,20.5257,0,0.000885,0,0
0:1:12.397,161.697,20.5877,0,0.000885,0,0
0:1:12.494,161.817,20.6015,0,0.000885,0,0
0:1:12.592,161.817,20.6015,0,0.000885,0,0
0:1:12.693,162.227,20.6567,0,0.000885,0,0
0:1:12.794,162.872,20.7394,0,0.000885,0,0
0:1:12.893,163.05,20.7601,0,0.000885,0,0
0:1:12.991,163.05,20.7601,0,0.000885,0,0
0:1:13.089,163.281,20.7877,0,0.000885,0,0
0:1:13.190,163.868,20.8635,0,0.000885,0,0
0:1:13.291,163.868,20.8635,0,0.000885,0,0
0:1:13.391,164.455,20.9394,0,0.000885,0,0
0:1:13.490,164.633,20.9601,0,0.000885,0,0
0:1:13.587,164.864,20.9945,0,0.000885,0,0
0:1:13.687,164.864,20.9945,0,0.000885,0,0
0:1:13.789,165.63,21.0911,0,0.000885,0,0
0:1:13.888,165.452,21.0635,0,0.000885,0,0
0:1:13.986,165.745,21.1049,0,0.000885,0,0
0:1:14.083,165.745,21.1049,0,0.000885,0,0
0:1:14.183,166.332,21.1807,0,0.000885,0,0
0:1:14.285,166.92,21.2496,0,0.000885,0,0
0:1:14.385,167.622,21.3393,0,0.000885,0,0
0:1:14.484,167.622,21.3393,0,0.000885,0,0
0:1:14.582,168.032,21.3944,0,0.000885,0,0
0:1:14.681,168.209,21.4151,0,0.000885,0,0
0:1:14.783,168.209,21.4151,0,0.000885,0,0
0:1:14.882,168.445,21.4496,0,0.000885,0,0
0:1:14.982,169.032,21.5185,0,0.000885,0,0
0:1:15.080,168.912,21.5047,0,0.000885,0,0
0:1:15.178,168.912,21.5047,0,0.000885,0,0
0:1:15.279,169.442,21.5737,0,0.000885,0,0
0:1:15.380,170.087,21.6564,0,0.000885,0,0
0:1:15.479,170.087,21.6564,0,0.000885,0,0
0:1:15.578,170.087,21.6564,0,0.000885,0,0
0:1:15.677,170.496,21.7116,0,0.000885,0,0
0:1:15.778,171.141,21.7874,0,0.000885,0,0
0:1:15.878,171.319,21.815,0,0.000885,0,0
0:1:15.979,171.319,21.815,0,0.000885,0,0
0:1:16.080,171.964,21.8977,0,0.000885,0,0
0:1:16.182,172.137,21.9184,0,0.000885,0,0
0:1:16.285,172.667,21.9874,0,0.000885,0,0
0:1:16.386,172.667,21.9874,0,0.000885,0,0
0:1:16.488,173.018,22.0287,0,0.000885,0,0
0:1:16.588,173.49,22.0908,0,0.000885,0,0
0:1:16.689,173.899,22.1391,0,0.000885,0,0
0:1:16.789,173.899,22.1391,0,0.000885,0,0
0:1:16.891,174.135,22.1735,0,0.000885,0,0
0:1:16.991,174.192,22.1804,0,0.000885,0,0
0:1:17.093,174.722,22.2494,0,0.000885,0,0
0:1:17.192,174.722,22.2494,0,0.000885,0,0
0:1:17.292,174.659,22.2356,0,0.000885,0,0
0:1:17.394,175.247,22.3114,0,0.000885,0,0
0:1:17.495,175.54,22.3528,0,0.000885,0,0
0:1:17.593,175.54,22.3528,0,0.000885,0,0
0:1:17.692,175.66,22.3666,0,0.000885,0,0
0:1:17.790,175.949,22.4011,0,0.000885,0,0
0:1:17.891,175.949,22.4011,0,0.000885,0,0
0:1:17.993,176.657,22.4907,0,0.000885,0,0
0:1:18.091,177.124,22.5528,0,0.000885,0,0
0:1:18.189,177.417,22.5872,0,0.000885,0,0
0:1:18.287,177.417,22.5872,0,0.000885,0,0
0:1:18.389,177.475,22.5941,0,0.000885,0,0
0:1:18.488,178.182,22.6838,0,0.000885,0,0
0:1:18.588,178.649,22.7458,0,0.000885,0,0
0:1:18.686,178.649,22.7458,0,0.000885,0,0
0:1:18.786,179.41,22.8423,0,0.000885,0,0
0:1:18.887,179.352,22.8354,0,0.000885,0,0
0:1:18.987,180.055,22.9251,0,0.000885,0,0
0:1:19.086,180.055,22.9251,0,0.000885,0,0
0:1:19.183,179.997,22.9182,0,0.000885,0,0
0:1:19.282,180.7,23.0078,0,0.000885,0,0
0:1:19.383,181.172,23.0699,0,0.000885,0,0
0:1:19.484,181.172,23.0699,0,0.000885,0,0
0:1:19.583,181.407,23.0974,0,0.000885,0,0
0:1:19.680,181.759,23.1388,0,0.000885,0,0
0:1:19.779,181.759,23.1388,0,0.000885,0,0
0:1:19.880,182.284,23.2078,0,0.000885,0,0
0:1:19.981,182.755,23.2698,0,0.000885,0,0
0:1:20.082,182.697,23.2629,0,0.000885,0,0
0:1:20.179,182.697,23.2629,0,0.000885,0,0
0:1:20.276,183.342,23.3456,0,0.000885,0,0
0:1:20.377,183.578,23.3732,0,0.000885,0,0
0:1:20.478,183.694,23.387,0,0.000885,0,0
0:1:20.579,183.694,23.387,0,0.000885,0,0
0:1:20.677,184.161,23.4491,0,0.000885,0,0
0:1:20.774,184.748,23.5249,0,0.000885,0,0
0:1:20.874,185.099,23.5663,0,0.000885,0,0
0:1:20.976,185.099,23.5663,0,0.000885,0,0
0:1:21.077,185.277,23.587,0,0.000885,0,0
0:1:21.178,185.864,23.6628,0,0.000885,0,0
0:1:21.279,185.922,23.6697,0,0.000885,0,0
0:1:21.382,185.922,23.6697,0,0.000885,0,0
0:1:21.483,186.389,23.7318,0,0.000885,0,0
0:1:21.585,186.861,23.7938,0,0.000885,0,0
0:1:21.685,187.27,23.8421,0,0.000885,0,0
0:1:21.786,187.27,23.8421,0,0.000885,0,0
0:1:21.887,187.622,23.8903,0,0.000885,0,0
0:1:21.988,188.093,23.9455,0,0.000885,0,0
0:1:22.089,188.267,23.9731,0,0.000885,0,0
0:1:22.190,188.267,23.9731,0,0.000885,0,0
0:1:22.289,188.387,23.9869,0,0.000885,0,0
0:1:22.391,188.796,24.0351,0,0.000885,0,0
0:1:22.491,188.796,24.0351,0,0.000885,0,0
0:1:22.593,189.325,24.1041,0,0.000885,0,0
0:1:22.693,189.499,24.1248,0,0.000885,0,0
0:1:22.789,189.97,24.1868,0,0.000885,0,0
0:1:22.888,189.97,24.1868,0,0.000885,0,0
0:1:22.989,190.264,24.2282,0,0.000885,0,0
0:1:23.090,191.082,24.3316,0,0.000885,0,0
0:1:23.191,191.434,24.373,0,0.000885,0,0
0:1:23.288,191.434,24.373,0,0.000885,0,0
0:1:23.386,191.847,24.4281,0,0.000885,0,0
0:1:23.486,191.847,24.4281,0,0.000885,0,0
0:1:23.587,192.141,24.4626,0,0.000885,0,0
0:1:23.688,192.141,24.4626,0,0.000885,0,0
0:1:23.785,192.492,24.5109,0,0.000885,0,0
0:1:23.882,192.492,24.5109,0,0.000885,0,0
0:1:23.981,192.492,24.5109,0,0.000885,0,0
0:1:24.083,192.902,24.5591,0,0.000885,0,0
0:1:24.182,192.902,24.5591,0,0.000885,0,0
0:1:24.281,193.547,24.6419,0,0.000885,0,0
0:1:24.377,193.547,24.6419,0,0.000885,0,0
0:1:24.476,193.956,24.697,0,0.000885,0,0
0:1:24.576,194.249,24.7315,0,0.000885,0,0
0:1:24.677,194.721,24.7935,0,0.000885,0,0
0:1:24.775,194.721,24.7935,0,0.000885,0,0
0:1:24.871,194.952,24.8211,0,0.000885,0,0
0:1:24.969,195.659,24.9108,0,0.000885,0,0
0:1:25.071,195.953,24.9521,0,0.000885,0,0
0:1:25.170,195.953,24.9521,0,0.000885,0,0
0:1:25.269,195.953,24.9521,0,0.000885,0,0
0:1:25.366,196.598,25.0349,0,0.000885,0,0
0:1:25.463,196.598,25.0349,0,0.000885,0,0
0:1:25.563,197.181,25.1038,0,0.000885,0,0
0:1:25.663,197.123,25.0969,0,0.000885,0,0
0:1:25.763,197.594,25.159,0,0.000885,0,0
0:1:25.864,197.594,25.159,0,0.000885,0,0
0:1:25.965,198.062,25.221,0,0.000885,0,0
0:1:26.067,198.119,25.2279,0,0.000885,0,0
0:1:26.167,198.591,25.2831,0,0.000885,0,0
0:1:26.268,198.591,25.2831,0,0.000885,0,0
0:1:26.368,198.942,25.3313,0,0.000885,0,0
0:1:26.469,199.236,25.3658,0,0.000885,0,0
0:1:26.569,200.117,25.4761,0,0.000885,0,0
0:1:26.668,200.117,25.4761,0,0.000885,0,0
0:1:26.767,199.996,25.4623,0,0.000885,0,0
0:1:26.868,200.41,25.5175,0,0.000885,0,0
0:1:26.968,200.704,25.552,0,0.000885,0,0
0:1:27.068,200.704,25.552,0,0.000885,0,0
0:1:27.168,200.935,25.5864,0,0.000885,0,0
0:1:27.268,201.286,25.6278,0,0.000885,0,0
0:1:27.366,201.407,25.6416,0,0.000885,0,0
0:1:27.463,201.407,25.6416,0,0.000885,0,0
0:1:27.562,202.052,25.7243,0,0.000885,0,0
0:1:27.661,202.287,25.7588,0,0.000885,0,0
0:1:27.762,202.287,25.7588,0,0.000885,0,0
0:1:27.860,202.639,25.8002,0,0.000885,0,0
0:1:27.957,203.515,25.9105,0,0.000885,0,0
0:1:28.054,203.809,25.9519,0,0.000885,0,0
0:1:28.156,203.809,25.9519,0,0.000885,0,0
0:1:28.254,204.102,25.9863,0,0.000885,0,0
0:1:28.354,204.044,25.9794,0,0.000885,0,0
0:1:28.462,204.747,26.0691,0,0.000885,0,0
0:1:28.559,204.747,26.0691,0,0.000885,0,0
0:1:28.661,204.809,26.076,0,0.000885,0,0
0:1:28.761,205.099,26.1173,0,0.000885,0,0
0:1:28.859,205.57,26.1725,0,0.000885,0,0
0:1:28.955,205.57,26.1725,0,0.000885,0,0
0:1:29.063,206.037,26.2346,0,0.000885,0,0
0:1:29.163,206.393,26.2759,0,0.000885,0,0
0:1:29.264,206.744,26.3242,0,0.000885,0,0
0:1:29.363,206.744,26.3242,0,0.000885,0,0
0:1:29.461,207.332,26.4,0,0.000885,0,0
0:1:29.558,207.799,26.4552,0,0.000885,0,0
0:1:29.658,207.799,26.4552,0,0.000885,0,0
0:1:29.758,208.386,26.531,0,0.000885,0,0
0:1:29.857,208.386,26.531,0,0.000885,0,0
0:1:29.954,208.737,26.5793,0,0.000885,0,0
0:1:30.061,208.737,26.5793,0,0.000885,0,0
0:1:30.159,209.031,26.6138,0,0.000885,0,0
0:1:30.260,208.795,26.5862,0,0.000885,0,0
0:1:30.360,209.324,26.6551,0,0.000885,0,0
0:1:30.458,209.324,26.6551,0,0.000885,0,0
0:1:30.555,209.44,26.6689,0,0.000885,0,0
0:1:30.650,209.324,26.6551,0,0.000885,0,0
0:1:30.753,209.912,26.7241,0,0.000885,0,0
0:1:30.854,209.912,26.7241,0,0.000885,0,0
0:1:30.951,209.791,26.7103,0,0.000885,0,0
0:1:31.054,209.912,26.7241,0,0.000885,0,0
0:1:31.156,209.969,26.731,0,0.000885,0,0
0:1:31.257,209.969,26.731,0,0.000885,0,0
0:1:31.357,209.969,26.731,0,0.000885,0,0
0:1:31.458,210.085,26.7517,0,0.000885,0,0
0:1:31.558,210.027,26.7448,0,0.000885,0,0
0:1:31.658,210.027,26.7448,0,0.000885,0,0
0:1:31.758,210.027,26.7448,0,0.000885,0,0
0:1:31.857,209.849,26.7172,0,0.000885,0,0
0:1:31.957,209.849,26.7172,0,0.000885,0,0
0:1:32.057,210.027,26.7448,0,0.000885,0,0
0:1:32.157,210.143,26.7586,0,0.000885,0,0
0:1:32.258,210.143,26.7586,0,0.000885,0,0
0:1:32.356,210.143,26.7586,0,0.000885,0,0
0:1:32.454,210.027,26.7448,0,0.000885,0,0
0:1:32.561,210.321,26.7792,0,0.000885,0,0
0:1:32.660,210.085,26.7517,0,0.000885,0,0
0:1:32.761,210.085,26.7517,0,0.000885,0,0
0:1:32.861,210.085,26.7517,0,0.000885,0,0
0:1:32.959,210.499,26.7999,0,0.000885,0,0
0:1:33.055,210.557,26.8068,0,0.000885,0,0
0:1:33.162,210.557,26.8068,0,0.000885,0,0
0:1:33.264,211.024,26.8689,0,0.000885,0,0
0:1:33.364,211.202,26.8896,0,0.000885,0,0
0:1:33.463,211.144,26.8827,0,0.000885,0,0
0:1:33.560,211.144,26.8827,0,0.000885,0,0
0:1:33.658,211.317,26.9033,0,0.000885,0,0
0:1:33.757,211.669,26.9516,0,0.000885,0,0
0:1:33.858,211.611,26.9447,0,0.000885,0,0
0:1:33.958,211.611,26.9447,0,0.000885,0,0
0:1:34.054,211.789,26.9654,0,0.000885,0,0
0:1:34.161,211.495,26.9309,0,0.000885,0,0
0:1:34.260,211.495,26.9309,0,0.000885,0,0
0:1:34.361,211.433,26.924,0,0.000885,0,0
0:1:34.460,211.144,26.8827,0,0.000885,0,0
0:1:34.557,210.966,26.862,0,0.000885,0,0
0:1:34.663,210.966,26.862,0,0.000885,0,0
0:1:34.762,211.024,26.8689,0,0.000885,0,0
0:1:34.863,210.788,26.8413,0,0.000885,0,0
0:1:34.962,210.557,26.8068,0,0.000885,0,0
0:1:35.060,210.557,26.8068,0,0.000885,0,0
0:1:35.157,210.027,26.7448,0,0.000885,0,0
0:1:35.257,209.498,26.6758,0,0.000885,0,0
0:1:35.358,209.324,26.6551,0,0.000885,0,0
0:1:35.455,209.324,26.6551,0,0.000885,0,0
0:1:35.562,208.501,26.5448,0,0.000885,0,0
0:1:35.659,207.914,26.4759,0,0.000885,0,0
0:1:35.759,207.154,26.3724,0,0.000885,0,0
0:1:35.859,207.154,26.3724,0,0.000885,0,0
0:1:35.958,206.744,26.3242,0,0.000885,0,0
0:1:36.057,205.748,26.1932,0,0.000885,0,0
0:1:36.158,204.809,26.076,0,0.000885,0,0
0:1:36.259,204.809,26.076,0,0.000885,0,0
0:1:36.360,203.577,25.9174,0,0.000885,0,0
0:1:36.460,202.109,25.7312,0,0.000885,0,0
0:1:36.561,202.109,25.7312,0,0.000885,0,0
0:1:36.660,200.641,25.5451,0,0.000885,0,0
0:1:36.760,198.707,25.2969,0,0.000885,0,0
0:1:36.861,196.184,24.9797,0,0.000885,0,0
0:1:36.960,196.184,24.9797,0,0.000885,0,0
0:1:37.059,193.017,24.5729,0,0.000885,0,0
0:1:37.159,190.086,24.2006,0,0.000885,0,0
0:1:37.260,186.452,23.7386,0,0.000885,0,0
0:1:37.362,186.452,23.7386,0,0.000885,0,0
0:1:37.462,181.817,23.1526,0,0.000885,0,0
0:1:37.561,175.367,22.3252,0,0.000885,0,0
0:1:37.658,169.557,21.5875,0,0.000885,0,0
0:1:37.757,169.557,21.5875,0,0.000885,0,0
0:1:37.858,164.691,20.967,0,0.000885,0,0
0:1:37.959,159.94,20.3671,0,0.000885,0,0
0:1:38.058,155.425,19.788,0,0.000885,0,0
0:1:38.165,155.425,19.788,0,0.000885,0,0
0:1:38.263,151.262,19.2571,0,0.000885,0,0
0:1:38.312,151.262,19.2571,0,0.000885,0,0