File: DataFile2021-07-17_040344.csv
Test ID:,Date Tested:,Time:,Test Type:,Diameter Avg. (mm):,Cyl. Corr. Factor:,Height (mm):,Age (days):,Weight (kN):,Break Type:,Ramp Rate (MPa/s):,Load at Break (kN):,Stress at Break (MPa):
12,7/17/2021,04:03,Cylinder,100,1,200,0,3.6,3,0.25,1186.29,151.04
Sample Time,Load (kN),Stress (MPa),Long. Strain,Trans. Strain,Chan1 Deflection (mm),Chan2 Deflection (mm)
0:0:4.189,5.28004,0.668791,0,0.000885,0,0
0:0:4.785,5.51135,0.703265,0,0.000885,0,0
0:0:5.385,6.97926,0.889424,0,0.000885,0,0
0:0:5.979,8.03349,1.02042,0,0.000885,0,0
0:0:6.575,9.79498,1.24795,0,0.000885,0,0
0:0:7.170,10.1464,1.28932,0,0.000885,0,0
0:0:7.769,12.0235,1.53064,0,0.000885,0,0
0:0:8.366,12.4906,1.59269,0,0.000885,0,0
0:0:8.963,13.8429,1.76506,0,0.000885,0,0
0:0:9.559,14.8393,1.88916,0,0.000885,0,0
0:0:10.168,16.1293,2.05464,0,0.000885,0,0
0:0:10.773,17.4771,2.22701,0,0.000885,0,0
0:0:11.374,18.945,2.41317,0,0.000885,0,0
0:0:11.972,19.7634,2.51659,0,0.000885,0,0
0:0:12.569,20.88,2.66138,0,0.000885,0,0
0:0:13.165,22.5213,2.86822,0,0.000885,0,0
0:0:13.760,23.4599,2.98543,0,0.000885,0,0
0:0:14.360,24.6343,3.13711,0,0.000885,0,0
0:0:14.968,25.8664,3.29569,0,0.000885,0,0
0:0:15.573,26.6849,3.39912,0,0.000885,0,0
0:0:16.177,28.0371,3.57148,0,0.000885,0,0
0:0:16.772,29.207,3.71627,0,0.000885,0,0
0:0:17.371,30.3235,3.86106,0,0.000885,0,0
0:0:17.968,32.1384,4.09549,0,0.000885,0,0
0:0:18.570,33.3706,4.24717,0,0.000885,0,0
0:0:19.167,34.7806,4.42643,0,0.000885,0,0
0:0:19.769,36.2441,4.61259,0,0.000885,0,0
0:0:20.378,37.7698,4.81254,0,0.000885,0,0
0:0:20.982,38.4727,4.90217,0,0.000885,0,0
0:0:21.583,39.8828,5.07454,0,0.000885,0,0
0:0:22.179,40.8792,5.20554,0,0.000885,0,0
0:0:22.777,41.8756,5.32965,0,0.000885,0,0
0:0:23.372,43.0499,5.48133,0,0.000885,0,0
0:0:23.970,44.2242,5.63302,0,0.000885,0,0
0:0:24.568,45.9234,5.84675,0,0.000885,0,0
0:0:25.176,46.9198,5.97086,0,0.000885,0,0
0:0:25.782,47.8006,6.08807,0,0.000885,0,0
0:0:26.382,49.4998,6.30181,0,0.000885,0,0
0:0:26.978,49.8512,6.35007,0,0.000885,0,0
0:0:27.577,51.4348,6.55002,0,0.000885,0,0
0:0:28.175,52.3734,6.66723,0,0.000885,0,0
0:0:28.773,53.8413,6.85339,0,0.000885,0,0
0:0:29.368,54.5441,6.94302,0,0.000885,0,0
0:0:29.971,55.7763,7.1016,0,0.000885,0,0
0:0:30.580,56.8928,7.24639,0,0.000885,0,0
0:0:31.185,58.0048,7.38429,0,0.000885,0,0
0:0:31.785,59.059,7.52218,0,0.000885,0,0
0:0:32.382,60.2912,7.67386,0,0.000885,0,0
0:0:32.977,61.9949,7.8945,0,0.000885,0,0
0:0:33.575,62.8133,7.99792,0,0.000885,0,0
0:0:34.172,64.2813,8.18408,0,0.000885,0,0
0:0:34.780,65.4556,8.33576,0,0.000885,0,0
0:0:35.387,66.9769,8.52881,0,0.000885,0,0
0:0:35.989,67.7998,8.63224,0,0.000885,0,0
0:0:36.585,68.6227,8.73566,0,0.000885,0,0
0:0:37.182,69.7348,8.88045,0,0.000885,0,0
0:0:37.779,70.8513,9.01834,0,0.000885,0,0
0:0:38.377,72.6661,9.25276,0,0.000885,0,0
0:0:38.974,73.1955,9.32171,0,0.000885,0,0
0:0:39.572,74.4855,9.48719,0,0.000885,0,0
0:0:40.181,75.7755,9.64577,0,0.000885,0,0
0:0:40.787,76.892,9.79056,0,0.000885,0,0
0:0:41.387,77.8305,9.90777,0,0.000885,0,0
0:0:41.985,79.2362,10.087,0,0.000885,0,0
0:0:42.581,80.3527,10.2318,0,0.000885,0,0
0:0:43.178,81.4647,10.3697,0,0.000885,0,0
0:0:43.774,83.5198,10.6317,0,0.000885,0,0
0:0:44.372,84.6897,10.7834,0,0.000885,0,0
0:0:44.979,85.4548,10.8799,0,0.000885,0,0
0:0:45.586,86.4512,11.004,0,0.000885,0,0
0:0:46.190,87.3319,11.1212,0,0.000885,0,0
0:0:46.786,88.5641,11.2729,0,0.000885,0,0
0:0:47.381,89.734,11.4246,0,0.000885,0,0
0:0:47.979,91.2597,11.6177,0,0.000885,0,0
0:0:48.578,92.3139,11.7556,0,0.000885,0,0
0:0:49.176,93.724,11.9348,0,0.000885,0,0
0:0:49.775,94.7783,12.0658,0,0.000885,0,0
0:0:50.382,95.659,12.183,0,0.000885,0,0
0:0:50.987,97.1269,12.3692,0,0.000885,0,0
0:0:51.586,97.7719,12.4519,0,0.000885,0,0
0:0:52.184,99.529,12.6726,0,0.000885,0,0
0:0:52.782,100.468,12.7898,0,0.000885,0,0
0:0:53.380,101.7,12.9484,0,0.000885,0,0
0:0:53.973,102.754,13.0862,0,0.000885,0,0
0:0:54.575,103.692,13.2035,0,0.000885,0,0
0:0:55.183,105.338,13.4103,0,0.000885,0,0
0:0:55.789,106.686,13.5827,0,0.000885,0,0
0:0:56.388,107.86,13.7344,0,0.000885,0,0
0:0:56.986,108.795,13.8516,0,0.000885,0,0
0:0:57.582,110.32,14.0446,0,0.000885,0,0
0:0:58.178,111.143,14.148,0,0.000885,0,0
0:0:58.775,112.549,14.3273,0,0.000885,0,0
0:0:59.373,113.136,14.4031,0,0.000885,0,0
0:0:59.980,114.075,14.5273,0,0.000885,0,0
0:1:0.587,115.894,14.7548,0,0.000885,0,0
0:1:1.190,117.357,14.9409,0,0.000885,0,0
0:1:1.786,118.59,15.0995,0,0.000885,0,0
0:1:2.383,119.355,15.196,0,0.000885,0,0
0:1:2.981,120.818,15.3822,0,0.000885,0,0
0:1:3.581,121.583,15.4787,0,0.000885,0,0
0:1:4.179,122.695,15.6235,0,0.000885,0,0
0:1:4.778,123.87,15.7683,0,0.000885,0,0
0:1:5.387,125.569,15.9889,0,0.000885,0,0
0:1:5.991,126.921,16.1613,0,0.000885,0,0
0:1:6.589,127.624,16.2509,0,0.000885,0,0
0:1:7.185,128.385,16.3475,0,0.000885,0,0
0:1:7.785,130.146,16.5681,0,0.000885,0,0
0:1:8.380,131.027,16.6853,0,0.000885,0,0
0:1:8.976,132.548,16.8784,0,0.000885,0,0
0:1:9.572,133.077,16.9473,0,0.000885,0,0
0:1:10.180,134.777,17.1611,0,0.000885,0,0
0:1:10.787,135.835,17.2921,0,0.000885,0,0
0:1:11.391,137.068,17.4506,0,0.000885,0,0
0:1:11.988,138.3,17.6092,0,0.000885,0,0
0:1:12.584,139.412,17.7471,0,0.000885,0,0
0:1:13.180,140.466,17.885,0,0.000885,0,0
0:1:13.780,141.698,18.0436,0,0.000885,0,0
0:1:14.378,143.517,18.2711,0,0.000885,0,0
0:1:14.986,144.278,18.3676,0,0.000885,0,0
0:1:15.591,145.279,18.4986,0,0.000885,0,0
0:1:16.192,146.04,18.5952,0,0.000885,0,0
0:1:16.790,147.975,18.8434,0,0.000885,0,0
0:1:17.388,148.74,18.9399,0,0.000885,0,0
0:1:17.986,149.794,19.0709,0,0.000885,0,0
0:1:18.584,151.729,19.3191,0,0.000885,0,0
0:1:19.179,152.196,19.3812,0,0.000885,0,0
0:1:19.781,153.428,19.5328,0,0.000885,0,0
0:1:20.389,154.718,19.6983,0,0.000885,0,0
0:1:20.994,155.599,19.8086,0,0.000885,0,0
0:1:21.593,157.182,20.0155,0,0.000885,0,0
0:1:22.190,158.415,20.1672,0,0.000885,0,0
0:1:22.786,159.762,20.3395,0,0.000885,0,0
0:1:23.382,160.47,20.4292,0,0.000885,0,0
0:1:23.979,162.227,20.6567,0,0.000885,0,0
0:1:24.578,163.401,20.8015,0,0.000885,0,0
0:1:25.187,164.575,20.9532,0,0.000885,0,0
0:1:25.791,165.336,21.0497,0,0.000885,0,0
0:1:26.395,166.977,21.2634,0,0.000885,0,0
0:1:26.989,167.8,21.3669,0,0.000885,0,0
0:1:27.586,168.797,21.491,0,0.000885,0,0
0:1:28.185,170.322,21.684,0,0.000885,0,0
0:1:28.784,171.083,21.7805,0,0.000885,0,0
0:1:29.382,172.2,21.9253,0,0.000885,0,0
0:1:29.990,173.547,22.0977,0,0.000885,0,0
0:1:30.596,174.722,22.2494,0,0.000885,0,0
0:1:31.195,176.185,22.4355,0,0.000885,0,0
0:1:31.793,177.244,22.5665,0,0.000885,0,0
0:1:32.390,178.592,22.7389,0,0.000885,0,0
0:1:32.990,179.294,22.8285,0,0.000885,0,0
0:1:33.585,180.527,22.9871,0,0.000885,0,0
0:1:34.180,181.639,23.125,0,0.000885,0,0
0:1:34.785,182.991,23.2974,0,0.000885,0,0
0:1:35.392,183.752,23.3939,0,0.000885,0,0
0:1:35.998,185.807,23.6559,0,0.000885,0,0
0:1:36.596,186.625,23.7593,0,0.000885,0,0
0:1:37.191,187.742,23.9041,0,0.000885,0,0
0:1:37.785,188.854,24.0489,0,0.000885,0,0
0:1:38.382,190.028,24.1937,0,0.000885,0,0
0:1:38.980,191.496,24.3799,0,0.000885,0,0
0:1:39.579,192.199,24.4695,0,0.000885,0,0
0:1:40.183,193.84,24.6832,0,0.000885,0,0
0:1:40.784,195.014,24.828,0,0.000885,0,0
0:1:41.380,196.069,24.9659,0,0.000885,0,0
0:1:41.972,197.71,25.1728,0,0.000885,0,0
0:1:42.566,198.475,25.2693,0,0.000885,0,0
0:1:43.160,199.587,25.4141,0,0.000885,0,0
0:1:43.754,200.348,25.5106,0,0.000885,0,0
0:1:44.347,201.816,25.6968,0,0.000885,0,0
0:1:44.943,203.457,25.9036,0,0.000885,0,0
0:1:45.547,203.871,25.9588,0,0.000885,0,0
0:1:46.146,205.161,26.1242,0,0.000885,0,0
0:1:46.741,206.393,26.2759,0,0.000885,0,0
0:1:47.343,207.621,26.4345,0,0.000885,0,0
0:1:47.933,208.622,26.5655,0,0.000885,0,0
0:1:48.544,209.676,26.6965,0,0.000885,0,0
0:1:49.145,211.144,26.8827,0,0.000885,0,0
0:1:49.749,212.607,27.0688,0,0.000885,0,0
0:1:50.351,213.604,27.1998,0,0.000885,0,0
0:1:50.950,214.427,27.3032,0,0.000885,0,0
0:1:51.544,215.774,27.4756,0,0.000885,0,0
0:1:52.137,217.006,27.6273,0,0.000885,0,0
0:1:52.745,218.296,27.7928,0,0.000885,0,0
0:1:53.339,219.586,27.9582,0,0.000885,0,0
0:1:53.943,220.289,28.0479,0,0.000885,0,0
0:1:54.547,221.699,28.2271,0,0.000885,0,0
0:1:55.150,222.989,28.3926,0,0.000885,0,0
0:1:55.751,224.337,28.565,0,0.000885,0,0
0:1:56.346,225.805,28.7511,0,0.000885,0,0
0:1:56.938,226.801,28.8752,0,0.000885,0,0
0:1:57.543,227.918,29.02,0,0.000885,0,0
0:1:58.134,228.736,29.1235,0,0.000885,0,0
0:1:58.728,230.436,29.3372,0,0.000885,0,0
0:1:59.320,231.552,29.482,0,0.000885,0,0
0:1:59.920,232.375,29.5854,0,0.000885,0,0
0:2:0.523,233.781,29.7647,0,0.000885,0,0
0:2:1.124,234.541,29.8612,0,0.000885,0,0
0:2:1.718,235.774,30.0198,0,0.000885,0,0
0:2:2.309,236.89,30.1646,0,0.000885,0,0
0:2:2.901,238.122,30.3162,0,0.000885,0,0
0:2:3.493,239.176,30.4541,0,0.000885,0,0
0:2:4.087,240.876,30.6679,0,0.000885,0,0
0:2:4.690,241.814,30.792,0,0.000885,0,0
0:2:5.290,242.753,30.9092,0,0.000885,0,0
0:2:5.888,244.043,31.0747,0,0.000885,0,0
0:2:6.478,245.159,31.2126,0,0.000885,0,0
0:2:7.072,246.449,31.378,0,0.000885,0,0
0:2:7.667,247.681,31.5366,0,0.000885,0,0
0:2:8.263,248.971,31.7021,0,0.000885,0,0
0:2:8.853,250.088,31.84,0,0.000885,0,0
0:2:9.450,250.906,31.9434,0,0.000885,0,0
0:2:10.053,252.316,32.1227,0,0.000885,0,0
0:2:10.653,253.606,32.2881,0,0.000885,0,0
0:2:11.247,254.603,32.4191,0,0.000885,0,0
0:2:11.841,255.951,32.5915,0,0.000885,0,0
0:2:12.443,256.711,32.688,0,0.000885,0,0
0:2:13.043,258.121,32.8673,0,0.000885,0,0
0:2:13.634,259.469,33.0397,0,0.000885,0,0
0:2:14.248,260.114,33.1155,0,0.000885,0,0
0:2:14.851,261.64,33.3155,0,0.000885,0,0
0:2:15.451,262.872,33.4672,0,0.000885,0,0
0:2:16.051,264.691,33.7016,0,0.000885,0,0
0:2:16.643,265.746,33.8326,0,0.000885,0,0
0:2:17.242,266.742,33.9636,0,0.000885,0,0
0:2:17.845,267.623,34.0739,0,0.000885,0,0
0:2:18.440,268.441,34.1773,0,0.000885,0,0
0:2:19.043,270.025,34.3842,0,0.000885,0,0
0:2:19.646,271.435,34.5634,0,0.000885,0,0
0:2:20.251,272.374,34.6806,0,0.000885,0,0
0:2:20.851,273.486,34.8185,0,0.000885,0,0
0:2:21.446,274.308,34.9288,0,0.000885,0,0
0:2:22.041,275.656,35.1012,0,0.000885,0,0
0:2:22.643,276.773,35.2391,0,0.000885,0,0
0:2:23.248,278.236,35.4253,0,0.000885,0,0
0:2:23.837,279.175,35.5425,0,0.000885,0,0
0:2:24.446,280.701,35.7424,0,0.000885,0,0
0:2:25.050,281.817,35.8803,0,0.000885,0,0
0:2:25.651,282.929,36.0251,0,0.000885,0,0
0:2:26.245,284.161,36.1837,0,0.000885,0,0
0:2:26.846,285.1,36.3009,0,0.000885,0,0
0:2:27.437,286.626,36.494,0,0.000885,0,0
0:2:28.037,287.858,36.6525,0,0.000885,0,0
0:2:28.641,288.676,36.756,0,0.000885,0,0
0:2:29.245,289.966,36.9214,0,0.000885,0,0
0:2:29.849,290.611,37.0042,0,0.000885,0,0
0:2:30.450,292.021,37.1834,0,0.000885,0,0
0:2:31.046,293.605,37.3834,0,0.000885,0,0
0:2:31.647,294.601,37.5075,0,0.000885,0,0
0:2:32.238,295.655,37.6454,0,0.000885,0,0
0:2:32.843,296.594,37.7626,0,0.000885,0,0
0:2:33.447,297.946,37.935,0,0.000885,0,0
0:2:34.049,300.113,38.2107,0,0.000885,0,0
0:2:34.639,300.878,38.3073,0,0.000885,0,0
0:2:35.245,301.874,38.4383,0,0.000885,0,0
0:2:35.846,302.928,38.5693,0,0.000885,0,0
0:2:36.450,303.925,38.7003,0,0.000885,0,0
0:2:37.044,305.277,38.8657,0,0.000885,0,0
0:2:37.647,306.331,39.0036,0,0.000885,0,0
0:2:38.246,307.385,39.1346,0,0.000885,0,0
0:2:38.846,308.853,39.3277,0,0.000885,0,0
0:2:39.448,310.201,39.4932,0,0.000885,0,0
0:2:40.051,311.26,39.6311,0,0.000885,0,0
0:2:40.653,312.256,39.7552,0,0.000885,0,0
0:2:41.253,313.488,39.9137,0,0.000885,0,0
0:2:41.852,314.6,40.0585,0,0.000885,0,0
0:2:42.444,315.89,40.2171,0,0.000885,0,0
0:2:43.047,316.713,40.3274,0,0.000885,0,0
0:2:43.651,318.003,40.486,0,0.000885,0,0
0:2:44.246,319.587,40.6929,0,0.000885,0,0
0:2:44.850,320.993,40.8721,0,0.000885,0,0
0:2:45.451,321.815,40.9755,0,0.000885,0,0
0:2:46.051,323.048,41.1341,0,0.000885,0,0
0:2:46.647,324.338,41.2927,0,0.000885,0,0
0:2:47.249,325.276,41.4168,0,0.000885,0,0
0:2:47.852,325.743,41.472,0,0.000885,0,0
0:2:48.444,326.975,41.6305,0,0.000885,0,0
0:2:49.043,328.795,41.865,0,0.000885,0,0
0:2:49.651,330.2,42.0442,0,0.000885,0,0
0:2:50.254,331.49,42.2097,0,0.000885,0,0
0:2:50.854,332.607,42.3476,0,0.000885,0,0
0:2:51.450,333.603,42.4786,0,0.000885,0,0
0:2:52.041,335.187,42.6785,0,0.000885,0,0
0:2:52.643,335.716,42.7475,0,0.000885,0,0
0:2:53.244,337.415,42.9612,0,0.000885,0,0
0:2:53.845,338.474,43.0922,0,0.000885,0,0
0:2:54.450,339.177,43.1819,0,0.000885,0,0
0:2:55.055,340.703,43.3818,0,0.000885,0,0
0:2:55.655,341.815,43.5197,0,0.000885,0,0
0:2:56.252,343.163,43.6921,0,0.000885,0,0
0:2:56.843,343.807,43.7748,0,0.000885,0,0
0:2:57.446,345.333,43.9679,0,0.000885,0,0
0:2:58.051,346.975,44.1816,0,0.000885,0,0
0:2:58.645,347.975,44.3057,0,0.000885,0,0
0:2:59.246,348.5,44.3747,0,0.000885,0,0
0:2:59.850,350.142,44.5815,0,0.000885,0,0
0:3:0.453,350.435,44.616,0,0.000885,0,0
0:3:1.055,352.197,44.8435,0,0.000885,0,0
0:3:1.650,353.723,45.0366,0,0.000885,0,0
0:3:2.253,353.896,45.0572,0,0.000885,0,0
0:3:2.844,355.951,45.3192,0,0.000885,0,0
0:3:3.446,357.477,45.5123,0,0.000885,0,0
0:3:4.034,358.18,45.6019,0,0.000885,0,0
0:3:4.637,359.176,45.7329,0,0.000885,0,0
0:3:5.239,360.644,45.9191,0,0.000885,0,0
0:3:5.840,362.459,46.1466,0,0.000885,0,0
0:3:6.442,363.282,46.2569,0,0.000885,0,0
0:3:7.053,364.336,46.3879,0,0.000885,0,0
0:3:7.645,365.626,46.5534,0,0.000885,0,0
0:3:8.247,366.271,46.6361,0,0.000885,0,0
0:3:8.851,367.739,46.8223,0,0.000885,0,0
0:3:9.442,368.62,46.9326,0,0.000885,0,0
0:3:10.048,369.967,47.105,0,0.000885,0,0
0:3:10.648,370.964,47.236,0,0.000885,0,0
0:3:11.241,372.196,47.3877,0,0.000885,0,0
0:3:11.837,373.37,47.5394,0,0.000885,0,0
0:3:12.451,374.896,47.7324,0,0.000885,0,0
0:3:13.055,376.124,47.891,0,0.000885,0,0
0:3:13.646,377.414,48.0565,0,0.000885,0,0
0:3:14.235,377.827,48.1047,0,0.000885,0,0
0:3:14.846,379.175,48.2771,0,0.000885,0,0
0:3:15.448,381.346,48.5529,0,0.000885,0,0
0:3:16.049,382.107,48.6494,0,0.000885,0,0
0:3:16.651,383.103,48.7804,0,0.000885,0,0
0:3:17.252,383.984,48.8907,0,0.000885,0,0
0:3:17.853,385.332,49.0631,0,0.000885,0,0
0:3:18.453,386.332,49.1872,0,0.000885,0,0
0:3:19.047,387.445,49.332,0,0.000885,0,0
0:3:19.650,389.615,49.6078,0,0.000885,0,0
0:3:20.252,390.082,49.6698,0,0.000885,0,0
0:3:20.850,391.728,49.8767,0,0.000885,0,0
0:3:21.440,392.253,49.9456,0,0.000885,0,0
0:3:22.052,393.779,50.1387,0,0.000885,0,0
0:3:22.647,394.424,50.2214,0,0.000885,0,0
0:3:23.250,395.42,50.3455,0,0.000885,0,0
0:3:23.854,397.591,50.6213,0,0.000885,0,0
0:3:24.443,398.178,50.6972,0,0.000885,0,0
0:3:25.050,399.82,50.904,0,0.000885,0,0
0:3:25.651,400.816,51.035,0,0.000885,0,0
0:3:26.254,401.99,51.1798,0,0.000885,0,0
0:3:26.849,403.107,51.3246,0,0.000885,0,0
0:3:27.452,404.277,51.4763,0,0.000885,0,0
0:3:28.054,405.745,51.6624,0,0.000885,0,0
0:3:28.642,406.799,51.7934,0,0.000885,0,0
0:3:29.244,407.973,51.9451,0,0.000885,0,0
0:3:29.849,408.502,52.014,0,0.000885,0,0
0:3:30.451,409.557,52.145,0,0.000885,0,0
0:3:31.050,411.256,52.3657,0,0.000885,0,0
0:3:31.651,412.839,52.5656,0,0.000885,0,0
0:3:32.252,413.72,52.6759,0,0.000885,0,0
0:3:32.854,414.717,52.8001,0,0.000885,0,0
0:3:33.448,416.242,53,0,0.000885,0,0
0:3:34.050,417.003,53.0965,0,0.000885,0,0
0:3:34.653,418.649,53.3034,0,0.000885,0,0
0:3:35.259,419.232,53.3792,0,0.000885,0,0
0:3:35.858,420.526,53.5447,0,0.000885,0,0
0:3:36.452,422.047,53.7377,0,0.000885,0,0
0:3:37.055,423.337,53.9032,0,0.000885,0,0
0:3:37.649,424.569,54.0549,0,0.000885,0,0
0:3:38.253,425.335,54.1583,0,0.000885,0,0
0:3:38.853,426.567,54.31,0,0.000885,0,0
0:3:39.451,428.088,54.5031,0,0.000885,0,0
0:3:40.054,428.324,54.5375,0,0.000885,0,0
0:3:40.656,430.259,54.7857,0,0.000885,0,0
0:3:41.250,431.611,54.9512,0,0.000885,0,0
0:3:41.854,432.781,55.1029,0,0.000885,0,0
0:3:42.454,433.31,55.1718,0,0.000885,0,0
0:3:43.054,434.894,55.3718,0,0.000885,0,0
0:3:43.658,435.481,55.4476,0,0.000885,0,0
0:3:44.250,437.589,55.7165,0,0.000885,0,0
0:3:44.854,438.884,55.882,0,0.000885,0,0
0:3:45.455,440.111,56.0337,0,0.000885,0,0
0:3:46.052,440.641,56.1026,0,0.000885,0,0
0:3:46.653,441.286,56.1854,0,0.000885,0,0
0:3:47.254,442.985,56.406,0,0.000885,0,0
0:3:47.859,443.75,56.5025,0,0.000885,0,0
0:3:48.451,445.392,56.7094,0,0.000885,0,0
0:3:49.054,446.682,56.8749,0,0.000885,0,0
0:3:49.646,448.029,57.0472,0,0.000885,0,0
0:3:50.253,448.501,57.1024,0,0.000885,0,0
0:3:50.853,450.436,57.3506,0,0.000885,0,0
0:3:51.459,451.548,57.4954,0,0.000885,0,0
0:3:52.051,452.549,57.6195,0,0.000885,0,0
0:3:52.655,454.132,57.8194,0,0.000885,0,0
0:3:53.258,455.009,57.9366,0,0.000885,0,0
0:3:53.857,455.832,58.0401,0,0.000885,0,0
0:3:54.458,457.593,58.2607,0,0.000885,0,0
0:3:55.059,458.176,58.3365,0,0.000885,0,0
0:3:55.661,459.937,58.5641,0,0.000885,0,0
0:3:56.263,461.169,58.7158,0,0.000885,0,0
0:3:56.853,461.636,58.7778,0,0.000885,0,0
0:3:57.454,462.869,58.9364,0,0.000885,0,0
0:3:58.054,464.221,59.1088,0,0.000885,0,0
0:3:58.659,465.391,59.2535,0,0.000885,0,0
0:3:59.252,467.094,59.4742,0,0.000885,0,0
0:3:59.857,468.206,59.6121,0,0.000885,0,0
0:4:0.458,469.145,59.7362,0,0.000885,0,0
0:4:1.052,470.199,59.8672,0,0.000885,0,0
0:4:1.655,471.431,60.0258,0,0.000885,0,0
0:4:2.258,472.37,60.143,0,0.000885,0,0
0:4:2.853,474.305,60.3912,0,0.000885,0,0
0:4:3.454,475.244,60.5084,0,0.000885,0,0
0:4:4.056,476.124,60.6187,0,0.000885,0,0
0:4:4.648,477.241,60.7635,0,0.000885,0,0
0:4:5.255,478.469,60.9221,0,0.000885,0,0
0:4:5.856,479.585,61.06,0,0.000885,0,0
0:4:6.451,480.759,61.2117,0,0.000885,0,0
0:4:7.056,482.165,61.3909,0,0.000885,0,0
0:4:7.658,483.281,61.5357,0,0.000885,0,0
0:4:8.258,484.22,61.6529,0,0.000885,0,0
0:4:8.859,485.51,61.8184,0,0.000885,0,0
0:4:9.453,486.858,61.9908,0,0.000885,0,0
0:4:10.058,487.854,62.1149,0,0.000885,0,0
0:4:10.660,489.264,62.2941,0,0.000885,0,0
0:4:11.259,490.025,62.3907,0,0.000885,0,0
0:4:11.859,491.786,62.6182,0,0.000885,0,0
0:4:12.461,492.369,62.694,0,0.000885,0,0
0:4:13.054,493.953,62.894,0,0.000885,0,0
0:4:13.659,495.011,63.025,0,0.000885,0,0
0:4:14.260,496.181,63.1767,0,0.000885,0,0
0:4:14.864,497.24,63.3077,0,0.000885,0,0
0:4:15.464,498.352,63.4525,0,0.000885,0,0
0:4:16.058,499.584,63.611,0,0.000885,0,0
0:4:16.653,500.701,63.7489,0,0.000885,0,0
0:4:17.255,502.342,63.9627,0,0.000885,0,0
0:4:17.859,503.223,64.073,0,0.000885,0,0
0:4:18.448,504.277,64.204,0,0.000885,0,0
0:4:19.061,505.861,64.4108,0,0.000885,0,0
0:4:19.663,507.035,64.5556,0,0.000885,0,0
0:4:20.266,507.68,64.6383,0,0.000885,0,0
0:4:20.865,508.498,64.7418,0,0.000885,0,0
0:4:21.458,510.554,65.0038,0,0.000885,0,0
0:4:22.047,511.434,65.121,0,0.000885,0,0
0:4:22.659,512.782,65.2865,0,0.000885,0,0
0:4:23.252,514.072,65.4519,0,0.000885,0,0
0:4:23.855,515.011,65.576,0,0.000885,0,0
0:4:24.459,515.771,65.6726,0,0.000885,0,0
0:4:25.063,516.536,65.7691,0,0.000885,0,0
0:4:25.665,518.293,65.9897,0,0.000885,0,0
0:4:26.259,519.116,66.0931,0,0.000885,0,0
0:4:26.861,520.816,66.3138,0,0.000885,0,0
0:4:27.454,521.638,66.4172,0,0.000885,0,0
0:4:28.058,522.871,66.5758,0,0.000885,0,0
0:4:28.661,524.512,66.7826,0,0.000885,0,0
0:4:29.250,525.566,66.9205,0,0.000885,0,0
0:4:29.860,526.856,67.0791,0,0.000885,0,0
0:4:30.463,527.621,67.1756,0,0.000885,0,0
0:4:31.063,529.143,67.3756,0,0.000885,0,0
0:4:31.656,530.143,67.4997,0,0.000885,0,0
0:4:32.260,531.843,67.7134,0,0.000885,0,0
0:4:32.860,532.488,67.7961,0,0.000885,0,0
0:4:33.461,533.368,67.9134,0,0.000885,0,0
0:4:34.050,534.601,68.065,0,0.000885,0,0
0:4:34.655,535.891,68.2305,0,0.000885,0,0
0:4:35.259,537.003,68.3753,0,0.000885,0,0
0:4:35.859,538.938,68.6166,0,0.000885,0,0
0:4:36.458,540.112,68.7683,0,0.000885,0,0
0:4:37.059,541.051,68.8855,0,0.000885,0,0
0:4:37.664,542.047,69.0165,0,0.000885,0,0
0:4:38.256,542.812,69.113,0,0.000885,0,0
0:4:38.861,544.396,69.313,0,0.000885,0,0
0:4:39.454,545.743,69.4854,0,0.000885,0,0
0:4:40.060,546.918,69.637,0,0.000885,0,0
0:4:40.660,547.678,69.7336,0,0.000885,0,0
0:4:41.266,548.853,69.8853,0,0.000885,0,0
0:4:41.859,550.374,70.0783,0,0.000885,0,0
0:4:42.462,552.02,70.2852,0,0.000885,0,0
0:4:43.062,552.607,70.361,0,0.000885,0,0
0:4:43.662,553.541,70.4782,0,0.000885,0,0
0:4:44.258,554.951,70.6575,0,0.000885,0,0
0:4:44.861,556.241,70.8229,0,0.000885,0,0
0:4:45.462,557.122,70.9333,0,0.000885,0,0
0:4:46.060,558.879,71.1608,0,0.000885,0,0
0:4:46.661,559.408,71.2228,0,0.000885,0,0
0:4:47.264,561.401,71.4779,0,0.000885,0,0
0:4:47.858,562.166,71.5745,0,0.000885,0,0
0:4:48.461,563.278,71.7193,0,0.000885,0,0
0:4:49.063,564.217,71.8365,0,0.000885,0,0
0:4:49.658,565.8,72.0433,0,0.000885,0,0
0:4:50.263,566.623,72.1467,0,0.000885,0,0
0:4:50.862,568.087,72.3329,0,0.000885,0,0
0:4:51.465,569.555,72.5191,0,0.000885,0,0
0:4:52.059,570.258,72.6087,0,0.000885,0,0
0:4:52.662,570.845,72.6845,0,0.000885,0,0
0:4:53.252,572.313,72.8707,0,0.000885,0,0
0:4:53.865,573.66,73.0431,0,0.000885,0,0
0:4:54.468,575.128,73.2292,0,0.000885,0,0
0:4:55.069,576.476,73.4016,0,0.000885,0,0
0:4:55.670,577.415,73.5188,0,0.000885,0,0
0:4:56.265,578.647,73.6774,0,0.000885,0,0
0:4:56.856,579.643,73.8015,0,0.000885,0,0
0:4:57.466,580.582,73.9187,0,0.000885,0,0
0:4:58.058,582.165,74.1255,0,0.000885,0,0
0:4:58.660,583.398,74.2772,0,0.000885,0,0
0:4:59.264,584.1,74.3669,0,0.000885,0,0
0:4:59.869,585.506,74.5461,0,0.000885,0,0
0:5:0.471,587.21,74.7667,0,0.000885,0,0
0:5:1.068,588.322,74.9046,0,0.000885,0,0
0:5:1.661,589.554,75.0632,0,0.000885,0,0
0:5:2.259,590.319,75.1597,0,0.000885,0,0
0:5:2.865,591.436,75.3045,0,0.000885,0,0
0:5:3.462,591.965,75.3735,0,0.000885,0,0
0:5:4.064,593.958,75.6217,0,0.000885,0,0
0:5:4.665,594.959,75.7527,0,0.000885,0,0
0:5:5.272,596.6,75.9595,0,0.000885,0,0
0:5:5.874,597.365,76.0561,0,0.000885,0,0
0:5:6.470,598.535,76.2078,0,0.000885,0,0
0:5:7.068,599.478,76.325,0,0.000885,0,0
0:5:7.663,601.119,76.5387,0,0.000885,0,0
0:5:8.254,602.587,76.7249,0,0.000885,0,0
0:5:8.861,603.29,76.8145,0,0.000885,0,0
0:5:9.468,604.7,76.9938,0,0.000885,0,0
0:5:10.073,605.581,77.1041,0,0.000885,0,0
0:5:10.679,606.871,77.2695,0,0.000885,0,0
0:5:11.280,607.872,77.3937,0,0.000885,0,0
0:5:11.874,608.752,77.5109,0,0.000885,0,0
0:5:12.469,610.278,77.7039,0,0.000885,0,0
0:5:13.067,611.626,77.8763,0,0.000885,0,0
0:5:13.662,612.978,78.0487,0,0.000885,0,0
0:5:14.262,614.268,78.2141,0,0.000885,0,0
0:5:14.868,614.971,78.3038,0,0.000885,0,0
0:5:15.470,615.972,78.4279,0,0.000885,0,0
0:5:16.067,617.32,78.6002,0,0.000885,0,0
0:5:16.663,618.378,78.7312,0,0.000885,0,0
0:5:17.260,619.611,78.8898,0,0.000885,0,0
0:5:17.867,620.727,79.0346,0,0.000885,0,0
0:5:18.463,622.368,79.2414,0,0.000885,0,0
0:5:19.066,623.658,79.4069,0,0.000885,0,0
0:5:19.667,624.424,79.5034,0,0.000885,0,0
0:5:20.274,625.362,79.6207,0,0.000885,0,0
0:5:20.876,626.714,79.793,0,0.000885,0,0
0:5:21.475,628.24,79.993,0,0.000885,0,0
0:5:22.070,629.294,80.124,0,0.000885,0,0
0:5:22.663,630.353,80.2619,0,0.000885,0,0
0:5:23.267,631.643,80.4204,0,0.000885,0,0
0:5:23.866,632.408,80.5239,0,0.000885,0,0
0:5:24.462,634.17,80.7445,0,0.000885,0,0
0:5:25.068,634.988,80.8479,0,0.000885,0,0
0:5:25.673,636.634,81.0617,0,0.000885,0,0
0:5:26.273,637.866,81.2133,0,0.000885,0,0
0:5:26.868,639.276,81.3926,0,0.000885,0,0
0:5:27.464,640.037,81.4891,0,0.000885,0,0
0:5:28.062,640.86,81.5995,0,0.000885,0,0
0:5:28.666,642.27,81.7787,0,0.000885,0,0
0:5:29.261,643.151,81.889,0,0.000885,0,0
0:5:29.864,644.147,82.0131,0,0.000885,0,0
0:5:30.470,646.144,82.2682,0,0.000885,0,0
0:5:31.073,646.847,82.3579,0,0.000885,0,0
0:5:31.671,648.137,82.5233,0,0.000885,0,0
0:5:32.265,649.138,82.6475,0,0.000885,0,0
0:5:32.868,650.837,82.8681,0,0.000885,0,0
0:5:33.463,651.482,82.9508,0,0.000885,0,0
0:5:34.069,653.008,83.1439,0,0.000885,0,0
0:5:34.675,653.537,83.2128,0,0.000885,0,0
0:5:35.280,654.711,83.3576,0,0.000885,0,0
0:5:35.882,656.295,83.5645,0,0.000885,0,0
0:5:36.477,657.589,83.7299,0,0.000885,0,0
0:5:37.071,658.879,83.8885,0,0.000885,0,0
0:5:37.669,660.405,84.0885,0,0.000885,0,0
0:5:38.266,661.406,84.2126,0,0.000885,0,0
0:5:38.863,662.109,84.3022,0,0.000885,0,0
0:5:39.461,663.341,84.4608,0,0.000885,0,0
0:5:40.067,664.689,84.6331,0,0.000885,0,0
0:5:40.668,665.512,84.7366,0,0.000885,0,0
0:5:41.268,666.864,84.9089,0,0.000885,0,0
0:5:41.864,668.038,85.0537,0,0.000885,0,0
0:5:42.468,669.271,85.2123,0,0.000885,0,0
0:5:43.062,670.503,85.3709,0,0.000885,0,0
0:5:43.666,671.735,85.5295,0,0.000885,0,0
0:5:44.265,673.376,85.7363,0,0.000885,0,0
0:5:44.870,674.377,85.8673,0,0.000885,0,0
0:5:45.474,675.022,85.9431,0,0.000885,0,0
0:5:46.075,676.196,86.0948,0,0.000885,0,0
0:5:46.669,677.606,86.2741,0,0.000885,0,0
0:5:47.267,678.603,86.4051,0,0.000885,0,0
0:5:47.864,680.186,86.605,0,0.000885,0,0
0:5:48.462,681.187,86.7292,0,0.000885,0,0
0:5:49.066,682.299,86.8739,0,0.000885,0,0
0:5:49.666,683.18,86.9843,0,0.000885,0,0
0:5:50.271,684.061,87.0946,0,0.000885,0,0
0:5:50.875,685.587,87.2945,0,0.000885,0,0
0:5:51.473,687.055,87.4807,0,0.000885,0,0
0:5:52.070,688.522,87.6668,0,0.000885,0,0
0:5:52.665,689.403,87.7772,0,0.000885,0,0
0:5:53.257,690.871,87.9633,0,0.000885,0,0
0:5:53.863,691.458,88.0392,0,0.000885,0,0
0:5:54.457,692.161,88.1288,0,0.000885,0,0
0:5:55.067,694.336,88.4046,0,0.000885,0,0
0:5:55.670,695.213,88.5149,0,0.000885,0,0
0:5:56.271,696.507,88.6804,0,0.000885,0,0
0:5:56.865,697.503,88.8114,0,0.000885,0,0
0:5:57.470,698.856,88.9837,0,0.000885,0,0
0:5:58.067,699.736,89.0941,0,0.000885,0,0
0:5:58.671,700.555,89.1975,0,0.000885,0,0
0:5:59.269,702.436,89.4388,0,0.000885,0,0
0:5:59.876,703.491,89.5698,0,0.000885,0,0
0:6:0.480,704.607,89.7146,0,0.000885,0,0
0:6:1.078,705.955,89.887,0,0.000885,0,0
0:6:1.675,707.187,90.0455,0,0.000885,0,0
0:6:2.273,708.188,90.1696,0,0.000885,0,0
0:6:2.868,709.714,90.3627,0,0.000885,0,0
0:6:3.460,710.181,90.4247,0,0.000885,0,0
0:6:4.066,711.533,90.5971,0,0.000885,0,0
0:6:4.669,713.001,90.7833,0,0.000885,0,0
0:6:5.274,714.117,90.9212,0,0.000885,0,0
0:6:5.878,715.407,91.0866,0,0.000885,0,0
0:6:6.474,716.462,91.2245,0,0.000885,0,0
0:6:7.067,717.285,91.328,0,0.000885,0,0
0:6:7.660,718.753,91.5141,0,0.000885,0,0
0:6:8.266,720.163,91.6934,0,0.000885,0,0
0:6:8.859,721.51,91.8657,0,0.000885,0,0
0:6:9.456,722.449,91.983,0,0.000885,0,0
0:6:10.066,723.214,92.0795,0,0.000885,0,0
0:6:10.670,724.446,92.2381,0,0.000885,0,0
0:6:11.268,725.678,92.3966,0,0.000885,0,0
0:6:11.861,727.44,92.6173,0,0.000885,0,0
0:6:12.470,728.205,92.7207,0,0.000885,0,0
0:6:13.066,730.024,92.9482,0,0.000885,0,0
0:6:13.671,730.198,92.9689,0,0.000885,0,0
0:6:14.265,731.901,93.1895,0,0.000885,0,0
0:6:14.861,732.898,93.3136,0,0.000885,0,0
0:6:15.471,734.544,93.5274,0,0.000885,0,0
0:6:16.074,735.598,93.6584,0,0.000885,0,0
0:6:16.670,736.069,93.7204,0,0.000885,0,0
0:6:17.267,737.417,93.8928,0,0.000885,0,0
0:6:17.859,738.77,94.0652,0,0.000885,0,0
0:6:18.460,739.824,94.1962,0,0.000885,0,0
0:6:19.066,740.882,94.3341,0,0.000885,0,0
0:6:19.672,742.528,94.5409,0,0.000885,0,0
0:6:20.277,743.934,94.7202,0,0.000885,0,0
0:6:20.880,744.699,94.8167,0,0.000885,0,0
0:6:21.475,745.638,94.9408,0,0.000885,0,0
0:6:22.070,746.812,95.0856,0,0.000885,0,0
0:6:22.661,748.16,95.258,0,0.000885,0,0
0:6:23.270,749.454,95.4234,0,0.000885,0,0
0:6:23.866,750.508,95.5544,0,0.000885,0,0
0:6:24.460,751.741,95.713,0,0.000885,0,0
0:6:25.071,753.329,95.9199,0,0.000885,0,0
0:6:25.675,754.209,96.0302,0,0.000885,0,0
0:6:26.273,755.499,96.1957,0,0.000885,0,0
0:6:26.869,756.38,96.306,0,0.000885,0,0
0:6:27.465,757.964,96.5059,0,0.000885,0,0
0:6:28.072,758.609,96.5887,0,0.000885,0,0
0:6:28.667,759.725,96.7334,0,0.000885,0,0
0:6:29.259,760.842,96.8713,0,0.000885,0,0
0:6:29.861,762.541,97.092,0,0.000885,0,0
0:6:30.470,763.542,97.2161,0,0.000885,0,0
0:6:31.073,764.302,97.3126,0,0.000885,0,0
0:6:31.669,766.006,97.5332,0,0.000885,0,0
0:6:32.262,766.829,97.6367,0,0.000885,0,0
0:6:32.866,768.235,97.8159,0,0.000885,0,0
0:6:33.468,769,97.9124,0,0.000885,0,0
0:6:34.061,770.703,98.1262,0,0.000885,0,0
0:6:34.671,772.345,98.3399,0,0.000885,0,0
0:6:35.275,773.168,98.4433,0,0.000885,0,0
0:6:35.878,774.4,98.6019,0,0.000885,0,0
0:6:36.472,774.987,98.6778,0,0.000885,0,0
0:6:37.075,776.103,98.8157,0,0.000885,0,0
0:6:37.670,777.571,99.0018,0,0.000885,0,0
0:6:38.267,779.097,99.1949,0,0.000885,0,0
0:6:38.861,780.151,99.3328,0,0.000885,0,0
0:6:39.469,781.561,99.512,0,0.000885,0,0
0:6:40.076,782.678,99.6568,0,0.000885,0,0
0:6:40.679,783.559,99.7671,0,0.000885,0,0
0:6:41.275,784.613,99.8981,0,0.000885,0,0
0:6:41.872,785.787,100.05,0,0.000885,0,0
0:6:42.469,786.904,100.195,0,0.000885,0,0
0:6:43.062,788.487,100.395,0,0.000885,0,0
0:6:43.668,789.604,100.532,0,0.000885,0,0
0:6:44.259,790.542,100.657,0,0.000885,0,0
0:6:44.863,791.832,100.822,0,0.000885,0,0
0:6:45.471,792.771,100.939,0,0.000885,0,0
0:6:46.075,794.123,101.112,0,0.000885,0,0
0:6:46.670,795.177,101.243,0,0.000885,0,0
0:6:47.273,796.765,101.449,0,0.000885,0,0
0:6:47.865,797.762,101.574,0,0.000885,0,0
0:6:48.472,798.821,101.711,0,0.000885,0,0
0:6:49.069,800.404,101.911,0,0.000885,0,0
0:6:49.664,801.578,102.063,0,0.000885,0,0
0:6:50.273,802.339,102.16,0,0.000885,0,0
0:6:50.876,803.456,102.298,0,0.000885,0,0
0:6:51.474,804.572,102.442,0,0.000885,0,0
0:6:52.071,805.92,102.615,0,0.000885,0,0
0:6:52.677,807.566,102.822,0,0.000885,0,0
0:6:53.276,808.446,102.932,0,0.000885,0,0
0:6:53.871,809.327,103.049,0,0.000885,0,0
0:6:54.480,810.795,103.235,0,0.000885,0,0
0:6:55.086,811.849,103.366,0,0.000885,0,0
0:6:55.689,813.375,103.559,0,0.000885,0,0
0:6:56.287,814.256,103.676,0,0.000885,0,0
0:6:56.883,815.372,103.814,0,0.000885,0,0
0:6:57.477,816.489,103.959,0,0.000885,0,0
0:6:58.070,818.015,104.152,0,0.000885,0,0
0:6:58.675,819.011,104.276,0,0.000885,0,0
0:6:59.273,820.363,104.449,0,0.000885,0,0
0:6:59.880,821.36,104.58,0,0.000885,0,0
0:7:0.482,821.769,104.628,0,0.000885,0,0
0:7:1.083,823.588,104.862,0,0.000885,0,0
0:7:1.676,824.647,105,0,0.000885,0,0
0:7:2.273,826.408,105.221,0,0.000885,0,0
0:7:2.871,826.875,105.283,0,0.000885,0,0
0:7:3.466,828.521,105.49,0,0.000885,0,0
0:7:4.071,829.282,105.586,0,0.000885,0,0
0:7:4.681,830.808,105.779,0,0.000885,0,0
0:7:5.288,832.276,105.966,0,0.000885,0,0
0:7:5.889,832.805,106.034,0,0.000885,0,0
0:7:6.486,834.037,106.193,0,0.000885,0,0
0:7:7.082,835.038,106.317,0,0.000885,0,0
0:7:7.676,836.915,106.558,0,0.000885,0,0
0:7:8.270,837.56,106.641,0,0.000885,0,0
0:7:8.864,838.734,106.793,0,0.000885,0,0
0:7:9.474,840.202,106.979,0,0.000885,0,0
0:7:10.081,841.612,107.158,0,0.000885,0,0
0:7:10.684,842.373,107.255,0,0.000885,0,0
0:7:11.281,843.432,107.386,0,0.000885,0,0
0:7:11.879,845.073,107.6,0,0.000885,0,0
0:7:12.476,846.07,107.724,0,0.000885,0,0
0:7:13.073,847.422,107.896,0,0.000885,0,0
0:7:13.665,848.476,108.034,0,0.000885,0,0
0:7:14.260,849.65,108.179,0,0.000885,0,0
0:7:14.863,850.945,108.344,0,0.000885,0,0
0:7:15.468,851.941,108.475,0,0.000885,0,0
0:7:16.071,852.706,108.572,0,0.000885,0,0
0:7:16.667,854.232,108.765,0,0.000885,0,0
0:7:17.260,855.994,108.985,0,0.000885,0,0
0:7:17.875,856.518,109.054,0,0.000885,0,0
0:7:18.467,858.164,109.268,0,0.000885,0,0
0:7:19.063,859.339,109.413,0,0.000885,0,0
0:7:19.669,859.748,109.468,0,0.000885,0,0
0:7:20.275,861.451,109.682,0,0.000885,0,0
0:7:20.876,862.448,109.813,0,0.000885,0,0
0:7:21.477,863.738,109.971,0,0.000885,0,0
0:7:22.074,864.619,110.089,0,0.000885,0,0
0:7:22.680,866.144,110.282,0,0.000885,0,0
0:7:23.278,867.497,110.454,0,0.000885,0,0
0:7:23.875,867.906,110.502,0,0.000885,0,0
0:7:24.484,869.845,110.75,0,0.000885,0,0
0:7:25.090,870.668,110.854,0,0.000885,0,0
0:7:25.692,872.074,111.033,0,0.000885,0,0
0:7:26.291,872.839,111.137,0,0.000885,0,0
0:7:26.888,874.365,111.33,0,0.000885,0,0
0:7:27.485,875.655,111.495,0,0.000885,0,0
0:7:28.079,876.593,111.612,0,0.000885,0,0
0:7:28.672,877.945,111.785,0,0.000885,0,0
0:7:29.267,878.826,111.895,0,0.000885,0,0
0:7:29.877,880.352,112.088,0,0.000885,0,0
0:7:30.482,881.117,112.185,0,0.000885,0,0
0:7:31.082,882.758,112.398,0,0.000885,0,0
0:7:31.676,883.639,112.509,0,0.000885,0,0
0:7:32.269,885.343,112.722,0,0.000885,0,0
0:7:32.874,885.988,112.805,0,0.000885,0,0
0:7:33.470,886.811,112.909,0,0.000885,0,0
0:7:34.079,888.274,113.102,0,0.000885,0,0
0:7:34.676,889.391,113.239,0,0.000885,0,0
0:7:35.283,891.152,113.467,0,0.000885,0,0
0:7:35.886,891.855,113.557,0,0.000885,0,0
0:7:36.484,893.087,113.708,0,0.000885,0,0
0:7:37.080,894.44,113.881,0,0.000885,0,0
0:7:37.679,895.556,114.025,0,0.000885,0,0
0:7:38.283,896.73,114.177,0,0.000885,0,0
0:7:38.877,898.078,114.35,0,0.000885,0,0
0:7:39.477,899.137,114.481,0,0.000885,0,0
0:7:40.081,900.075,114.598,0,0.000885,0,0
0:7:40.685,901.485,114.777,0,0.000885,0,0
0:7:41.282,902.362,114.894,0,0.000885,0,0
0:7:41.879,903.83,115.08,0,0.000885,0,0
0:7:42.474,904.831,115.204,0,0.000885,0,0
0:7:43.064,906.063,115.363,0,0.000885,0,0
0:7:43.658,907.473,115.542,0,0.000885,0,0
0:7:44.264,908.354,115.653,0,0.000885,0,0
0:7:44.870,910.111,115.88,0,0.000885,0,0
0:7:45.474,910.64,115.949,0,0.000885,0,0
0:7:46.076,912.223,116.149,0,0.000885,0,0
0:7:46.668,913.104,116.259,0,0.000885,0,0
0:7:47.274,914.163,116.397,0,0.000885,0,0
0:7:47.879,915.746,116.597,0,0.000885,0,0
0:7:48.479,916.512,116.694,0,0.000885,0,0
0:7:49.074,918.447,116.942,0,0.000885,0,0
0:7:49.681,919.034,117.018,0,0.000885,0,0
0:7:50.288,920.617,117.218,0,0.000885,0,0
0:7:50.890,921.382,117.314,0,0.000885,0,0
0:7:51.487,922.557,117.466,0,0.000885,0,0
0:7:52.083,923.495,117.583,0,0.000885,0,0
0:7:52.681,924.727,117.742,0,0.000885,0,0
0:7:53.272,925.96,117.9,0,0.000885,0,0
0:7:53.865,927.721,118.121,0,0.000885,0,0
0:7:54.468,928.895,118.273,0,0.000885,0,0
0:7:55.072,929.598,118.362,0,0.000885,0,0
0:7:55.677,930.951,118.535,0,0.000885,0,0
0:7:56.275,931.773,118.638,0,0.000885,0,0
0:7:56.867,932.828,118.769,0,0.000885,0,0
0:7:57.470,934.767,119.017,0,0.000885,0,0
0:7:58.077,935.821,119.155,0,0.000885,0,0
0:7:58.672,936.644,119.259,0,0.000885,0,0
0:7:59.269,937.996,119.431,0,0.000885,0,0
0:7:59.879,939.344,119.603,0,0.000885,0,0
0:8:0.482,940.461,119.741,0,0.000885,0,0
0:8:1.079,941.221,119.838,0,0.000885,0,0
0:8:1.676,942.574,120.01,0,0.000885,0,0
0:8:2.272,943.864,120.176,0,0.000885,0,0
0:8:2.880,945.389,120.369,0,0.000885,0,0
0:8:3.472,946.328,120.493,0,0.000885,0,0
0:8:4.067,947.502,120.638,0,0.000885,0,0
0:8:4.670,948.325,120.748,0,0.000885,0,0
0:8:5.277,949.442,120.886,0,0.000885,0,0
0:8:5.881,951.083,121.093,0,0.000885,0,0
0:8:6.478,951.906,121.203,0,0.000885,0,0
0:8:7.081,953.374,121.389,0,0.000885,0,0
0:8:7.673,954.784,121.568,0,0.000885,0,0
0:8:8.278,955.723,121.686,0,0.000885,0,0
0:8:8.872,956.661,121.803,0,0.000885,0,0
0:8:9.481,958.365,122.023,0,0.000885,0,0
0:8:10.087,959.068,122.113,0,0.000885,0,0
0:8:10.691,960.771,122.327,0,0.000885,0,0
0:8:11.290,961.065,122.368,0,0.000885,0,0
0:8:11.886,962.649,122.568,0,0.000885,0,0
0:8:12.483,963.823,122.72,0,0.000885,0,0
0:8:13.079,964.584,122.816,0,0.000885,0,0
0:8:13.673,966.403,123.044,0,0.000885,0,0
0:8:14.269,967.577,123.196,0,0.000885,0,0
0:8:14.867,968.872,123.361,0,0.000885,0,0
0:8:15.473,969.868,123.485,0,0.000885,0,0
0:8:16.074,970.864,123.616,0,0.000885,0,0
0:8:16.673,972.159,123.782,0,0.000885,0,0
0:8:17.271,972.919,123.878,0,0.000885,0,0
0:8:17.864,974.445,124.071,0,0.000885,0,0
0:8:18.481,975.797,124.244,0,0.000885,0,0
0:8:19.075,976.5,124.333,0,0.000885,0,0
0:8:19.684,978.733,124.616,0,0.000885,0,0
0:8:20.288,979.552,124.719,0,0.000885,0,0
0:8:20.889,980.259,124.809,0,0.000885,0,0
0:8:21.482,981.198,124.933,0,0.000885,0,0
0:8:22.075,982.781,125.133,0,0.000885,0,0
0:8:22.672,984.133,125.305,0,0.000885,0,0
0:8:23.280,985.308,125.45,0,0.000885,0,0
0:8:23.872,986.189,125.567,0,0.000885,0,0
0:8:24.468,987.772,125.767,0,0.000885,0,0
0:8:25.079,988.768,125.891,0,0.000885,0,0
0:8:25.681,989.765,126.022,0,0.000885,0,0
0:8:26.287,991.526,126.243,0,0.000885,0,0
0:8:26.884,991.704,126.271,0,0.000885,0,0
0:8:27.480,993.524,126.498,0,0.000885,0,0
0:8:28.072,994.347,126.602,0,0.000885,0,0
0:8:28.666,995.694,126.774,0,0.000885,0,0
0:8:29.271,996.989,126.939,0,0.000885,0,0
0:8:29.879,997.927,127.057,0,0.000885,0,0
0:8:30.484,999.16,127.215,0,0.000885,0,0
0:8:31.088,1000.45,127.381,0,0.000885,0,0
0:8:31.682,1001.39,127.498,0,0.000885,0,0
0:8:32.285,1002.74,127.67,0,0.000885,0,0
0:8:32.883,1004.15,127.849,0,0.000885,0,0
0:8:33.479,1005.09,127.974,0,0.000885,0,0
0:8:34.074,1006.03,128.091,0,0.000885,0,0
0:8:34.670,1007.02,128.215,0,0.000885,0,0
0:8:35.276,1008.79,128.442,0,0.000885,0,0
0:8:35.882,1009.9,128.587,0,0.000885,0,0
0:8:36.476,1011.01,128.725,0,0.000885,0,0
0:8:37.071,1012.25,128.884,0,0.000885,0,0
0:8:37.668,1013.19,129.001,0,0.000885,0,0
0:8:38.274,1013.78,129.077,0,0.000885,0,0
0:8:38.868,1015.65,129.318,0,0.000885,0,0
0:8:39.468,1017.06,129.497,0,0.000885,0,0
0:8:40.076,1018.06,129.621,0,0.000885,0,0
0:8:40.680,1019.29,129.78,0,0.000885,0,0
0:8:41.287,1020.82,129.973,0,0.000885,0,0
0:8:41.882,1021.46,130.056,0,0.000885,0,0
0:8:42.485,1022.87,130.235,0,0.000885,0,0
0:8:43.076,1023.64,130.332,0,0.000885,0,0
0:8:43.673,1025.04,130.511,0,0.000885,0,0
0:8:44.270,1026.57,130.704,0,0.000885,0,0
0:8:44.875,1027.57,130.835,0,0.000885,0,0
0:8:45.482,1028.68,130.973,0,0.000885,0,0
0:8:46.082,1030.21,131.173,0,0.000885,0,0
0:8:46.685,1031.32,131.311,0,0.000885,0,0
0:8:47.281,1032.56,131.469,0,0.000885,0,0
0:8:47.876,1033.32,131.566,0,0.000885,0,0
0:8:48.472,1035.03,131.786,0,0.000885,0,0
0:8:49.067,1035.73,131.876,0,0.000885,0,0
0:8:49.686,1037.14,132.055,0,0.000885,0,0
0:8:50.292,1038.25,132.193,0,0.000885,0,0
0:8:50.896,1039.37,132.338,0,0.000885,0,0
0:8:51.493,1040.48,132.476,0,0.000885,0,0
0:8:52.089,1041.31,132.586,0,0.000885,0,0
0:8:52.685,1043.13,132.814,0,0.000885,0,0
0:8:53.288,1044.06,132.931,0,0.000885,0,0
0:8:53.882,1044.95,133.048,0,0.000885,0,0
0:8:54.476,1046.41,133.234,0,0.000885,0,0
0:8:55.083,1047.76,133.407,0,0.000885,0,0
0:8:55.687,1048.7,133.524,0,0.000885,0,0
0:8:56.290,1050.46,133.751,0,0.000885,0,0
0:8:56.883,1051.23,133.848,0,0.000885,0,0
0:8:57.486,1052.57,134.02,0,0.000885,0,0
0:8:58.082,1053.51,134.138,0,0.000885,0,0
0:8:58.678,1054.28,134.234,0,0.000885,0,0
0:8:59.274,1055.57,134.4,0,0.000885,0,0
0:8:59.882,1057.27,134.613,0,0.000885,0,0
0:9:0.484,1057.8,134.682,0,0.000885,0,0
0:9:1.083,1058.8,134.813,0,0.000885,0,0
0:9:1.677,1060.21,134.992,0,0.000885,0,0
0:9:2.273,1061.55,135.165,0,0.000885,0,0
0:9:2.879,1062.96,135.344,0,0.000885,0,0
0:9:3.475,1064.32,135.51,0,0.000885,0,0
0:9:4.069,1065.49,135.661,0,0.000885,0,0
0:9:4.678,1066.43,135.778,0,0.000885,0,0
0:9:5.286,1067.31,135.896,0,0.000885,0,0
0:9:5.890,1068.77,136.082,0,0.000885,0,0
0:9:6.485,1069.83,136.213,0,0.000885,0,0
0:9:7.080,1070.83,136.344,0,0.000885,0,0
0:9:7.673,1072.53,136.558,0,0.000885,0,0
0:9:8.266,1073.24,136.647,0,0.000885,0,0
0:9:8.862,1074.76,136.84,0,0.000885,0,0
0:9:9.468,1075.7,136.964,0,0.000885,0,0
0:9:10.076,1077.46,137.185,0,0.000885,0,0
0:9:10.679,1078.28,137.288,0,0.000885,0,0
0:9:11.280,1078.87,137.364,0,0.000885,0,0
0:9:11.872,1080.34,137.55,0,0.000885,0,0
0:9:12.467,1082.04,137.771,0,0.000885,0,0
0:9:13.074,1083.57,137.964,0,0.000885,0,0
0:9:13.678,1083.98,138.019,0,0.000885,0,0
0:9:14.277,1085.98,138.267,0,0.000885,0,0
0:9:14.884,1085.92,138.261,0,0.000885,0,0
0:9:15.488,1087.39,138.447,0,0.000885,0,0
0:9:16.084,1088.85,138.64,0,0.000885,0,0
0:9:16.677,1089.97,138.778,0,0.000885,0,0
0:9:17.275,1091.26,138.943,0,0.000885,0,0
0:9:17.870,1092.2,139.06,0,0.000885,0,0
0:9:18.474,1093.6,139.24,0,0.000885,0,0
0:9:19.088,1095.01,139.419,0,0.000885,0,0
0:9:19.693,1095.9,139.536,0,0.000885,0,0
0:9:20.298,1096.6,139.626,0,0.000885,0,0
0:9:20.902,1098.36,139.846,0,0.000885,0,0
0:9:21.497,1099.59,140.005,0,0.000885,0,0
0:9:22.090,1100.18,140.081,0,0.000885,0,0
0:9:22.686,1101.88,140.295,0,0.000885,0,0
0:9:23.284,1102.88,140.426,0,0.000885,0,0
0:9:23.891,1104.29,140.605,0,0.000885,0,0
0:9:24.485,1104.76,140.66,0,0.000885,0,0
0:9:25.091,1106.4,140.874,0,0.000885,0,0
0:9:25.694,1107.81,141.053,0,0.000885,0,0
0:9:26.293,1108.75,141.17,0,0.000885,0,0
0:9:26.888,1110.28,141.363,0,0.000885,0,0
0:9:27.482,1110.92,141.446,0,0.000885,0,0
0:9:28.091,1112.74,141.68,0,0.000885,0,0
0:9:28.685,1113.62,141.791,0,0.000885,0,0
0:9:29.288,1114.92,141.956,0,0.000885,0,0
0:9:29.890,1115.8,142.066,0,0.000885,0,0
0:9:30.496,1117.5,142.287,0,0.000885,0,0
0:9:31.099,1118.26,142.384,0,0.000885,0,0
0:9:31.695,1119.2,142.501,0,0.000885,0,0
0:9:32.290,1120.37,142.653,0,0.000885,0,0
0:9:32.881,1121.61,142.804,0,0.000885,0,0
0:9:33.486,1122.84,142.963,0,0.000885,0,0
0:9:34.078,1124.01,143.114,0,0.000885,0,0
0:9:34.686,1125.36,143.287,0,0.000885,0,0
0:9:35.292,1126.53,143.432,0,0.000885,0,0
0:9:35.893,1127.65,143.576,0,0.000885,0,0
0:9:36.487,1129.3,143.783,0,0.000885,0,0
0:9:37.078,1130.06,143.887,0,0.000885,0,0
0:9:37.676,1131.29,144.038,0,0.000885,0,0
0:9:38.274,1132.05,144.135,0,0.000885,0,0
0:9:38.869,1132.94,144.252,0,0.000885,0,0
0:9:39.478,1134.7,144.473,0,0.000885,0,0
0:9:40.083,1135.69,144.604,0,0.000885,0,0
0:9:40.689,1136.63,144.721,0,0.000885,0,0
0:9:41.283,1137.98,144.893,0,0.000885,0,0
0:9:41.892,1139.16,145.045,0,0.000885,0,0
0:9:42.484,1140.39,145.197,0,0.000885,0,0
0:9:43.088,1142.09,145.417,0,0.000885,0,0
0:9:43.680,1142.85,145.514,0,0.000885,0,0
0:9:44.276,1144.03,145.666,0,0.000885,0,0
0:9:44.882,1145.2,145.81,0,0.000885,0,0
0:9:45.489,1146.38,145.962,0,0.000885,0,0
0:9:46.091,1147.2,146.065,0,0.000885,0,0
0:9:46.682,1147.9,146.155,0,0.000885,0,0
0:9:47.277,1149.25,146.327,0,0.000885,0,0
0:9:47.881,1150.72,146.514,0,0.000885,0,0
0:9:48.480,1152.77,146.776,0,0.000885,0,0
0:9:49.086,1153.36,146.851,0,0.000885,0,0
0:9:49.681,1154.71,147.024,0,0.000885,0,0
0:9:50.290,1156.24,147.217,0,0.000885,0,0
0:9:50.892,1157.35,147.362,0,0.000885,0,0
0:9:51.490,1159.06,147.575,0,0.000885,0,0
0:9:52.083,1159.58,147.644,0,0.000885,0,0
0:9:52.681,1160.52,147.762,0,0.000885,0,0
0:9:53.275,1162.16,147.968,0,0.000885,0,0
0:9:53.879,1163.34,148.12,0,0.000885,0,0
0:9:54.480,1163.99,148.203,0,0.000885,0,0
0:9:55.087,1164.75,148.299,0,0.000885,0,0
0:9:55.690,1166.98,148.582,0,0.000885,0,0
0:9:56.287,1167.92,148.706,0,0.000885,0,0
0:9:56.880,1168.86,148.823,0,0.000885,0,0
0:9:57.473,1169.68,148.927,0,0.000885,0,0
0:9:58.077,1170.91,149.085,0,0.000885,0,0
0:9:58.674,1173.03,149.354,0,0.000885,0,0
0:9:59.292,1174.14,149.499,0,0.000885,0,0
0:9:59.899,1174.61,149.554,0,0.000885,0,0
0:10:0.503,1175.49,149.671,0,0.000885,0,0
0:10:1.101,1177.08,149.871,0,0.000885,0,0
0:10:1.695,1178.25,150.016,0,0.000885,0,0
0:10:2.295,1179.72,150.209,0,0.000885,0,0
0:10:2.891,1180.6,150.319,0,0.000885,0,0
0:10:3.496,1182.01,150.499,0,0.000885,0,0
0:10:4.090,1182.71,150.588,0,0.000885,0,0
0:10:4.690,1184.29,150.788,0,0.000885,0,0
0:10:5.296,1185.82,150.981,0,0.000885,0,0
0:10:5.899,1187.17,151.154,0,0.000885,0,0
0:10:6.465,1175.9,149.72,0,0.000885,0,0