File: DataFile2021-07-28_093856.csv
Test ID:,Date Tested:,Time:,Test Type:,Diameter Avg. (mm):,Cyl. Corr. Factor:,Height (mm):,Age (days):,Weight (kN):,Break Type:,Ramp Rate (MPa/s):,Load at Break (kN):,Stress at Break (MPa):
12,7/28/2021,09:38,Cylinder,150,1,300,0,13.69,3,0.3,1132.94,64.11
Sample Time,Load (kN),Stress (MPa),Long. Strain,Trans. Strain,Chan1 Deflection (mm),Chan2 Deflection (mm)
0:0:6.004,5.04428,0.282685,0,0.000885,0,0
0:0:6.204,6.15634,0.351633,0,0.000885,0,0
0:0:6.411,7.3885,0.42058,0,0.000885,0,0
0:0:6.613,10.0307,0.56537,0,0.000885,0,0
0:0:6.807,9.79498,0.551581,0,0.000885,0,0
0:0:7.008,12.0814,0.682581,0,0.000885,0,0
0:0:7.211,12.9043,0.730844,0,0.000885,0,0
0:0:7.404,13.1356,0.744634,0,0.000885,0,0
0:0:7.607,14.6035,0.827371,0,0.000885,0,0
0:0:7.804,15.3686,0.868739,0,0.000885,0,0
0:0:8.002,17.1835,0.972161,0,0.000885,0,0
0:0:8.203,18.4156,1.04111,0,0.000885,0,0
0:0:8.399,20.1771,1.14453,0,0.000885,0,0
0:0:8.600,20.5864,1.16521,0,0.000885,0,0
0:0:8.808,21.8185,1.23416,0,0.000885,0,0
0:0:9.019,22.5792,1.27553,0,0.000885,0,0
0:0:9.220,24.0471,1.35827,0,0.000885,0,0
0:0:9.416,25.1591,1.42721,0,0.000885,0,0
0:0:9.619,26.3913,1.49616,0,0.000885,0,0
0:0:9.817,27.5078,1.55822,0,0.000885,0,0
0:0:10.015,29.1492,1.64785,0,0.000885,0,0
0:0:10.217,30.1456,1.70301,0,0.000885,0,0
0:0:10.414,32.0227,1.81332,0,0.000885,0,0
0:0:10.614,32.7256,1.85469,0,0.000885,0,0
0:0:10.814,34.4871,1.95122,0,0.000885,0,0
0:0:11.019,35.5991,2.01327,0,0.000885,0,0
0:0:11.222,37.3606,2.11669,0,0.000885,0,0
0:0:11.424,38.4727,2.17874,0,0.000885,0,0
0:0:11.628,40.1763,2.27527,0,0.000885,0,0
0:0:11.831,41.4085,2.34422,0,0.000885,0,0
0:0:12.034,43.9306,2.48901,0,0.000885,0,0
0:0:12.235,44.5756,2.52348,0,0.000885,0,0
0:0:12.438,46.6841,2.64069,0,0.000885,0,0
0:0:12.639,47.507,2.68896,0,0.000885,0,0
0:0:12.842,49.6199,2.80617,0,0.000885,0,0
0:0:13.038,50.8521,2.87511,0,0.000885,0,0
0:0:13.240,52.6091,2.97854,0,0.000885,0,0
0:0:13.436,53.6055,3.03369,0,0.000885,0,0
0:0:13.637,55.0156,3.11643,0,0.000885,0,0
0:0:13.839,55.8341,3.1578,0,0.000885,0,0
0:0:14.033,56.3056,3.18538,0,0.000885,0,0
0:0:14.235,58.0048,3.2819,0,0.000885,0,0
0:0:14.433,59.0012,3.33706,0,0.000885,0,0
0:0:14.632,60.2912,3.4129,0,0.000885,0,0
0:0:14.833,60.7627,3.44048,0,0.000885,0,0
0:0:15.028,61.5234,3.48185,0,0.000885,0,0
0:0:15.229,62.6399,3.54391,0,0.000885,0,0
0:0:15.429,64.4547,3.64733,0,0.000885,0,0
0:0:15.626,64.9262,3.67491,0,0.000885,0,0
0:0:15.828,66.452,3.75764,0,0.000885,0,0
0:0:16.026,67.3906,3.8128,0,0.000885,0,0
0:0:16.224,69.032,3.90933,0,0.000885,0,0
0:0:16.425,70.0862,3.96449,0,0.000885,0,0
0:0:16.629,71.7276,4.06101,0,0.000885,0,0
0:0:16.831,72.6661,4.10928,0,0.000885,0,0
0:0:17.034,74.5433,4.21959,0,0.000885,0,0
0:0:17.236,75.3662,4.26785,0,0.000885,0,0
0:0:17.438,76.714,4.3437,0,0.000885,0,0
0:0:17.641,77.7104,4.39886,0,0.000885,0,0
0:0:17.841,79.7077,4.50917,0,0.000885,0,0
0:0:18.041,80.1747,4.53675,0,0.000885,0,0
0:0:18.238,81.7583,4.62638,0,0.000885,0,0
0:0:18.440,82.8125,4.68843,0,0.000885,0,0
0:0:18.635,83.929,4.75049,0,0.000885,0,0
0:0:18.835,84.8676,4.80565,0,0.000885,0,0
0:0:19.037,85.7484,4.85391,0,0.000885,0,0
0:0:19.232,87.4476,4.95044,0,0.000885,0,0
0:0:19.434,88.444,5.00559,0,0.000885,0,0
0:0:19.632,90.4991,5.1228,0,0.000885,0,0
0:0:19.831,91.2019,5.16417,0,0.000885,0,0
0:0:20.033,92.8433,5.25381,0,0.000885,0,0
0:0:20.229,94.0754,5.32275,0,0.000885,0,0
0:0:20.431,95.8369,5.42617,0,0.000885,0,0
0:0:20.629,96.304,5.44686,0,0.000885,0,0
0:0:20.827,98.0032,5.54338,0,0.000885,0,0
0:0:21.029,98.8261,5.59165,0,0.000885,0,0
0:0:21.225,100.703,5.70196,0,0.000885,0,0
0:0:21.425,101.406,5.73644,0,0.000885,0,0
0:0:21.627,102.46,5.79849,0,0.000885,0,0
0:0:21.831,103.341,5.84675,0,0.000885,0,0
0:0:22.034,105.276,5.95707,0,0.000885,0,0
0:0:22.236,105.983,5.99844,0,0.000885,0,0
0:0:22.439,106.98,6.0536,0,0.000885,0,0
0:0:22.641,107.798,6.10186,0,0.000885,0,0
0:0:22.843,109.56,6.19839,0,0.000885,0,0
0:0:23.045,110.672,6.26044,0,0.000885,0,0
0:0:23.242,112.433,6.36386,0,0.000885,0,0
0:0:23.441,113.545,6.42591,0,0.000885,0,0
0:0:23.642,115.249,6.52244,0,0.000885,0,0
0:0:23.837,116.303,6.58449,0,0.000885,0,0
0:0:24.039,116.948,6.61897,0,0.000885,0,0
0:0:24.239,118.358,6.69481,0,0.000885,0,0
0:0:24.435,119.59,6.77065,0,0.000885,0,0
0:0:24.638,121.757,6.88786,0,0.000885,0,0
0:0:24.832,122.522,6.93613,0,0.000885,0,0
0:0:25.033,124.279,7.03265,0,0.000885,0,0
0:0:25.233,124.808,7.06023,0,0.000885,0,0
0:0:25.430,125.925,7.12918,0,0.000885,0,0
0:0:25.632,126.801,7.17744,0,0.000885,0,0
0:0:25.830,128.914,7.29465,0,0.000885,0,0
0:0:26.028,129.323,7.31534,0,0.000885,0,0
0:0:26.231,131.142,7.41876,0,0.000885,0,0
0:0:26.433,132.197,7.48081,0,0.000885,0,0
0:0:26.637,133.9,7.57734,0,0.000885,0,0
0:0:26.839,134.545,7.61181,0,0.000885,0,0
0:0:27.041,136.48,7.72213,0,0.000885,0,0
0:0:27.243,137.183,7.7635,0,0.000885,0,0
0:0:27.444,139.118,7.87381,0,0.000885,0,0
0:0:27.647,139.821,7.91518,0,0.000885,0,0
0:0:27.847,141.76,8.0186,0,0.000885,0,0
0:0:28.043,142.695,8.07376,0,0.000885,0,0
0:0:28.245,144.34,8.17029,0,0.000885,0,0
0:0:28.442,145.101,8.21166,0,0.000885,0,0
0:0:28.642,146.627,8.29439,0,0.000885,0,0
0:0:28.842,147.623,8.35645,0,0.000885,0,0
0:0:29.039,147.975,8.37024,0,0.000885,0,0
0:0:29.241,149.091,8.43918,0,0.000885,0,0
0:0:29.438,149.794,8.47366,0,0.000885,0,0
0:0:29.639,151.787,8.59087,0,0.000885,0,0
0:0:29.839,152.489,8.63224,0,0.000885,0,0
0:0:30.034,154.367,8.73566,0,0.000885,0,0
0:0:30.235,155.132,8.77703,0,0.000885,0,0
0:0:30.434,156.831,8.87355,0,0.000885,0,0
0:0:30.634,157.654,8.92182,0,0.000885,0,0
0:0:30.835,159.531,9.02524,0,0.000885,0,0
0:0:31.029,160.585,9.08729,0,0.000885,0,0
0:0:31.231,162.578,9.19761,0,0.000885,0,0
0:0:31.433,163.343,9.24587,0,0.000885,0,0
0:0:31.637,164.864,9.32861,0,0.000885,0,0
0:0:31.840,165.923,9.39066,0,0.000885,0,0
0:0:32.043,167.329,9.4665,0,0.000885,0,0
0:0:32.244,168.209,9.52166,0,0.000885,0,0
0:0:32.446,169.971,9.61819,0,0.000885,0,0
0:0:32.648,170.674,9.65955,0,0.000885,0,0
0:0:32.850,171.786,9.72161,0,0.000885,0,0
0:0:33.048,173.138,9.79745,0,0.000885,0,0
0:0:33.248,175.073,9.90777,0,0.000885,0,0
0:0:33.448,176.07,9.96292,0,0.000885,0,0
0:0:33.646,178.182,10.0801,0,0.000885,0,0
0:0:33.848,179.059,10.1353,0,0.000885,0,0
0:0:34.044,179.294,10.1491,0,0.000885,0,0
0:0:34.243,181.114,10.2456,0,0.000885,0,0
0:0:34.445,182.11,10.3077,0,0.000885,0,0
0:0:34.640,183.164,10.3628,0,0.000885,0,0
0:0:34.843,184.161,10.4249,0,0.000885,0,0
0:0:35.041,185.744,10.5145,0,0.000885,0,0
0:0:35.238,186.509,10.5559,0,0.000885,0,0
0:0:35.440,188.68,10.68,0,0.000885,0,0
0:0:35.636,188.974,10.6938,0,0.000885,0,0
0:0:35.839,191.26,10.8248,0,0.000885,0,0
0:0:36.038,191.202,10.8179,0,0.000885,0,0
0:0:36.233,193.311,10.942,0,0.000885,0,0
0:0:36.434,194.014,10.9765,0,0.000885,0,0
0:0:36.635,195.891,11.0868,0,0.000885,0,0
0:0:36.836,196.304,11.1075,0,0.000885,0,0
0:0:37.038,198.062,11.2109,0,0.000885,0,0
0:0:37.239,199.058,11.266,0,0.000885,0,0
0:0:37.440,200.584,11.3488,0,0.000885,0,0
0:0:37.640,201.642,11.4108,0,0.000885,0,0
0:0:37.841,202.932,11.4867,0,0.000885,0,0
0:0:38.040,203.929,11.5418,0,0.000885,0,0
0:0:38.234,204.454,11.5694,0,0.000885,0,0
0:0:38.434,206.567,11.6866,0,0.000885,0,0
0:0:38.631,207.154,11.7211,0,0.000885,0,0
0:0:38.828,208.915,11.8245,0,0.000885,0,0
0:0:39.028,209.849,11.8728,0,0.000885,0,0
0:0:39.224,211.317,11.9555,0,0.000885,0,0
0:0:39.423,212.314,12.0176,0,0.000885,0,0
0:0:39.621,214.017,12.1141,0,0.000885,0,0
0:0:39.815,214.778,12.1555,0,0.000885,0,0
0:0:40.016,216.891,12.2727,0,0.000885,0,0
0:0:40.221,217.536,12.3071,0,0.000885,0,0
0:0:40.419,219.413,12.4175,0,0.000885,0,0
0:0:40.618,220.058,12.4519,0,0.000885,0,0
0:0:40.811,222.229,12.576,0,0.000885,0,0
0:0:41.012,222.58,12.5967,0,0.000885,0,0
0:0:41.209,223.341,12.6381,0,0.000885,0,0
0:0:41.405,224.631,12.7139,0,0.000885,0,0
0:0:41.606,225.979,12.7898,0,0.000885,0,0
0:0:41.807,227.74,12.8863,0,0.000885,0,0
0:0:42.009,228.621,12.9346,0,0.000885,0,0
0:0:42.210,230.147,13.0242,0,0.000885,0,0
0:0:42.410,231.259,13.0862,0,0.000885,0,0
0:0:42.611,232.669,13.169,0,0.000885,0,0
0:0:42.811,233.429,13.2104,0,0.000885,0,0
0:0:43.014,234.897,13.2931,0,0.000885,0,0
0:0:43.211,235.364,13.3207,0,0.000885,0,0
0:0:43.406,237.299,13.431,0,0.000885,0,0
0:0:43.607,238.416,13.493,0,0.000885,0,0
0:0:43.812,240.115,13.5896,0,0.000885,0,0
0:0:44.010,240.702,13.624,0,0.000885,0,0
0:0:44.210,242.521,13.7206,0,0.000885,0,0
0:0:44.417,243.224,13.7619,0,0.000885,0,0
0:0:44.616,244.808,13.8516,0,0.000885,0,0
0:0:44.811,246.156,13.9274,0,0.000885,0,0
0:0:45.006,247.739,14.017,0,0.000885,0,0
0:0:45.207,248.562,14.0653,0,0.000885,0,0
0:0:45.403,249.149,14.0998,0,0.000885,0,0
0:0:45.603,250.964,14.2032,0,0.000885,0,0
0:0:45.800,251.787,14.2515,0,0.000885,0,0
0:0:46.004,253.193,14.3273,0,0.000885,0,0
0:0:46.204,254.016,14.3756,0,0.000885,0,0
0:0:46.403,255.541,14.4583,0,0.000885,0,0
0:0:46.607,256.596,14.5204,0,0.000885,0,0
0:0:46.809,258.179,14.61,0,0.000885,0,0
0:0:47.008,258.94,14.6514,0,0.000885,0,0
0:0:47.209,261.053,14.7755,0,0.000885,0,0
0:0:47.409,261.756,14.8099,0,0.000885,0,0
0:0:47.609,263.046,14.8858,0,0.000885,0,0
0:0:47.810,263.926,14.934,0,0.000885,0,0
0:0:48.006,265.452,15.0237,0,0.000885,0,0
0:0:48.205,266.275,15.065,0,0.000885,0,0
0:0:48.411,267.974,15.1616,0,0.000885,0,0
0:0:48.609,268.855,15.2167,0,0.000885,0,0
0:0:48.811,270.848,15.327,0,0.000885,0,0
0:0:49.004,271.671,15.3753,0,0.000885,0,0
0:0:49.203,273.779,15.4925,0,0.000885,0,0
0:0:49.402,274.602,15.5408,0,0.000885,0,0
0:0:49.607,276.479,15.6442,0,0.000885,0,0
0:0:49.808,277.004,15.6787,0,0.000885,0,0
0:0:50.015,278.356,15.7545,0,0.000885,0,0
0:0:50.210,279.646,15.8235,0,0.000885,0,0
0:0:50.410,280.234,15.8579,0,0.000885,0,0
0:0:50.605,282.168,15.9683,0,0.000885,0,0
0:0:50.806,282.636,15.9958,0,0.000885,0,0
0:0:51.004,284.339,16.0924,0,0.000885,0,0
0:0:51.199,284.922,16.1268,0,0.000885,0,0
0:0:51.399,286.626,16.2165,0,0.000885,0,0
0:0:51.600,287.386,16.2647,0,0.000885,0,0
0:0:51.802,289.263,16.3682,0,0.000885,0,0
0:0:52.004,289.735,16.3957,0,0.000885,0,0
0:0:52.205,291.728,16.506,0,0.000885,0,0
0:0:52.405,292.666,16.5612,0,0.000885,0,0
0:0:52.604,294.543,16.6646,0,0.000885,0,0
0:0:52.804,295.304,16.7129,0,0.000885,0,0
0:0:53.005,296.888,16.8025,0,0.000885,0,0
0:0:53.199,297.826,16.8508,0,0.000885,0,0
0:0:53.400,299.646,16.9542,0,0.000885,0,0
0:0:53.596,300.348,16.9956,0,0.000885,0,0
0:0:53.792,301.287,17.0507,0,0.000885,0,0
0:0:53.993,302.813,17.1335,0,0.000885,0,0
0:0:54.188,303.28,17.1611,0,0.000885,0,0
0:0:54.386,305.219,17.2714,0,0.000885,0,0
0:0:54.585,306.158,17.3265,0,0.000885,0,0
0:0:54.782,307.741,17.4162,0,0.000885,0,0
0:0:54.981,307.857,17.4231,0,0.000885,0,0
0:0:55.178,309.85,17.5334,0,0.000885,0,0
0:0:55.375,310.908,17.5954,0,0.000885,0,0
0:0:55.574,312.665,17.6919,0,0.000885,0,0
0:0:55.768,313.195,17.7264,0,0.000885,0,0
0:0:55.968,314.778,17.8161,0,0.000885,0,0
0:0:56.166,315.833,17.8712,0,0.000885,0,0
0:0:56.362,316.829,17.9264,0,0.000885,0,0
0:0:56.562,318.533,18.0229,0,0.000885,0,0
0:0:56.764,319.351,18.0712,0,0.000885,0,0
0:0:56.967,321.113,18.1746,0,0.000885,0,0
0:0:57.166,322.345,18.2435,0,0.000885,0,0
0:0:57.368,323.808,18.3263,0,0.000885,0,0
0:0:57.569,324.28,18.3538,0,0.000885,0,0
0:0:57.769,326.273,18.4642,0,0.000885,0,0
0:0:57.969,327.153,18.5124,0,0.000885,0,0
0:0:58.169,329.146,18.6227,0,0.000885,0,0
0:0:58.363,330.143,18.6848,0,0.000885,0,0
0:0:58.564,331.668,18.7675,0,0.000885,0,0
0:0:58.759,332.429,18.8089,0,0.000885,0,0
0:0:58.956,333.897,18.8916,0,0.000885,0,0
0:0:59.154,334.658,18.9399,0,0.000885,0,0
0:0:59.349,335.658,18.9951,0,0.000885,0,0
0:0:59.549,337.473,19.0985,0,0.000885,0,0
0:0:59.746,337.945,19.1261,0,0.000885,0,0
0:0:59.942,339.88,19.2364,0,0.000885,0,0
0:1:0.143,340.76,19.2846,0,0.000885,0,0
0:1:0.338,342.344,19.3743,0,0.000885,0,0
0:1:0.537,343.456,19.4363,0,0.000885,0,0
0:1:0.736,344.924,19.5191,0,0.000885,0,0
0:1:0.929,345.333,19.5397,0,0.000885,0,0
0:1:1.130,346.681,19.6156,0,0.000885,0,0
0:1:1.330,347.74,19.6776,0,0.000885,0,0
0:1:1.534,349.497,19.7742,0,0.000885,0,0
0:1:1.735,349.733,19.788,0,0.000885,0,0
0:1:1.937,351.61,19.8983,0,0.000885,0,0
0:1:2.138,352.606,19.9534,0,0.000885,0,0
0:1:2.338,354.19,20.0431,0,0.000885,0,0
0:1:2.538,355.422,20.112,0,0.000885,0,0
0:1:2.739,356.77,20.1878,0,0.000885,0,0
0:1:2.934,357.535,20.2292,0,0.000885,0,0
0:1:3.134,358.295,20.2775,0,0.000885,0,0
0:1:3.331,359.879,20.3671,0,0.000885,0,0
0:1:3.528,360.995,20.4292,0,0.000885,0,0
0:1:3.730,362.81,20.5326,0,0.000885,0,0
0:1:3.923,363.575,20.574,0,0.000885,0,0
0:1:4.123,365.332,20.6705,0,0.000885,0,0
0:1:4.320,366.098,20.7187,0,0.000885,0,0
0:1:4.526,368.268,20.8429,0,0.000885,0,0
0:1:4.726,369.207,20.8911,0,0.000885,0,0
0:1:4.923,371.08,21.0014,0,0.000885,0,0
0:1:5.119,372.018,21.0497,0,0.000885,0,0
0:1:5.320,373.664,21.1462,0,0.000885,0,0
0:1:5.523,374.425,21.1876,0,0.000885,0,0
0:1:5.724,375.772,21.2634,0,0.000885,0,0
0:1:5.921,376.831,21.3255,0,0.000885,0,0
0:1:6.126,378.063,21.3944,0,0.000885,0,0
0:1:6.327,378.882,21.4427,0,0.000885,0,0
0:1:6.528,380.407,21.5254,0,0.000885,0,0
0:1:6.729,381.11,21.5668,0,0.000885,0,0
0:1:6.931,383.103,21.6771,0,0.000885,0,0
0:1:7.132,383.868,21.7254,0,0.000885,0,0
0:1:7.333,384.629,21.7667,0,0.000885,0,0
0:1:7.533,386.039,21.8426,0,0.000885,0,0
0:1:7.734,387.271,21.9115,0,0.000885,0,0
0:1:7.934,389.028,22.015,0,0.000885,0,0
0:1:8.128,389.967,22.0701,0,0.000885,0,0
0:1:8.329,391.141,22.1322,0,0.000885,0,0
0:1:8.524,391.844,22.1735,0,0.000885,0,0
0:1:8.723,393.837,22.2839,0,0.000885,0,0
0:1:8.923,394.717,22.339,0,0.000885,0,0
0:1:9.115,396.185,22.4218,0,0.000885,0,0
0:1:9.315,396.772,22.4493,0,0.000885,0,0
0:1:9.512,398.587,22.5528,0,0.000885,0,0
0:1:9.708,399.704,22.6217,0,0.000885,0,0
0:1:9.908,401.581,22.7251,0,0.000885,0,0
0:1:10.124,402.284,22.7665,0,0.000885,0,0
0:1:10.323,404.045,22.863,0,0.000885,0,0
0:1:10.522,404.69,22.8975,0,0.000885,0,0
0:1:10.715,406.154,22.9802,0,0.000885,0,0
0:1:10.915,407.212,23.0423,0,0.000885,0,0
0:1:11.123,408.969,23.1457,0,0.000885,0,0
0:1:11.320,409.73,23.1871,0,0.000885,0,0
0:1:11.521,410.317,23.2215,0,0.000885,0,0
0:1:11.723,412.194,23.325,0,0.000885,0,0
0:1:11.924,413.369,23.3939,0,0.000885,0,0
0:1:12.126,414.837,23.4766,0,0.000885,0,0
0:1:12.326,416.007,23.5387,0,0.000885,0,0
0:1:12.526,417.884,23.649,0,0.000885,0,0
0:1:12.727,418.177,23.6628,0,0.000885,0,0
0:1:12.929,419.939,23.7662,0,0.000885,0,0
0:1:13.125,421.171,23.8352,0,0.000885,0,0
0:1:13.322,422.634,23.9179,0,0.000885,0,0
0:1:13.522,423.631,23.9731,0,0.000885,0,0
0:1:13.715,425.277,24.0627,0,0.000885,0,0
0:1:13.913,426.037,24.111,0,0.000885,0,0
0:1:14.113,427.679,24.2006,0,0.000885,0,0
0:1:14.319,428.559,24.2489,0,0.000885,0,0
0:1:14.520,430.201,24.3454,0,0.000885,0,0
0:1:14.726,430.846,24.3799,0,0.000885,0,0
0:1:14.922,432.55,24.4764,0,0.000885,0,0
0:1:15.122,433.719,24.5453,0,0.000885,0,0
0:1:15.325,434.778,24.6005,0,0.000885,0,0
0:1:15.525,435.361,24.635,0,0.000885,0,0
0:1:15.722,437.064,24.7315,0,0.000885,0,0
0:1:15.916,438.297,24.8004,0,0.000885,0,0
0:1:16.119,438.648,24.8211,0,0.000885,0,0
0:1:16.319,440.583,24.9314,0,0.000885,0,0
0:1:16.521,441.228,24.9659,0,0.000885,0,0
0:1:16.723,443.221,25.0831,0,0.000885,0,0
0:1:16.924,443.986,25.1245,0,0.000885,0,0
0:1:17.125,445.156,25.1934,0,0.000885,0,0
0:1:17.324,446.214,25.2486,0,0.000885,0,0
0:1:17.525,448.323,25.3727,0,0.000885,0,0
0:1:17.724,449.03,25.4072,0,0.000885,0,0
0:1:17.916,450.965,25.5175,0,0.000885,0,0
0:1:18.119,451.548,25.552,0,0.000885,0,0
0:1:18.313,453.781,25.6761,0,0.000885,0,0
0:1:18.511,454.484,25.7174,0,0.000885,0,0
0:1:18.712,455.716,25.7864,0,0.000885,0,0
0:1:18.926,456.886,25.8553,0,0.000885,0,0
0:1:19.126,458.469,25.945,0,0.000885,0,0
0:1:19.323,459.292,25.9932,0,0.000885,0,0
0:1:19.521,460.582,26.0622,0,0.000885,0,0
0:1:19.721,462.108,26.1518,0,0.000885,0,0
0:1:19.924,463.282,26.2139,0,0.000885,0,0
0:1:20.124,464.043,26.2621,0,0.000885,0,0
0:1:20.321,465.511,26.3449,0,0.000885,0,0
0:1:20.516,466.387,26.3931,0,0.000885,0,0
0:1:20.719,467.388,26.4483,0,0.000885,0,0
0:1:20.911,469.261,26.5517,0,0.000885,0,0
0:1:21.110,470.141,26.6069,0,0.000885,0,0
0:1:21.310,471.961,26.7103,0,0.000885,0,0
0:1:21.512,472.428,26.731,0,0.000885,0,0
0:1:21.714,474.599,26.8551,0,0.000885,0,0
0:1:21.914,475.186,26.8896,0,0.000885,0,0
0:1:22.115,477.063,26.993,0,0.000885,0,0
0:1:22.316,477.472,27.0206,0,0.000885,0,0
0:1:22.515,479.407,27.1309,0,0.000885,0,0
0:1:22.716,480.23,27.1722,0,0.000885,0,0
0:1:22.913,481.462,27.2481,0,0.000885,0,0
0:1:23.109,482.516,27.3032,0,0.000885,0,0
0:1:23.310,484.514,27.4204,0,0.000885,0,0
0:1:23.525,484.981,27.4411,0,0.000885,0,0
0:1:23.727,487.151,27.5652,0,0.000885,0,0
0:1:23.924,487.209,27.5721,0,0.000885,0,0
0:1:24.116,489.909,27.7238,0,0.000885,0,0
0:1:24.320,490.376,27.7514,0,0.000885,0,0
0:1:24.512,491.96,27.841,0,0.000885,0,0
0:1:24.710,492.783,27.8824,0,0.000885,0,0
0:1:24.910,493.37,27.9169,0,0.000885,0,0
0:1:25.126,494.891,28.0065,0,0.000885,0,0
0:1:25.326,496.711,28.1099,0,0.000885,0,0
0:1:25.521,497.356,28.1444,0,0.000885,0,0
0:1:25.720,498.472,28.2065,0,0.000885,0,0
0:1:25.921,499.704,28.2754,0,0.000885,0,0
0:1:26.123,500.874,28.3443,0,0.000885,0,0
0:1:26.324,502.049,28.4133,0,0.000885,0,0
0:1:26.523,503.223,28.4753,0,0.000885,0,0
0:1:26.726,504.686,28.5581,0,0.000885,0,0
0:1:26.927,505.625,28.6132,0,0.000885,0,0
0:1:27.128,507.266,28.7029,0,0.000885,0,0
0:1:27.328,508.441,28.7718,0,0.000885,0,0
0:1:27.529,510.496,28.889,0,0.000885,0,0
0:1:27.730,511.078,28.9235,0,0.000885,0,0
0:1:27.929,512.782,29.02,0,0.000885,0,0
0:1:28.126,514.014,29.089,0,0.000885,0,0
0:1:28.325,515.949,29.1993,0,0.000885,0,0
0:1:28.522,516.652,29.2338,0,0.000885,0,0
0:1:28.715,518.12,29.3165,0,0.000885,0,0
0:1:28.915,518.529,29.3441,0,0.000885,0,0
0:1:29.124,520.055,29.4268,0,0.000885,0,0
0:1:29.322,520.7,29.4682,0,0.000885,0,0
0:1:29.522,522.871,29.5854,0,0.000885,0,0
0:1:29.714,523.573,29.6268,0,0.000885,0,0
0:1:29.914,524.512,29.6819,0,0.000885,0,0
0:1:30.113,526.038,29.7647,0,0.000885,0,0
0:1:30.307,527.208,29.8336,0,0.000885,0,0
0:1:30.508,528.676,29.9164,0,0.000885,0,0
0:1:30.712,529.436,29.9577,0,0.000885,0,0
0:1:30.911,530.846,30.0405,0,0.000885,0,0
0:1:31.110,531.843,30.0956,0,0.000885,0,0
0:1:31.305,533.426,30.1852,0,0.000885,0,0
0:1:31.506,534.187,30.2266,0,0.000885,0,0
0:1:31.707,535.77,30.3162,0,0.000885,0,0
0:1:31.910,536.829,30.3783,0,0.000885,0,0
0:1:32.112,538.471,30.4679,0,0.000885,0,0
0:1:32.311,539.645,30.5369,0,0.000885,0,0
0:1:32.512,541.58,30.6472,0,0.000885,0,0
0:1:32.712,542.341,30.6886,0,0.000885,0,0
0:1:32.913,543.688,30.7644,0,0.000885,0,0
0:1:33.113,544.453,30.8127,0,0.000885,0,0
0:1:33.308,546.331,30.9161,0,0.000885,0,0
0:1:33.509,547.149,30.9644,0,0.000885,0,0
0:1:33.706,547.736,30.9988,0,0.000885,0,0
0:1:33.901,549.907,31.116,0,0.000885,0,0
0:1:34.101,550.552,31.1574,0,0.000885,0,0
0:1:34.298,552.136,31.247,0,0.000885,0,0
0:1:34.494,552.545,31.2677,0,0.000885,0,0
0:1:34.695,554.364,31.3711,0,0.000885,0,0
0:1:34.889,555.245,31.4194,0,0.000885,0,0
0:1:35.091,556.944,31.5159,0,0.000885,0,0
0:1:35.288,557.589,31.5504,0,0.000885,0,0
0:1:35.484,559.702,31.6745,0,0.000885,0,0
0:1:35.684,560.641,31.7228,0,0.000885,0,0
0:1:35.879,562.46,31.8262,0,0.000885,0,0
0:1:36.077,563.163,31.8676,0,0.000885,0,0
0:1:36.278,564.626,31.9503,0,0.000885,0,0
0:1:36.480,565.391,31.9917,0,0.000885,0,0
0:1:36.682,566.21,32.0399,0,0.000885,0,0
0:1:36.883,567.62,32.1227,0,0.000885,0,0
0:1:37.082,568.852,32.1916,0,0.000885,0,0
0:1:37.283,570.845,32.3019,0,0.000885,0,0
0:1:37.483,571.138,32.3226,0,0.000885,0,0
0:1:37.685,573.015,32.426,0,0.000885,0,0
0:1:37.882,573.66,32.4605,0,0.000885,0,0
0:1:38.079,575.48,32.5639,0,0.000885,0,0
0:1:38.279,576.534,32.626,0,0.000885,0,0
0:1:38.475,578.06,32.7087,0,0.000885,0,0
0:1:38.674,578.469,32.7363,0,0.000885,0,0
0:1:38.872,580.462,32.8466,0,0.000885,0,0
0:1:39.068,581.169,32.888,0,0.000885,0,0
0:1:39.268,582.984,32.9914,0,0.000885,0,0
0:1:39.464,583.749,33.0328,0,0.000885,0,0
0:1:39.664,585.742,33.1431,0,0.000885,0,0
0:1:39.861,586.68,33.1983,0,0.000885,0,0
0:1:40.055,587.032,33.2189,0,0.000885,0,0
0:1:40.257,588.909,33.3224,0,0.000885,0,0
0:1:40.453,589.558,33.3637,0,0.000885,0,0
0:1:40.652,591.315,33.4603,0,0.000885,0,0
0:1:40.853,592.316,33.5154,0,0.000885,0,0
0:1:41.048,593.784,33.5982,0,0.000885,0,0
0:1:41.249,594.429,33.6395,0,0.000885,0,0
0:1:41.451,596.542,33.7567,0,0.000885,0,0
0:1:41.654,596.951,33.7774,0,0.000885,0,0
0:1:41.857,598.949,33.8946,0,0.000885,0,0
0:1:42.060,599.829,33.9429,0,0.000885,0,0
0:1:42.262,601.471,34.0394,0,0.000885,0,0
0:1:42.463,602.703,34.1084,0,0.000885,0,0
0:1:42.665,604.758,34.2256,0,0.000885,0,0
0:1:42.866,605.287,34.2532,0,0.000885,0,0
0:1:43.062,606.933,34.3428,0,0.000885,0,0
0:1:43.263,607.694,34.391,0,0.000885,0,0
0:1:43.462,609.397,34.4876,0,0.000885,0,0
0:1:43.659,609.455,34.4876,0,0.000885,0,0
0:1:43.861,611.746,34.6186,0,0.000885,0,0
0:1:44.055,612.213,34.6462,0,0.000885,0,0
0:1:44.255,612.978,34.6875,0,0.000885,0,0
0:1:44.455,614.326,34.7634,0,0.000885,0,0
0:1:44.653,615.385,34.8254,0,0.000885,0,0
0:1:44.853,617.204,34.9288,0,0.000885,0,0
0:1:45.051,618.494,34.9978,0,0.000885,0,0
0:1:45.251,620.198,35.0943,0,0.000885,0,0
0:1:45.450,620.607,35.1219,0,0.000885,0,0
0:1:45.646,622.546,35.2322,0,0.000885,0,0
0:1:45.848,623.485,35.2805,0,0.000885,0,0
0:1:46.047,625.189,35.377,0,0.000885,0,0
0:1:46.243,625.776,35.4115,0,0.000885,0,0
0:1:46.445,627.302,35.5011,0,0.000885,0,0
0:1:46.648,628.182,35.5494,0,0.000885,0,0
0:1:46.852,629.53,35.6252,0,0.000885,0,0
0:1:47.053,630.527,35.6804,0,0.000885,0,0
0:1:47.255,632.052,35.77,0,0.000885,0,0
0:1:47.455,633.111,35.8252,0,0.000885,0,0
0:1:47.659,634.757,35.9217,0,0.000885,0,0
0:1:47.860,635.695,35.9699,0,0.000885,0,0
0:1:48.059,637.63,36.0803,0,0.000885,0,0
0:1:48.256,638.217,36.1147,0,0.000885,0,0
0:1:48.457,639.921,36.2113,0,0.000885,0,0
0:1:48.652,640.566,36.2457,0,0.000885,0,0
0:1:48.853,641.683,36.3147,0,0.000885,0,0
0:1:49.052,643.502,36.4181,0,0.000885,0,0
0:1:49.250,644.147,36.4526,0,0.000885,0,0
0:1:49.452,646.26,36.5698,0,0.000885,0,0
0:1:49.647,646.496,36.5836,0,0.000885,0,0
0:1:49.849,648.079,36.6732,0,0.000885,0,0
0:1:50.048,648.724,36.7077,0,0.000885,0,0
0:1:50.244,650.428,36.8042,0,0.000885,0,0
0:1:50.446,651.424,36.8663,0,0.000885,0,0
0:1:50.642,652.834,36.9421,0,0.000885,0,0
0:1:50.842,654.182,37.018,0,0.000885,0,0
0:1:51.041,656.064,37.1283,0,0.000885,0,0
0:1:51.238,656.709,37.1627,0,0.000885,0,0
0:1:51.440,658.412,37.2593,0,0.000885,0,0
0:1:51.642,659.057,37.2937,0,0.000885,0,0
0:1:51.846,660.819,37.3972,0,0.000885,0,0
0:1:52.049,661.344,37.4247,0,0.000885,0,0
0:1:52.249,663.225,37.5282,0,0.000885,0,0
0:1:52.451,663.87,37.5695,0,0.000885,0,0
0:1:52.652,665.512,37.6592,0,0.000885,0,0
0:1:52.854,666.157,37.6936,0,0.000885,0,0
0:1:53.055,667.86,37.7902,0,0.000885,0,0
0:1:53.251,668.919,37.8522,0,0.000885,0,0
0:1:53.451,669.738,37.9005,0,0.000885,0,0
0:1:53.649,671.383,37.9901,0,0.000885,0,0
0:1:53.848,672.38,38.0522,0,0.000885,0,0
0:1:54.048,674.084,38.1487,0,0.000885,0,0
0:1:54.244,674.964,38.197,0,0.000885,0,0
0:1:54.445,676.49,38.2797,0,0.000885,0,0
0:1:54.644,677.313,38.328,0,0.000885,0,0
0:1:54.842,679.306,38.4383,0,0.000885,0,0
0:1:55.043,680.071,38.4865,0,0.000885,0,0
0:1:55.239,681.832,38.5831,0,0.000885,0,0
0:1:55.439,682.829,38.6382,0,0.000885,0,0
0:1:55.639,684.412,38.7279,0,0.000885,0,0
0:1:55.835,685.355,38.783,0,0.000885,0,0
0:1:56.036,686.881,38.8726,0,0.000885,0,0
0:1:56.239,687.82,38.9209,0,0.000885,0,0
0:1:56.443,689.11,38.9967,0,0.000885,0,0
0:1:56.645,690.4,39.0657,0,0.000885,0,0
0:1:56.847,692.045,39.1622,0,0.000885,0,0
0:1:57.048,692.806,39.2036,0,0.000885,0,0
0:1:57.247,693.456,39.2381,0,0.000885,0,0
0:1:57.450,694.981,39.3277,0,0.000885,0,0
0:1:57.651,695.8,39.376,0,0.000885,0,0
0:1:57.848,697.33,39.4587,0,0.000885,0,0
0:1:58.050,698.148,39.507,0,0.000885,0,0
0:1:58.245,700.733,39.6517,0,0.000885,0,0
0:1:58.444,700.791,39.6586,0,0.000885,0,0
0:1:58.646,702.61,39.7621,0,0.000885,0,0
0:1:58.841,703.197,39.7896,0,0.000885,0,0
0:1:59.042,704.901,39.8862,0,0.000885,0,0
0:1:59.239,705.782,39.9413,0,0.000885,0,0
0:1:59.439,707.481,40.0379,0,0.000885,0,0
0:1:59.640,708.304,40.0792,0,0.000885,0,0
0:1:59.835,709.772,40.162,0,0.000885,0,0
0:2:0.037,711.004,40.2378,0,0.000885,0,0
0:2:0.233,712.65,40.3274,0,0.000885,0,0
0:2:0.431,713.762,40.3895,0,0.000885,0,0
0:2:0.632,714.233,40.4171,0,0.000885,0,0
0:2:0.828,715.701,40.4998,0,0.000885,0,0
0:2:1.029,716.818,40.5619,0,0.000885,0,0
0:2:1.231,718.459,40.6584,0,0.000885,0,0
0:2:1.434,719.518,40.7135,0,0.000885,0,0
0:2:1.637,721.453,40.8239,0,0.000885,0,0
0:2:1.838,722.155,40.8652,0,0.000885,0,0
0:2:2.040,723.623,40.948,0,0.000885,0,0
0:2:2.241,724.624,41.0031,0,0.000885,0,0
0:2:2.443,726.386,41.1065,0,0.000885,0,0
0:2:2.645,727.324,41.1548,0,0.000885,0,0
0:2:2.840,728.966,41.2513,0,0.000885,0,0
0:2:3.042,729.611,41.2858,0,0.000885,0,0
0:2:3.240,731.492,41.3961,0,0.000885,0,0
0:2:3.435,731.959,41.4237,0,0.000885,0,0
0:2:3.637,734.072,41.5409,0,0.000885,0,0
0:2:3.833,734.717,41.5754,0,0.000885,0,0
0:2:4.034,736.305,41.665,0,0.000885,0,0
0:2:4.233,737.066,41.7064,0,0.000885,0,0
0:2:4.429,738.418,41.7891,0,0.000885,0,0
0:2:4.631,739.299,41.8374,0,0.000885,0,0
0:2:4.826,740.06,41.8788,0,0.000885,0,0
0:2:5.026,741.763,41.9753,0,0.000885,0,0
0:2:5.227,742.586,42.0235,0,0.000885,0,0
0:2:5.419,744.348,42.1201,0,0.000885,0,0
0:2:5.623,745.638,42.1959,0,0.000885,0,0
0:2:5.830,747.106,42.2787,0,0.000885,0,0
0:2:6.028,748.338,42.3476,0,0.000885,0,0
0:2:6.229,749.334,42.4028,0,0.000885,0,0
0:2:6.432,750.215,42.451,0,0.000885,0,0
0:2:6.636,751.741,42.5407,0,0.000885,0,0
0:2:6.836,752.799,42.6027,0,0.000885,0,0
0:2:7.039,754.147,42.6785,0,0.000885,0,0
0:2:7.240,755.321,42.7406,0,0.000885,0,0
0:2:7.442,756.789,42.8233,0,0.000885,0,0
0:2:7.644,757.497,42.8647,0,0.000885,0,0
0:2:7.841,759.489,42.975,0,0.000885,0,0
0:2:8.040,760.312,43.0233,0,0.000885,0,0
0:2:8.241,762.189,43.1336,0,0.000885,0,0
0:2:8.436,763.128,43.1819,0,0.000885,0,0
0:2:8.638,764.716,43.2715,0,0.000885,0,0
0:2:8.834,765.125,43.2991,0,0.000885,0,0
0:2:9.033,767.416,43.4301,0,0.000885,0,0
0:2:9.235,768.003,43.4577,0,0.000885,0,0
0:2:9.429,768.764,43.5059,0,0.000885,0,0
0:2:9.630,770.347,43.5956,0,0.000885,0,0
0:2:9.828,771.464,43.6576,0,0.000885,0,0
0:2:10.025,772.465,43.7128,0,0.000885,0,0
0:2:10.226,773.697,43.7817,0,0.000885,0,0
0:2:10.424,775.045,43.8576,0,0.000885,0,0
0:2:10.621,775.983,43.9127,0,0.000885,0,0
0:2:10.821,777.745,44.0092,0,0.000885,0,0
0:2:11.015,778.159,44.0368,0,0.000885,0,0
0:2:11.218,780.151,44.1471,0,0.000885,0,0
0:2:11.419,780.974,44.1954,0,0.000885,0,0
0:2:11.625,782.794,44.2988,0,0.000885,0,0
0:2:11.828,784.084,44.3678,0,0.000885,0,0
0:2:12.030,785.787,44.4643,0,0.000885,0,0
0:2:12.232,786.49,44.5057,0,0.000885,0,0
0:2:12.432,788.429,44.616,0,0.000885,0,0
0:2:12.633,789.19,44.6573,0,0.000885,0,0
0:2:12.834,790.542,44.7332,0,0.000885,0,0
0:2:13.029,791.365,44.7814,0,0.000885,0,0
0:2:13.230,793.185,44.8849,0,0.000885,0,0
0:2:13.428,793.772,44.9193,0,0.000885,0,0
0:2:13.626,795.471,45.0159,0,0.000885,0,0
0:2:13.828,795.765,45.0297,0,0.000885,0,0
0:2:14.021,796.765,45.0848,0,0.000885,0,0
0:2:14.221,798.527,45.1882,0,0.000885,0,0
0:2:14.420,799.408,45.2365,0,0.000885,0,0
0:2:14.616,801.343,45.3468,0,0.000885,0,0
0:2:14.817,802.108,45.3882,0,0.000885,0,0
0:2:15.015,803.749,45.4847,0,0.000885,0,0
0:2:15.212,804.981,45.5537,0,0.000885,0,0
0:2:15.414,805.982,45.6088,0,0.000885,0,0
0:2:15.610,807.036,45.6709,0,0.000885,0,0
0:2:15.811,808.62,45.7605,0,0.000885,0,0
0:2:16.009,809.385,45.8019,0,0.000885,0,0
0:2:16.206,811.147,45.8984,0,0.000885,0,0
0:2:16.408,812.263,45.9673,0,0.000885,0,0
0:2:16.610,813.727,46.0501,0,0.000885,0,0
0:2:16.812,814.492,46.0915,0,0.000885,0,0
0:2:17.014,816.489,46.2018,0,0.000885,0,0
0:2:17.214,817.543,46.2638,0,0.000885,0,0
0:2:17.417,819.362,46.3672,0,0.000885,0,0
0:2:17.618,819.95,46.4017,0,0.000885,0,0
0:2:17.819,821.538,46.4913,0,0.000885,0,0
0:2:18.020,821.827,46.5051,0,0.000885,0,0
0:2:18.228,823.588,46.6086,0,0.000885,0,0
0:2:18.430,824.527,46.6568,0,0.000885,0,0
0:2:18.626,826.466,46.7671,0,0.000885,0,0
0:2:18.822,826.938,46.7947,0,0.000885,0,0
0:2:19.025,827.992,46.8568,0,0.000885,0,0
0:2:19.219,829.638,46.9464,0,0.000885,0,0
0:2:19.420,830.634,47.0016,0,0.000885,0,0
0:2:19.618,832.16,47.0912,0,0.000885,0,0
0:2:19.816,833.041,47.1395,0,0.000885,0,0
0:2:20.018,834.802,47.2429,0,0.000885,0,0
0:2:20.212,835.211,47.2636,0,0.000885,0,0
0:2:20.413,837.209,47.3739,0,0.000885,0,0
0:2:20.611,838.263,47.4359,0,0.000885,0,0
0:2:20.808,840.26,47.5462,0,0.000885,0,0
0:2:21.009,840.963,47.5876,0,0.000885,0,0
0:2:21.212,842.551,47.6772,0,0.000885,0,0
0:2:21.415,843.138,47.7117,0,0.000885,0,0
0:2:21.618,844.664,47.8014,0,0.000885,0,0
0:2:21.819,845.896,47.8703,0,0.000885,0,0
0:2:22.021,847.422,47.953,0,0.000885,0,0
0:2:22.221,848.245,48.0013,0,0.000885,0,0
0:2:22.425,849.944,48.0978,0,0.000885,0,0
0:2:22.626,850.473,48.1254,0,0.000885,0,0
0:2:22.820,852.177,48.2219,0,0.000885,0,0
0:2:23.021,853.293,48.284,0,0.000885,0,0
0:2:23.219,854.819,48.3736,0,0.000885,0,0
0:2:23.419,855.58,48.415,0,0.000885,0,0
0:2:23.617,856.518,48.4701,0,0.000885,0,0
0:2:23.825,857.871,48.546,0,0.000885,0,0
0:2:24.028,859.218,48.6218,0,0.000885,0,0
0:2:24.233,860.455,48.6908,0,0.000885,0,0
0:2:24.433,861.567,48.7528,0,0.000885,0,0
0:2:24.631,862.977,48.8356,0,0.000885,0,0
0:2:24.827,863.68,48.8769,0,0.000885,0,0
0:2:25.029,865.499,48.9804,0,0.000885,0,0
0:2:25.226,866.207,49.0148,0,0.000885,0,0
0:2:25.426,868.262,49.132,0,0.000885,0,0
0:2:25.623,868.555,49.1527,0,0.000885,0,0
0:2:25.819,870.726,49.2699,0,0.000885,0,0
0:2:26.021,871.78,49.332,0,0.000885,0,0
0:2:26.221,873.248,49.4147,0,0.000885,0,0
0:2:26.427,874.249,49.4699,0,0.000885,0,0
0:2:26.630,876.126,49.5802,0,0.000885,0,0
0:2:26.832,876.887,49.6216,0,0.000885,0,0
0:2:27.034,878.181,49.6974,0,0.000885,0,0
0:2:27.235,879.235,49.7526,0,0.000885,0,0
0:2:27.435,880.352,49.8146,0,0.000885,0,0
0:2:27.637,881.411,49.8767,0,0.000885,0,0
0:2:27.832,883.288,49.987,0,0.000885,0,0
0:2:28.034,883.933,50.0215,0,0.000885,0,0
0:2:28.231,885.636,50.118,0,0.000885,0,0
0:2:28.430,886.455,50.1663,0,0.000885,0,0
0:2:28.632,887.629,50.2283,0,0.000885,0,0
0:2:28.827,888.63,50.2835,0,0.000885,0,0
0:2:29.027,889.275,50.3248,0,0.000885,0,0
0:2:29.226,891.562,50.4489,0,0.000885,0,0
0:2:29.422,892.562,50.511,0,0.000885,0,0
0:2:29.626,894.617,50.6282,0,0.000885,0,0
0:2:29.818,895.498,50.6765,0,0.000885,0,0
0:2:30.017,897.14,50.7661,0,0.000885,0,0
0:2:30.228,897.669,50.8006,0,0.000885,0,0
0:2:30.426,899.662,50.9109,0,0.000885,0,0
0:2:30.629,900.311,50.9454,0,0.000885,0,0
0:2:30.821,901.601,51.0212,0,0.000885,0,0
0:2:31.021,902.246,51.0557,0,0.000885,0,0
0:2:31.223,903.95,51.1522,0,0.000885,0,0
0:2:31.429,904.831,51.2005,0,0.000885,0,0
0:2:31.631,906.121,51.2763,0,0.000885,0,0
0:2:31.833,907.237,51.3384,0,0.000885,0,0
0:2:32.034,909.056,51.4418,0,0.000885,0,0
0:2:32.236,909.937,51.49,0,0.000885,0,0
0:2:32.438,911.521,51.5797,0,0.000885,0,0
0:2:32.640,912.459,51.6348,0,0.000885,0,0
0:2:32.837,914.399,51.7452,0,0.000885,0,0
0:2:33.037,915.631,51.8141,0,0.000885,0,0
0:2:33.236,916.863,51.883,0,0.000885,0,0
0:2:33.431,917.628,51.9244,0,0.000885,0,0
0:2:33.633,918.211,51.9589,0,0.000885,0,0
0:2:33.831,919.914,52.0554,0,0.000885,0,0
0:2:34.029,920.853,52.1106,0,0.000885,0,0
0:2:34.230,922.908,52.2278,0,0.000885,0,0
0:2:34.434,923.437,52.2554,0,0.000885,0,0
0:2:34.636,925.141,52.3519,0,0.000885,0,0
0:2:34.833,926.022,52.4002,0,0.000885,0,0
0:2:35.032,927.663,52.4967,0,0.000885,0,0
0:2:35.232,928.366,52.5381,0,0.000885,0,0
0:2:35.427,930.012,52.6277,0,0.000885,0,0
0:2:35.629,930.657,52.6622,0,0.000885,0,0
0:2:35.827,932.654,52.7794,0,0.000885,0,0
0:2:36.022,933.357,52.8138,0,0.000885,0,0
0:2:36.224,935.003,52.9104,0,0.000885,0,0
0:2:36.427,935.706,52.9517,0,0.000885,0,0
0:2:36.631,937.467,53.0483,0,0.000885,0,0
0:2:36.833,938.112,53.0896,0,0.000885,0,0
0:2:37.035,940.283,53.2068,0,0.000885,0,0
0:2:37.236,940.928,53.2482,0,0.000885,0,0
0:2:37.436,942.747,53.3516,0,0.000885,0,0
0:2:37.639,943.748,53.4068,0,0.000885,0,0
0:2:37.839,945.51,53.5033,0,0.000885,0,0
0:2:38.035,946.39,53.5516,0,0.000885,0,0
0:2:38.236,947.093,53.5929,0,0.000885,0,0
0:2:38.432,948.09,53.6481,0,0.000885,0,0
0:2:38.633,949.148,53.7102,0,0.000885,0,0
0:2:38.831,950.91,53.8136,0,0.000885,0,0
0:2:39.029,951.612,53.8481,0,0.000885,0,0
0:2:39.231,953.023,53.9308,0,0.000885,0,0
0:2:39.427,954.135,53.9928,0,0.000885,0,0
0:2:39.627,955.603,54.0756,0,0.000885,0,0
0:2:39.825,956.603,54.1307,0,0.000885,0,0
0:2:40.021,958.481,54.2411,0,0.000885,0,0
0:2:40.223,959.183,54.2755,0,0.000885,0,0
0:2:40.419,960.887,54.3721,0,0.000885,0,0
0:2:40.617,961.59,54.4134,0,0.000885,0,0
0:2:40.819,963.471,54.5237,0,0.000885,0,0
0:2:41.015,964.352,54.572,0,0.000885,0,0
0:2:41.216,965.82,54.6547,0,0.000885,0,0
0:2:41.417,966.932,54.7168,0,0.000885,0,0
0:2:41.621,968.284,54.7926,0,0.000885,0,0
0:2:41.823,968.987,54.834,0,0.000885,0,0
0:2:42.027,969.984,54.8892,0,0.000885,0,0
0:2:42.228,971.452,54.9719,0,0.000885,0,0
0:2:42.429,972.452,55.0271,0,0.000885,0,0
0:2:42.631,974.272,55.1305,0,0.000885,0,0
0:2:42.832,975.09,55.1787,0,0.000885,0,0
0:2:43.028,976.972,55.2822,0,0.000885,0,0
0:2:43.225,977.208,55.296,0,0.000885,0,0
0:2:43.428,979.436,55.427,0,0.000885,0,0
0:2:43.622,980.375,55.4752,0,0.000885,0,0
0:2:43.822,981.727,55.5511,0,0.000885,0,0
0:2:44.019,982.959,55.6269,0,0.000885,0,0
0:2:44.217,984.071,55.689,0,0.000885,0,0
0:2:44.418,985.188,55.751,0,0.000885,0,0
0:2:44.614,986.598,55.8268,0,0.000885,0,0
0:2:44.814,987.594,55.8889,0,0.000885,0,0
0:2:45.012,988.946,55.9647,0,0.000885,0,0
0:2:45.209,989.534,55.9992,0,0.000885,0,0
0:2:45.411,991.94,56.1302,0,0.000885,0,0
0:2:45.607,992.527,56.1647,0,0.000885,0,0
0:2:45.806,992.936,56.1854,0,0.000885,0,0
0:2:46.004,994.814,56.2957,0,0.000885,0,0
0:2:46.199,996.046,56.3646,0,0.000885,0,0
0:2:46.401,997.692,56.4612,0,0.000885,0,0
0:2:46.602,998.337,56.4956,0,0.000885,0,0
0:2:46.805,1000.39,56.6129,0,0.000885,0,0
0:2:47.007,1000.92,56.6404,0,0.000885,0,0
0:2:47.210,1003.09,56.7645,0,0.000885,0,0
0:2:47.410,1003.91,56.8128,0,0.000885,0,0
0:2:47.612,1005.26,56.8886,0,0.000885,0,0
0:2:47.813,1006.56,56.9576,0,0.000885,0,0
0:2:48.015,1007.73,57.0265,0,0.000885,0,0
0:2:48.232,1008.67,57.0817,0,0.000885,0,0
0:2:48.434,1010.37,57.1782,0,0.000885,0,0
0:2:48.631,1011.54,57.2403,0,0.000885,0,0
0:2:48.830,1012.84,57.3161,0,0.000885,0,0
0:2:49.031,1013.25,57.3368,0,0.000885,0,0
0:2:49.223,1014.59,57.4126,0,0.000885,0,0
0:2:49.424,1015.48,57.4609,0,0.000885,0,0
0:2:49.624,1017.59,57.585,0,0.000885,0,0
0:2:49.821,1018.24,57.6195,0,0.000885,0,0
0:2:50.023,1020.41,57.7436,0,0.000885,0,0
0:2:50.218,1020.88,57.7712,0,0.000885,0,0
0:2:50.417,1022.64,57.8677,0,0.000885,0,0
0:2:50.617,1023.52,57.916,0,0.000885,0,0
0:2:50.812,1024.11,57.9504,0,0.000885,0,0
0:2:51.014,1025.92,58.0539,0,0.000885,0,0
0:2:51.216,1026.75,58.1021,0,0.000885,0,0
0:2:51.420,1028.39,58.1918,0,0.000885,0,0
0:2:51.623,1029.45,58.2538,0,0.000885,0,0
0:2:51.824,1030.86,58.3365,0,0.000885,0,0
0:2:52.025,1031.5,58.371,0,0.000885,0,0
0:2:52.229,1033.26,58.4675,0,0.000885,0,0
0:2:52.430,1034.26,58.5296,0,0.000885,0,0
0:2:52.631,1035.79,58.6123,0,0.000885,0,0
0:2:52.825,1036.72,58.6675,0,0.000885,0,0
0:2:53.029,1038.37,58.7571,0,0.000885,0,0
0:2:53.236,1038.43,58.764,0,0.000885,0,0
0:2:53.435,1040.31,58.8674,0,0.000885,0,0
0:2:53.636,1041.31,58.9226,0,0.000885,0,0
0:2:53.831,1043.07,59.026,0,0.000885,0,0
0:2:54.033,1043.95,59.0743,0,0.000885,0,0
0:2:54.231,1045.35,59.157,0,0.000885,0,0
0:2:54.424,1046.59,59.226,0,0.000885,0,0
0:2:54.629,1048.41,59.3294,0,0.000885,0,0
0:2:54.822,1049.11,59.3708,0,0.000885,0,0
0:2:55.022,1051.11,59.4811,0,0.000885,0,0
0:2:55.222,1051.52,59.5018,0,0.000885,0,0
0:2:55.417,1052.11,59.5362,0,0.000885,0,0
0:2:55.620,1053.75,59.6328,0,0.000885,0,0
0:2:55.816,1054.75,59.6879,0,0.000885,0,0
0:2:56.016,1056.57,59.7913,0,0.000885,0,0
0:2:56.216,1057.21,59.8258,0,0.000885,0,0
0:2:56.418,1058.85,59.9223,0,0.000885,0,0
0:2:56.622,1059.97,59.9844,0,0.000885,0,0
0:2:56.824,1061.5,60.0671,0,0.000885,0,0
0:2:57.026,1062.56,60.1292,0,0.000885,0,0
0:2:57.230,1064.14,60.2188,0,0.000885,0,0
0:2:57.431,1064.9,60.2602,0,0.000885,0,0
0:2:57.634,1066.14,60.3291,0,0.000885,0,0
0:2:57.831,1067.07,60.3843,0,0.000885,0,0
0:2:58.029,1068.66,60.4739,0,0.000885,0,0
0:2:58.229,1069.48,60.5222,0,0.000885,0,0
0:2:58.435,1071.12,60.6118,0,0.000885,0,0
0:2:58.635,1072,60.6601,0,0.000885,0,0
0:2:58.834,1073.65,60.7566,0,0.000885,0,0
0:2:59.030,1074.47,60.8049,0,0.000885,0,0
0:2:59.232,1076.06,60.8945,0,0.000885,0,0
0:2:59.430,1076.88,60.9359,0,0.000885,0,0
0:2:59.626,1078.58,61.0324,0,0.000885,0,0
0:2:59.826,1079.64,61.0944,0,0.000885,0,0
0:3:0.032,1080.81,61.1634,0,0.000885,0,0
0:3:0.233,1081.69,61.2117,0,0.000885,0,0
0:3:0.432,1082.98,61.2875,0,0.000885,0,0
0:3:0.639,1083.74,61.3289,0,0.000885,0,0
0:3:0.841,1085.15,61.4047,0,0.000885,0,0
0:3:1.035,1086.03,61.4599,0,0.000885,0,0
0:3:1.235,1086.5,61.4806,0,0.000885,0,0
0:3:1.436,1088.27,61.584,0,0.000885,0,0
0:3:1.640,1089.32,61.646,0,0.000885,0,0
0:3:1.843,1090.67,61.7219,0,0.000885,0,0
0:3:2.044,1091.67,61.777,0,0.000885,0,0
0:3:2.245,1093.49,61.8804,0,0.000885,0,0
0:3:2.447,1094.13,61.9149,0,0.000885,0,0
0:3:2.648,1095.42,61.9908,0,0.000885,0,0
0:3:2.850,1096.89,62.0735,0,0.000885,0,0
0:3:3.049,1097.95,62.1287,0,0.000885,0,0
0:3:3.246,1099.07,62.1976,0,0.000885,0,0
0:3:3.447,1100.71,62.2872,0,0.000885,0,0
0:3:3.643,1101.35,62.3217,0,0.000885,0,0
0:3:3.844,1102.88,62.4113,0,0.000885,0,0
0:3:4.042,1103.53,62.4458,0,0.000885,0,0
0:3:4.240,1105.46,62.5561,0,0.000885,0,0
0:3:4.441,1106.11,62.5906,0,0.000885,0,0
0:3:4.638,1107.4,62.6664,0,0.000885,0,0
0:3:4.838,1107.99,62.7009,0,0.000885,0,0
0:3:5.037,1109.4,62.7768,0,0.000885,0,0
0:3:5.233,1109.81,62.8043,0,0.000885,0,0
0:3:5.434,1110.33,62.8319,0,0.000885,0,0
0:3:5.632,1111.33,62.8871,0,0.000885,0,0
0:3:5.831,1112.04,62.9284,0,0.000885,0,0
0:3:6.032,1112.86,62.9767,0,0.000885,0,0
0:3:6.236,1113.51,63.0112,0,0.000885,0,0
0:3:6.438,1114.39,63.0595,0,0.000885,0,0
0:3:6.641,1114.97,63.0939,0,0.000885,0,0
0:3:6.842,1115.97,63.1491,0,0.000885,0,0
0:3:7.043,1116.26,63.1698,0,0.000885,0,0
0:3:7.246,1116.91,63.2042,0,0.000885,0,0
0:3:7.446,1117.79,63.2525,0,0.000885,0,0
0:3:7.644,1118.26,63.2801,0,0.000885,0,0
0:3:7.842,1118.5,63.2939,0,0.000885,0,0
0:3:8.044,1119.14,63.3283,0,0.000885,0,0
0:3:8.239,1119.43,63.349,0,0.000885,0,0
0:3:8.440,1120.14,63.3835,0,0.000885,0,0
0:3:8.638,1120.43,63.4042,0,0.000885,0,0
0:3:8.836,1120.9,63.4318,0,0.000885,0,0
0:3:9.038,1121.02,63.4387,0,0.000885,0,0
0:3:9.234,1121.72,63.4731,0,0.000885,0,0
0:3:9.432,1121.96,63.4869,0,0.000885,0,0
0:3:9.633,1122.78,63.5352,0,0.000885,0,0
0:3:9.827,1123.37,63.5697,0,0.000885,0,0
0:3:10.027,1123.31,63.5628,0,0.000885,0,0
0:3:10.236,1124.6,63.6386,0,0.000885,0,0
0:3:10.433,1124.72,63.6455,0,0.000885,0,0
0:3:10.634,1125.48,63.6869,0,0.000885,0,0
0:3:10.827,1125.89,63.7145,0,0.000885,0,0
0:3:11.032,1126.65,63.7558,0,0.000885,0,0
0:3:11.233,1126.65,63.7558,0,0.000885,0,0
0:3:11.437,1127.42,63.7972,0,0.000885,0,0
0:3:11.640,1127.59,63.811,0,0.000885,0,0
0:3:11.841,1128.18,63.8386,0,0.000885,0,0
0:3:12.043,1128.35,63.8523,0,0.000885,0,0
0:3:12.244,1128.88,63.8799,0,0.000885,0,0
0:3:12.446,1129,63.8868,0,0.000885,0,0
0:3:12.648,1129.88,63.9351,0,0.000885,0,0
0:3:12.842,1129.88,63.9351,0,0.000885,0,0
0:3:13.042,1130.18,63.9558,0,0.000885,0,0
0:3:13.243,1130.7,63.9833,0,0.000885,0,0
0:3:13.437,1131.35,64.0247,0,0.000885,0,0
0:3:13.639,1131.58,64.0316,0,0.000885,0,0
0:3:13.835,1132.05,64.0592,0,0.000885,0,0
0:3:14.033,1131.76,64.0454,0,0.000885,0,0
0:3:14.234,1131.93,64.0523,0,0.000885,0,0
0:3:14.437,1132.05,64.0592,0,0.000885,0,0
0:3:14.638,1132.17,64.0661,0,0.000885,0,0
0:3:14.836,1132.46,64.0868,0,0.000885,0,0
0:3:15.032,1132.7,64.1006,0,0.000885,0,0
0:3:15.234,1132.94,64.1143,0,0.000885,0,0
0:3:15.428,1132.94,64.1143,0,0.000885,0,0
0:3:15.627,1132.82,64.1075,0,0.000885,0,0
0:3:15.826,1133.05,64.1143,0,0.000885,0,0
0:3:16.021,1132.99,64.1143,0,0.000885,0,0
0:3:16.222,1132.76,64.1006,0,0.000885,0,0
0:3:16.422,1132.88,64.1075,0,0.000885,0,0
0:3:16.626,1132.99,64.1143,0,0.000885,0,0
0:3:16.827,1132.88,64.1075,0,0.000885,0,0
0:3:17.028,1132.76,64.1006,0,0.000885,0,0
0:3:17.232,1132.64,64.0937,0,0.000885,0,0
0:3:17.432,1132.88,64.1075,0,0.000885,0,0
0:3:17.634,1132.82,64.1075,0,0.000885,0,0
0:3:17.834,1132.76,64.1006,0,0.000885,0,0
0:3:18.027,1132.82,64.1075,0,0.000885,0,0
0:3:18.226,1132.58,64.0937,0,0.000885,0,0
0:3:18.425,1132.46,64.0868,0,0.000885,0,0
0:3:18.621,1132.52,64.0868,0,0.000885,0,0
0:3:18.821,1132.52,64.0868,0,0.000885,0,0
0:3:19.017,1132.76,64.1006,0,0.000885,0,0
0:3:19.214,1132.52,64.0868,0,0.000885,0,0
0:3:19.415,1132.52,64.0868,0,0.000885,0,0
0:3:19.611,1132.17,64.0661,0,0.000885,0,0
0:3:19.811,1132.76,64.1006,0,0.000885,0,0
0:3:20.008,1132.99,64.1143,0,0.000885,0,0
0:3:20.204,1132.94,64.1143,0,0.000885,0,0
0:3:20.404,1132.94,64.1143,0,0.000885,0,0
0:3:20.601,1132.88,64.1075,0,0.000885,0,0
0:3:20.800,1132.64,64.0937,0,0.000885,0,0
0:3:20.999,1131.7,64.0385,0,0.000885,0,0
0:3:21.195,1131.35,64.0247,0,0.000885,0,0
0:3:21.396,1130.94,63.9971,0,0.000885,0,0
0:3:21.597,1131.12,64.0109,0,0.000885,0,0
0:3:21.800,1130.64,63.9833,0,0.000885,0,0
0:3:22.001,1130.18,63.9558,0,0.000885,0,0
0:3:22.203,1129.23,63.9006,0,0.000885,0,0
0:3:22.403,1128.24,63.8455,0,0.000885,0,0
0:3:22.603,1127.89,63.8248,0,0.000885,0,0
0:3:22.804,1127.36,63.7972,0,0.000885,0,0
0:3:23.005,1127.24,63.7903,0,0.000885,0,0
0:3:23.199,1126.65,63.7558,0,0.000885,0,0
0:3:23.400,1126.24,63.7351,0,0.000885,0,0
0:3:23.596,1125.72,63.7007,0,0.000885,0,0
0:3:23.794,1125.36,63.68,0,0.000885,0,0
0:3:23.996,1124.89,63.6593,0,0.000885,0,0
0:3:24.190,1124.89,63.6593,0,0.000885,0,0
0:3:24.390,1124.48,63.6317,0,0.000885,0,0
0:3:24.588,1124.42,63.6317,0,0.000885,0,0
0:3:24.784,1124.36,63.6248,0,0.000885,0,0
0:3:24.986,1124.13,63.611,0,0.000885,0,0
0:3:25.182,1124.19,63.6179,0,0.000885,0,0
0:3:25.380,1124.19,63.6179,0,0.000885,0,0
0:3:25.580,1124.01,63.6041,0,0.000885,0,0
0:3:25.776,1123.48,63.5766,0,0.000885,0,0
0:3:25.976,1123.25,63.5628,0,0.000885,0,0
0:3:26.177,1123.31,63.5628,0,0.000885,0,0
0:3:26.381,1122.95,63.549,0,0.000885,0,0
0:3:26.583,1122.49,63.5214,0,0.000885,0,0
0:3:26.784,1122.78,63.5352,0,0.000885,0,0
0:3:26.984,1122.78,63.5352,0,0.000885,0,0
0:3:27.185,1122.6,63.5283,0,0.000885,0,0
0:3:27.385,1122.54,63.5214,0,0.000885,0,0
0:3:27.586,1122.72,63.5352,0,0.000885,0,0
0:3:27.781,1123.37,63.5697,0,0.000885,0,0
0:3:27.980,1123.13,63.5559,0,0.000885,0,0
0:3:28.180,1122.9,63.5421,0,0.000885,0,0
0:3:28.375,1122.84,63.5421,0,0.000885,0,0
0:3:28.577,1123.02,63.549,0,0.000885,0,0
0:3:28.773,1123.43,63.5697,0,0.000885,0,0
0:3:28.971,1123.54,63.5766,0,0.000885,0,0
0:3:29.171,1123.66,63.5835,0,0.000885,0,0
0:3:29.366,1123.95,63.6041,0,0.000885,0,0
0:3:29.566,1124.19,63.6179,0,0.000885,0,0
0:3:29.763,1124.72,63.6455,0,0.000885,0,0
0:3:29.961,1124.54,63.6386,0,0.000885,0,0
0:3:30.161,1124.78,63.6524,0,0.000885,0,0
0:3:30.356,1125.13,63.6662,0,0.000885,0,0
0:3:30.556,1125.13,63.6662,0,0.000885,0,0
0:3:30.755,1124.42,63.6317,0,0.000885,0,0
0:3:30.949,1124.25,63.6179,0,0.000885,0,0
0:3:31.151,1124.84,63.6524,0,0.000885,0,0
0:3:31.352,1124.95,63.6593,0,0.000885,0,0
0:3:31.554,1125.13,63.6662,0,0.000885,0,0
0:3:31.756,1125.42,63.6869,0,0.000885,0,0
0:3:31.957,1125.48,63.6869,0,0.000885,0,0
0:3:32.158,1125.07,63.6662,0,0.000885,0,0
0:3:32.358,1125.13,63.6662,0,0.000885,0,0
0:3:32.560,1125.13,63.6662,0,0.000885,0,0
0:3:32.761,1125.42,63.6869,0,0.000885,0,0
0:3:32.954,1126.07,63.7213,0,0.000885,0,0
0:3:33.154,1126.42,63.742,0,0.000885,0,0
0:3:33.354,1126.65,63.7558,0,0.000885,0,0
0:3:33.548,1126.65,63.7558,0,0.000885,0,0
0:3:33.750,1125.24,63.6731,0,0.000885,0,0
0:3:33.945,1121.25,63.4525,0,0.000885,0,0
0:3:34.143,1119.84,63.3697,0,0.000885,0,0
0:3:34.344,1119.55,63.3559,0,0.000885,0,0
0:3:34.538,1119.79,63.3697,0,0.000885,0,0
0:3:34.740,1120.2,63.3904,0,0.000885,0,0
0:3:34.937,1120.55,63.4111,0,0.000885,0,0
0:3:35.132,1120.55,63.4111,0,0.000885,0,0
0:3:35.334,1120.37,63.3973,0,0.000885,0,0
0:3:35.539,1115.44,63.1215,0,0.000885,0,0
0:3:35.740,1113.27,62.9974,0,0.000885,0,0
0:3:35.937,1105.58,62.563,0,0.000885,0,0
0:3:36.133,1103.88,62.4665,0,0.000885,0,0
0:3:36.333,1099.65,62.2252,0,0.000885,0,0
0:3:36.534,1094.72,61.9494,0,0.000885,0,0
0:3:36.738,1085.98,61.453,0,0.000885,0,0
0:3:36.938,1084.33,61.3633,0,0.000885,0,0
0:3:37.139,1075.29,60.8462,0,0.000885,0,0
0:3:37.340,1032.97,58.4538,0,0.000885,0,0
0:3:37.540,1001.74,56.6887,0,0.000885,0,0
0:3:37.740,985.13,55.7441,0,0.000885,0,0
0:3:37.942,916.04,51.8348,0,0.000885,0,0
0:3:38.135,868.787,49.1665,0,0.000885,0,0
0:3:38.336,824.233,46.643,0,0.000885,0,0
0:3:38.446,824.233,46.643,0,0.000885,0,0