File: DataFile2021-06-06_064912.csv
Test ID:,Date Tested:,Time:,Test Type:,Diameter Avg. (mm):,Cyl. Corr. Factor:,Height (mm):,Age (days):,Weight (kN):,Break Type:,Ramp Rate (MPa/s):,Load at Break (kN):,Stress at Break (MPa):
12,6/6/2021,06:49,Cylinder,150,1,300,0,13.39,3,0.25,1830.03,103.56
Sample Time,Load (kN),Stress (MPa),Long. Strain,Trans. Strain,Chan1 Deflection (mm),Chan2 Deflection (mm)
0:0:15.749,5.21776,0.296475,0,0.000885,0,0
0:0:16.156,10.0886,0.572265,0,0.000885,0,0
0:0:16.556,10.3821,0.586054,0,0.000885,0,0
0:0:16.956,11.2006,0.634318,0,0.000885,0,0
0:0:17.363,11.9079,0.675686,0,0.000885,0,0
0:0:17.760,13.6649,0.772213,0,0.000885,0,0
0:0:18.155,14.5457,0.820476,0,0.000885,0,0
0:0:18.563,16.0714,0.910108,0,0.000885,0,0
0:0:18.964,18.1799,1.02732,0,0.000885,0,0
0:0:19.360,20.4707,1.15832,0,0.000885,0,0
0:0:19.756,22.8149,1.28932,0,0.000885,0,0
0:0:20.155,25.4527,1.441,0,0.000885,0,0
0:0:20.566,27.3299,1.54443,0,0.000885,0,0
0:0:20.962,29.5006,1.66853,0,0.000885,0,0
0:0:21.368,30.6749,1.73748,0,0.000885,0,0
0:0:21.772,32.7256,1.85469,0,0.000885,0,0
0:0:22.178,34.7806,1.96501,0,0.000885,0,0
0:0:22.581,36.3064,2.05464,0,0.000885,0,0
0:0:22.980,37.3606,2.11669,0,0.000885,0,0
0:0:23.377,38.6506,2.18564,0,0.000885,0,0
0:0:23.776,40.292,2.28216,0,0.000885,0,0
0:0:24.177,41.9957,2.37869,0,0.000885,0,0
0:0:24.575,43.9885,2.48901,0,0.000885,0,0
0:0:24.970,45.6877,2.58553,0,0.000885,0,0
0:0:25.367,47.507,2.68896,0,0.000885,0,0
0:0:25.768,49.8512,2.81996,0,0.000885,0,0
0:0:26.167,51.5549,2.91648,0,0.000885,0,0
0:0:26.574,53.3119,3.0199,0,0.000885,0,0
0:0:26.977,55.0734,3.11643,0,0.000885,0,0
0:0:27.381,56.4791,3.19917,0,0.000885,0,0
0:0:27.785,57.947,3.2819,0,0.000885,0,0
0:0:28.183,59.9976,3.39222,0,0.000885,0,0
0:0:28.579,61.5812,3.48185,0,0.000885,0,0
0:0:28.977,63.3427,3.58527,0,0.000885,0,0
0:0:29.376,65.5134,3.70938,0,0.000885,0,0
0:0:29.776,67.5062,3.8197,0,0.000885,0,0
0:0:30.172,69.6769,3.9438,0,0.000885,0,0
0:0:30.568,71.2027,4.02654,0,0.000885,0,0
0:0:30.968,72.5505,4.10238,0,0.000885,0,0
0:0:31.368,73.6047,4.16443,0,0.000885,0,0
0:0:31.774,75.9534,4.29543,0,0.000885,0,0
0:0:32.179,78.2398,4.42643,0,0.000885,0,0
0:0:32.583,79.5298,4.50228,0,0.000885,0,0
0:0:32.983,81.4647,4.61259,0,0.000885,0,0
0:0:33.383,82.8125,4.68843,0,0.000885,0,0
0:0:33.780,84.1648,4.76428,0,0.000885,0,0
0:0:34.176,86.2154,4.88149,0,0.000885,0,0
0:0:34.575,88.2705,4.9918,0,0.000885,0,0
0:0:34.977,89.8541,5.08144,0,0.000885,0,0
0:0:35.373,92.1405,5.21244,0,0.000885,0,0
0:0:35.770,93.5461,5.29517,0,0.000885,0,0
0:0:36.174,95.4811,5.40549,0,0.000885,0,0
0:0:36.581,97.4783,5.51581,0,0.000885,0,0
0:0:36.984,98.5904,5.57786,0,0.000885,0,0
0:0:37.388,100.294,5.67439,0,0.000885,0,0
0:0:37.785,102.46,5.79849,0,0.000885,0,0
0:0:38.186,104.28,5.90191,0,0.000885,0,0
0:0:38.585,106.157,6.00533,0,0.000885,0,0
0:0:38.985,107.918,6.10875,0,0.000885,0,0
0:0:39.381,109.969,6.22597,0,0.000885,0,0
0:0:39.778,111.437,6.3087,0,0.000885,0,0
0:0:40.178,113.02,6.39833,0,0.000885,0,0
0:0:40.577,114.546,6.48107,0,0.000885,0,0
0:0:40.973,116.775,6.60518,0,0.000885,0,0
0:0:41.379,118.59,6.7086,0,0.000885,0,0
0:0:41.785,120.996,6.84649,0,0.000885,0,0
0:0:42.189,122.695,6.94302,0,0.000885,0,0
0:0:42.593,124.279,7.03265,0,0.000885,0,0
0:0:42.989,125.631,7.10849,0,0.000885,0,0
0:0:43.387,127.446,7.21192,0,0.000885,0,0
0:0:43.787,128.736,7.28776,0,0.000885,0,0
0:0:44.184,130.204,7.3705,0,0.000885,0,0
0:0:44.584,132.081,7.47392,0,0.000885,0,0
0:0:44.979,134.074,7.58423,0,0.000885,0,0
0:0:45.379,136.071,7.70144,0,0.000885,0,0
0:0:45.779,137.886,7.80487,0,0.000885,0,0
0:0:46.177,139.705,7.90829,0,0.000885,0,0
0:0:46.582,141.64,8.0186,0,0.000885,0,0
0:0:46.986,142.815,8.08066,0,0.000885,0,0
0:0:47.389,144.634,8.18408,0,0.000885,0,0
0:0:47.794,146.391,8.2875,0,0.000885,0,0
0:0:48.192,148.504,8.40471,0,0.000885,0,0
0:0:48.589,150.145,8.49434,0,0.000885,0,0
0:0:48.989,152.374,8.62534,0,0.000885,0,0
0:0:49.389,154.073,8.72187,0,0.000885,0,0
0:0:49.787,156.07,8.83218,0,0.000885,0,0
0:0:50.182,157.302,8.90113,0,0.000885,0,0
0:0:50.580,159.18,9.00455,0,0.000885,0,0
0:0:50.983,160.879,9.10108,0,0.000885,0,0
0:0:51.392,163.281,9.23897,0,0.000885,0,0
0:0:51.796,164.749,9.32171,0,0.000885,0,0
0:0:52.200,167.035,9.45271,0,0.000885,0,0
0:0:52.598,167.742,9.49408,0,0.000885,0,0
0:0:52.998,169.793,9.61129,0,0.000885,0,0
0:0:53.396,171.906,9.7285,0,0.000885,0,0
0:0:53.791,172.96,9.79056,0,0.000885,0,0
0:0:54.190,174.602,9.88019,0,0.000885,0,0
0:0:54.589,176.479,9.98361,0,0.000885,0,0
0:0:54.988,178.356,10.0939,0,0.000885,0,0
0:0:55.384,180.411,10.2111,0,0.000885,0,0
0:0:55.781,182.284,10.3146,0,0.000885,0,0
0:0:56.184,184.161,10.4249,0,0.000885,0,0
0:0:56.591,185.864,10.5145,0,0.000885,0,0
0:0:56.996,187.034,10.5835,0,0.000885,0,0
0:0:57.399,189.263,10.7076,0,0.000885,0,0
0:0:57.798,190.437,10.7765,0,0.000885,0,0
0:0:58.198,192.492,10.8937,0,0.000885,0,0
0:0:58.595,194.721,11.0178,0,0.000885,0,0
0:0:58.988,196.598,11.1281,0,0.000885,0,0
0:0:59.381,198.182,11.2178,0,0.000885,0,0
0:0:59.780,199.765,11.3074,0,0.000885,0,0
0:1:0.176,200.877,11.3695,0,0.000885,0,0
0:1:0.572,202.87,11.4798,0,0.000885,0,0
0:1:0.963,204.925,11.597,0,0.000885,0,0
0:1:1.366,206.802,11.7004,0,0.000885,0,0
0:1:1.769,208.386,11.79,0,0.000885,0,0
0:1:2.171,209.912,11.8797,0,0.000885,0,0
0:1:2.571,211.962,11.9969,0,0.000885,0,0
0:1:2.964,213.955,12.1072,0,0.000885,0,0
0:1:3.361,215.307,12.183,0,0.000885,0,0
0:1:3.759,217.242,12.2934,0,0.000885,0,0
0:1:4.162,219.062,12.3968,0,0.000885,0,0
0:1:4.554,220.525,12.4795,0,0.000885,0,0
0:1:4.951,222.344,12.5829,0,0.000885,0,0
0:1:5.348,224.982,12.7346,0,0.000885,0,0
0:1:5.754,226.624,12.8242,0,0.000885,0,0
0:1:6.169,227.976,12.9001,0,0.000885,0,0
0:1:6.572,230.262,13.0311,0,0.000885,0,0
0:1:6.974,231.494,13.1,0,0.000885,0,0
0:1:7.375,233.251,13.1966,0,0.000885,0,0
0:1:7.777,234.835,13.2862,0,0.000885,0,0
0:1:8.171,236.654,13.3896,0,0.000885,0,0
0:1:8.564,238.18,13.4793,0,0.000885,0,0
0:1:8.962,239.937,13.5758,0,0.000885,0,0
0:1:9.356,241.463,13.6654,0,0.000885,0,0
0:1:9.762,243.634,13.7895,0,0.000885,0,0
0:1:10.167,245.626,13.8998,0,0.000885,0,0
0:1:10.561,247.566,14.0101,0,0.000885,0,0
0:1:10.961,249.265,14.1067,0,0.000885,0,0
0:1:11.364,250.791,14.1894,0,0.000885,0,0
0:1:11.767,252.374,14.279,0,0.000885,0,0
0:1:12.166,254.189,14.3825,0,0.000885,0,0
0:1:12.563,255.835,14.479,0,0.000885,0,0
0:1:12.960,257.886,14.5962,0,0.000885,0,0
0:1:13.364,259.763,14.6996,0,0.000885,0,0
0:1:13.769,261.111,14.7755,0,0.000885,0,0
0:1:14.163,263.339,14.8996,0,0.000885,0,0
0:1:14.560,264.985,14.9961,0,0.000885,0,0
0:1:14.967,266.978,15.1064,0,0.000885,0,0
0:1:15.360,268.504,15.196,0,0.000885,0,0
0:1:15.764,270.025,15.2788,0,0.000885,0,0
0:1:16.167,271.902,15.3891,0,0.000885,0,0
0:1:16.570,273.428,15.4718,0,0.000885,0,0
0:1:16.971,275.834,15.6097,0,0.000885,0,0
0:1:17.371,277.943,15.7269,0,0.000885,0,0
0:1:17.766,279.117,15.7959,0,0.000885,0,0
0:1:18.170,280.758,15.8855,0,0.000885,0,0
0:1:18.569,282.636,15.9958,0,0.000885,0,0
0:1:18.973,284.219,16.0855,0,0.000885,0,0
0:1:19.366,286.274,16.2027,0,0.000885,0,0
0:1:19.761,287.916,16.2923,0,0.000885,0,0
0:1:20.168,290.028,16.4095,0,0.000885,0,0
0:1:20.564,290.847,16.4578,0,0.000885,0,0
0:1:20.956,293.196,16.5888,0,0.000885,0,0
0:1:21.362,294.895,16.6853,0,0.000885,0,0
0:1:21.766,296.83,16.7956,0,0.000885,0,0
0:1:22.166,298.471,16.8922,0,0.000885,0,0
0:1:22.567,300.175,16.9887,0,0.000885,0,0
0:1:22.962,302.052,17.0921,0,0.000885,0,0
0:1:23.363,304.045,17.2024,0,0.000885,0,0
0:1:23.769,305.864,17.3058,0,0.000885,0,0
0:1:24.168,307.506,17.4024,0,0.000885,0,0
0:1:24.562,309.263,17.4989,0,0.000885,0,0
0:1:24.968,311.491,17.6299,0,0.000885,0,0
0:1:25.370,313.017,17.7126,0,0.000885,0,0
0:1:25.767,314.836,17.8161,0,0.000885,0,0
0:1:26.166,315.775,17.8712,0,0.000885,0,0
0:1:26.571,317.71,17.9815,0,0.000885,0,0
0:1:26.972,319.76,18.0918,0,0.000885,0,0
0:1:27.373,322.051,18.2228,0,0.000885,0,0
0:1:27.768,323.341,18.2987,0,0.000885,0,0
0:1:28.167,324.689,18.3745,0,0.000885,0,0
0:1:28.570,327.033,18.5055,0,0.000885,0,0
0:1:28.965,328.265,18.5745,0,0.000885,0,0
0:1:29.370,330.378,18.6986,0,0.000885,0,0
0:1:29.766,331.904,18.7813,0,0.000885,0,0
0:1:30.161,334.19,18.9123,0,0.000885,0,0
0:1:30.554,335.48,18.9813,0,0.000885,0,0
0:1:30.959,337.358,19.0916,0,0.000885,0,0
0:1:31.359,338.999,19.1812,0,0.000885,0,0
0:1:31.766,340.992,19.2984,0,0.000885,0,0
0:1:32.166,342.695,19.395,0,0.000885,0,0
0:1:32.567,344.515,19.4984,0,0.000885,0,0
0:1:32.970,346.859,19.6294,0,0.000885,0,0
0:1:33.368,348.327,19.7121,0,0.000885,0,0
0:1:33.764,349.79,19.7948,0,0.000885,0,0
0:1:34.170,352.077,19.9258,0,0.000885,0,0
0:1:34.562,353.193,19.9879,0,0.000885,0,0
0:1:34.967,355.186,20.0982,0,0.000885,0,0
0:1:35.363,356.89,20.1947,0,0.000885,0,0
0:1:35.772,358.705,20.2982,0,0.000885,0,0
0:1:36.164,360.582,20.4016,0,0.000885,0,0
0:1:36.568,361.872,20.4774,0,0.000885,0,0
0:1:36.970,363.162,20.5533,0,0.000885,0,0
0:1:37.371,365.039,20.6567,0,0.000885,0,0
0:1:37.772,367.094,20.7739,0,0.000885,0,0
0:1:38.166,368.913,20.8773,0,0.000885,0,0
0:1:38.569,371.493,21.0221,0,0.000885,0,0
0:1:38.967,373.135,21.1117,0,0.000885,0,0
0:1:39.364,374.603,21.2014,0,0.000885,0,0
0:1:39.769,376.302,21.291,0,0.000885,0,0
0:1:40.162,377.885,21.3806,0,0.000885,0,0
0:1:40.568,379.762,21.491,0,0.000885,0,0
0:1:40.965,381.052,21.5599,0,0.000885,0,0
0:1:41.372,383.632,21.7116,0,0.000885,0,0
0:1:41.774,385.332,21.8081,0,0.000885,0,0
0:1:42.176,387.151,21.9115,0,0.000885,0,0
0:1:42.577,388.792,22.0012,0,0.000885,0,0
0:1:42.979,390.376,22.0908,0,0.000885,0,0
0:1:43.373,392.431,22.208,0,0.000885,0,0
0:1:43.767,394.072,22.2976,0,0.000885,0,0
0:1:44.172,396.007,22.408,0,0.000885,0,0
0:1:44.569,397.769,22.5114,0,0.000885,0,0
0:1:44.964,399.762,22.6217,0,0.000885,0,0
0:1:45.368,400.816,22.6838,0,0.000885,0,0
0:1:45.758,401.875,22.7389,0,0.000885,0,0
0:1:46.159,404.103,22.8699,0,0.000885,0,0
0:1:46.566,406.39,22.994,0,0.000885,0,0
0:1:46.967,408.147,23.0974,0,0.000885,0,0
0:1:47.368,409.908,23.194,0,0.000885,0,0
0:1:47.772,412.021,23.3181,0,0.000885,0,0
0:1:48.170,413.311,23.387,0,0.000885,0,0
0:1:48.564,415.362,23.5042,0,0.000885,0,0
0:1:48.969,416.772,23.587,0,0.000885,0,0
0:1:49.372,418.649,23.6904,0,0.000885,0,0
0:1:49.769,419.939,23.7662,0,0.000885,0,0
0:1:50.167,422.519,23.911,0,0.000885,0,0
0:1:50.570,423.751,23.98,0,0.000885,0,0
0:1:50.972,425.744,24.0903,0,0.000885,0,0
0:1:51.374,428.03,24.2213,0,0.000885,0,0
0:1:51.778,429.262,24.2902,0,0.000885,0,0
0:1:52.178,430.966,24.3868,0,0.000885,0,0
0:1:52.580,432.487,24.4764,0,0.000885,0,0
0:1:52.973,434.422,24.5867,0,0.000885,0,0
0:1:53.370,436.126,24.6763,0,0.000885,0,0
0:1:53.769,438.47,24.8142,0,0.000885,0,0
0:1:54.171,440.289,24.9177,0,0.000885,0,0
0:1:54.561,441.401,24.9797,0,0.000885,0,0
0:1:54.970,443.75,25.1107,0,0.000885,0,0
0:1:55.367,444.982,25.1797,0,0.000885,0,0
0:1:55.772,447.447,25.3175,0,0.000885,0,0
0:1:56.161,448.737,25.3934,0,0.000885,0,0
0:1:56.566,450.551,25.4968,0,0.000885,0,0
0:1:56.970,451.904,25.5727,0,0.000885,0,0
0:1:57.371,453.136,25.6416,0,0.000885,0,0
0:1:57.771,455.716,25.7864,0,0.000885,0,0
0:1:58.164,457.709,25.9036,0,0.000885,0,0
0:1:58.571,459.114,25.9794,0,0.000885,0,0
0:1:58.968,461.227,26.1036,0,0.000885,0,0
0:1:59.372,462.869,26.1932,0,0.000885,0,0
0:1:59.768,464.159,26.269,0,0.000885,0,0
0:2:0.171,466.507,26.4,0,0.000885,0,0
0:2:0.567,468.091,26.4897,0,0.000885,0,0
0:2:0.966,470.026,26.6,0,0.000885,0,0
0:2:1.370,471.725,26.6965,0,0.000885,0,0
0:2:1.772,473.722,26.8068,0,0.000885,0,0
0:2:2.172,475.244,26.8964,0,0.000885,0,0
0:2:2.572,477.179,26.9999,0,0.000885,0,0
0:2:2.967,478.998,27.1033,0,0.000885,0,0
0:2:3.370,481.053,27.2205,0,0.000885,0,0
0:2:3.772,482.81,27.3239,0,0.000885,0,0
0:2:4.172,484.451,27.4136,0,0.000885,0,0
0:2:4.567,485.51,27.4756,0,0.000885,0,0
0:2:4.971,487.445,27.5859,0,0.000885,0,0
0:2:5.362,489.38,27.6962,0,0.000885,0,0
0:2:5.769,491.373,27.8066,0,0.000885,0,0
0:2:6.167,492.431,27.8686,0,0.000885,0,0
0:2:6.571,494.246,27.972,0,0.000885,0,0
0:2:6.973,496.537,28.0961,0,0.000885,0,0
0:2:7.373,498.41,28.2065,0,0.000885,0,0
0:2:7.771,500.287,28.3099,0,0.000885,0,0
0:2:8.169,501.871,28.3995,0,0.000885,0,0
0:2:8.573,503.396,28.4891,0,0.000885,0,0
0:2:8.974,505.331,28.5926,0,0.000885,0,0
0:2:9.370,506.915,28.6822,0,0.000885,0,0
0:2:9.768,509.321,28.8201,0,0.000885,0,0
0:2:10.173,510.847,28.9097,0,0.000885,0,0
0:2:10.576,512.431,28.9993,0,0.000885,0,0
0:2:10.968,514.188,29.0959,0,0.000885,0,0
0:2:11.370,515.891,29.1924,0,0.000885,0,0
0:2:11.774,517.942,29.3096,0,0.000885,0,0
0:2:12.176,519.352,29.3924,0,0.000885,0,0
0:2:12.575,521.461,29.5096,0,0.000885,0,0
0:2:12.971,522.751,29.5785,0,0.000885,0,0
0:2:13.368,525.215,29.7233,0,0.000885,0,0
0:2:13.762,526.153,29.7716,0,0.000885,0,0
0:2:14.167,527.973,29.875,0,0.000885,0,0
0:2:14.571,529.966,29.9922,0,0.000885,0,0
0:2:14.968,531.313,30.068,0,0.000885,0,0
0:2:15.374,533.604,30.199,0,0.000885,0,0
0:2:15.770,535.01,30.2749,0,0.000885,0,0
0:2:16.173,537.06,30.3921,0,0.000885,0,0
0:2:16.574,538.644,30.4817,0,0.000885,0,0
0:2:16.978,540.406,30.5782,0,0.000885,0,0
0:2:17.377,542.518,30.7024,0,0.000885,0,0
0:2:17.777,543.924,30.7782,0,0.000885,0,0
0:2:18.172,545.859,30.8885,0,0.000885,0,0
0:2:18.577,547.269,30.9712,0,0.000885,0,0
0:2:18.974,549.556,31.0954,0,0.000885,0,0
0:2:19.371,551.313,31.1988,0,0.000885,0,0
0:2:19.774,553.252,31.3091,0,0.000885,0,0
0:2:20.168,555.303,31.4263,0,0.000885,0,0
0:2:20.572,557.531,31.5504,0,0.000885,0,0
0:2:20.971,558.234,31.5918,0,0.000885,0,0
0:2:21.375,560.111,31.6952,0,0.000885,0,0
0:2:21.776,561.753,31.7917,0,0.000885,0,0
0:2:22.177,564.453,31.9434,0,0.000885,0,0
0:2:22.575,565.449,31.9986,0,0.000885,0,0
0:2:22.971,566.445,32.0537,0,0.000885,0,0
0:2:23.376,568.323,32.1571,0,0.000885,0,0
0:2:23.769,570.026,32.2537,0,0.000885,0,0
0:2:24.174,572.019,32.3709,0,0.000885,0,0
0:2:24.572,574.128,32.4881,0,0.000885,0,0
0:2:24.964,576.24,32.6053,0,0.000885,0,0
0:2:25.371,578.002,32.7087,0,0.000885,0,0
0:2:25.775,579.759,32.8053,0,0.000885,0,0
0:2:26.177,580.991,32.8742,0,0.000885,0,0
0:2:26.581,583.046,32.9914,0,0.000885,0,0
0:2:26.982,584.452,33.0742,0,0.000885,0,0
0:2:27.383,586.507,33.1914,0,0.000885,0,0
0:2:27.777,588.206,33.2879,0,0.000885,0,0
0:2:28.174,590.141,33.3982,0,0.000885,0,0
0:2:28.574,592.081,33.5016,0,0.000885,0,0
0:2:28.980,594.073,33.6188,0,0.000885,0,0
0:2:29.374,595.248,33.6809,0,0.000885,0,0
0:2:29.771,597.361,33.805,0,0.000885,0,0
0:2:30.171,599.122,33.9015,0,0.000885,0,0
0:2:30.579,600.884,34.0049,0,0.000885,0,0
0:2:30.975,602.823,34.1153,0,0.000885,0,0
0:2:31.380,604.874,34.2256,0,0.000885,0,0
0:2:31.784,606.404,34.3152,0,0.000885,0,0
0:2:32.187,608.281,34.4186,0,0.000885,0,0
0:2:32.590,609.985,34.5152,0,0.000885,0,0
0:2:32.987,612.213,34.6462,0,0.000885,0,0
0:2:33.382,613.855,34.7358,0,0.000885,0,0
0:2:33.781,614.913,34.7978,0,0.000885,0,0
0:2:34.179,617.026,34.9151,0,0.000885,0,0
0:2:34.577,617.965,34.9702,0,0.000885,0,0
0:2:34.972,619.904,35.0805,0,0.000885,0,0
0:2:35.365,621.372,35.1633,0,0.000885,0,0
0:2:35.764,623.485,35.2805,0,0.000885,0,0
0:2:36.163,625.242,35.3839,0,0.000885,0,0
0:2:36.572,627.297,35.5011,0,0.000885,0,0
0:2:36.975,628.823,35.5838,0,0.000885,0,0
0:2:37.376,630.647,35.6873,0,0.000885,0,0
0:2:37.775,632.991,35.8183,0,0.000885,0,0
0:2:38.174,634.694,35.9148,0,0.000885,0,0
0:2:38.571,636.634,36.0251,0,0.000885,0,0
0:2:38.974,637.924,36.1009,0,0.000885,0,0
0:2:39.373,639.979,36.2182,0,0.000885,0,0
0:2:39.772,641.856,36.3216,0,0.000885,0,0
0:2:40.179,643.03,36.3905,0,0.000885,0,0
0:2:40.575,644.378,36.4664,0,0.000885,0,0
0:2:40.969,646.847,36.6043,0,0.000885,0,0
0:2:41.372,648.373,36.687,0,0.000885,0,0
0:2:41.778,650.25,36.7973,0,0.000885,0,0
0:2:42.181,651.776,36.8801,0,0.000885,0,0
0:2:42.583,653.479,36.9766,0,0.000885,0,0
0:2:42.979,655.356,37.0869,0,0.000885,0,0
0:2:43.379,657.234,37.1903,0,0.000885,0,0
0:2:43.777,659.115,37.3006,0,0.000885,0,0
0:2:44.171,660.405,37.3696,0,0.000885,0,0
0:2:44.578,662.34,37.4799,0,0.000885,0,0
0:2:44.977,664.453,37.5971,0,0.000885,0,0
0:2:45.376,666.277,37.7005,0,0.000885,0,0
0:2:45.772,667.918,37.7971,0,0.000885,0,0
0:2:46.175,669.035,37.8591,0,0.000885,0,0
0:2:46.579,670.97,37.9694,0,0.000885,0,0
0:2:46.984,673.318,38.1004,0,0.000885,0,0
0:2:47.387,675.431,38.2245,0,0.000885,0,0
0:2:47.790,676.957,38.3073,0,0.000885,0,0
0:2:48.186,678.776,38.4107,0,0.000885,0,0
0:2:48.583,680.302,38.5003,0,0.000885,0,0
0:2:48.984,682.184,38.6037,0,0.000885,0,0
0:2:49.380,683.825,38.6934,0,0.000885,0,0
0:2:49.775,685.822,38.8106,0,0.000885,0,0
0:2:50.172,687.642,38.914,0,0.000885,0,0
0:2:50.571,688.816,38.9761,0,0.000885,0,0
0:2:50.979,690.342,39.0657,0,0.000885,0,0
0:2:51.384,692.57,39.1898,0,0.000885,0,0
0:2:51.788,694.452,39.3001,0,0.000885,0,0
0:2:52.189,696.035,39.3897,0,0.000885,0,0
0:2:52.593,697.855,39.4932,0,0.000885,0,0
0:2:52.987,699.558,39.5897,0,0.000885,0,0
0:2:53.383,701.436,39.6931,0,0.000885,0,0
0:2:53.780,703.313,39.7965,0,0.000885,0,0
0:2:54.180,704.839,39.8862,0,0.000885,0,0
0:2:54.577,706.6,39.9827,0,0.000885,0,0
0:2:54.971,708.539,40.093,0,0.000885,0,0
0:2:55.377,710.474,40.2033,0,0.000885,0,0
0:2:55.776,712.12,40.2999,0,0.000885,0,0
0:2:56.174,713.882,40.3964,0,0.000885,0,0
0:2:56.579,715.639,40.4998,0,0.000885,0,0
0:2:56.983,717.4,40.5963,0,0.000885,0,0
0:2:57.384,719.282,40.6998,0,0.000885,0,0
0:2:57.787,721.395,40.8239,0,0.000885,0,0
0:2:58.183,723.272,40.9273,0,0.000885,0,0
0:2:58.579,724.976,41.0238,0,0.000885,0,0
0:2:58.975,725.972,41.079,0,0.000885,0,0
0:2:59.375,728.556,41.2306,0,0.000885,0,0
0:2:59.773,729.317,41.272,0,0.000885,0,0
0:3:0.178,731.079,41.3685,0,0.000885,0,0
0:3:0.573,732.898,41.472,0,0.000885,0,0
0:3:0.972,734.659,41.5754,0,0.000885,0,0
0:3:1.372,736.479,41.6788,0,0.000885,0,0
0:3:1.778,738.77,41.8029,0,0.000885,0,0
0:3:2.180,740.237,41.8857,0,0.000885,0,0
0:3:2.581,741.821,41.9753,0,0.000885,0,0
0:3:2.983,743.818,42.0925,0,0.000885,0,0
0:3:3.380,745.402,42.1821,0,0.000885,0,0
0:3:3.777,747.337,42.2924,0,0.000885,0,0
0:3:4.171,748.805,42.3752,0,0.000885,0,0
0:3:4.568,750.566,42.4717,0,0.000885,0,0
0:3:4.967,752.857,42.6027,0,0.000885,0,0
0:3:5.376,754.792,42.713,0,0.000885,0,0
0:3:5.781,756.674,42.8164,0,0.000885,0,0
0:3:6.185,758.257,42.9061,0,0.000885,0,0
0:3:6.589,759.547,42.9819,0,0.000885,0,0
0:3:6.992,761.544,43.0922,0,0.000885,0,0
0:3:7.394,762.955,43.175,0,0.000885,0,0
0:3:7.789,765.477,43.3198,0,0.000885,0,0
0:3:8.187,766.887,43.3956,0,0.000885,0,0
0:3:8.585,768.88,43.5128,0,0.000885,0,0
0:3:8.983,770.583,43.6093,0,0.000885,0,0
0:3:9.379,771.758,43.6714,0,0.000885,0,0
0:3:9.773,773.813,43.7886,0,0.000885,0,0
0:3:10.174,775.805,43.8989,0,0.000885,0,0
0:3:10.572,777.509,43.9954,0,0.000885,0,0
0:3:10.964,778.919,44.0782,0,0.000885,0,0
0:3:11.372,780.854,44.1885,0,0.000885,0,0
0:3:11.777,782.794,44.2988,0,0.000885,0,0
0:3:12.179,784.671,44.4022,0,0.000885,0,0
0:3:12.581,786.139,44.485,0,0.000885,0,0
0:3:12.976,787.958,44.5884,0,0.000885,0,0
0:3:13.373,789.719,44.6918,0,0.000885,0,0
0:3:13.772,791.303,44.7814,0,0.000885,0,0
0:3:14.168,793.242,44.8849,0,0.000885,0,0
0:3:14.575,795.235,45.0021,0,0.000885,0,0
0:3:14.967,797.584,45.1331,0,0.000885,0,0
0:3:15.367,798.816,45.202,0,0.000885,0,0
0:3:15.777,800.635,45.3055,0,0.000885,0,0
0:3:16.173,802.459,45.4089,0,0.000885,0,0
0:3:16.578,804.216,45.5123,0,0.000885,0,0
0:3:16.981,805.804,45.6019,0,0.000885,0,0
0:3:17.383,807.446,45.6916,0,0.000885,0,0
0:3:17.787,809.616,45.8157,0,0.000885,0,0
0:3:18.183,811.792,45.9398,0,0.000885,0,0
0:3:18.578,812.437,45.9742,0,0.000885,0,0
0:3:18.975,814.314,46.0777,0,0.000885,0,0
0:3:19.375,816.369,46.1949,0,0.000885,0,0
0:3:19.773,817.837,46.2776,0,0.000885,0,0
0:3:20.177,820.007,46.4017,0,0.000885,0,0
0:3:20.573,821.475,46.4845,0,0.000885,0,0
0:3:20.973,822.828,46.5603,0,0.000885,0,0
0:3:21.369,824.585,46.6637,0,0.000885,0,0
0:3:21.777,826.76,46.7878,0,0.000885,0,0
0:3:22.180,828.521,46.8843,0,0.000885,0,0
0:3:22.583,830.341,46.9878,0,0.000885,0,0
0:3:22.985,831.982,47.0774,0,0.000885,0,0
0:3:23.382,834.215,47.2084,0,0.000885,0,0
0:3:23.775,836.208,47.3187,0,0.000885,0,0
0:3:24.182,837.912,47.4152,0,0.000885,0,0
0:3:24.581,839.322,47.498,0,0.000885,0,0
0:3:24.979,840.727,47.5738,0,0.000885,0,0
0:3:25.375,842.547,47.6772,0,0.000885,0,0
0:3:25.770,844.837,47.8082,0,0.000885,0,0
0:3:26.173,846.483,47.8979,0,0.000885,0,0
0:3:26.577,848.596,48.022,0,0.000885,0,0
0:3:26.980,850.531,48.1323,0,0.000885,0,0
0:3:27.382,852.057,48.215,0,0.000885,0,0
0:3:27.779,853.996,48.3254,0,0.000885,0,0
0:3:28.179,855.522,48.415,0,0.000885,0,0
0:3:28.576,856.518,48.4701,0,0.000885,0,0
0:3:28.969,858.102,48.5598,0,0.000885,0,0
0:3:29.377,859.863,48.6563,0,0.000885,0,0
0:3:29.776,861.919,48.7735,0,0.000885,0,0
0:3:30.175,863.68,48.8769,0,0.000885,0,0
0:3:30.569,866.029,49.0079,0,0.000885,0,0
0:3:30.975,867.439,49.0838,0,0.000885,0,0
0:3:31.378,869.08,49.1803,0,0.000885,0,0
0:3:31.784,870.548,49.263,0,0.000885,0,0
0:3:32.187,872.719,49.3871,0,0.000885,0,0
0:3:32.589,874.423,49.4837,0,0.000885,0,0
0:3:32.984,876.126,49.5802,0,0.000885,0,0
0:3:33.384,877.883,49.6767,0,0.000885,0,0
0:3:33.783,879.707,49.7801,0,0.000885,0,0
0:3:34.178,881.936,49.9043,0,0.000885,0,0
0:3:34.571,883.933,50.0215,0,0.000885,0,0
0:3:34.968,885.045,50.0835,0,0.000885,0,0
0:3:35.368,887.158,50.2007,0,0.000885,0,0
0:3:35.778,889.333,50.3248,0,0.000885,0,0
0:3:36.170,891.094,50.4283,0,0.000885,0,0
0:3:36.578,892.384,50.4972,0,0.000885,0,0
0:3:36.982,894.319,50.6075,0,0.000885,0,0
0:3:37.384,896.139,50.7109,0,0.000885,0,0
0:3:37.786,897.962,50.8144,0,0.000885,0,0
0:3:38.181,899.195,50.8833,0,0.000885,0,0
0:3:38.578,900.894,50.9798,0,0.000885,0,0
0:3:38.979,903.185,51.1108,0,0.000885,0,0
0:3:39.376,904.768,51.2005,0,0.000885,0,0
0:3:39.770,906.063,51.2694,0,0.000885,0,0
0:3:40.177,907.762,51.3659,0,0.000885,0,0
0:3:40.576,909.644,51.4763,0,0.000885,0,0
0:3:40.975,911.463,51.5797,0,0.000885,0,0
0:3:41.380,913.576,51.6969,0,0.000885,0,0
0:3:41.785,915.511,51.8072,0,0.000885,0,0
0:3:42.187,917.036,51.8968,0,0.000885,0,0
0:3:42.588,918.74,51.9934,0,0.000885,0,0
0:3:42.986,920.502,52.0899,0,0.000885,0,0
0:3:43.382,922.379,52.1933,0,0.000885,0,0
0:3:43.777,924.492,52.3174,0,0.000885,0,0
0:3:44.173,925.844,52.3933,0,0.000885,0,0
0:3:44.573,927.663,52.4967,0,0.000885,0,0
0:3:44.970,929.483,52.6001,0,0.000885,0,0
0:3:45.377,931.595,52.7173,0,0.000885,0,0
0:3:45.769,933.237,52.8138,0,0.000885,0,0
0:3:46.173,935.061,52.9104,0,0.000885,0,0
0:3:46.580,936.76,53.0069,0,0.000885,0,0
0:3:46.984,938.757,53.1241,0,0.000885,0,0
0:3:47.385,939.696,53.1793,0,0.000885,0,0
0:3:47.782,941.693,53.2896,0,0.000885,0,0
0:3:48.182,943.686,53.3999,0,0.000885,0,0
0:3:48.581,945.154,53.4826,0,0.000885,0,0
0:3:48.985,946.857,53.5792,0,0.000885,0,0
0:3:49.381,948.561,53.6757,0,0.000885,0,0
0:3:49.779,950.202,53.7722,0,0.000885,0,0
0:3:50.178,952.142,53.8825,0,0.000885,0,0
0:3:50.576,953.547,53.9584,0,0.000885,0,0
0:3:50.969,955.954,54.0963,0,0.000885,0,0
0:3:51.377,958.067,54.2135,0,0.000885,0,0
0:3:51.780,959.593,54.3031,0,0.000885,0,0
0:3:52.181,961.532,54.4134,0,0.000885,0,0
0:3:52.585,962.764,54.4824,0,0.000885,0,0
0:3:52.982,964.641,54.5858,0,0.000885,0,0
0:3:53.377,966.345,54.6823,0,0.000885,0,0
0:3:53.778,968.4,54.7995,0,0.000885,0,0
0:3:54.177,970.162,54.903,0,0.000885,0,0
0:3:54.570,971.336,54.965,0,0.000885,0,0
0:3:54.978,973.742,55.1029,0,0.000885,0,0
0:3:55.372,975.735,55.2132,0,0.000885,0,0
0:3:55.772,977.848,55.3373,0,0.000885,0,0
0:3:56.170,978.671,55.3787,0,0.000885,0,0
0:3:56.578,980.548,55.489,0,0.000885,0,0
0:3:56.982,982.078,55.5717,0,0.000885,0,0
0:3:57.384,984.071,55.689,0,0.000885,0,0
0:3:57.785,985.423,55.7648,0,0.000885,0,0
0:3:58.185,987.71,55.8958,0,0.000885,0,0
0:3:58.579,989.765,56.0061,0,0.000885,0,0
0:3:58.984,991.526,56.1095,0,0.000885,0,0
0:3:59.383,992.936,56.1854,0,0.000885,0,0
0:3:59.782,994.52,56.275,0,0.000885,0,0
0:4:0.180,996.633,56.3991,0,0.000885,0,0
0:4:0.572,998.452,56.5025,0,0.000885,0,0
0:4:0.968,1000.57,56.6197,0,0.000885,0,0
0:4:1.370,1002.09,56.7094,0,0.000885,0,0
0:4:1.774,1003.56,56.7921,0,0.000885,0,0
0:4:2.178,1005.56,56.9024,0,0.000885,0,0
0:4:2.581,1006.85,56.9783,0,0.000885,0,0
0:4:2.979,1008.55,57.0748,0,0.000885,0,0
0:4:3.378,1010.48,57.1851,0,0.000885,0,0
0:4:3.773,1012.42,57.2885,0,0.000885,0,0
0:4:4.180,1014.77,57.4264,0,0.000885,0,0
0:4:4.573,1016.53,57.523,0,0.000885,0,0
0:4:4.971,1017.88,57.5988,0,0.000885,0,0
0:4:5.370,1019.11,57.6677,0,0.000885,0,0
0:4:5.768,1021.23,57.7919,0,0.000885,0,0
0:4:6.173,1022.82,57.8815,0,0.000885,0,0
0:4:6.579,1024.58,57.978,0,0.000885,0,0
0:4:6.983,1026.51,58.0883,0,0.000885,0,0
0:4:7.385,1028.27,58.1918,0,0.000885,0,0
0:4:7.788,1029.56,58.2607,0,0.000885,0,0
0:4:8.185,1031.85,58.3917,0,0.000885,0,0
0:4:8.582,1033.79,58.502,0,0.000885,0,0
0:4:8.982,1035.55,58.5985,0,0.000885,0,0
0:4:9.380,1037.31,58.702,0,0.000885,0,0
0:4:9.773,1039.19,58.8054,0,0.000885,0,0
0:4:10.168,1040.6,58.8881,0,0.000885,0,0
0:4:10.565,1042.18,58.9778,0,0.000885,0,0
0:4:10.975,1043.83,59.0674,0,0.000885,0,0
0:4:11.374,1046,59.1915,0,0.000885,0,0
0:4:11.780,1048,59.3018,0,0.000885,0,0
0:4:12.185,1049.93,59.4121,0,0.000885,0,0
0:4:12.586,1051.99,59.5293,0,0.000885,0,0
0:4:12.989,1053.4,59.6121,0,0.000885,0,0
0:4:13.385,1055.45,59.7293,0,0.000885,0,0
0:4:13.780,1056.8,59.8051,0,0.000885,0,0
0:4:14.174,1058.15,59.881,0,0.000885,0,0
0:4:14.573,1059.62,59.9637,0,0.000885,0,0
0:4:14.970,1061.61,60.074,0,0.000885,0,0
0:4:15.376,1063.79,60.1981,0,0.000885,0,0
0:4:15.770,1065.61,60.3015,0,0.000885,0,0
0:4:16.174,1067.31,60.3981,0,0.000885,0,0
0:4:16.581,1068.24,60.4532,0,0.000885,0,0
0:4:16.984,1070.3,60.5635,0,0.000885,0,0
0:4:17.385,1072.3,60.6808,0,0.000885,0,0
0:4:17.782,1074.47,60.8049,0,0.000885,0,0
0:4:18.183,1076.47,60.9152,0,0.000885,0,0
0:4:18.581,1078.28,61.0186,0,0.000885,0,0
0:4:18.984,1079.63,61.0944,0,0.000885,0,0
0:4:19.381,1081.34,61.191,0,0.000885,0,0
0:4:19.779,1082.57,61.2599,0,0.000885,0,0
0:4:20.176,1084.92,61.3909,0,0.000885,0,0
0:4:20.574,1086.5,61.4806,0,0.000885,0,0
0:4:20.969,1089.08,61.6322,0,0.000885,0,0
0:4:21.372,1090.73,61.7219,0,0.000885,0,0
0:4:21.777,1092.67,61.8322,0,0.000885,0,0
0:4:22.181,1093.84,61.9011,0,0.000885,0,0
0:4:22.585,1095.95,62.0183,0,0.000885,0,0
0:4:22.976,1097.77,62.1218,0,0.000885,0,0
0:4:23.375,1098.83,62.1838,0,0.000885,0,0
0:4:23.774,1100.59,62.2803,0,0.000885,0,0
0:4:24.171,1101.53,62.3355,0,0.000885,0,0
0:4:24.576,1104.23,62.4872,0,0.000885,0,0
0:4:24.983,1105.99,62.5837,0,0.000885,0,0
0:4:25.382,1107.52,62.6733,0,0.000885,0,0
0:4:25.781,1109.92,62.8112,0,0.000885,0,0
0:4:26.174,1110.92,62.8664,0,0.000885,0,0
0:4:26.581,1112.98,62.9836,0,0.000885,0,0
0:4:26.985,1114.8,63.087,0,0.000885,0,0
0:4:27.388,1116.38,63.1767,0,0.000885,0,0
0:4:27.790,1118.96,63.3215,0,0.000885,0,0
0:4:28.186,1121.08,63.4387,0,0.000885,0,0
0:4:28.581,1122.01,63.4938,0,0.000885,0,0
0:4:28.981,1124.19,63.6179,0,0.000885,0,0
0:4:29.388,1125.6,63.6938,0,0.000885,0,0
0:4:29.783,1127.06,63.7765,0,0.000885,0,0
0:4:30.176,1129,63.8868,0,0.000885,0,0
0:4:30.575,1130.59,63.9765,0,0.000885,0,0
0:4:30.974,1132.52,64.0868,0,0.000885,0,0
0:4:31.381,1134.58,64.204,0,0.000885,0,0
0:4:31.785,1136.81,64.3281,0,0.000885,0,0
0:4:32.187,1138.92,64.4522,0,0.000885,0,0
0:4:32.587,1139.86,64.5005,0,0.000885,0,0
0:4:32.985,1141.62,64.6039,0,0.000885,0,0
0:4:33.383,1143.5,64.7073,0,0.000885,0,0
0:4:33.775,1144.91,64.79,0,0.000885,0,0
0:4:34.185,1146.37,64.8728,0,0.000885,0,0
0:4:34.584,1148.2,64.9762,0,0.000885,0,0
0:4:34.989,1150.02,65.0796,0,0.000885,0,0
0:4:35.384,1152.13,65.1968,0,0.000885,0,0
0:4:35.782,1154.42,65.3278,0,0.000885,0,0
0:4:36.183,1155.18,65.3692,0,0.000885,0,0
0:4:36.589,1157.47,65.5002,0,0.000885,0,0
0:4:36.992,1159.29,65.6036,0,0.000885,0,0
0:4:37.394,1161.34,65.7208,0,0.000885,0,0
0:4:37.794,1162.87,65.8036,0,0.000885,0,0
0:4:38.193,1164.69,65.907,0,0.000885,0,0
0:4:38.592,1165.92,65.9759,0,0.000885,0,0
0:4:38.986,1168.21,66.1069,0,0.000885,0,0
0:4:39.382,1169.68,66.1897,0,0.000885,0,0
0:4:39.781,1171.85,66.3138,0,0.000885,0,0
0:4:40.178,1173.79,66.4241,0,0.000885,0,0
0:4:40.585,1174.67,66.4724,0,0.000885,0,0
0:4:40.977,1176.84,66.5965,0,0.000885,0,0
0:4:41.383,1178.78,66.7068,0,0.000885,0,0
0:4:41.789,1180.77,66.8171,0,0.000885,0,0
0:4:42.191,1182.3,66.9067,0,0.000885,0,0
0:4:42.594,1184.41,67.0239,0,0.000885,0,0
0:4:42.991,1186.17,67.1205,0,0.000885,0,0
0:4:43.390,1186.99,67.1687,0,0.000885,0,0
0:4:43.789,1189.29,67.2997,0,0.000885,0,0
0:4:44.183,1191.51,67.4238,0,0.000885,0,0
0:4:44.577,1192.34,67.4721,0,0.000885,0,0
0:4:44.976,1193.98,67.5686,0,0.000885,0,0
0:4:45.374,1195.8,67.6651,0,0.000885,0,0
0:4:45.771,1198.56,67.8237,0,0.000885,0,0
0:4:46.175,1200.14,67.9134,0,0.000885,0,0
0:4:46.582,1201.73,68.003,0,0.000885,0,0
0:4:46.986,1203.49,68.1064,0,0.000885,0,0
0:4:47.389,1205.37,68.2098,0,0.000885,0,0
0:4:47.791,1206.6,68.2788,0,0.000885,0,0
0:4:48.186,1208.01,68.3615,0,0.000885,0,0
0:4:48.584,1210.18,68.4856,0,0.000885,0,0
0:4:48.985,1212.35,68.6028,0,0.000885,0,0
0:4:49.379,1214.12,68.7063,0,0.000885,0,0
0:4:49.774,1216.29,68.8304,0,0.000885,0,0
0:4:50.182,1218.11,68.9338,0,0.000885,0,0
0:4:50.579,1219.92,69.0303,0,0.000885,0,0
0:4:50.976,1221.21,69.1062,0,0.000885,0,0
0:4:51.384,1222.98,69.2096,0,0.000885,0,0
0:4:51.787,1224.86,69.313,0,0.000885,0,0
0:4:52.189,1226.44,69.4026,0,0.000885,0,0
0:4:52.592,1227.2,69.444,0,0.000885,0,0
0:4:52.989,1229.2,69.5612,0,0.000885,0,0
0:4:53.385,1231.49,69.6853,0,0.000885,0,0
0:4:53.777,1233.48,69.8025,0,0.000885,0,0
0:4:54.178,1234.6,69.8646,0,0.000885,0,0
0:4:54.577,1236.6,69.9749,0,0.000885,0,0
0:4:54.973,1238.59,70.0921,0,0.000885,0,0
0:4:55.380,1240.82,70.2162,0,0.000885,0,0
0:4:55.786,1242.7,70.3196,0,0.000885,0,0
0:4:56.188,1244.23,70.4093,0,0.000885,0,0
0:4:56.594,1246.16,70.5196,0,0.000885,0,0
0:4:56.997,1247.45,70.5885,0,0.000885,0,0
0:4:57.399,1248.86,70.6713,0,0.000885,0,0
0:4:57.797,1251.09,70.7954,0,0.000885,0,0
0:4:58.195,1252.62,70.885,0,0.000885,0,0
0:4:58.595,1254.62,70.9953,0,0.000885,0,0
0:4:58.990,1256.67,71.1125,0,0.000885,0,0
0:4:59.386,1258.02,71.1884,0,0.000885,0,0
0:4:59.784,1260.19,71.3125,0,0.000885,0,0
0:5:0.184,1261.84,71.4021,0,0.000885,0,0
0:5:0.578,1263.83,71.5193,0,0.000885,0,0
0:5:0.974,1265.24,71.5952,0,0.000885,0,0
0:5:1.376,1266.18,71.6503,0,0.000885,0,0
0:5:1.784,1268.59,71.7882,0,0.000885,0,0
0:5:2.186,1269.76,71.8572,0,0.000885,0,0
0:5:2.588,1272.4,72.002,0,0.000885,0,0
0:5:2.984,1273.57,72.0709,0,0.000885,0,0
0:5:3.378,1276.27,72.2226,0,0.000885,0,0
0:5:3.778,1277.04,72.264,0,0.000885,0,0
0:5:4.175,1279.45,72.4018,0,0.000885,0,0
0:5:4.573,1280.97,72.4915,0,0.000885,0,0
0:5:4.978,1283.03,72.6018,0,0.000885,0,0
0:5:5.386,1284.2,72.6707,0,0.000885,0,0
0:5:5.786,1286.08,72.7742,0,0.000885,0,0
0:5:6.184,1288.19,72.8983,0,0.000885,0,0
0:5:6.590,1289.72,72.981,0,0.000885,0,0
0:5:6.993,1291.6,73.0913,0,0.000885,0,0
0:5:7.395,1293.36,73.1878,0,0.000885,0,0
0:5:7.796,1295.41,73.3051,0,0.000885,0,0
0:5:8.195,1297.64,73.4292,0,0.000885,0,0
0:5:8.589,1299.29,73.5257,0,0.000885,0,0
0:5:8.984,1300.4,73.5877,0,0.000885,0,0
0:5:9.384,1302.63,73.7119,0,0.000885,0,0
0:5:9.781,1304.28,73.8084,0,0.000885,0,0
0:5:10.188,1306.21,73.9187,0,0.000885,0,0
0:5:10.584,1308.09,74.0221,0,0.000885,0,0
0:5:10.977,1309.21,74.0842,0,0.000885,0,0
0:5:11.381,1310.85,74.1807,0,0.000885,0,0
0:5:11.790,1312.38,74.2634,0,0.000885,0,0
0:5:12.192,1314.25,74.3737,0,0.000885,0,0
0:5:12.595,1316.54,74.4979,0,0.000885,0,0
0:5:12.992,1317.6,74.5599,0,0.000885,0,0
0:5:13.393,1319.72,74.6771,0,0.000885,0,0
0:5:13.791,1321.59,74.7874,0,0.000885,0,0
0:5:14.187,1323.47,74.8909,0,0.000885,0,0
0:5:14.592,1325.05,74.9805,0,0.000885,0,0
0:5:14.990,1326.99,75.0908,0,0.000885,0,0
0:5:15.390,1328.63,75.1873,0,0.000885,0,0
0:5:15.787,1330.75,75.3045,0,0.000885,0,0
0:5:16.180,1332.75,75.4149,0,0.000885,0,0
0:5:16.586,1334.51,75.5183,0,0.000885,0,0
0:5:16.990,1335.56,75.5803,0,0.000885,0,0
0:5:17.393,1337.38,75.6838,0,0.000885,0,0
0:5:17.796,1339.32,75.7872,0,0.000885,0,0
0:5:18.190,1341.2,75.8975,0,0.000885,0,0
0:5:18.589,1343.31,76.0147,0,0.000885,0,0
0:5:18.988,1345.19,76.125,0,0.000885,0,0
0:5:19.383,1347.25,76.2353,0,0.000885,0,0
0:5:19.789,1348.54,76.3112,0,0.000885,0,0
0:5:20.183,1349.95,76.3939,0,0.000885,0,0
0:5:20.582,1351.24,76.4629,0,0.000885,0,0
0:5:20.981,1353.11,76.5732,0,0.000885,0,0
0:5:21.388,1355.11,76.6835,0,0.000885,0,0
0:5:21.791,1357.05,76.7938,0,0.000885,0,0
0:5:22.194,1358.86,76.8972,0,0.000885,0,0
0:5:22.595,1360.57,76.9938,0,0.000885,0,0
0:5:22.992,1362.33,77.0903,0,0.000885,0,0
0:5:23.385,1363.86,77.1799,0,0.000885,0,0
0:5:23.794,1366.15,77.3109,0,0.000885,0,0
0:5:24.192,1367.85,77.4074,0,0.000885,0,0
0:5:24.592,1369.61,77.504,0,0.000885,0,0
0:5:24.988,1371.2,77.5936,0,0.000885,0,0
0:5:25.380,1373.31,77.7108,0,0.000885,0,0
0:5:25.778,1374.89,77.8004,0,0.000885,0,0
0:5:26.178,1377.18,77.9314,0,0.000885,0,0
0:5:26.584,1378.65,78.0142,0,0.000885,0,0
0:5:26.987,1380.64,78.1314,0,0.000885,0,0
0:5:27.389,1382.4,78.2279,0,0.000885,0,0
0:5:27.788,1384.05,78.3244,0,0.000885,0,0
0:5:28.184,1385.81,78.421,0,0.000885,0,0
0:5:28.580,1386.98,78.4899,0,0.000885,0,0
0:5:28.983,1389.22,78.614,0,0.000885,0,0
0:5:29.383,1390.74,78.6968,0,0.000885,0,0
0:5:29.782,1392.21,78.7795,0,0.000885,0,0
0:5:30.179,1393.91,78.876,0,0.000885,0,0
0:5:30.586,1396.02,79.0001,0,0.000885,0,0
0:5:30.991,1397.78,79.0967,0,0.000885,0,0
0:5:31.393,1399.37,79.1863,0,0.000885,0,0
0:5:31.799,1401.01,79.2828,0,0.000885,0,0
0:5:32.202,1402.66,79.3724,0,0.000885,0,0
0:5:32.604,1404.48,79.4759,0,0.000885,0,0
0:5:33.002,1406.41,79.5862,0,0.000885,0,0
0:5:33.402,1408.47,79.7034,0,0.000885,0,0
0:5:33.799,1410.23,79.7999,0,0.000885,0,0
0:5:34.193,1412.28,79.9171,0,0.000885,0,0
0:5:34.591,1413.34,79.9792,0,0.000885,0,0
0:5:34.990,1415.51,80.1033,0,0.000885,0,0
0:5:35.387,1417.45,80.2136,0,0.000885,0,0
0:5:35.782,1418.97,80.2963,0,0.000885,0,0
0:5:36.176,1420.91,80.4067,0,0.000885,0,0
0:5:36.580,1422.96,80.5239,0,0.000885,0,0
0:5:36.987,1424.61,80.6135,0,0.000885,0,0
0:5:37.390,1425.84,80.6893,0,0.000885,0,0
0:5:37.792,1428.01,80.8066,0,0.000885,0,0
0:5:38.188,1430.36,80.9445,0,0.000885,0,0
0:5:38.597,1432.01,81.0341,0,0.000885,0,0
0:5:38.997,1433.53,81.1237,0,0.000885,0,0
0:5:39.393,1434.36,81.1651,0,0.000885,0,0
0:5:39.789,1436.53,81.2892,0,0.000885,0,0
0:5:40.195,1438.11,81.3788,0,0.000885,0,0
0:5:40.594,1439.52,81.4616,0,0.000885,0,0
0:5:40.991,1441.46,81.5719,0,0.000885,0,0
0:5:41.397,1443.51,81.6891,0,0.000885,0,0
0:5:41.802,1445.09,81.7787,0,0.000885,0,0
0:5:42.205,1447.15,81.889,0,0.000885,0,0
0:5:42.607,1448.79,81.9856,0,0.000885,0,0
0:5:43.003,1450.73,82.0959,0,0.000885,0,0
0:5:43.399,1453.14,82.2338,0,0.000885,0,0
0:5:43.795,1454.78,82.3234,0,0.000885,0,0
0:5:44.196,1456.31,82.413,0,0.000885,0,0
0:5:44.593,1457.78,82.4958,0,0.000885,0,0
0:5:44.996,1459.42,82.5854,0,0.000885,0,0
0:5:45.393,1461.36,82.6957,0,0.000885,0,0
0:5:45.792,1462.94,82.7854,0,0.000885,0,0
0:5:46.190,1465,82.9026,0,0.000885,0,0
0:5:46.595,1466.99,83.0129,0,0.000885,0,0
0:5:46.997,1468.52,83.1025,0,0.000885,0,0
0:5:47.399,1470.98,83.2404,0,0.000885,0,0
0:5:47.802,1472.39,83.3231,0,0.000885,0,0
0:5:48.198,1474.27,83.4266,0,0.000885,0,0
0:5:48.594,1475.27,83.4817,0,0.000885,0,0
0:5:48.989,1477.09,83.5851,0,0.000885,0,0
0:5:49.390,1478.26,83.6541,0,0.000885,0,0
0:5:49.786,1480.79,83.7989,0,0.000885,0,0
0:5:50.180,1482.21,83.8747,0,0.000885,0,0
0:5:50.585,1484.21,83.9919,0,0.000885,0,0
0:5:50.984,1485.74,84.0747,0,0.000885,0,0
0:5:51.383,1488.03,84.2057,0,0.000885,0,0
0:5:51.791,1489.62,84.2953,0,0.000885,0,0
0:5:52.195,1491.86,84.4194,0,0.000885,0,0
0:5:52.597,1493.04,84.4884,0,0.000885,0,0
0:5:52.997,1495.16,84.6056,0,0.000885,0,0
0:5:53.395,1496.52,84.6883,0,0.000885,0,0
0:5:53.792,1498.63,84.8055,0,0.000885,0,0
0:5:54.196,1500.1,84.8883,0,0.000885,0,0
0:5:54.595,1501.99,84.9986,0,0.000885,0,0
0:5:54.995,1503.76,85.0951,0,0.000885,0,0
0:5:55.392,1505.82,85.2123,0,0.000885,0,0
0:5:55.785,1507.52,85.3088,0,0.000885,0,0
0:5:56.191,1509.53,85.4191,0,0.000885,0,0
0:5:56.596,1510.88,85.495,0,0.000885,0,0
0:5:56.999,1513.18,85.626,0,0.000885,0,0
0:5:57.400,1514.59,85.7087,0,0.000885,0,0
0:5:57.795,1516.89,85.8397,0,0.000885,0,0
0:5:58.194,1517.71,85.888,0,0.000885,0,0
0:5:58.593,1519.06,85.9638,0,0.000885,0,0
0:5:58.986,1521.31,86.0879,0,0.000885,0,0
0:5:59.381,1523.31,86.1983,0,0.000885,0,0
0:5:59.790,1525.31,86.3155,0,0.000885,0,0
0:6:0.187,1527.02,86.412,0,0.000885,0,0
0:6:0.583,1528.19,86.4809,0,0.000885,0,0
0:6:0.979,1530.13,86.5913,0,0.000885,0,0
0:6:1.383,1531.73,86.6809,0,0.000885,0,0
0:6:1.787,1533.67,86.7912,0,0.000885,0,0
0:6:2.192,1535.9,86.9153,0,0.000885,0,0
0:6:2.595,1537.67,87.0118,0,0.000885,0,0
0:6:2.990,1539.32,87.1084,0,0.000885,0,0
0:6:3.386,1541.32,87.2187,0,0.000885,0,0
0:6:3.785,1542.68,87.2945,0,0.000885,0,0
0:6:4.183,1544.74,87.4117,0,0.000885,0,0
0:6:4.578,1546.68,87.522,0,0.000885,0,0
0:6:4.974,1548.21,87.6117,0,0.000885,0,0
0:6:5.372,1549.92,87.7082,0,0.000885,0,0
0:6:5.771,1551.27,87.784,0,0.000885,0,0
0:6:6.165,1552.81,87.8737,0,0.000885,0,0
0:6:6.570,1554.57,87.9702,0,0.000885,0,0
0:6:6.975,1556.75,88.0943,0,0.000885,0,0
0:6:7.377,1558.22,88.1771,0,0.000885,0,0
0:6:7.781,1560.16,88.2874,0,0.000885,0,0
0:6:8.175,1562.17,88.3977,0,0.000885,0,0
0:6:8.581,1563.87,88.4942,0,0.000885,0,0
0:6:8.991,1565.23,88.5769,0,0.000885,0,0
0:6:9.399,1567,88.6735,0,0.000885,0,0
0:6:9.795,1569.18,88.7976,0,0.000885,0,0
0:6:10.188,1571.18,88.9079,0,0.000885,0,0
0:6:10.585,1572.94,89.0113,0,0.000885,0,0
0:6:10.985,1574.53,89.1009,0,0.000885,0,0
0:6:11.382,1576.53,89.2113,0,0.000885,0,0
0:6:11.786,1578.01,89.294,0,0.000885,0,0
0:6:12.192,1579.66,89.3905,0,0.000885,0,0
0:6:12.595,1581.3,89.4802,0,0.000885,0,0
0:6:12.997,1583.19,89.5905,0,0.000885,0,0
0:6:13.393,1585.13,89.7008,0,0.000885,0,0
0:6:13.785,1587.37,89.8249,0,0.000885,0,0
0:6:14.184,1588.78,89.9076,0,0.000885,0,0
0:6:14.583,1590.72,90.018,0,0.000885,0,0
0:6:14.980,1591.96,90.0869,0,0.000885,0,0
0:6:15.376,1593.43,90.1696,0,0.000885,0,0
0:6:15.780,1595.38,90.28,0,0.000885,0,0
0:6:16.183,1597.5,90.3972,0,0.000885,0,0
0:6:16.588,1599.38,90.5075,0,0.000885,0,0
0:6:16.991,1600.91,90.5902,0,0.000885,0,0
0:6:17.394,1602.38,90.6798,0,0.000885,0,0
0:6:17.792,1604.5,90.7971,0,0.000885,0,0
0:6:18.193,1605.98,90.8798,0,0.000885,0,0
0:6:18.589,1608.33,91.0108,0,0.000885,0,0
0:6:18.981,1609.8,91.0935,0,0.000885,0,0
0:6:19.387,1611.8,91.2107,0,0.000885,0,0
0:6:19.785,1612.87,91.2728,0,0.000885,0,0
0:6:20.184,1614.69,91.3762,0,0.000885,0,0
0:6:20.582,1616.99,91.5003,0,0.000885,0,0
0:6:20.985,1618.75,91.6037,0,0.000885,0,0
0:6:21.389,1620.34,91.6934,0,0.000885,0,0
0:6:21.795,1622.58,91.8175,0,0.000885,0,0
0:6:22.199,1624.46,91.9278,0,0.000885,0,0
0:6:22.599,1626.35,92.0312,0,0.000885,0,0
0:6:22.995,1627.76,92.114,0,0.000885,0,0
0:6:23.392,1629.06,92.1829,0,0.000885,0,0
0:6:23.793,1631.06,92.3001,0,0.000885,0,0
0:6:24.199,1632.83,92.3966,0,0.000885,0,0
0:6:24.597,1634.59,92.5001,0,0.000885,0,0
0:6:24.989,1636.42,92.6035,0,0.000885,0,0
0:6:25.386,1638.42,92.7138,0,0.000885,0,0
0:6:25.786,1639.83,92.7965,0,0.000885,0,0
0:6:26.194,1641.72,92.9,0,0.000885,0,0
0:6:26.599,1643.48,93.0034,0,0.000885,0,0
0:6:27.003,1645.19,93.0999,0,0.000885,0,0
0:6:27.404,1646.66,93.1826,0,0.000885,0,0
0:6:27.809,1648.67,93.293,0,0.000885,0,0
0:6:28.204,1650.32,93.3895,0,0.000885,0,0
0:6:28.600,1651.96,93.4791,0,0.000885,0,0
0:6:28.996,1653.91,93.5894,0,0.000885,0,0
0:6:29.395,1655.44,93.6791,0,0.000885,0,0
0:6:29.793,1656.97,93.7687,0,0.000885,0,0
0:6:30.187,1659.15,93.8859,0,0.000885,0,0
0:6:30.593,1660.62,93.9686,0,0.000885,0,0
0:6:30.993,1662.98,94.1065,0,0.000885,0,0
0:6:31.393,1664.33,94.1824,0,0.000885,0,0
0:6:31.800,1666.39,94.2996,0,0.000885,0,0
0:6:32.202,1668.04,94.3892,0,0.000885,0,0
0:6:32.605,1669.87,94.4926,0,0.000885,0,0
0:6:33.005,1671.1,94.5616,0,0.000885,0,0
0:6:33.405,1673.34,94.6926,0,0.000885,0,0
0:6:33.802,1675.52,94.8167,0,0.000885,0,0
0:6:34.198,1677.4,94.9201,0,0.000885,0,0
0:6:34.591,1678.87,95.0029,0,0.000885,0,0
0:6:34.991,1680.99,95.127,0,0.000885,0,0
0:6:35.401,1682.76,95.2235,0,0.000885,0,0
0:6:35.795,1683.64,95.2718,0,0.000885,0,0
0:6:36.189,1685.53,95.3821,0,0.000885,0,0
0:6:36.595,1687.24,95.4786,0,0.000885,0,0
0:6:37.000,1689.3,95.5958,0,0.000885,0,0
0:6:37.403,1691,95.6923,0,0.000885,0,0
0:6:37.807,1692.83,95.7958,0,0.000885,0,0
0:6:38.203,1694.66,95.8992,0,0.000885,0,0
0:6:38.600,1696.42,95.9957,0,0.000885,0,0
0:6:38.998,1698.48,96.1129,0,0.000885,0,0
0:6:39.395,1699.9,96.1957,0,0.000885,0,0
0:6:39.801,1701.19,96.2646,0,0.000885,0,0
0:6:40.197,1703.49,96.3956,0,0.000885,0,0
0:6:40.597,1705.43,96.5059,0,0.000885,0,0
0:6:40.996,1707.32,96.6162,0,0.000885,0,0
0:6:41.401,1709.08,96.7128,0,0.000885,0,0
0:6:41.804,1710.55,96.7955,0,0.000885,0,0
0:6:42.207,1712.38,96.8989,0,0.000885,0,0
0:6:42.607,1714.5,97.023,0,0.000885,0,0
0:6:43.006,1715.97,97.1058,0,0.000885,0,0
0:6:43.402,1717.44,97.1885,0,0.000885,0,0
0:6:43.798,1719.8,97.3195,0,0.000885,0,0
0:6:44.192,1721.33,97.4091,0,0.000885,0,0
0:6:44.592,1722.39,97.4643,0,0.000885,0,0
0:6:44.999,1724.69,97.5953,0,0.000885,0,0
0:6:45.395,1726.27,97.6849,0,0.000885,0,0
0:6:45.790,1728.04,97.7883,0,0.000885,0,0
0:6:46.195,1730.16,97.9056,0,0.000885,0,0
0:6:46.601,1731.63,97.9883,0,0.000885,0,0
0:6:47.003,1733.34,98.0848,0,0.000885,0,0
0:6:47.405,1735.05,98.1813,0,0.000885,0,0
0:6:47.803,1736.75,98.2779,0,0.000885,0,0
0:6:48.201,1738.7,98.3882,0,0.000885,0,0
0:6:48.600,1740.23,98.4778,0,0.000885,0,0
0:6:48.997,1742.11,98.5812,0,0.000885,0,0
0:6:49.390,1744.12,98.6985,0,0.000885,0,0
0:6:49.798,1745.82,98.795,0,0.000885,0,0
0:6:50.198,1747.83,98.9053,0,0.000885,0,0
0:6:50.596,1750.18,99.0432,0,0.000885,0,0
0:6:50.990,1751.65,99.1259,0,0.000885,0,0
0:6:51.398,1753.42,99.2225,0,0.000885,0,0
0:6:51.800,1755.07,99.319,0,0.000885,0,0
0:6:52.203,1757.19,99.4362,0,0.000885,0,0
0:6:52.604,1758.48,99.512,0,0.000885,0,0
0:6:52.999,1760.01,99.5948,0,0.000885,0,0
0:6:53.393,1761.9,99.7051,0,0.000885,0,0
0:6:53.791,1763.37,99.7878,0,0.000885,0,0
0:6:54.187,1764.9,99.8706,0,0.000885,0,0
0:6:54.583,1766.96,99.9878,0,0.000885,0,0
0:6:54.979,1769.02,100.105,0,0.000885,0,0
0:6:55.378,1770.79,100.208,0,0.000885,0,0
0:6:55.786,1772.32,100.291,0,0.000885,0,0
0:6:56.181,1773.67,100.367,0,0.000885,0,0
0:6:56.586,1775.85,100.491,0,0.000885,0,0
0:6:56.989,1777.68,100.595,0,0.000885,0,0
0:6:57.392,1779.51,100.698,0,0.000885,0,0
0:6:57.797,1781.68,100.822,0,0.000885,0,0
0:6:58.191,1782.98,100.898,0,0.000885,0,0
0:6:58.587,1784.69,100.994,0,0.000885,0,0
0:6:58.998,1786.86,101.119,0,0.000885,0,0
0:6:59.397,1788.4,101.201,0,0.000885,0,0
0:6:59.792,1789.99,101.291,0,0.000885,0,0
0:7:0.187,1791.87,101.401,0,0.000885,0,0
0:7:0.585,1793.58,101.498,0,0.000885,0,0
0:7:0.986,1795.11,101.58,0,0.000885,0,0
0:7:1.391,1797.41,101.711,0,0.000885,0,0
0:7:1.797,1799.41,101.829,0,0.000885,0,0
0:7:2.199,1801.17,101.925,0,0.000885,0,0
0:7:2.597,1802.7,102.015,0,0.000885,0,0
0:7:2.996,1804.12,102.091,0,0.000885,0,0
0:7:3.390,1805.3,102.16,0,0.000885,0,0
0:7:3.787,1807.12,102.263,0,0.000885,0,0
0:7:4.183,1809.36,102.387,0,0.000885,0,0
0:7:4.581,1811.18,102.491,0,0.000885,0,0
0:7:4.980,1813.25,102.608,0,0.000885,0,0
0:7:5.384,1814.78,102.697,0,0.000885,0,0
0:7:5.781,1816.6,102.801,0,0.000885,0,0
0:7:6.184,1818.07,102.884,0,0.000885,0,0
0:7:6.591,1819.96,102.987,0,0.000885,0,0
0:7:6.993,1821.67,103.084,0,0.000885,0,0
0:7:7.398,1823.43,103.187,0,0.000885,0,0
0:7:7.791,1825.49,103.304,0,0.000885,0,0
0:7:8.192,1827.02,103.387,0,0.000885,0,0
0:7:8.601,1828.38,103.463,0,0.000885,0,0
0:7:8.994,1829.38,103.525,0,0.000885,0,0
0:7:9.389,1804.59,102.118,0,0.000885,0,0
0:7:9.787,1791.28,101.367,0,0.000885,0,0
0:7:10.185,1791.75,101.394,0,0.000885,0,0
0:7:10.582,1792.58,101.436,0,0.000885,0,0
0:7:10.993,1790.57,101.325,0,0.000885,0,0
0:7:11.398,1721.86,97.4367,0,0.000885,0,0
0:7:11.801,1500.87,84.9296,0,0.000885,0,0
0:7:11.922,1500.87,84.9296,0,0.000885,0,0