File: DataFile2021-06-08_075619.csv
Test ID:,Date Tested:,Time:,Test Type:,Diameter Avg. (mm):,Cyl. Corr. Factor:,Height (mm):,Age (days):,Weight (kN):,Break Type:,Ramp Rate (MPa/s):,Load at Break (kN):,Stress at Break (MPa):
12,6/8/2021,07:56,Cylinder,100,1,200,0,3.6,3,0.22,181.11,23.06
Sample Time,Load (kN),Stress (MPa),Long. Strain,Trans. Strain,Chan1 Deflection (mm),Chan2 Deflection (mm)
0:0:13.441,6.21861,0.792897,0,0.000885,0,0
0:0:13.540,8.91424,1.13763,0,0.000885,0,0
0:0:13.637,11.9079,1.51685,0,0.000885,0,0
0:0:13.736,11.9079,1.51685,0,0.000885,0,0
0:0:13.836,12.1392,1.54443,0,0.000885,0,0
0:0:13.937,12.0235,1.53064,0,0.000885,0,0
0:0:14.037,12.0235,1.53064,0,0.000885,0,0
0:0:14.135,11.9657,1.52374,0,0.000885,0,0
0:0:14.233,11.7878,1.50306,0,0.000885,0,0
0:0:14.333,11.4364,1.45479,0,0.000885,0,0
0:0:14.433,11.4364,1.45479,0,0.000885,0,0
0:0:14.532,11.2629,1.43411,0,0.000885,0,0
0:0:14.630,11.2006,1.42721,0,0.000885,0,0
0:0:14.728,10.9693,1.39964,0,0.000885,0,0
0:0:14.827,10.9693,1.39964,0,0.000885,0,0
0:0:14.929,10.9693,1.39964,0,0.000885,0,0
0:0:15.029,10.7336,1.36516,0,0.000885,0,0
0:0:15.127,10.7336,1.36516,0,0.000885,0,0
0:0:15.224,10.5556,1.34448,0,0.000885,0,0
0:0:15.325,10.3821,1.32379,0,0.000885,0,0
0:0:15.424,10.44,1.33069,0,0.000885,0,0
0:0:15.524,10.44,1.33069,0,0.000885,0,0
0:0:15.621,10.7336,1.36516,0,0.000885,0,0
0:0:15.719,10.9693,1.39964,0,0.000885,0,0
0:0:15.819,10.6757,1.35827,0,0.000885,0,0
0:0:15.920,10.6757,1.35827,0,0.000885,0,0
0:0:16.020,10.6757,1.35827,0,0.000885,0,0
0:0:16.119,10.7336,1.36516,0,0.000885,0,0
0:0:16.216,11.1428,1.42032,0,0.000885,0,0
0:0:16.316,11.1428,1.42032,0,0.000885,0,0
0:0:16.417,11.2006,1.42721,0,0.000885,0,0
0:0:16.518,11.8456,1.50995,0,0.000885,0,0
0:0:16.614,11.8456,1.50995,0,0.000885,0,0
0:0:16.711,11.8456,1.50995,0,0.000885,0,0
0:0:16.809,11.085,1.41343,0,0.000885,0,0
0:0:16.911,11.2629,1.43411,0,0.000885,0,0
0:0:17.011,11.2629,1.43411,0,0.000885,0,0
0:0:17.111,11.9079,1.51685,0,0.000885,0,0
0:0:17.208,11.7878,1.50306,0,0.000885,0,0
0:0:17.316,11.4942,1.46169,0,0.000885,0,0
0:0:17.418,11.4942,1.46169,0,0.000885,0,0
0:0:17.518,11.4942,1.46169,0,0.000885,0,0
0:0:17.618,12.1392,1.54443,0,0.000885,0,0
0:0:17.716,12.5529,1.59958,0,0.000885,0,0
0:0:17.812,12.5529,1.59958,0,0.000885,0,0
0:0:17.912,12.4906,1.59269,0,0.000885,0,0
0:0:18.014,12.5529,1.59958,0,0.000885,0,0
0:0:18.114,13.4292,1.7099,0,0.000885,0,0
0:0:18.211,13.4292,1.7099,0,0.000885,0,0
0:0:18.319,13.4915,1.71679,0,0.000885,0,0
0:0:18.420,13.6649,1.73748,0,0.000885,0,0
0:0:18.520,14.1943,1.80643,0,0.000885,0,0
0:0:18.621,14.1943,1.80643,0,0.000885,0,0
0:0:18.722,15.3686,1.95811,0,0.000885,0,0
0:0:18.824,15.2485,1.94432,0,0.000885,0,0
0:0:18.926,15.5999,1.98569,0,0.000885,0,0
0:0:19.027,15.5999,1.98569,0,0.000885,0,0
0:0:19.128,16.0714,2.04774,0,0.000885,0,0
0:0:19.230,16.0136,2.04085,0,0.000885,0,0
0:0:19.330,16.4228,2.08911,0,0.000885,0,0
0:0:19.431,16.4228,2.08911,0,0.000885,0,0
0:0:19.532,16.8321,2.14427,0,0.000885,0,0
0:0:19.634,17.0678,2.17185,0,0.000885,0,0
0:0:19.734,17.3036,2.20632,0,0.000885,0,0
0:0:19.835,17.3036,2.20632,0,0.000885,0,0
0:0:19.936,17.655,2.24769,0,0.000885,0,0
0:0:20.037,17.4771,2.22701,0,0.000885,0,0
0:0:20.137,18.0642,2.30285,0,0.000885,0,0
0:0:20.235,18.0642,2.30285,0,0.000885,0,0
0:0:20.334,18.8249,2.39938,0,0.000885,0,0
0:0:20.434,18.5357,2.35801,0,0.000885,0,0
0:0:20.535,18.945,2.41317,0,0.000885,0,0
0:0:20.636,18.945,2.41317,0,0.000885,0,0
0:0:20.734,19.5321,2.48901,0,0.000885,0,0
0:0:20.830,19.4699,2.48211,0,0.000885,0,0
0:0:20.929,19.4699,2.48211,0,0.000885,0,0
0:0:21.031,20.1771,2.57174,0,0.000885,0,0
0:0:21.131,20.3506,2.59243,0,0.000885,0,0
0:0:21.231,20.5285,2.61311,0,0.000885,0,0
0:0:21.330,20.5285,2.61311,0,0.000885,0,0
0:0:21.427,20.8221,2.64759,0,0.000885,0,0
0:0:21.529,21.6406,2.7579,0,0.000885,0,0
0:0:21.630,21.347,2.71653,0,0.000885,0,0
0:0:21.729,21.347,2.71653,0,0.000885,0,0
0:0:21.827,21.992,2.79927,0,0.000885,0,0
0:0:21.924,22.1121,2.81306,0,0.000885,0,0
0:0:22.024,22.1121,2.81306,0,0.000885,0,0
0:0:22.125,22.7571,2.8958,0,0.000885,0,0
0:0:22.226,22.8728,2.90959,0,0.000885,0,0
0:0:22.324,23.0507,2.93717,0,0.000885,0,0
0:0:22.422,23.0507,2.93717,0,0.000885,0,0
0:0:22.523,23.3443,2.97164,0,0.000885,0,0
0:0:22.624,23.4599,2.98543,0,0.000885,0,0
0:0:22.725,23.6378,3.00611,0,0.000885,0,0
0:0:22.822,23.6378,3.00611,0,0.000885,0,0
0:0:22.921,24.1049,3.06817,0,0.000885,0,0
0:0:23.020,24.2206,3.08196,0,0.000885,0,0
0:0:23.121,24.3407,3.09575,0,0.000885,0,0
0:0:23.221,24.3407,3.09575,0,0.000885,0,0
0:0:23.320,24.6921,3.14401,0,0.000885,0,0
0:0:23.419,25.2214,3.21296,0,0.000885,0,0
0:0:23.518,25.4527,3.24054,0,0.000885,0,0
0:0:23.619,25.4527,3.24054,0,0.000885,0,0
0:0:23.720,25.8041,3.2888,0,0.000885,0,0
0:0:23.821,26.5692,3.38533,0,0.000885,0,0
0:0:23.922,26.5692,3.38533,0,0.000885,0,0
0:0:24.025,26.5692,3.38533,0,0.000885,0,0
0:0:24.126,26.805,3.4129,0,0.000885,0,0
0:0:24.227,26.5692,3.38533,0,0.000885,0,0
0:0:24.329,26.9206,3.42669,0,0.000885,0,0
0:0:24.430,26.9206,3.42669,0,0.000885,0,0
0:0:24.531,27.3299,3.48185,0,0.000885,0,0
0:0:24.632,27.7436,3.53012,0,0.000885,0,0
0:0:24.733,27.9749,3.56459,0,0.000885,0,0
0:0:24.832,27.9749,3.56459,0,0.000885,0,0
0:0:24.934,28.2106,3.59217,0,0.000885,0,0
0:0:25.035,28.2684,3.59906,0,0.000885,0,0
0:0:25.136,28.7978,3.66801,0,0.000885,0,0
0:0:25.236,28.7978,3.66801,0,0.000885,0,0
0:0:25.336,28.74,3.66112,0,0.000885,0,0
0:0:25.432,28.5042,3.62664,0,0.000885,0,0
0:0:25.529,28.5042,3.62664,0,0.000885,0,0
0:0:25.630,29.0914,3.70248,0,0.000885,0,0
0:0:25.732,29.385,3.74385,0,0.000885,0,0
0:0:25.833,29.7364,3.78522,0,0.000885,0,0
0:0:25.931,29.7364,3.78522,0,0.000885,0,0
0:0:26.029,29.9098,3.80591,0,0.000885,0,0
0:0:26.129,30.0878,3.83349,0,0.000885,0,0
0:0:26.230,30.4392,3.87485,0,0.000885,0,0
0:0:26.331,30.4392,3.87485,0,0.000885,0,0
0:0:26.429,30.6749,3.90243,0,0.000885,0,0
0:0:26.527,31.0263,3.9507,0,0.000885,0,0
0:0:26.626,31.0263,3.9507,0,0.000885,0,0
0:0:26.727,31.5557,4.01964,0,0.000885,0,0
0:0:26.828,31.9071,4.06101,0,0.000885,0,0
0:0:26.928,31.8493,4.05412,0,0.000885,0,0
0:0:27.025,31.8493,4.05412,0,0.000885,0,0
0:0:27.123,31.8493,4.05412,0,0.000885,0,0
0:0:27.224,32.3163,4.11617,0,0.000885,0,0
0:0:27.326,32.5521,4.14375,0,0.000885,0,0
0:0:27.423,32.5521,4.14375,0,0.000885,0,0
0:0:27.520,33.0191,4.2058,0,0.000885,0,0
0:0:27.619,33.4907,4.26096,0,0.000885,0,0
0:0:27.721,33.5485,4.27475,0,0.000885,0,0
0:0:27.821,33.5485,4.27475,0,0.000885,0,0
0:0:27.921,33.7842,4.30233,0,0.000885,0,0
0:0:28.019,33.722,4.29543,0,0.000885,0,0
0:0:28.117,34.1357,4.3437,0,0.000885,0,0
0:0:28.217,34.1357,4.3437,0,0.000885,0,0
0:0:28.319,34.3091,4.37128,0,0.000885,0,0
0:0:28.419,34.6605,4.41264,0,0.000885,0,0
0:0:28.517,34.6605,4.41264,0,0.000885,0,0
0:0:28.612,35.2477,4.48849,0,0.000885,0,0
0:0:28.714,35.5991,4.52986,0,0.000885,0,0
0:0:28.815,35.5991,4.52986,0,0.000885,0,0
0:0:28.916,35.5991,4.52986,0,0.000885,0,0
0:0:29.017,35.8349,4.56433,0,0.000885,0,0
0:0:29.118,35.7192,4.55054,0,0.000885,0,0
0:0:29.220,36.2441,4.61259,0,0.000885,0,0
0:0:29.322,36.2441,4.61259,0,0.000885,0,0
0:0:29.423,36.6578,4.66775,0,0.000885,0,0
0:0:29.525,36.9514,4.70222,0,0.000885,0,0
0:0:29.624,37.067,4.72291,0,0.000885,0,0
0:0:29.725,37.067,4.72291,0,0.000885,0,0
0:0:29.826,37.3606,4.75738,0,0.000885,0,0
0:0:29.929,37.4763,4.77117,0,0.000885,0,0
0:0:30.028,38.1835,4.8608,0,0.000885,0,0
0:0:30.129,38.1835,4.8608,0,0.000885,0,0
0:0:30.229,38.1213,4.85391,0,0.000885,0,0
0:0:30.331,38.2992,4.87459,0,0.000885,0,0
0:0:30.432,38.7084,4.92975,0,0.000885,0,0
0:0:30.531,38.7084,4.92975,0,0.000885,0,0
0:0:30.629,38.8285,4.94354,0,0.000885,0,0
0:0:30.729,39.0598,4.97112,0,0.000885,0,0
0:0:30.829,39.5313,5.03317,0,0.000885,0,0
0:0:30.930,39.5313,5.03317,0,0.000885,0,0
0:0:31.030,40.0562,5.10212,0,0.000885,0,0
0:0:31.127,40.2342,5.1228,0,0.000885,0,0
0:0:31.226,40.2342,5.1228,0,0.000885,0,0
0:0:31.328,40.6434,5.17796,0,0.000885,0,0
0:0:31.428,40.7635,5.19175,0,0.000885,0,0
0:0:31.527,41.1149,5.23312,0,0.000885,0,0
0:0:31.625,41.1149,5.23312,0,0.000885,0,0
0:0:31.723,41.2306,5.24691,0,0.000885,0,0
0:0:31.824,41.2884,5.25381,0,0.000885,0,0
0:0:31.926,41.4663,5.28138,0,0.000885,0,0
0:0:32.026,41.4663,5.28138,0,0.000885,0,0
0:0:32.124,41.7021,5.30896,0,0.000885,0,0
0:0:32.221,42.3471,5.3917,0,0.000885,0,0
0:0:32.324,42.4627,5.40549,0,0.000885,0,0
0:0:32.424,42.4627,5.40549,0,0.000885,0,0
0:0:32.524,42.8141,5.45375,0,0.000885,0,0
0:0:32.622,43.1077,5.48823,0,0.000885,0,0
0:0:32.719,43.4591,5.53649,0,0.000885,0,0
0:0:32.819,43.4591,5.53649,0,0.000885,0,0
0:0:32.920,43.8684,5.58475,0,0.000885,0,0
0:0:33.021,43.9885,5.59854,0,0.000885,0,0
0:0:33.120,43.9885,5.59854,0,0.000885,0,0
0:0:33.217,44.1041,5.61233,0,0.000885,0,0
0:0:33.318,44.6335,5.68128,0,0.000885,0,0
0:0:33.419,44.7491,5.69507,0,0.000885,0,0
0:0:33.519,44.7491,5.69507,0,0.000885,0,0
0:0:33.617,44.7491,5.69507,0,0.000885,0,0
0:0:33.713,45.2784,5.76402,0,0.000885,0,0
0:0:33.812,45.2784,5.76402,0,0.000885,0,0
0:0:33.913,45.2784,5.76402,0,0.000885,0,0
0:0:34.015,45.8656,5.83986,0,0.000885,0,0
0:0:34.116,45.8656,5.83986,0,0.000885,0,0
0:0:34.217,46.217,5.88123,0,0.000885,0,0
0:0:34.319,46.217,5.88123,0,0.000885,0,0
0:0:34.421,46.3905,5.90881,0,0.000885,0,0
0:0:34.521,46.2748,5.89502,0,0.000885,0,0
0:0:34.622,46.9777,5.98465,0,0.000885,0,0
0:0:34.723,46.9777,5.98465,0,0.000885,0,0
0:0:34.824,47.2134,6.01223,0,0.000885,0,0
0:0:34.925,47.4492,6.03981,0,0.000885,0,0
0:0:35.027,47.8584,6.09497,0,0.000885,0,0
0:0:35.126,47.8584,6.09497,0,0.000885,0,0
0:0:35.227,48.0363,6.11565,0,0.000885,0,0
0:0:35.328,48.3299,6.15012,0,0.000885,0,0
0:0:35.428,48.5034,6.1777,0,0.000885,0,0
0:0:35.530,48.5034,6.1777,0,0.000885,0,0
0:0:35.631,48.6813,6.19839,0,0.000885,0,0
0:0:35.728,48.6191,6.19149,0,0.000885,0,0
0:0:35.825,48.6191,6.19149,0,0.000885,0,0
0:0:35.927,49.442,6.29491,0,0.000885,0,0
0:0:36.028,49.442,6.29491,0,0.000885,0,0
0:0:36.128,49.9135,6.35697,0,0.000885,0,0
0:0:36.225,49.9135,6.35697,0,0.000885,0,0
0:0:36.324,50.1448,6.38455,0,0.000885,0,0
0:0:36.424,49.9135,6.35697,0,0.000885,0,0
0:0:36.526,50.6741,6.45349,0,0.000885,0,0
0:0:36.626,50.6741,6.45349,0,0.000885,0,0
0:0:36.722,51.0834,6.50176,0,0.000885,0,0
0:0:36.820,51.377,6.54312,0,0.000885,0,0
0:0:36.920,51.6127,6.5707,0,0.000885,0,0
0:0:37.022,51.6127,6.5707,0,0.000885,0,0
0:0:37.122,51.4348,6.55002,0,0.000885,0,0
0:0:37.220,51.8485,6.59828,0,0.000885,0,0
0:0:37.318,51.8485,6.59828,0,0.000885,0,0
0:0:37.417,51.8485,6.59828,0,0.000885,0,0
0:0:37.519,52.4935,6.68102,0,0.000885,0,0
0:0:37.620,52.3734,6.66723,0,0.000885,0,0
0:0:37.718,52.3734,6.66723,0,0.000885,0,0
0:0:37.815,52.8449,6.72928,0,0.000885,0,0
0:0:37.912,53.432,6.80513,0,0.000885,0,0
0:0:38.016,53.7834,6.84649,0,0.000885,0,0
0:0:38.116,53.7834,6.84649,0,0.000885,0,0
0:0:38.215,53.8991,6.86028,0,0.000885,0,0
0:0:38.312,54.3083,6.91544,0,0.000885,0,0
0:0:38.411,54.1349,6.89476,0,0.000885,0,0
0:0:38.512,54.1349,6.89476,0,0.000885,0,0
0:0:38.614,54.722,6.9706,0,0.000885,0,0
0:0:38.715,55.1313,7.01886,0,0.000885,0,0
0:0:38.816,55.1891,7.02576,0,0.000885,0,0
0:0:38.918,55.1891,7.02576,0,0.000885,0,0
0:0:39.019,55.0734,7.01197,0,0.000885,0,0
0:0:39.121,56.012,7.12918,0,0.000885,0,0
0:0:39.222,56.0698,7.13607,0,0.000885,0,0
0:0:39.323,56.0698,7.13607,0,0.000885,0,0
0:0:39.425,56.1277,7.14986,0,0.000885,0,0
0:0:39.525,56.8305,7.2395,0,0.000885,0,0
0:0:39.625,56.9506,7.25328,0,0.000885,0,0
0:0:39.725,56.9506,7.25328,0,0.000885,0,0
0:0:39.826,57.4755,7.31534,0,0.000885,0,0
0:0:39.927,57.3598,7.30155,0,0.000885,0,0
0:0:40.029,57.4755,7.31534,0,0.000885,0,0
0:0:40.129,57.4755,7.31534,0,0.000885,0,0
0:0:40.230,58.1827,7.40497,0,0.000885,0,0
0:0:40.327,58.1827,7.40497,0,0.000885,0,0
0:0:40.424,58.1827,7.40497,0,0.000885,0,0
0:0:40.525,58.6498,7.46702,0,0.000885,0,0
0:0:40.626,58.8856,7.4946,0,0.000885,0,0
0:0:40.726,59.1791,7.53597,0,0.000885,0,0
0:0:40.825,59.1791,7.53597,0,0.000885,0,0
0:0:40.922,59.6462,7.59113,0,0.000885,0,0
0:0:41.022,59.5305,7.57734,0,0.000885,0,0
0:0:41.123,59.8241,7.61871,0,0.000885,0,0
0:0:41.224,59.8241,7.61871,0,0.000885,0,0
0:0:41.322,60.0599,7.64629,0,0.000885,0,0
0:0:41.419,59.8241,7.61871,0,0.000885,0,0
0:0:41.519,60.4691,7.70144,0,0.000885,0,0
0:0:41.619,60.4691,7.70144,0,0.000885,0,0
0:0:41.720,60.2334,7.66697,0,0.000885,0,0
0:0:41.821,60.9985,7.7635,0,0.000885,0,0
0:0:41.918,61.2876,7.80487,0,0.000885,0,0
0:0:42.016,61.2876,7.80487,0,0.000885,0,0
0:0:42.118,61.2876,7.80487,0,0.000885,0,0
0:0:42.219,61.7013,7.85313,0,0.000885,0,0
0:0:42.318,61.7591,7.86002,0,0.000885,0,0
0:0:42.414,61.7591,7.86002,0,0.000885,0,0
0:0:42.512,62.4041,7.94276,0,0.000885,0,0
0:0:42.615,62.5198,7.96344,0,0.000885,0,0
0:0:42.715,62.5198,7.96344,0,0.000885,0,0
0:0:42.816,62.8712,8.00481,0,0.000885,0,0
0:0:42.912,63.4005,8.07376,0,0.000885,0,0
0:0:43.020,63.1647,8.03929,0,0.000885,0,0
0:0:43.120,63.1647,8.03929,0,0.000885,0,0
0:0:43.222,63.4005,8.07376,0,0.000885,0,0
0:0:43.322,64.0455,8.1565,0,0.000885,0,0
0:0:43.419,64.0455,8.1565,0,0.000885,0,0
0:0:43.516,64.0455,8.1565,0,0.000885,0,0
0:0:43.616,64.2234,8.17718,0,0.000885,0,0
0:0:43.718,64.6327,8.23234,0,0.000885,0,0
0:0:43.819,65.162,8.29439,0,0.000885,0,0
0:0:43.919,65.162,8.29439,0,0.000885,0,0
0:0:44.021,65.162,8.29439,0,0.000885,0,0
0:0:44.123,65.9226,8.39092,0,0.000885,0,0
0:0:44.225,66.1584,8.42539,0,0.000885,0,0
0:0:44.325,66.1584,8.42539,0,0.000885,0,0
0:0:44.425,66.1006,8.4185,0,0.000885,0,0
0:0:44.526,66.1584,8.42539,0,0.000885,0,0
0:0:44.627,66.5098,8.46676,0,0.000885,0,0
0:0:44.728,66.5098,8.46676,0,0.000885,0,0
0:0:44.830,67.2126,8.55639,0,0.000885,0,0
0:0:44.929,67.1548,8.5495,0,0.000885,0,0
0:0:45.031,67.8576,8.63913,0,0.000885,0,0
0:0:45.130,67.8576,8.63913,0,0.000885,0,0
0:0:45.232,67.4484,8.59087,0,0.000885,0,0
0:0:45.332,67.9154,8.64603,0,0.000885,0,0
0:0:45.432,68.1512,8.6805,0,0.000885,0,0
0:0:45.530,68.1512,8.6805,0,0.000885,0,0
0:0:45.629,68.5026,8.72187,0,0.000885,0,0
0:0:45.730,68.5026,8.72187,0,0.000885,0,0
0:0:45.830,68.5026,8.72187,0,0.000885,0,0
0:0:45.930,68.5604,8.72876,0,0.000885,0,0
0:0:46.028,69.0898,8.79771,0,0.000885,0,0
0:0:46.127,69.0898,8.79771,0,0.000885,0,0
0:0:46.228,69.0898,8.79771,0,0.000885,0,0
0:0:46.329,69.9127,8.90113,0,0.000885,0,0
0:0:46.428,70.3798,8.96318,0,0.000885,0,0
0:0:46.526,70.4999,8.97697,0,0.000885,0,0
0:0:46.623,70.4999,8.97697,0,0.000885,0,0
0:0:46.726,70.6733,8.99766,0,0.000885,0,0
0:0:46.827,71.0826,9.05282,0,0.000885,0,0
0:0:46.927,71.2027,9.06661,0,0.000885,0,0
0:0:47.025,71.2027,9.06661,0,0.000885,0,0
0:0:47.124,71.7898,9.14245,0,0.000885,0,0
0:0:47.225,71.6697,9.12866,0,0.000885,0,0
0:0:47.326,72.2569,9.19761,0,0.000885,0,0
0:0:47.424,72.2569,9.19761,0,0.000885,0,0
0:0:47.521,72.3147,9.2045,0,0.000885,0,0
0:0:47.619,72.8441,9.27345,0,0.000885,0,0
0:0:47.720,72.8441,9.27345,0,0.000885,0,0
0:0:47.820,72.8441,9.27345,0,0.000885,0,0
0:0:47.920,72.7284,9.25966,0,0.000885,0,0
0:0:48.019,73.022,9.29413,0,0.000885,0,0
0:0:48.117,73.022,9.29413,0,0.000885,0,0
0:0:48.219,73.1377,9.31482,0,0.000885,0,0
0:0:48.319,73.6047,9.36998,0,0.000885,0,0
0:0:48.419,73.4312,9.34929,0,0.000885,0,0
0:0:48.517,73.4312,9.34929,0,0.000885,0,0
0:0:48.613,74.1341,9.43892,0,0.000885,0,0
0:0:48.715,74.6056,9.50098,0,0.000885,0,0
0:0:48.816,74.5433,9.49408,0,0.000885,0,0
0:0:48.916,74.5433,9.49408,0,0.000885,0,0
0:0:49.019,75.1883,9.57682,0,0.000885,0,0
0:0:49.119,75.424,9.6044,0,0.000885,0,0
0:0:49.221,75.3084,9.59061,0,0.000885,0,0
0:0:49.322,75.3084,9.59061,0,0.000885,0,0
0:0:49.423,75.5397,9.61819,0,0.000885,0,0
0:0:49.524,76.069,9.68713,0,0.000885,0,0
0:0:49.626,76.4204,9.7285,0,0.000885,0,0
0:0:49.725,76.4204,9.7285,0,0.000885,0,0
0:0:49.827,76.5405,9.74229,0,0.000885,0,0
0:0:49.928,76.9498,9.79745,0,0.000885,0,0
0:0:50.029,76.9498,9.79745,0,0.000885,0,0
0:0:50.129,76.892,9.79056,0,0.000885,0,0
0:0:50.231,77.4168,9.8595,0,0.000885,0,0
0:0:50.332,78.004,9.93535,0,0.000885,0,0
0:0:50.433,78.004,9.93535,0,0.000885,0,0
0:0:50.530,78.004,9.93535,0,0.000885,0,0
0:0:50.627,78.3554,9.97671,0,0.000885,0,0
0:0:50.729,78.5912,10.0043,0,0.000885,0,0
0:0:50.829,78.5912,10.0043,0,0.000885,0,0
0:0:50.930,78.8848,10.0457,0,0.000885,0,0
0:0:51.028,79.3563,10.1008,0,0.000885,0,0
0:0:51.125,79.4719,10.1215,0,0.000885,0,0
0:0:51.225,79.4719,10.1215,0,0.000885,0,0
0:0:51.327,80.1169,10.1973,0,0.000885,0,0
0:0:51.428,79.8812,10.1698,0,0.000885,0,0
0:0:51.527,80.2904,10.2249,0,0.000885,0,0
0:0:51.623,80.2904,10.2249,0,0.000885,0,0
0:0:51.723,80.4105,10.2387,0,0.000885,0,0
0:0:51.824,80.8776,10.3008,0,0.000885,0,0
0:0:51.926,80.8197,10.287,0,0.000885,0,0
0:0:52.024,80.8197,10.287,0,0.000885,0,0
0:0:52.121,81.4069,10.3628,0,0.000885,0,0
0:0:52.219,81.229,10.3421,0,0.000885,0,0
0:0:52.320,81.229,10.3421,0,0.000885,0,0
0:0:52.421,81.7583,10.4111,0,0.000885,0,0
0:0:52.522,82.0519,10.4456,0,0.000885,0,0
0:0:52.620,82.6391,10.5214,0,0.000885,0,0
0:0:52.717,82.6391,10.5214,0,0.000885,0,0
0:0:52.817,82.3455,10.4869,0,0.000885,0,0
0:0:52.919,82.9326,10.5559,0,0.000885,0,0
0:0:53.019,82.6969,10.5283,0,0.000885,0,0
0:0:53.116,82.6969,10.5283,0,0.000885,0,0
0:0:53.223,83.3997,10.6179,0,0.000885,0,0
0:0:53.323,83.3997,10.6179,0,0.000885,0,0
0:0:53.424,83.8134,10.6731,0,0.000885,0,0
0:0:53.524,83.8134,10.6731,0,0.000885,0,0
0:0:53.622,84.0447,10.7007,0,0.000885,0,0
0:0:53.720,84.752,10.7903,0,0.000885,0,0
0:0:53.821,84.5162,10.7627,0,0.000885,0,0
0:0:53.921,84.5162,10.7627,0,0.000885,0,0
0:0:54.022,85.1034,10.8386,0,0.000885,0,0
0:0:54.124,85.219,10.8523,0,0.000885,0,0
0:0:54.226,85.7484,10.9144,0,0.000885,0,0
0:0:54.328,85.7484,10.9144,0,0.000885,0,0
0:0:54.430,85.5126,10.8868,0,0.000885,0,0
0:0:54.530,86.3355,10.9902,0,0.000885,0,0
0:0:54.631,86.2733,10.9833,0,0.000885,0,0
0:0:54.732,86.2733,10.9833,0,0.000885,0,0
0:0:54.833,86.5668,11.0247,0,0.000885,0,0
0:0:54.934,86.8026,11.0523,0,0.000885,0,0
0:0:55.035,87.0384,11.0799,0,0.000885,0,0
0:0:55.136,87.0384,11.0799,0,0.000885,0,0
0:0:55.237,86.9805,11.073,0,0.000885,0,0
0:0:55.338,87.3898,11.1281,0,0.000885,0,0
0:0:55.438,87.3898,11.1281,0,0.000885,0,0
0:0:55.539,87.3319,11.1212,0,0.000885,0,0
0:0:55.638,88.0348,11.2109,0,0.000885,0,0
0:0:55.736,87.8568,11.1833,0,0.000885,0,0
0:0:55.834,87.8568,11.1833,0,0.000885,0,0
0:0:55.936,88.5641,11.2729,0,0.000885,0,0
0:0:56.037,88.8577,11.3143,0,0.000885,0,0
0:0:56.135,88.7954,11.3074,0,0.000885,0,0
0:0:56.232,88.7954,11.3074,0,0.000885,0,0
0:0:56.331,89.4404,11.3901,0,0.000885,0,0
0:0:56.433,90.0276,11.466,0,0.000885,0,0
0:0:56.534,89.6183,11.4108,0,0.000885,0,0
0:0:56.632,89.6183,11.4108,0,0.000885,0,0
0:0:56.730,90.379,11.5073,0,0.000885,0,0
0:0:56.829,91.024,11.5901,0,0.000885,0,0
0:0:56.930,91.024,11.5901,0,0.000885,0,0
0:0:57.031,90.6725,11.5418,0,0.000885,0,0
0:0:57.130,91.1441,11.6039,0,0.000885,0,0
0:0:57.228,91.3175,11.6246,0,0.000885,0,0
0:0:57.325,91.3175,11.6246,0,0.000885,0,0
0:0:57.426,92.0826,11.7211,0,0.000885,0,0
0:0:57.527,92.1983,11.7418,0,0.000885,0,0
0:0:57.627,92.7276,11.8038,0,0.000885,0,0
0:0:57.725,92.7276,11.8038,0,0.000885,0,0
0:0:57.823,92.4919,11.7762,0,0.000885,0,0
0:0:57.923,93.0212,11.8452,0,0.000885,0,0
0:0:58.025,93.5461,11.9141,0,0.000885,0,0
0:0:58.125,93.5461,11.9141,0,0.000885,0,0
0:0:58.222,93.724,11.9348,0,0.000885,0,0
0:0:58.319,93.6662,11.9279,0,0.000885,0,0
0:0:58.419,94.1333,11.9831,0,0.000885,0,0
0:0:58.520,94.1333,11.9831,0,0.000885,0,0
0:0:58.621,93.6662,11.9279,0,0.000885,0,0
0:0:58.721,94.2534,12.0038,0,0.000885,0,0
0:0:58.822,94.2534,12.0038,0,0.000885,0,0
0:0:58.924,94.1333,11.9831,0,0.000885,0,0
0:0:59.026,95.0718,12.1072,0,0.000885,0,0
0:0:59.127,95.2498,12.1279,0,0.000885,0,0
0:0:59.228,95.2498,12.1279,0,0.000885,0,0
0:0:59.328,95.6012,12.1692,0,0.000885,0,0
0:0:59.429,96.0104,12.2244,0,0.000885,0,0
0:0:59.530,96.0104,12.2244,0,0.000885,0,0
0:0:59.631,96.0104,12.2244,0,0.000885,0,0
0:0:59.732,96.0682,12.2313,0,0.000885,0,0
0:0:59.831,96.1883,12.2451,0,0.000885,0,0
0:0:59.932,96.7132,12.314,0,0.000885,0,0
0:1:0.034,97.1269,12.3692,0,0.000885,0,0
0:1:0.134,97.1269,12.3692,0,0.000885,0,0
0:1:0.235,96.8912,12.3347,0,0.000885,0,0
0:1:0.333,97.3004,12.3899,0,0.000885,0,0
0:1:0.430,97.3004,12.3899,0,0.000885,0,0
0:1:0.532,97.6518,12.4312,0,0.000885,0,0
0:1:0.632,97.2426,12.383,0,0.000885,0,0
0:1:0.731,98.0655,12.4864,0,0.000885,0,0
0:1:0.830,98.0655,12.4864,0,0.000885,0,0
0:1:0.928,98.4169,12.5278,0,0.000885,0,0
0:1:1.029,98.1811,12.5002,0,0.000885,0,0
0:1:1.130,98.3591,12.5209,0,0.000885,0,0
0:1:1.229,98.3591,12.5209,0,0.000885,0,0
0:1:1.327,98.5326,12.5485,0,0.000885,0,0
0:1:1.425,99.2932,12.645,0,0.000885,0,0
0:1:1.525,99.1775,12.6243,0,0.000885,0,0
0:1:1.626,99.1775,12.6243,0,0.000885,0,0
0:1:1.726,99.5868,12.6795,0,0.000885,0,0
0:1:1.824,99.7647,12.7001,0,0.000885,0,0
0:1:1.922,99.7647,12.7001,0,0.000885,0,0
0:1:2.023,100.294,12.7691,0,0.000885,0,0
0:1:2.125,101.055,12.8656,0,0.000885,0,0
0:1:2.224,101.113,12.8725,0,0.000885,0,0
0:1:2.321,101.113,12.8725,0,0.000885,0,0
0:1:2.418,101.526,12.9277,0,0.000885,0,0
0:1:2.520,101.758,12.9552,0,0.000885,0,0
0:1:2.620,101.233,12.8863,0,0.000885,0,0
0:1:2.721,101.233,12.8863,0,0.000885,0,0
0:1:2.818,102.345,13.0311,0,0.000885,0,0
0:1:2.916,102.58,13.0587,0,0.000885,0,0
0:1:3.017,102.46,13.0449,0,0.000885,0,0
0:1:3.118,102.46,13.0449,0,0.000885,0,0
0:1:3.219,103.399,13.1621,0,0.000885,0,0
0:1:3.317,103.048,13.1207,0,0.000885,0,0
0:1:3.424,103.519,13.1828,0,0.000885,0,0
0:1:3.523,103.519,13.1828,0,0.000885,0,0
0:1:3.624,104.044,13.2448,0,0.000885,0,0
0:1:3.724,104.222,13.2724,0,0.000885,0,0
0:1:3.825,104.222,13.2724,0,0.000885,0,0
0:1:3.929,104.631,13.3207,0,0.000885,0,0
0:1:4.029,104.573,13.3138,0,0.000885,0,0
0:1:4.131,104.925,13.362,0,0.000885,0,0
0:1:4.231,105.16,13.3896,0,0.000885,0,0
0:1:4.332,105.16,13.3896,0,0.000885,0,0
0:1:4.433,105.512,13.431,0,0.000885,0,0
0:1:4.534,105.921,13.4861,0,0.000885,0,0
0:1:4.636,106.157,13.5137,0,0.000885,0,0
0:1:4.736,106.157,13.5137,0,0.000885,0,0
0:1:4.837,106.393,13.5482,0,0.000885,0,0
0:1:4.938,106.922,13.6103,0,0.000885,0,0
0:1:5.039,106.922,13.6103,0,0.000885,0,0
0:1:5.141,106.98,13.624,0,0.000885,0,0
0:1:5.241,106.686,13.5827,0,0.000885,0,0
0:1:5.341,106.744,13.5896,0,0.000885,0,0
0:1:5.437,106.744,13.5896,0,0.000885,0,0
0:1:5.539,107.153,13.6447,0,0.000885,0,0
0:1:5.639,107.447,13.6792,0,0.000885,0,0
0:1:5.740,108.034,13.755,0,0.000885,0,0
0:1:5.838,108.034,13.755,0,0.000885,0,0
0:1:5.935,107.976,13.7481,0,0.000885,0,0
0:1:6.035,108.505,13.8171,0,0.000885,0,0
0:1:6.136,108.27,13.7826,0,0.000885,0,0
0:1:6.236,108.27,13.7826,0,0.000885,0,0
0:1:6.336,108.795,13.8516,0,0.000885,0,0
0:1:6.434,108.973,13.8723,0,0.000885,0,0
0:1:6.533,109.208,13.9067,0,0.000885,0,0
0:1:6.632,109.208,13.9067,0,0.000885,0,0
0:1:6.734,109.911,13.9964,0,0.000885,0,0
0:1:6.832,109.618,13.955,0,0.000885,0,0
0:1:6.930,109.618,13.955,0,0.000885,0,0
0:1:7.030,110.498,14.0722,0,0.000885,0,0
0:1:7.130,110.672,14.0929,0,0.000885,0,0
0:1:7.231,110.498,14.0722,0,0.000885,0,0
0:1:7.330,110.498,14.0722,0,0.000885,0,0
0:1:7.428,111.61,14.2101,0,0.000885,0,0
0:1:7.528,111.73,14.2239,0,0.000885,0,0
0:1:7.628,111.673,14.217,0,0.000885,0,0
0:1:7.729,111.673,14.217,0,0.000885,0,0
0:1:7.827,111.962,14.2584,0,0.000885,0,0
0:1:7.925,111.904,14.2515,0,0.000885,0,0
0:1:8.024,112.14,14.279,0,0.000885,0,0
0:1:8.124,112.14,14.279,0,0.000885,0,0
0:1:8.225,113.194,14.41,0,0.000885,0,0
0:1:8.326,113.256,14.4169,0,0.000885,0,0
0:1:8.423,113.256,14.4169,0,0.000885,0,0
0:1:8.521,113.314,14.4307,0,0.000885,0,0
0:1:8.621,114.017,14.5204,0,0.000885,0,0
0:1:8.722,113.959,14.5066,0,0.000885,0,0
0:1:8.823,113.959,14.5066,0,0.000885,0,0
0:1:8.923,113.901,14.4997,0,0.000885,0,0
0:1:9.026,114.72,14.61,0,0.000885,0,0
0:1:9.128,114.368,14.5617,0,0.000885,0,0
0:1:9.228,114.368,14.5617,0,0.000885,0,0
0:1:9.330,114.604,14.5893,0,0.000885,0,0
0:1:9.430,115.422,14.6996,0,0.000885,0,0
0:1:9.532,115.716,14.7341,0,0.000885,0,0
0:1:9.632,115.716,14.7341,0,0.000885,0,0
0:1:9.734,115.658,14.7272,0,0.000885,0,0
0:1:9.832,116.423,14.8237,0,0.000885,0,0
0:1:9.933,116.245,14.803,0,0.000885,0,0
0:1:10.035,116.245,14.803,0,0.000885,0,0
0:1:10.136,116.948,14.8927,0,0.000885,0,0
0:1:10.237,116.775,14.8651,0,0.000885,0,0
0:1:10.339,117.242,14.9271,0,0.000885,0,0
0:1:10.437,117.242,14.9271,0,0.000885,0,0
0:1:10.534,117.42,14.9478,0,0.000885,0,0
0:1:10.636,117.42,14.9478,0,0.000885,0,0
0:1:10.736,118.123,15.0375,0,0.000885,0,0
0:1:10.836,118.123,15.0375,0,0.000885,0,0
0:1:10.933,118.123,15.0375,0,0.000885,0,0
0:1:11.031,118.474,15.0857,0,0.000885,0,0
0:1:11.132,118.123,15.0375,0,0.000885,0,0
0:1:11.234,118.123,15.0375,0,0.000885,0,0
0:1:11.333,119.061,15.1616,0,0.000885,0,0
0:1:11.431,119.119,15.1685,0,0.000885,0,0
0:1:11.529,119.119,15.1685,0,0.000885,0,0
0:1:11.630,119.003,15.1547,0,0.000885,0,0
0:1:11.731,119.942,15.2719,0,0.000885,0,0
0:1:11.831,119.355,15.196,0,0.000885,0,0
0:1:11.929,119.355,15.196,0,0.000885,0,0
0:1:12.025,119.822,15.2581,0,0.000885,0,0
0:1:12.126,120.587,15.3546,0,0.000885,0,0
0:1:12.227,120.467,15.3408,0,0.000885,0,0
0:1:12.327,120.467,15.3408,0,0.000885,0,0
0:1:12.426,120.818,15.3822,0,0.000885,0,0
0:1:12.523,121.641,15.4856,0,0.000885,0,0
0:1:12.622,121.583,15.4787,0,0.000885,0,0
0:1:12.723,121.583,15.4787,0,0.000885,0,0
0:1:12.824,121.877,15.5201,0,0.000885,0,0
0:1:12.923,122.286,15.5684,0,0.000885,0,0
0:1:13.020,122.286,15.5684,0,0.000885,0,0
0:1:13.118,122.05,15.5408,0,0.000885,0,0
0:1:13.220,122.695,15.6235,0,0.000885,0,0
0:1:13.321,122.931,15.6511,0,0.000885,0,0
0:1:13.420,122.931,15.6511,0,0.000885,0,0
0:1:13.519,122.695,15.6235,0,0.000885,0,0
0:1:13.617,123.403,15.7132,0,0.000885,0,0
0:1:13.718,123.812,15.7614,0,0.000885,0,0
0:1:13.819,123.812,15.7614,0,0.000885,0,0
0:1:13.919,123.518,15.7269,0,0.000885,0,0
0:1:14.022,124.341,15.8304,0,0.000885,0,0
0:1:14.122,124.986,15.9131,0,0.000885,0,0
0:1:14.224,124.986,15.9131,0,0.000885,0,0
0:1:14.325,124.808,15.8924,0,0.000885,0,0
0:1:14.427,125.453,15.9752,0,0.000885,0,0
0:1:14.528,125.28,15.9476,0,0.000885,0,0
0:1:14.628,125.28,15.9476,0,0.000885,0,0
0:1:14.728,125.453,15.9752,0,0.000885,0,0
0:1:14.830,125.805,16.0165,0,0.000885,0,0
0:1:14.930,125.925,16.0303,0,0.000885,0,0
0:1:15.031,125.925,16.0303,0,0.000885,0,0
0:1:15.131,126.743,16.1406,0,0.000885,0,0
0:1:15.232,126.334,16.0855,0,0.000885,0,0
0:1:15.333,126.57,16.113,0,0.000885,0,0
0:1:15.433,126.57,16.113,0,0.000885,0,0
0:1:15.531,127.388,16.2165,0,0.000885,0,0
0:1:15.629,127.388,16.2165,0,0.000885,0,0
0:1:15.729,127.388,16.2165,0,0.000885,0,0
0:1:15.831,127.152,16.1889,0,0.000885,0,0
0:1:15.931,127.975,16.2923,0,0.000885,0,0
0:1:16.030,128.211,16.3268,0,0.000885,0,0
0:1:16.126,128.211,16.3268,0,0.000885,0,0
0:1:16.225,127.918,16.2854,0,0.000885,0,0
0:1:16.326,128.856,16.4095,0,0.000885,0,0
0:1:16.428,128.914,16.4164,0,0.000885,0,0
0:1:16.526,128.914,16.4164,0,0.000885,0,0
0:1:16.622,128.972,16.4233,0,0.000885,0,0
0:1:16.723,129.617,16.506,0,0.000885,0,0
0:1:16.825,129.968,16.5474,0,0.000885,0,0
0:1:16.925,129.968,16.5474,0,0.000885,0,0
0:1:17.025,129.381,16.4716,0,0.000885,0,0
0:1:17.121,129.852,16.5336,0,0.000885,0,0
0:1:17.219,129.852,16.5336,0,0.000885,0,0
0:1:17.320,130.497,16.6164,0,0.000885,0,0
0:1:17.422,130.849,16.6577,0,0.000885,0,0
0:1:17.522,130.965,16.6784,0,0.000885,0,0
0:1:17.618,130.965,16.6784,0,0.000885,0,0
0:1:17.717,130.733,16.6439,0,0.000885,0,0
0:1:17.818,131.436,16.7336,0,0.000885,0,0
0:1:17.919,131.73,16.7749,0,0.000885,0,0
0:1:18.020,131.73,16.7749,0,0.000885,0,0
0:1:18.117,132.317,16.8439,0,0.000885,0,0
0:1:18.224,132.784,16.9059,0,0.000885,0,0
0:1:18.325,132.668,16.8922,0,0.000885,0,0
0:1:18.426,132.668,16.8922,0,0.000885,0,0
0:1:18.526,132.432,16.8646,0,0.000885,0,0
0:1:18.624,132.842,16.9128,0,0.000885,0,0
0:1:18.721,133.193,16.9611,0,0.000885,0,0
0:1:18.821,133.193,16.9611,0,0.000885,0,0
0:1:18.922,133.78,17.0369,0,0.000885,0,0
0:1:19.024,134.367,17.1059,0,0.000885,0,0
0:1:19.124,134.955,17.1817,0,0.000885,0,0
0:1:19.226,134.955,17.1817,0,0.000885,0,0
0:1:19.328,134.545,17.1335,0,0.000885,0,0
0:1:19.429,134.425,17.1128,0,0.000885,0,0
0:1:19.529,135.012,17.1886,0,0.000885,0,0
0:1:19.631,135.012,17.1886,0,0.000885,0,0
0:1:19.731,135.426,17.2438,0,0.000885,0,0
0:1:19.833,135.893,17.3058,0,0.000885,0,0
0:1:19.933,135.715,17.2783,0,0.000885,0,0
0:1:20.035,135.715,17.2783,0,0.000885,0,0
0:1:20.134,135.657,17.2714,0,0.000885,0,0
0:1:20.235,136.48,17.3748,0,0.000885,0,0
0:1:20.336,137.01,17.4437,0,0.000885,0,0
0:1:20.438,137.01,17.4437,0,0.000885,0,0
0:1:20.538,137.068,17.4506,0,0.000885,0,0
0:1:20.638,136.832,17.4231,0,0.000885,0,0
0:1:20.735,136.947,17.4368,0,0.000885,0,0
0:1:20.832,136.947,17.4368,0,0.000885,0,0
0:1:20.933,137.477,17.5058,0,0.000885,0,0
0:1:21.035,137.944,17.5609,0,0.000885,0,0
0:1:21.135,137.944,17.5609,0,0.000885,0,0
0:1:21.233,138.473,17.6299,0,0.000885,0,0
0:1:21.330,139.176,17.7195,0,0.000885,0,0
0:1:21.431,139.238,17.7264,0,0.000885,0,0
0:1:21.532,139.238,17.7264,0,0.000885,0,0
0:1:21.632,138.825,17.6782,0,0.000885,0,0
0:1:21.729,138.882,17.6851,0,0.000885,0,0
0:1:21.828,139.941,17.8161,0,0.000885,0,0
0:1:21.928,139.941,17.8161,0,0.000885,0,0
0:1:22.029,140.35,17.8712,0,0.000885,0,0
0:1:22.130,140.702,17.9126,0,0.000885,0,0
0:1:22.229,140.292,17.8643,0,0.000885,0,0
0:1:22.326,140.292,17.8643,0,0.000885,0,0
0:1:22.425,140.408,17.8781,0,0.000885,0,0
0:1:22.527,140.937,17.9471,0,0.000885,0,0
0:1:22.627,140.937,17.9471,0,0.000885,0,0
0:1:22.725,141.525,18.016,0,0.000885,0,0
0:1:22.822,141.582,18.0298,0,0.000885,0,0
0:1:22.921,141.347,17.9953,0,0.000885,0,0
0:1:23.022,141.347,17.9953,0,0.000885,0,0
0:1:23.123,141.289,17.9884,0,0.000885,0,0
0:1:23.222,141.992,18.0781,0,0.000885,0,0
0:1:23.321,142.695,18.1677,0,0.000885,0,0
0:1:23.418,142.695,18.1677,0,0.000885,0,0
0:1:23.520,143.108,18.2228,0,0.000885,0,0
0:1:23.621,143.166,18.2297,0,0.000885,0,0
0:1:23.722,143.108,18.2228,0,0.000885,0,0
0:1:23.823,143.108,18.2228,0,0.000885,0,0
0:1:23.926,143.166,18.2297,0,0.000885,0,0
0:1:24.027,143.46,18.2642,0,0.000885,0,0
0:1:24.128,143.989,18.3332,0,0.000885,0,0
0:1:24.228,143.989,18.3332,0,0.000885,0,0
0:1:24.330,144.456,18.3952,0,0.000885,0,0
0:1:24.431,144.514,18.4021,0,0.000885,0,0
0:1:24.532,144.75,18.4297,0,0.000885,0,0
0:1:24.632,144.75,18.4297,0,0.000885,0,0
0:1:24.733,144.865,18.4435,0,0.000885,0,0
0:1:24.833,144.634,18.4159,0,0.000885,0,0
0:1:24.935,145.043,18.4642,0,0.000885,0,0
0:1:25.035,145.043,18.4642,0,0.000885,0,0
0:1:25.135,145.51,18.5262,0,0.000885,0,0
0:1:25.236,145.573,18.5331,0,0.000885,0,0
0:1:25.335,145.924,18.5814,0,0.000885,0,0
0:1:25.432,145.924,18.5814,0,0.000885,0,0
0:1:25.534,146.742,18.6848,0,0.000885,0,0
0:1:25.633,146.685,18.6779,0,0.000885,0,0
0:1:25.734,147.036,18.7193,0,0.000885,0,0
0:1:25.831,147.036,18.7193,0,0.000885,0,0
0:1:25.929,146.978,18.7124,0,0.000885,0,0
0:1:26.028,146.685,18.6779,0,0.000885,0,0
0:1:26.130,146.685,18.6779,0,0.000885,0,0
0:1:26.229,147.214,18.7468,0,0.000885,0,0
0:1:26.329,148.032,18.8503,0,0.000885,0,0
0:1:26.427,148.095,18.8572,0,0.000885,0,0
0:1:26.527,148.095,18.8572,0,0.000885,0,0
0:1:26.628,148.268,18.8778,0,0.000885,0,0
0:1:26.730,149.029,18.9744,0,0.000885,0,0
0:1:26.827,149.029,18.9744,0,0.000885,0,0
0:1:26.924,149.029,18.9744,0,0.000885,0,0
0:1:27.023,148.971,18.9675,0,0.000885,0,0
0:1:27.124,149.029,18.9744,0,0.000885,0,0
0:1:27.225,149.967,19.0916,0,0.000885,0,0
0:1:27.325,149.967,19.0916,0,0.000885,0,0
0:1:27.421,149.736,19.064,0,0.000885,0,0
0:1:27.520,150.497,19.1605,0,0.000885,0,0
0:1:27.621,150.497,19.1605,0,0.000885,0,0
0:1:27.722,150.497,19.1605,0,0.000885,0,0
0:1:27.822,150.555,19.1674,0,0.000885,0,0
0:1:27.920,151.026,19.2295,0,0.000885,0,0
0:1:28.017,151.026,19.2295,0,0.000885,0,0
0:1:28.118,151.084,19.2364,0,0.000885,0,0
0:1:28.219,151.965,19.3467,0,0.000885,0,0
0:1:28.320,152.138,19.3743,0,0.000885,0,0
0:1:28.419,152.138,19.3743,0,0.000885,0,0
0:1:28.526,152.374,19.4018,0,0.000885,0,0
0:1:28.627,152.783,19.4501,0,0.000885,0,0
0:1:28.727,152.667,19.4363,0,0.000885,0,0
0:1:28.828,152.667,19.4363,0,0.000885,0,0
0:1:28.929,153.37,19.526,0,0.000885,0,0
0:1:29.032,153.664,19.5673,0,0.000885,0,0
0:1:29.132,154.309,19.6501,0,0.000885,0,0
0:1:29.234,154.309,19.6501,0,0.000885,0,0
0:1:29.335,154.015,19.6087,0,0.000885,0,0
0:1:29.437,154.718,19.6983,0,0.000885,0,0
0:1:29.537,154.838,19.7121,0,0.000885,0,0
0:1:29.636,154.838,19.7121,0,0.000885,0,0
0:1:29.738,155.305,19.7742,0,0.000885,0,0
0:1:29.839,155.719,19.8293,0,0.000885,0,0
0:1:29.940,155.777,19.8362,0,0.000885,0,0
0:1:30.041,155.777,19.8362,0,0.000885,0,0
0:1:30.141,156.364,19.9121,0,0.000885,0,0
0:1:30.242,156.186,19.8845,0,0.000885,0,0
0:1:30.342,156.07,19.8707,0,0.000885,0,0
0:1:30.440,156.07,19.8707,0,0.000885,0,0
0:1:30.537,156.657,19.9465,0,0.000885,0,0
0:1:30.637,156.012,19.8638,0,0.000885,0,0
0:1:30.739,156.947,19.981,0,0.000885,0,0
0:1:30.840,156.947,19.981,0,0.000885,0,0
0:1:30.938,156.947,19.981,0,0.000885,0,0
0:1:31.037,157.947,20.112,0,0.000885,0,0
0:1:31.135,157.947,20.112,0,0.000885,0,0
0:1:31.236,157.712,20.0775,0,0.000885,0,0
0:1:31.337,158.824,20.2223,0,0.000885,0,0
0:1:31.436,158.65,20.2016,0,0.000885,0,0
0:1:31.533,158.65,20.2016,0,0.000885,0,0
0:1:31.633,159.002,20.243,0,0.000885,0,0
0:1:31.733,159.589,20.3188,0,0.000885,0,0
0:1:31.835,158.944,20.2361,0,0.000885,0,0
0:1:31.935,158.944,20.2361,0,0.000885,0,0
0:1:32.031,160.056,20.3809,0,0.000885,0,0
0:1:32.130,160.114,20.3878,0,0.000885,0,0
0:1:32.230,160.114,20.3878,0,0.000885,0,0
0:1:32.331,160.879,20.4843,0,0.000885,0,0
0:1:32.432,161.346,20.5464,0,0.000885,0,0
0:1:32.529,161.346,20.5464,0,0.000885,0,0
0:1:32.626,161.346,20.5464,0,0.000885,0,0
0:1:32.727,162.053,20.636,0,0.000885,0,0
0:1:32.829,162.929,20.7463,0,0.000885,0,0
0:1:32.930,162.756,20.7256,0,0.000885,0,0
0:1:33.028,162.756,20.7256,0,0.000885,0,0
0:1:33.125,162.992,20.7532,0,0.000885,0,0
0:1:33.224,163.05,20.7601,0,0.000885,0,0
0:1:33.326,163.165,20.7739,0,0.000885,0,0
0:1:33.426,163.165,20.7739,0,0.000885,0,0
0:1:33.525,163.401,20.8015,0,0.000885,0,0
0:1:33.621,163.81,20.8566,0,0.000885,0,0
0:1:33.721,164.219,20.9118,0,0.000885,0,0
0:1:33.823,164.219,20.9118,0,0.000885,0,0
0:1:33.923,164.513,20.9463,0,0.000885,0,0
0:1:34.025,164.282,20.9187,0,0.000885,0,0
0:1:34.124,163.988,20.8773,0,0.000885,0,0
0:1:34.227,163.988,20.8773,0,0.000885,0,0
0:1:34.328,164.513,20.9463,0,0.000885,0,0
0:1:34.430,164.807,20.9807,0,0.000885,0,0
0:1:34.531,165.394,21.0566,0,0.000885,0,0
0:1:34.633,165.394,21.0566,0,0.000885,0,0
0:1:34.733,165.865,21.1186,0,0.000885,0,0
0:1:34.833,165.803,21.1117,0,0.000885,0,0
0:1:34.933,165.394,21.0566,0,0.000885,0,0
0:1:35.033,165.394,21.0566,0,0.000885,0,0
0:1:35.135,165.923,21.1255,0,0.000885,0,0
0:1:35.235,166.568,21.2083,0,0.000885,0,0
0:1:35.336,166.568,21.2083,0,0.000885,0,0
0:1:35.438,166.862,21.2427,0,0.000885,0,0
0:1:35.537,166.862,21.2427,0,0.000885,0,0
0:1:35.635,166.448,21.1945,0,0.000885,0,0
0:1:35.731,166.448,21.1945,0,0.000885,0,0
0:1:35.833,167.387,21.3117,0,0.000885,0,0
0:1:35.933,167.742,21.36,0,0.000885,0,0
0:1:36.034,167.622,21.3393,0,0.000885,0,0
0:1:36.132,167.622,21.3393,0,0.000885,0,0
0:1:36.228,167.507,21.3255,0,0.000885,0,0
0:1:36.330,168.152,21.4082,0,0.000885,0,0
0:1:36.430,168.619,21.4703,0,0.000885,0,0
0:1:36.531,168.619,21.4703,0,0.000885,0,0
0:1:36.629,168.797,21.491,0,0.000885,0,0
0:1:36.725,168.325,21.4289,0,0.000885,0,0
0:1:36.825,168.325,21.4289,0,0.000885,0,0
0:1:36.927,168.797,21.491,0,0.000885,0,0
0:1:37.027,169.851,21.6289,0,0.000885,0,0
0:1:37.127,170.029,21.6495,0,0.000885,0,0
0:1:37.224,170.029,21.6495,0,0.000885,0,0
0:1:37.324,170.087,21.6564,0,0.000885,0,0
0:1:37.424,169.499,21.5806,0,0.000885,0,0
0:1:37.526,170.202,21.6702,0,0.000885,0,0
0:1:37.624,170.202,21.6702,0,0.000885,0,0
0:1:37.721,170.847,21.753,0,0.000885,0,0
0:1:37.820,171.025,21.7736,0,0.000885,0,0
0:1:37.921,170.91,21.7599,0,0.000885,0,0
0:1:38.022,170.91,21.7599,0,0.000885,0,0
0:1:38.122,170.438,21.6978,0,0.000885,0,0
0:1:38.219,171.083,21.7805,0,0.000885,0,0
0:1:38.327,171.319,21.815,0,0.000885,0,0
0:1:38.428,171.319,21.815,0,0.000885,0,0
0:1:38.529,171.728,21.8633,0,0.000885,0,0
0:1:38.630,172.022,21.9046,0,0.000885,0,0
0:1:38.732,172.079,21.9115,0,0.000885,0,0
0:1:38.833,172.079,21.9115,0,0.000885,0,0
0:1:38.935,172.315,21.9391,0,0.000885,0,0
0:1:39.037,172.493,21.9598,0,0.000885,0,0
0:1:39.139,172.845,22.0081,0,0.000885,0,0
0:1:39.239,172.845,22.0081,0,0.000885,0,0
0:1:39.341,173.018,22.0287,0,0.000885,0,0
0:1:39.440,173.018,22.0287,0,0.000885,0,0
0:1:39.542,172.96,22.0219,0,0.000885,0,0
0:1:39.642,172.96,22.0219,0,0.000885,0,0
0:1:39.743,173.076,22.0356,0,0.000885,0,0
0:1:39.842,172.96,22.0219,0,0.000885,0,0
0:1:39.943,173.841,22.1322,0,0.000885,0,0
0:1:40.044,173.841,22.1322,0,0.000885,0,0
0:1:40.145,174.192,22.1804,0,0.000885,0,0
0:1:40.243,173.841,22.1322,0,0.000885,0,0
0:1:40.341,173.841,22.1322,0,0.000885,0,0
0:1:40.440,174.544,22.2218,0,0.000885,0,0
0:1:40.542,174.602,22.2287,0,0.000885,0,0
0:1:40.643,175.482,22.3459,0,0.000885,0,0
0:1:40.741,175.482,22.3459,0,0.000885,0,0
0:1:40.837,174.895,22.2701,0,0.000885,0,0
0:1:40.937,175.54,22.3528,0,0.000885,0,0
0:1:41.038,175.073,22.2908,0,0.000885,0,0
0:1:41.139,175.073,22.2908,0,0.000885,0,0
0:1:41.239,175.66,22.3666,0,0.000885,0,0
0:1:41.336,175.892,22.3942,0,0.000885,0,0
0:1:41.435,176.012,22.408,0,0.000885,0,0
0:1:41.536,176.012,22.408,0,0.000885,0,0
0:1:41.636,175.949,22.4011,0,0.000885,0,0
0:1:41.736,176.421,22.4631,0,0.000885,0,0
0:1:41.832,176.421,22.4631,0,0.000885,0,0
0:1:41.931,176.657,22.4907,0,0.000885,0,0
0:1:42.032,176.83,22.5183,0,0.000885,0,0
0:1:42.134,177.244,22.5665,0,0.000885,0,0
0:1:42.233,177.244,22.5665,0,0.000885,0,0
0:1:42.331,177.769,22.6355,0,0.000885,0,0
0:1:42.429,178.004,22.6631,0,0.000885,0,0
0:1:42.531,178.062,22.67,0,0.000885,0,0
0:1:42.632,178.062,22.67,0,0.000885,0,0
0:1:42.731,178.12,22.6769,0,0.000885,0,0
0:1:42.828,178.414,22.7182,0,0.000885,0,0
0:1:42.927,178.592,22.7389,0,0.000885,0,0
0:1:43.028,178.592,22.7389,0,0.000885,0,0
0:1:43.128,178.592,22.7389,0,0.000885,0,0
0:1:43.229,179.001,22.7941,0,0.000885,0,0
0:1:43.328,178.765,22.7596,0,0.000885,0,0
0:1:43.425,178.765,22.7596,0,0.000885,0,0
0:1:43.525,179.352,22.8354,0,0.000885,0,0
0:1:43.626,179.41,22.8423,0,0.000885,0,0
0:1:43.726,179.41,22.8423,0,0.000885,0,0
0:1:43.827,179.588,22.863,0,0.000885,0,0
0:1:43.928,179.646,22.8699,0,0.000885,0,0
0:1:44.030,179.882,22.9044,0,0.000885,0,0
0:1:44.131,179.882,22.9044,0,0.000885,0,0
0:1:44.233,179.762,22.8906,0,0.000885,0,0
0:1:44.334,179.704,22.8837,0,0.000885,0,0
0:1:44.434,179.997,22.9182,0,0.000885,0,0
0:1:44.534,179.997,22.9182,0,0.000885,0,0
0:1:44.636,180.411,22.9733,0,0.000885,0,0
0:1:44.736,180.584,22.994,0,0.000885,0,0
0:1:44.837,180.878,23.0285,0,0.000885,0,0
0:1:44.937,180.878,23.0285,0,0.000885,0,0
0:1:45.037,181.114,23.063,0,0.000885,0,0
0:1:45.139,181.114,23.063,0,0.000885,0,0
0:1:45.240,181.35,23.0905,0,0.000885,0,0
0:1:45.338,181.35,23.0905,0,0.000885,0,0
0:1:45.437,181.114,23.063,0,0.000885,0,0
0:1:45.535,181.114,23.063,0,0.000885,0,0
0:1:45.635,180.936,23.0354,0,0.000885,0,0
0:1:45.736,180.936,23.0354,0,0.000885,0,0
0:1:45.835,180.642,23.0009,0,0.000885,0,0
0:1:45.933,180.762,23.0147,0,0.000885,0,0
0:1:46.031,180.762,23.0147,0,0.000885,0,0
0:1:46.130,180.7,23.0078,0,0.000885,0,0
0:1:46.232,180.527,22.9871,0,0.000885,0,0
0:1:46.331,180.642,23.0009,0,0.000885,0,0
0:1:46.429,180.642,23.0009,0,0.000885,0,0
0:1:46.528,180.411,22.9733,0,0.000885,0,0
0:1:46.628,179.997,22.9182,0,0.000885,0,0
0:1:46.728,179.997,22.9182,0,0.000885,0,0
0:1:46.829,179.997,22.9182,0,0.000885,0,0
0:1:46.926,179.237,22.8216,0,0.000885,0,0
0:1:47.023,178.298,22.7044,0,0.000885,0,0
0:1:47.122,177.827,22.6424,0,0.000885,0,0
0:1:47.223,177.827,22.6424,0,0.000885,0,0
0:1:47.324,177.182,22.5596,0,0.000885,0,0
0:1:47.421,176.657,22.4907,0,0.000885,0,0
0:1:47.520,175.482,22.3459,0,0.000885,0,0
0:1:47.619,175.482,22.3459,0,0.000885,0,0
0:1:47.720,174.722,22.2494,0,0.000885,0,0
0:1:47.821,173.663,22.1115,0,0.000885,0,0
0:1:47.919,173.663,22.1115,0,0.000885,0,0
0:1:48.026,172.137,21.9184,0,0.000885,0,0
0:1:48.126,171.083,21.7805,0,0.000885,0,0
0:1:48.225,169.499,21.5806,0,0.000885,0,0
0:1:48.326,169.499,21.5806,0,0.000885,0,0
0:1:48.424,167.507,21.3255,0,0.000885,0,0
0:1:48.522,164.864,20.9945,0,0.000885,0,0
0:1:48.621,160.114,20.3878,0,0.000885,0,0
0:1:48.722,160.114,20.3878,0,0.000885,0,0
0:1:48.822,150.906,19.2157,0,0.000885,0,0
0:1:48.923,137.712,17.5334,0,0.000885,0,0
0:1:49.001,137.712,17.5334,0,0.000885,0,0