File: DataFile2021-06-07_041655.csv
Test ID:,Date Tested:,Time:,Test Type:,Diameter Avg. (mm):,Cyl. Corr. Factor:,Height (mm):,Age (days):,Weight (kN):,Break Type:,Ramp Rate (MPa/s):,Load at Break (kN):,Stress at Break (MPa):
12,6/7/2021,04:16,Cylinder,100,1,200,0,3.6,3,0.24,527.27,67.13
Sample Time,Load (kN),Stress (MPa),Long. Strain,Trans. Strain,Chan1 Deflection (mm),Chan2 Deflection (mm)
0:0:13.980,5.33787,0.682581,0,0.000885,0,0
0:0:14.276,5.68928,0.72395,0,0.000885,0,0
0:0:14.574,5.63145,0.717055,0,0.000885,0,0
0:0:14.873,8.505,1.08248,0,0.000885,0,0
0:0:15.170,10.3821,1.32379,0,0.000885,0,0
0:0:15.470,10.3821,1.32379,0,0.000885,0,0
0:0:15.767,10.44,1.33069,0,0.000885,0,0
0:0:16.065,10.3243,1.3169,0,0.000885,0,0
0:0:16.366,10.44,1.33069,0,0.000885,0,0
0:0:16.660,11.085,1.41343,0,0.000885,0,0
0:0:16.962,10.6179,1.35137,0,0.000885,0,0
0:0:17.257,10.9693,1.39964,0,0.000885,0,0
0:0:17.555,11.6721,1.48927,0,0.000885,0,0
0:0:17.854,11.73,1.49616,0,0.000885,0,0
0:0:18.146,11.8456,1.50995,0,0.000885,0,0
0:0:18.449,12.9043,1.64095,0,0.000885,0,0
0:0:18.743,13.785,1.75816,0,0.000885,0,0
0:0:19.044,14.8971,1.89606,0,0.000885,0,0
0:0:19.355,15.4264,1.96501,0,0.000885,0,0
0:0:19.657,15.8357,2.01327,0,0.000885,0,0
0:0:19.961,16.7164,2.13048,0,0.000885,0,0
0:0:20.264,17.5972,2.2408,0,0.000885,0,0
0:0:20.567,18.5936,2.3649,0,0.000885,0,0
0:0:20.869,18.6514,2.3718,0,0.000885,0,0
0:0:21.168,19.3542,2.46143,0,0.000885,0,0
0:0:21.468,20.1193,2.55795,0,0.000885,0,0
0:0:21.764,20.8221,2.64759,0,0.000885,0,0
0:0:22.065,21.1735,2.69585,0,0.000885,0,0
0:0:22.363,21.992,2.79927,0,0.000885,0,0
0:0:22.661,22.3479,2.84753,0,0.000885,0,0
0:0:22.962,22.9929,2.93027,0,0.000885,0,0
0:0:23.256,23.5177,2.99232,0,0.000885,0,0
0:0:23.559,24.1049,3.06817,0,0.000885,0,0
0:0:23.855,24.8077,3.1578,0,0.000885,0,0
0:0:24.153,25.2214,3.21296,0,0.000885,0,0
0:0:24.453,26.0399,3.31638,0,0.000885,0,0
0:0:24.756,26.2178,3.33706,0,0.000885,0,0
0:0:25.061,26.8628,3.4198,0,0.000885,0,0
0:0:25.365,27.6235,3.51633,0,0.000885,0,0
0:0:25.668,28.3263,3.60596,0,0.000885,0,0
0:0:25.970,29.0914,3.70248,0,0.000885,0,0
0:0:26.268,29.4428,3.75075,0,0.000885,0,0
0:0:26.568,29.7942,3.79212,0,0.000885,0,0
0:0:26.865,30.3235,3.86106,0,0.000885,0,0
0:0:27.165,31.3778,3.99206,0,0.000885,0,0
0:0:27.463,32.0227,4.0748,0,0.000885,0,0
0:0:27.760,32.4943,4.13685,0,0.000885,0,0
0:0:28.063,32.9035,4.19201,0,0.000885,0,0
0:0:28.358,33.6641,4.28854,0,0.000885,0,0
0:0:28.659,34.367,4.37817,0,0.000885,0,0
0:0:28.957,34.7228,4.41954,0,0.000885,0,0
0:0:29.260,35.2477,4.48849,0,0.000885,0,0
0:0:29.564,35.6614,4.54365,0,0.000885,0,0
0:0:29.869,36.3642,4.63328,0,0.000885,0,0
0:0:30.172,37.245,4.74359,0,0.000885,0,0
0:0:30.474,37.4763,4.77117,0,0.000885,0,0
0:0:30.772,38.1213,4.85391,0,0.000885,0,0
0:0:31.072,38.5928,4.91596,0,0.000885,0,0
0:0:31.369,39.7048,5.05386,0,0.000885,0,0
0:0:31.670,40.1763,5.11591,0,0.000885,0,0
0:0:31.964,40.4699,5.15038,0,0.000885,0,0
0:0:32.266,41.2306,5.24691,0,0.000885,0,0
0:0:32.563,41.5241,5.28828,0,0.000885,0,0
0:0:32.862,42.3471,5.3917,0,0.000885,0,0
0:0:33.162,42.7563,5.44686,0,0.000885,0,0
0:0:33.458,43.9306,5.59165,0,0.000885,0,0
0:0:33.759,43.6949,5.56407,0,0.000885,0,0
0:0:34.055,44.3399,5.64681,0,0.000885,0,0
0:0:34.356,45.4519,5.7847,0,0.000885,0,0
0:0:34.663,45.8078,5.83296,0,0.000885,0,0
0:0:34.965,46.3327,5.90191,0,0.000885,0,0
0:0:35.268,46.5684,5.92949,0,0.000885,0,0
0:0:35.570,47.8006,6.08807,0,0.000885,0,0
0:0:35.872,48.2677,6.14323,0,0.000885,0,0
0:0:36.169,48.9749,6.23286,0,0.000885,0,0
0:0:36.469,49.2685,6.27423,0,0.000885,0,0
0:0:36.769,50.1448,6.38455,0,0.000885,0,0
0:0:37.063,50.3806,6.41212,0,0.000885,0,0
0:0:37.366,51.2035,6.52244,0,0.000885,0,0
0:0:37.662,51.8485,6.59828,0,0.000885,0,0
0:0:37.961,52.3155,6.66034,0,0.000885,0,0
0:0:38.260,53.3698,6.79823,0,0.000885,0,0
0:0:38.558,53.9569,6.86718,0,0.000885,0,0
0:0:38.858,53.7256,6.8396,0,0.000885,0,0
0:0:39.149,54.8377,6.98439,0,0.000885,0,0
0:0:39.455,54.8955,6.99128,0,0.000885,0,0
0:0:39.760,56.0698,7.13607,0,0.000885,0,0
0:0:40.063,56.3634,7.17744,0,0.000885,0,0
0:0:40.366,57.0084,7.26018,0,0.000885,0,0
0:0:40.668,57.3598,7.30155,0,0.000885,0,0
0:0:40.971,58.414,7.43944,0,0.000885,0,0
0:0:41.266,58.6498,7.46702,0,0.000885,0,0
0:0:41.565,59.8241,7.61871,0,0.000885,0,0
0:0:41.866,60.2334,7.66697,0,0.000885,0,0
0:0:42.161,60.6426,7.72213,0,0.000885,0,0
0:0:42.464,61.4077,7.81865,0,0.000885,0,0
0:0:42.758,61.9949,7.8945,0,0.000885,0,0
0:0:43.060,62.6399,7.97723,0,0.000885,0,0
0:0:43.355,62.7555,7.99102,0,0.000885,0,0
0:0:43.651,62.8712,8.00481,0,0.000885,0,0
0:0:43.955,63.9877,8.1496,0,0.000885,0,0
0:0:44.247,64.2234,8.17718,0,0.000885,0,0
0:0:44.550,65.2198,8.30129,0,0.000885,0,0
0:0:44.858,65.807,8.37713,0,0.000885,0,0
0:0:45.161,66.6877,8.48745,0,0.000885,0,0
0:0:45.463,66.8612,8.51503,0,0.000885,0,0
0:0:45.765,67.4484,8.59087,0,0.000885,0,0
0:0:46.069,67.9777,8.65292,0,0.000885,0,0
0:0:46.365,68.9163,8.77703,0,0.000885,0,0
0:0:46.666,69.3255,8.82529,0,0.000885,0,0
0:0:46.963,70.144,8.92871,0,0.000885,0,0
0:0:47.262,71.0826,9.05282,0,0.000885,0,0
0:0:47.561,71.0248,9.04592,0,0.000885,0,0
0:0:47.857,71.8477,9.14934,0,0.000885,0,0
0:0:48.159,72.0212,9.17003,0,0.000885,0,0
0:0:48.452,72.7284,9.25966,0,0.000885,0,0
0:0:48.763,73.4312,9.34929,0,0.000885,0,0
0:0:49.061,73.8405,9.40445,0,0.000885,0,0
0:0:49.366,74.8369,9.52855,0,0.000885,0,0
0:0:49.669,74.8369,9.52855,0,0.000885,0,0
0:0:49.973,75.6598,9.63198,0,0.000885,0,0
0:0:50.276,76.4783,9.7354,0,0.000885,0,0
0:0:50.577,77.0076,9.80434,0,0.000885,0,0
0:0:50.875,77.6526,9.88708,0,0.000885,0,0
0:0:51.175,78.4755,9.9905,0,0.000885,0,0
0:0:51.471,79.2362,10.087,0,0.000885,0,0
0:0:51.774,79.8233,10.1629,0,0.000885,0,0
0:0:52.067,80.0013,10.1836,0,0.000885,0,0
0:0:52.369,80.3527,10.2318,0,0.000885,0,0
0:0:52.667,80.8776,10.3008,0,0.000885,0,0
0:0:52.964,81.2912,10.349,0,0.000885,0,0
0:0:53.264,82.0519,10.4456,0,0.000885,0,0
0:0:53.561,82.9905,10.5697,0,0.000885,0,0
0:0:53.862,83.8134,10.6731,0,0.000885,0,0
0:0:54.159,84.107,10.7076,0,0.000885,0,0
0:0:54.462,84.6319,10.7765,0,0.000885,0,0
0:0:54.768,85.397,10.873,0,0.000885,0,0
0:0:55.070,85.8062,10.9282,0,0.000885,0,0
0:0:55.374,86.5668,11.0247,0,0.000885,0,0
0:0:55.675,86.6869,11.0385,0,0.000885,0,0
0:0:55.975,87.5054,11.1419,0,0.000885,0,0
0:0:56.272,87.8568,11.1833,0,0.000885,0,0
0:0:56.571,88.2082,11.2316,0,0.000885,0,0
0:0:56.871,89.1468,11.3488,0,0.000885,0,0
0:0:57.167,89.7918,11.4315,0,0.000885,0,0
0:0:57.468,90.5569,11.528,0,0.000885,0,0
0:0:57.766,91.9047,11.7004,0,0.000885,0,0
0:0:58.065,91.9625,11.7073,0,0.000885,0,0
0:0:58.363,92.3762,11.7625,0,0.000885,0,0
0:0:58.660,93.4883,11.9004,0,0.000885,0,0
0:0:58.961,93.4883,11.9004,0,0.000885,0,0
0:0:59.257,93.7819,11.9417,0,0.000885,0,0
0:0:59.558,94.5425,12.0382,0,0.000885,0,0
0:0:59.863,94.4847,12.0314,0,0.000885,0,0
0:1:0.167,95.4811,12.1555,0,0.000885,0,0
0:1:0.471,96.5398,12.2934,0,0.000885,0,0
0:1:0.774,97.4783,12.4106,0,0.000885,0,0
0:1:1.075,97.5362,12.4175,0,0.000885,0,0
0:1:1.372,98.4747,12.5416,0,0.000885,0,0
0:1:1.670,98.7105,12.5691,0,0.000885,0,0
0:1:1.971,99.8225,12.707,0,0.000885,0,0
0:1:2.265,99.529,12.6726,0,0.000885,0,0
0:1:2.566,100.525,12.7967,0,0.000885,0,0
0:1:2.863,100.761,12.8311,0,0.000885,0,0
0:1:3.163,101.758,12.9552,0,0.000885,0,0
0:1:3.461,101.878,12.969,0,0.000885,0,0
0:1:3.758,103.168,13.1345,0,0.000885,0,0
0:1:4.060,103.225,13.1414,0,0.000885,0,0
0:1:4.364,103.813,13.2172,0,0.000885,0,0
0:1:4.667,104.867,13.3551,0,0.000885,0,0
0:1:4.971,105.045,13.3758,0,0.000885,0,0
0:1:5.276,105.805,13.4724,0,0.000885,0,0
0:1:5.578,106.508,13.562,0,0.000885,0,0
0:1:5.880,107.038,13.6309,0,0.000885,0,0
0:1:6.183,107.918,13.7413,0,0.000885,0,0
0:1:6.477,107.856,13.7344,0,0.000885,0,0
0:1:6.778,108.973,13.8723,0,0.000885,0,0
0:1:7.074,109.03,13.8791,0,0.000885,0,0
0:1:7.373,109.444,13.9343,0,0.000885,0,0
0:1:7.674,110.85,14.1136,0,0.000885,0,0
0:1:7.968,111.495,14.1963,0,0.000885,0,0
0:1:8.270,111.673,14.217,0,0.000885,0,0
0:1:8.567,112.318,14.2997,0,0.000885,0,0
0:1:8.865,113.314,14.4307,0,0.000885,0,0
0:1:9.163,113.545,14.4583,0,0.000885,0,0
0:1:9.466,114.19,14.541,0,0.000885,0,0
0:1:9.771,114.72,14.61,0,0.000885,0,0
0:1:10.073,115.658,14.7272,0,0.000885,0,0
0:1:10.376,116.188,14.7961,0,0.000885,0,0
0:1:10.679,116.067,14.7755,0,0.000885,0,0
0:1:10.976,117.126,14.9134,0,0.000885,0,0
0:1:11.277,117.945,15.0168,0,0.000885,0,0
0:1:11.572,117.945,15.0168,0,0.000885,0,0
0:1:11.872,119.119,15.1685,0,0.000885,0,0
0:1:12.168,119.355,15.196,0,0.000885,0,0
0:1:12.468,120,15.2788,0,0.000885,0,0
0:1:12.768,120.818,15.3822,0,0.000885,0,0
0:1:13.062,121.174,15.4305,0,0.000885,0,0
0:1:13.363,121.463,15.4649,0,0.000885,0,0
0:1:13.661,122.522,15.6028,0,0.000885,0,0
0:1:13.960,122.758,15.6304,0,0.000885,0,0
0:1:14.267,123.812,15.7614,0,0.000885,0,0
0:1:14.568,124.457,15.8442,0,0.000885,0,0
0:1:14.874,124.63,15.8717,0,0.000885,0,0
0:1:15.176,125.275,15.9476,0,0.000885,0,0
0:1:15.479,126.156,16.0648,0,0.000885,0,0
0:1:15.782,126.276,16.0786,0,0.000885,0,0
0:1:16.081,126.507,16.1062,0,0.000885,0,0
0:1:16.379,127.797,16.2716,0,0.000885,0,0
0:1:16.676,127.975,16.2923,0,0.000885,0,0
0:1:16.979,129.207,16.4509,0,0.000885,0,0
0:1:17.273,129.207,16.4509,0,0.000885,0,0
0:1:17.573,130.026,16.5543,0,0.000885,0,0
0:1:17.872,130.555,16.6233,0,0.000885,0,0
0:1:18.170,130.965,16.6784,0,0.000885,0,0
0:1:18.468,131.965,16.8025,0,0.000885,0,0
0:1:18.765,132.375,16.8577,0,0.000885,0,0
0:1:19.066,132.842,16.9128,0,0.000885,0,0
0:1:19.363,133.843,17.0438,0,0.000885,0,0
0:1:19.665,134.488,17.1266,0,0.000885,0,0
0:1:19.970,134.488,17.1266,0,0.000885,0,0
0:1:20.273,135.133,17.2024,0,0.000885,0,0
0:1:20.574,135.893,17.3058,0,0.000885,0,0
0:1:20.875,136.36,17.361,0,0.000885,0,0
0:1:21.177,137.299,17.4851,0,0.000885,0,0
0:1:21.475,137.77,17.5403,0,0.000885,0,0
0:1:21.771,137.944,17.5609,0,0.000885,0,0
0:1:22.072,139.06,17.7057,0,0.000885,0,0
0:1:22.368,139.821,17.8023,0,0.000885,0,0
0:1:22.670,139.59,17.7747,0,0.000885,0,0
0:1:22.966,140.937,17.9471,0,0.000885,0,0
0:1:23.266,141.876,18.0643,0,0.000885,0,0
0:1:23.563,141.405,18.0022,0,0.000885,0,0
0:1:23.860,142.285,18.1194,0,0.000885,0,0
0:1:24.160,142.637,18.1608,0,0.000885,0,0
0:1:24.465,143.811,18.3125,0,0.000885,0,0
0:1:24.770,143.633,18.2849,0,0.000885,0,0
0:1:25.072,144.692,18.4228,0,0.000885,0,0
0:1:25.373,145.452,18.5193,0,0.000885,0,0
0:1:25.676,146.04,18.5952,0,0.000885,0,0
0:1:25.971,146.8,18.6917,0,0.000885,0,0
0:1:26.274,147.507,18.7813,0,0.000885,0,0
0:1:26.571,147.507,18.7813,0,0.000885,0,0
0:1:26.870,148.504,18.9054,0,0.000885,0,0
0:1:27.168,148.855,18.9537,0,0.000885,0,0
0:1:27.465,149.736,19.064,0,0.000885,0,0
0:1:27.766,149.967,19.0916,0,0.000885,0,0
0:1:28.061,150.732,19.195,0,0.000885,0,0
0:1:28.363,151.493,19.2915,0,0.000885,0,0
0:1:28.657,151.2,19.2502,0,0.000885,0,0
0:1:28.968,152.374,19.4018,0,0.000885,0,0
0:1:29.268,153.37,19.526,0,0.000885,0,0
0:1:29.570,154.015,19.6087,0,0.000885,0,0
0:1:29.875,153.664,19.5673,0,0.000885,0,0
0:1:30.177,154.545,19.6776,0,0.000885,0,0
0:1:30.480,155.247,19.7673,0,0.000885,0,0
0:1:30.782,156.302,19.8983,0,0.000885,0,0
0:1:31.079,156.657,19.9465,0,0.000885,0,0
0:1:31.379,157.182,20.0155,0,0.000885,0,0
0:1:31.674,157.827,20.0982,0,0.000885,0,0
0:1:31.975,158.944,20.2361,0,0.000885,0,0
0:1:32.272,158.592,20.1947,0,0.000885,0,0
0:1:32.570,159.117,20.2568,0,0.000885,0,0
0:1:32.871,159.94,20.3671,0,0.000885,0,0
0:1:33.165,160.643,20.4567,0,0.000885,0,0
0:1:33.467,161.115,20.5119,0,0.000885,0,0
0:1:33.762,161.466,20.5602,0,0.000885,0,0
0:1:34.063,162.405,20.6774,0,0.000885,0,0
0:1:34.360,162.698,20.7119,0,0.000885,0,0
0:1:34.664,163.695,20.8429,0,0.000885,0,0
0:1:34.968,164.575,20.9532,0,0.000885,0,0
0:1:35.271,164.927,21.0014,0,0.000885,0,0
0:1:35.573,165.042,21.0152,0,0.000885,0,0
0:1:35.876,165.572,21.0842,0,0.000885,0,0
0:1:36.175,166.626,21.2152,0,0.000885,0,0
0:1:36.474,167.213,21.291,0,0.000885,0,0
0:1:36.771,168.032,21.3944,0,0.000885,0,0
0:1:37.074,168.912,21.5047,0,0.000885,0,0
0:1:37.367,169.442,21.5737,0,0.000885,0,0
0:1:37.667,169.971,21.6426,0,0.000885,0,0
0:1:37.965,170.265,21.6771,0,0.000885,0,0
0:1:38.261,169.971,21.6426,0,0.000885,0,0
0:1:38.563,170.554,21.7185,0,0.000885,0,0
0:1:38.856,172.137,21.9184,0,0.000885,0,0
0:1:39.163,172.667,21.9874,0,0.000885,0,0
0:1:39.466,173.018,22.0287,0,0.000885,0,0
0:1:39.770,174.077,22.1666,0,0.000885,0,0
0:1:40.071,174.308,22.1942,0,0.000885,0,0
0:1:40.374,175.073,22.2908,0,0.000885,0,0
0:1:40.675,175.425,22.339,0,0.000885,0,0
0:1:40.970,175.598,22.3597,0,0.000885,0,0
0:1:41.271,176.185,22.4355,0,0.000885,0,0
0:1:41.569,177.008,22.539,0,0.000885,0,0
0:1:41.866,177.947,22.6562,0,0.000885,0,0
0:1:42.166,178.534,22.732,0,0.000885,0,0
0:1:42.463,178.943,22.7803,0,0.000885,0,0
0:1:42.763,178.885,22.7734,0,0.000885,0,0
0:1:43.055,179.766,22.8906,0,0.000885,0,0
0:1:43.356,180.82,23.0216,0,0.000885,0,0
0:1:43.654,181.407,23.0974,0,0.000885,0,0
0:1:43.950,181.759,23.1388,0,0.000885,0,0
0:1:44.251,182.577,23.2491,0,0.000885,0,0
0:1:44.555,182.64,23.256,0,0.000885,0,0
0:1:44.862,183.578,23.3732,0,0.000885,0,0
0:1:45.164,184.223,23.456,0,0.000885,0,0
0:1:45.466,184.575,23.4973,0,0.000885,0,0
0:1:45.769,185.451,23.6145,0,0.000885,0,0
0:1:46.065,185.335,23.6008,0,0.000885,0,0
0:1:46.366,186.861,23.7938,0,0.000885,0,0
0:1:46.663,187.39,23.8559,0,0.000885,0,0
0:1:46.970,188.209,23.9662,0,0.000885,0,0
0:1:47.269,188.209,23.9662,0,0.000885,0,0
0:1:47.565,188.738,24.0282,0,0.000885,0,0
0:1:47.867,189.383,24.111,0,0.000885,0,0
0:1:48.159,189.734,24.1592,0,0.000885,0,0
0:1:48.463,190.557,24.2627,0,0.000885,0,0
0:1:48.758,191.318,24.3592,0,0.000885,0,0
0:1:49.056,191.376,24.3661,0,0.000885,0,0
0:1:49.356,192.257,24.4764,0,0.000885,0,0
0:1:49.662,193.137,24.5936,0,0.000885,0,0
0:1:49.964,194.134,24.7177,0,0.000885,0,0
0:1:50.264,194.192,24.7246,0,0.000885,0,0
0:1:50.564,194.134,24.7177,0,0.000885,0,0
0:1:50.863,195.308,24.8694,0,0.000885,0,0
0:1:51.167,196.069,24.9659,0,0.000885,0,0
0:1:51.466,197.123,25.0969,0,0.000885,0,0
0:1:51.759,197.652,25.1659,0,0.000885,0,0
0:1:52.056,197.474,25.1452,0,0.000885,0,0
0:1:52.362,198.119,25.2279,0,0.000885,0,0
0:1:52.656,198.649,25.29,0,0.000885,0,0
0:1:52.954,199.472,25.4003,0,0.000885,0,0
0:1:53.256,200.348,25.5106,0,0.000885,0,0
0:1:53.554,200.059,25.4692,0,0.000885,0,0
0:1:53.858,201.286,25.6278,0,0.000885,0,0
0:1:54.156,201.994,25.7174,0,0.000885,0,0
0:1:54.463,202.754,25.814,0,0.000885,0,0
0:1:54.765,203.457,25.9036,0,0.000885,0,0
0:1:55.067,203.515,25.9105,0,0.000885,0,0
0:1:55.367,204.925,26.0898,0,0.000885,0,0
0:1:55.667,204.983,26.0967,0,0.000885,0,0
0:1:55.966,205.041,26.1036,0,0.000885,0,0
0:1:56.270,205.512,26.1656,0,0.000885,0,0
0:1:56.569,206.037,26.2346,0,0.000885,0,0
0:1:56.862,207.096,26.3656,0,0.000885,0,0
0:1:57.163,208.266,26.5172,0,0.000885,0,0
0:1:57.466,208.15,26.5034,0,0.000885,0,0
0:1:57.762,208.501,26.5448,0,0.000885,0,0
0:1:58.057,209.267,26.6413,0,0.000885,0,0
0:1:58.352,210.027,26.7448,0,0.000885,0,0
0:1:58.651,211.024,26.8689,0,0.000885,0,0
0:1:58.953,211.726,26.9585,0,0.000885,0,0
0:1:59.253,211.726,26.9585,0,0.000885,0,0
0:1:59.556,212.785,27.0895,0,0.000885,0,0
0:1:59.858,212.901,27.1102,0,0.000885,0,0
0:2:0.158,213.252,27.1516,0,0.000885,0,0
0:2:0.459,213.955,27.2412,0,0.000885,0,0
0:2:0.759,214.542,27.317,0,0.000885,0,0
0:2:1.064,215.659,27.4618,0,0.000885,0,0
0:2:1.360,216.184,27.5239,0,0.000885,0,0
0:2:1.668,216.126,27.517,0,0.000885,0,0
0:2:1.969,217.184,27.6549,0,0.000885,0,0
0:2:2.269,217.478,27.6893,0,0.000885,0,0
0:2:2.563,218.474,27.8135,0,0.000885,0,0
0:2:2.860,219.351,27.9307,0,0.000885,0,0
0:2:3.165,219.351,27.9307,0,0.000885,0,0
0:2:3.463,220.467,28.0686,0,0.000885,0,0
0:2:3.758,220.761,28.1099,0,0.000885,0,0
0:2:4.051,221.757,28.234,0,0.000885,0,0
0:2:4.351,222.58,28.3375,0,0.000885,0,0
0:2:4.654,222.874,28.3788,0,0.000885,0,0
0:2:4.955,222.811,28.3719,0,0.000885,0,0
0:2:5.254,223.692,28.4822,0,0.000885,0,0
0:2:5.554,224.573,28.5926,0,0.000885,0,0
0:2:5.853,224.751,28.6132,0,0.000885,0,0
0:2:6.168,225.334,28.6891,0,0.000885,0,0
0:2:6.468,226.45,28.8339,0,0.000885,0,0
0:2:6.760,226.334,28.8201,0,0.000885,0,0
0:2:7.068,226.392,28.827,0,0.000885,0,0
0:2:7.366,227.504,28.9649,0,0.000885,0,0
0:2:7.656,228.207,29.0545,0,0.000885,0,0
0:2:7.957,229.208,29.1855,0,0.000885,0,0
0:2:8.257,229.381,29.2062,0,0.000885,0,0
0:2:8.557,229.502,29.22,0,0.000885,0,0
0:2:8.853,230.729,29.3786,0,0.000885,0,0
0:2:9.148,231.494,29.4751,0,0.000885,0,0
0:2:9.446,232.313,29.5785,0,0.000885,0,0
0:2:9.749,233.02,29.6681,0,0.000885,0,0
0:2:10.050,233.136,29.6819,0,0.000885,0,0
0:2:10.352,233.896,29.7785,0,0.000885,0,0
0:2:10.651,234.074,29.806,0,0.000885,0,0
0:2:10.952,234.661,29.875,0,0.000885,0,0
0:2:11.265,235.249,29.9508,0,0.000885,0,0
0:2:11.565,236.067,30.0542,0,0.000885,0,0
0:2:11.869,236.596,30.1232,0,0.000885,0,0
0:2:12.167,237.064,30.1852,0,0.000885,0,0
0:2:12.472,237.886,30.2887,0,0.000885,0,0
0:2:12.767,237.535,30.2404,0,0.000885,0,0
0:2:13.066,239.003,30.4335,0,0.000885,0,0
0:2:13.367,239.706,30.5231,0,0.000885,0,0
0:2:13.665,240.818,30.661,0,0.000885,0,0
0:2:13.958,241.289,30.723,0,0.000885,0,0
0:2:14.259,241.169,30.7092,0,0.000885,0,0
0:2:14.564,242.459,30.8678,0,0.000885,0,0
0:2:14.867,242.228,30.8402,0,0.000885,0,0
0:2:15.165,242.459,30.8678,0,0.000885,0,0
0:2:15.467,243.518,31.0057,0,0.000885,0,0
0:2:15.764,244.043,31.0747,0,0.000885,0,0
0:2:16.068,245.159,31.2126,0,0.000885,0,0
0:2:16.365,246.098,31.3367,0,0.000885,0,0
0:2:16.660,246.627,31.3987,0,0.000885,0,0
0:2:16.953,246.685,31.4056,0,0.000885,0,0
0:2:17.254,248.148,31.5987,0,0.000885,0,0
0:2:17.557,248.269,31.6125,0,0.000885,0,0
0:2:17.854,248.326,31.6194,0,0.000885,0,0
0:2:18.150,248.326,31.6194,0,0.000885,0,0
0:2:18.454,248.914,31.6952,0,0.000885,0,0
0:2:18.753,249.559,31.7779,0,0.000885,0,0
0:2:19.067,250.733,31.9227,0,0.000885,0,0
0:2:19.368,251.378,32.0055,0,0.000885,0,0
0:2:19.671,251.258,31.9917,0,0.000885,0,0
0:2:19.973,252.49,32.1503,0,0.000885,0,0
0:2:20.273,253.486,32.2744,0,0.000885,0,0
0:2:20.573,254.367,32.3847,0,0.000885,0,0
0:2:20.873,254.954,32.4605,0,0.000885,0,0
0:2:21.166,254.661,32.426,0,0.000885,0,0
0:2:21.461,255.951,32.5915,0,0.000885,0,0
0:2:21.772,256.186,32.6191,0,0.000885,0,0
0:2:22.072,256.48,32.6536,0,0.000885,0,0
0:2:22.372,257.183,32.7432,0,0.000885,0,0
0:2:22.666,258.001,32.8466,0,0.000885,0,0
0:2:22.961,257.886,32.8328,0,0.000885,0,0
0:2:23.267,258.651,32.9294,0,0.000885,0,0
0:2:23.562,259.469,33.0397,0,0.000885,0,0
0:2:23.860,259.941,33.0948,0,0.000885,0,0
0:2:24.162,260.523,33.1707,0,0.000885,0,0
0:2:24.465,261.462,33.2879,0,0.000885,0,0
0:2:24.768,262.107,33.3706,0,0.000885,0,0
0:2:25.069,262.752,33.4534,0,0.000885,0,0
0:2:25.370,263.459,33.543,0,0.000885,0,0
0:2:25.669,263.984,33.6119,0,0.000885,0,0
0:2:25.971,264.104,33.6257,0,0.000885,0,0
0:2:26.262,264.398,33.6671,0,0.000885,0,0
0:2:26.560,264.985,33.736,0,0.000885,0,0
0:2:26.857,266.155,33.8877,0,0.000885,0,0
0:2:27.162,266.506,33.936,0,0.000885,0,0
0:2:27.459,267.036,33.998,0,0.000885,0,0
0:2:27.765,268.504,34.1842,0,0.000885,0,0
0:2:28.062,268.797,34.2256,0,0.000885,0,0
0:2:28.355,268.855,34.2325,0,0.000885,0,0
0:2:28.652,269.967,34.3704,0,0.000885,0,0
0:2:28.951,269.851,34.3566,0,0.000885,0,0
0:2:29.261,270.318,34.4186,0,0.000885,0,0
0:2:29.562,271.671,34.591,0,0.000885,0,0
0:2:29.866,272.08,34.6393,0,0.000885,0,0
0:2:30.167,272.374,34.6806,0,0.000885,0,0
0:2:30.466,272.725,34.722,0,0.000885,0,0
0:2:30.765,273.428,34.8116,0,0.000885,0,0
0:2:31.067,274.015,34.8875,0,0.000885,0,0
0:2:31.369,274.486,34.9495,0,0.000885,0,0
0:2:31.669,275.421,35.0667,0,0.000885,0,0
0:2:31.973,275.95,35.1357,0,0.000885,0,0
0:2:32.270,276.653,35.2253,0,0.000885,0,0
0:2:32.566,277.885,35.3839,0,0.000885,0,0
0:2:32.857,278.472,35.4528,0,0.000885,0,0
0:2:33.158,278.299,35.4322,0,0.000885,0,0
0:2:33.460,278.588,35.4735,0,0.000885,0,0
0:2:33.758,279.411,35.5769,0,0.000885,0,0
0:2:34.052,279.94,35.6459,0,0.000885,0,0
0:2:34.354,281.346,35.8252,0,0.000885,0,0
0:2:34.655,281.933,35.8941,0,0.000885,0,0
0:2:34.957,281.991,35.901,0,0.000885,0,0
0:2:35.256,283.281,36.0665,0,0.000885,0,0
0:2:35.558,283.574,36.1078,0,0.000885,0,0
0:2:35.855,283.926,36.1492,0,0.000885,0,0
0:2:36.151,283.752,36.1285,0,0.000885,0,0
0:2:36.456,284.397,36.2113,0,0.000885,0,0
0:2:36.756,285.216,36.3147,0,0.000885,0,0
0:2:37.059,285.687,36.3767,0,0.000885,0,0
0:2:37.357,286.683,36.5008,0,0.000885,0,0
0:2:37.653,287.506,36.6043,0,0.000885,0,0
0:2:37.957,287.444,36.5974,0,0.000885,0,0
0:2:38.255,288.739,36.7628,0,0.000885,0,0
0:2:38.548,289.735,36.887,0,0.000885,0,0
0:2:38.856,290.028,36.9283,0,0.000885,0,0
0:2:39.161,290.144,36.9421,0,0.000885,0,0
0:2:39.463,291.083,37.0593,0,0.000885,0,0
0:2:39.768,291.906,37.1696,0,0.000885,0,0
0:2:40.069,292.488,37.2386,0,0.000885,0,0
0:2:40.369,292.488,37.2386,0,0.000885,0,0
0:2:40.670,293.427,37.3627,0,0.000885,0,0
0:2:40.967,293.605,37.3834,0,0.000885,0,0
0:2:41.262,294.192,37.4592,0,0.000885,0,0
0:2:41.567,294.308,37.473,0,0.000885,0,0
0:2:41.867,295.304,37.5971,0,0.000885,0,0
0:2:42.169,295.482,37.6247,0,0.000885,0,0
0:2:42.467,296.772,37.7833,0,0.000885,0,0
0:2:42.762,297.59,37.8936,0,0.000885,0,0
0:2:43.056,297.884,37.9281,0,0.000885,0,0
0:2:43.355,298.178,37.9625,0,0.000885,0,0
0:2:43.659,298.885,38.0522,0,0.000885,0,0
0:2:43.968,299.174,38.0935,0,0.000885,0,0
0:2:44.273,300.406,38.2521,0,0.000885,0,0
0:2:44.574,301.345,38.3693,0,0.000885,0,0
0:2:44.877,301.345,38.3693,0,0.000885,0,0
0:2:45.176,301.696,38.4107,0,0.000885,0,0
0:2:45.476,302.403,38.5003,0,0.000885,0,0
0:2:45.777,302.577,38.5279,0,0.000885,0,0
0:2:46.073,303.28,38.6175,0,0.000885,0,0
0:2:46.371,304.338,38.7485,0,0.000885,0,0
0:2:46.673,305.099,38.8451,0,0.000885,0,0
0:2:46.974,305.45,38.8933,0,0.000885,0,0
0:2:47.268,305.393,38.8864,0,0.000885,0,0
0:2:47.563,306.447,39.0174,0,0.000885,0,0
0:2:47.860,308.093,39.2243,0,0.000885,0,0
0:2:48.155,308.853,39.3277,0,0.000885,0,0
0:2:48.453,308.969,39.3415,0,0.000885,0,0
0:2:48.757,309.089,39.3553,0,0.000885,0,0
0:2:49.054,310.437,39.5276,0,0.000885,0,0
0:2:49.361,310.673,39.5552,0,0.000885,0,0
0:2:49.661,310.966,39.5966,0,0.000885,0,0
0:2:49.964,310.908,39.5828,0,0.000885,0,0
0:2:50.264,312.492,39.7896,0,0.000885,0,0
0:2:50.564,312.372,39.7759,0,0.000885,0,0
0:2:50.864,312.608,39.8034,0,0.000885,0,0
0:2:51.160,313.075,39.8655,0,0.000885,0,0
0:2:51.457,314.133,39.9965,0,0.000885,0,0
0:2:51.771,315.01,40.1068,0,0.000885,0,0
0:2:52.070,315.948,40.2309,0,0.000885,0,0
0:2:52.361,316.593,40.3068,0,0.000885,0,0
0:2:52.658,316.42,40.2861,0,0.000885,0,0
0:2:52.954,316.771,40.3343,0,0.000885,0,0
0:2:53.250,318.177,40.5136,0,0.000885,0,0
0:2:53.549,318.119,40.5067,0,0.000885,0,0
0:2:53.851,318.706,40.5756,0,0.000885,0,0
0:2:54.149,319.293,40.6515,0,0.000885,0,0
0:2:54.455,320.054,40.748,0,0.000885,0,0
0:2:54.757,320.993,40.8721,0,0.000885,0,0
0:2:55.059,321.931,40.9893,0,0.000885,0,0
0:2:55.359,321.7,40.9618,0,0.000885,0,0
0:2:55.660,322.051,41.0031,0,0.000885,0,0
0:2:55.962,322.696,41.0859,0,0.000885,0,0
0:2:56.257,323.986,41.2513,0,0.000885,0,0
0:2:56.556,324.983,41.3754,0,0.000885,0,0
0:2:56.868,325.218,41.4099,0,0.000885,0,0
0:2:57.168,326.566,41.5823,0,0.000885,0,0
0:2:57.474,326.215,41.534,0,0.000885,0,0
0:2:57.769,326.33,41.5478,0,0.000885,0,0
0:2:58.064,326.682,41.5961,0,0.000885,0,0
0:2:58.359,327.972,41.7615,0,0.000885,0,0
0:2:58.658,327.972,41.7615,0,0.000885,0,0
0:2:58.961,329.088,41.8994,0,0.000885,0,0
0:2:59.262,329.849,41.996,0,0.000885,0,0
0:2:59.564,329.733,41.9822,0,0.000885,0,0
0:2:59.866,330.908,42.1339,0,0.000885,0,0
0:3:0.164,331.61,42.2235,0,0.000885,0,0
0:3:0.464,332.723,42.3614,0,0.000885,0,0
0:3:0.762,332.607,42.3476,0,0.000885,0,0
0:3:1.059,332.723,42.3614,0,0.000885,0,0
0:3:1.362,333.661,42.4855,0,0.000885,0,0
0:3:1.662,334.893,42.6372,0,0.000885,0,0
0:3:1.956,335.365,42.6992,0,0.000885,0,0
0:3:2.263,334.951,42.651,0,0.000885,0,0
0:3:2.572,336.361,42.8233,0,0.000885,0,0
0:3:2.876,337.064,42.913,0,0.000885,0,0
0:3:3.175,337.709,42.9957,0,0.000885,0,0
0:3:3.465,338.705,43.1267,0,0.000885,0,0
0:3:3.765,338.296,43.0715,0,0.000885,0,0
0:3:4.070,339.293,43.2025,0,0.000885,0,0
0:3:4.372,339.235,43.1957,0,0.000885,0,0
0:3:4.673,339.88,43.2715,0,0.000885,0,0
0:3:4.975,340.876,43.4025,0,0.000885,0,0
0:3:5.275,341.405,43.4714,0,0.000885,0,0
0:3:5.574,342.05,43.5542,0,0.000885,0,0
0:3:5.872,341.757,43.5128,0,0.000885,0,0
0:3:6.169,343.047,43.6783,0,0.000885,0,0
0:3:6.460,343.634,43.7541,0,0.000885,0,0
0:3:6.760,343.634,43.7541,0,0.000885,0,0
0:3:7.054,345.218,43.9541,0,0.000885,0,0
0:3:7.352,346.098,44.0644,0,0.000885,0,0
0:3:7.647,345.92,44.0437,0,0.000885,0,0
0:3:7.943,346.975,44.1816,0,0.000885,0,0
0:3:8.242,347.388,44.2299,0,0.000885,0,0
0:3:8.535,348.265,44.3402,0,0.000885,0,0
0:3:8.833,348.265,44.3402,0,0.000885,0,0
0:3:9.127,349.497,44.4988,0,0.000885,0,0
0:3:9.428,349.79,44.5401,0,0.000885,0,0
0:3:9.732,349.733,44.5263,0,0.000885,0,0
0:3:10.033,350.849,44.6711,0,0.000885,0,0
0:3:10.332,351.08,44.6987,0,0.000885,0,0
0:3:10.633,351.961,44.8159,0,0.000885,0,0
0:3:10.931,352.548,44.8849,0,0.000885,0,0
0:3:11.223,351.961,44.8159,0,0.000885,0,0
0:3:11.521,352.664,44.9056,0,0.000885,0,0
0:3:11.818,354.19,45.0986,0,0.000885,0,0
0:3:12.111,354.132,45.0917,0,0.000885,0,0
0:3:12.411,355.364,45.2434,0,0.000885,0,0
0:3:12.704,355.48,45.2641,0,0.000885,0,0
0:3:13.004,356.418,45.3813,0,0.000885,0,0
0:3:13.298,357.593,45.533,0,0.000885,0,0
0:3:13.597,358.06,45.5881,0,0.000885,0,0
0:3:13.893,359.06,45.7191,0,0.000885,0,0
0:3:14.185,359.06,45.7191,0,0.000885,0,0
0:3:14.485,359.821,45.8157,0,0.000885,0,0
0:3:14.786,361.053,45.9673,0,0.000885,0,0
0:3:15.088,360.875,45.9467,0,0.000885,0,0
0:3:15.390,360.875,45.9467,0,0.000885,0,0
0:3:15.689,361.992,46.0915,0,0.000885,0,0
0:3:15.991,362.459,46.1466,0,0.000885,0,0
0:3:16.285,362.873,46.2018,0,0.000885,0,0
0:3:16.584,363.518,46.2845,0,0.000885,0,0
0:3:16.878,364.336,46.3879,0,0.000885,0,0
0:3:17.175,364.278,46.381,0,0.000885,0,0
0:3:17.473,365.453,46.5327,0,0.000885,0,0
0:3:17.766,366.329,46.643,0,0.000885,0,0
0:3:18.064,366.329,46.643,0,0.000885,0,0
0:3:18.356,367.797,46.8292,0,0.000885,0,0
0:3:18.655,368.033,46.8568,0,0.000885,0,0
0:3:18.950,368.735,46.9464,0,0.000885,0,0
0:3:19.252,368.442,46.9119,0,0.000885,0,0
0:3:19.554,369.496,47.0429,0,0.000885,0,0
0:3:19.855,370.083,47.1188,0,0.000885,0,0
0:3:20.155,370.261,47.1464,0,0.000885,0,0
0:3:20.456,370.848,47.2153,0,0.000885,0,0
0:3:20.762,371.845,47.3463,0,0.000885,0,0
0:3:21.060,371.845,47.3463,0,0.000885,0,0
0:3:21.364,372.957,47.4842,0,0.000885,0,0
0:3:21.664,373.895,47.6083,0,0.000885,0,0
0:3:21.956,374.131,47.6359,0,0.000885,0,0
0:3:22.256,375.012,47.7462,0,0.000885,0,0
0:3:22.549,375.012,47.7462,0,0.000885,0,0
0:3:22.847,376.124,47.891,0,0.000885,0,0
0:3:23.144,376.653,47.9599,0,0.000885,0,0
0:3:23.437,377.298,48.0358,0,0.000885,0,0
0:3:23.736,377.943,48.1185,0,0.000885,0,0
0:3:24.029,378.179,48.153,0,0.000885,0,0
0:3:24.331,378.94,48.2495,0,0.000885,0,0
0:3:24.633,379.175,48.2771,0,0.000885,0,0
0:3:24.935,380.114,48.3943,0,0.000885,0,0
0:3:25.233,380.643,48.4632,0,0.000885,0,0
0:3:25.534,381.813,48.6149,0,0.000885,0,0
0:3:25.834,382.049,48.6425,0,0.000885,0,0
0:3:26.125,382.458,48.6977,0,0.000885,0,0
0:3:26.424,382.636,48.7184,0,0.000885,0,0
0:3:26.721,383.517,48.8287,0,0.000885,0,0
0:3:27.015,383.517,48.8287,0,0.000885,0,0
0:3:27.312,384.513,48.9597,0,0.000885,0,0
0:3:27.607,385.274,49.0562,0,0.000885,0,0
0:3:27.907,385.452,49.0769,0,0.000885,0,0
0:3:28.202,386.448,49.201,0,0.000885,0,0
0:3:28.499,387.093,49.2837,0,0.000885,0,0
0:3:28.794,387.622,49.3527,0,0.000885,0,0
0:3:29.089,388.325,49.4423,0,0.000885,0,0
0:3:29.388,389.086,49.5388,0,0.000885,0,0
0:3:29.691,389.557,49.6009,0,0.000885,0,0
0:3:29.994,390.376,49.7043,0,0.000885,0,0
0:3:30.294,390.26,49.6905,0,0.000885,0,0
0:3:30.593,391.377,49.8284,0,0.000885,0,0
0:3:30.894,391.902,49.8974,0,0.000885,0,0
0:3:31.187,392.725,50.0008,0,0.000885,0,0
0:3:31.488,392.84,50.0215,0,0.000885,0,0
0:3:31.780,393.427,50.0904,0,0.000885,0,0
0:3:32.078,394.66,50.249,0,0.000885,0,0
0:3:32.374,393.957,50.1594,0,0.000885,0,0
0:3:32.668,395.362,50.3386,0,0.000885,0,0
0:3:32.965,395.42,50.3455,0,0.000885,0,0
0:3:33.268,396.652,50.5041,0,0.000885,0,0
0:3:33.566,396.83,50.5248,0,0.000885,0,0
0:3:33.874,397.591,50.6213,0,0.000885,0,0
0:3:34.173,397.942,50.6696,0,0.000885,0,0
0:3:34.477,399.001,50.8006,0,0.000885,0,0
0:3:34.778,399.94,50.9247,0,0.000885,0,0
0:3:35.078,399.877,50.9109,0,0.000885,0,0
0:3:35.377,400.349,50.9729,0,0.000885,0,0
0:3:35.677,401.109,51.0695,0,0.000885,0,0
0:3:35.973,401.639,51.1384,0,0.000885,0,0
0:3:36.266,402.462,51.2418,0,0.000885,0,0
0:3:36.575,403.222,51.3384,0,0.000885,0,0
0:3:36.867,403.4,51.359,0,0.000885,0,0
0:3:37.166,403.632,51.3935,0,0.000885,0,0
0:3:37.467,404.219,51.4694,0,0.000885,0,0
0:3:37.765,404.806,51.5383,0,0.000885,0,0
0:3:38.063,405.918,51.6831,0,0.000885,0,0
0:3:38.357,406.447,51.752,0,0.000885,0,0
0:3:38.655,406.799,51.7934,0,0.000885,0,0
0:3:38.959,407.622,51.8968,0,0.000885,0,0
0:3:39.260,408.089,51.9589,0,0.000885,0,0
0:3:39.562,408.56,52.0209,0,0.000885,0,0
0:3:39.864,409.792,52.1795,0,0.000885,0,0
0:3:40.162,409.614,52.1519,0,0.000885,0,0
0:3:40.463,410.904,52.3174,0,0.000885,0,0
0:3:40.762,411.434,52.3864,0,0.000885,0,0
0:3:41.076,411.14,52.345,0,0.000885,0,0
0:3:41.374,412.43,52.5105,0,0.000885,0,0
0:3:41.667,412.782,52.5587,0,0.000885,0,0
0:3:41.974,413.484,52.6484,0,0.000885,0,0
0:3:42.271,414.659,52.7932,0,0.000885,0,0
0:3:42.563,414.717,52.8001,0,0.000885,0,0
0:3:42.863,415.54,52.9104,0,0.000885,0,0
0:3:43.157,415.833,52.9448,0,0.000885,0,0
0:3:43.464,416.42,53.0207,0,0.000885,0,0
0:3:43.773,417.123,53.1103,0,0.000885,0,0
0:3:44.065,417.417,53.1448,0,0.000885,0,0
0:3:44.365,418.177,53.2413,0,0.000885,0,0
0:3:44.668,419,53.3516,0,0.000885,0,0
0:3:44.971,418.88,53.3309,0,0.000885,0,0
0:3:45.274,420.232,53.5033,0,0.000885,0,0
0:3:45.574,420.464,53.5378,0,0.000885,0,0
0:3:45.875,421.287,53.6412,0,0.000885,0,0
0:3:46.177,421.754,53.6964,0,0.000885,0,0
0:3:46.478,422.283,53.7653,0,0.000885,0,0
0:3:46.770,422.634,53.8136,0,0.000885,0,0
0:3:47.067,423.4,53.9101,0,0.000885,0,0
0:3:47.363,423.982,53.9859,0,0.000885,0,0
0:3:47.658,424.512,54.048,0,0.000885,0,0
0:3:47.958,424.69,54.0756,0,0.000885,0,0
0:3:48.259,425.277,54.1445,0,0.000885,0,0
0:3:48.559,426.095,54.2548,0,0.000885,0,0
0:3:48.855,427.149,54.3858,0,0.000885,0,0
0:3:49.155,427.972,54.4893,0,0.000885,0,0
0:3:49.459,428.559,54.5651,0,0.000885,0,0
0:3:49.761,428.969,54.6203,0,0.000885,0,0
0:3:50.061,429.147,54.641,0,0.000885,0,0
0:3:50.361,429.907,54.7375,0,0.000885,0,0
0:3:50.659,430.672,54.834,0,0.000885,0,0
0:3:50.955,431.139,54.8961,0,0.000885,0,0
0:3:51.268,431.784,54.9788,0,0.000885,0,0
0:3:51.569,432.665,55.0891,0,0.000885,0,0
0:3:51.872,432.839,55.1098,0,0.000885,0,0
0:3:52.181,433.368,55.1787,0,0.000885,0,0
0:3:52.477,434.191,55.2822,0,0.000885,0,0
0:3:52.771,434.778,55.358,0,0.000885,0,0
0:3:53.070,434.952,55.3787,0,0.000885,0,0
0:3:53.371,435.717,55.4752,0,0.000885,0,0
0:3:53.670,436.477,55.5717,0,0.000885,0,0
0:3:53.966,437.007,55.6407,0,0.000885,0,0
0:3:54.268,437.3,55.6752,0,0.000885,0,0
0:3:54.571,438.003,55.7648,0,0.000885,0,0
0:3:54.874,438.412,55.82,0,0.000885,0,0
0:3:55.174,439.409,55.9441,0,0.000885,0,0
0:3:55.475,440.174,56.0475,0,0.000885,0,0
0:3:55.770,440.756,56.1164,0,0.000885,0,0
0:3:56.066,441.05,56.1578,0,0.000885,0,0
0:3:56.362,441.815,56.2543,0,0.000885,0,0
0:3:56.660,442.34,56.3233,0,0.000885,0,0
0:3:56.953,443.163,56.4267,0,0.000885,0,0
0:3:57.253,443.572,56.475,0,0.000885,0,0
0:3:57.567,443.986,56.5301,0,0.000885,0,0
0:3:57.875,443.866,56.5163,0,0.000885,0,0
0:3:58.169,444.631,56.6129,0,0.000885,0,0
0:3:58.465,445.627,56.737,0,0.000885,0,0
0:3:58.764,446.508,56.8542,0,0.000885,0,0
0:3:59.057,447.327,56.9576,0,0.000885,0,0
0:3:59.356,447.269,56.9507,0,0.000885,0,0
0:3:59.660,448.029,57.0472,0,0.000885,0,0
0:3:59.961,449.382,57.2196,0,0.000885,0,0
0:4:0.263,449.555,57.2403,0,0.000885,0,0
0:4:0.563,450.258,57.3299,0,0.000885,0,0
0:4:0.863,450.436,57.3506,0,0.000885,0,0
0:4:1.178,451.259,57.454,0,0.000885,0,0
0:4:1.475,451.61,57.5023,0,0.000885,0,0
0:4:1.782,452.607,57.6264,0,0.000885,0,0
0:4:2.075,452.958,57.6746,0,0.000885,0,0
0:4:2.375,453.425,57.7298,0,0.000885,0,0
0:4:2.667,454.07,57.8125,0,0.000885,0,0
0:4:2.964,454.306,57.847,0,0.000885,0,0
0:4:3.260,455.187,57.9573,0,0.000885,0,0
0:4:3.565,455.596,58.0056,0,0.000885,0,0
0:4:3.875,456.477,58.1228,0,0.000885,0,0
0:4:4.177,456.828,58.1642,0,0.000885,0,0
0:4:4.479,457.237,58.2193,0,0.000885,0,0
0:4:4.780,457.593,58.2607,0,0.000885,0,0
0:4:5.084,458.763,58.4124,0,0.000885,0,0
0:4:5.384,459.528,58.5089,0,0.000885,0,0
0:4:5.684,459.822,58.5434,0,0.000885,0,0
0:4:5.985,460.64,58.6537,0,0.000885,0,0
0:4:6.278,461.112,58.7089,0,0.000885,0,0
0:4:6.583,461.872,58.8054,0,0.000885,0,0
0:4:6.882,462.459,58.8812,0,0.000885,0,0
0:4:7.176,462.989,58.9502,0,0.000885,0,0
0:4:7.472,463.514,59.0191,0,0.000885,0,0
0:4:7.766,463.985,59.0743,0,0.000885,0,0
0:4:8.067,465.217,59.2329,0,0.000885,0,0
0:4:8.369,465.449,59.2604,0,0.000885,0,0
0:4:8.666,466.036,59.3363,0,0.000885,0,0
0:4:8.964,466.271,59.3708,0,0.000885,0,0
0:4:9.265,466.859,59.4397,0,0.000885,0,0
0:4:9.568,467.446,59.5155,0,0.000885,0,0
0:4:9.869,467.971,59.5845,0,0.000885,0,0
0:4:10.169,468.794,59.6879,0,0.000885,0,0
0:4:10.469,469.087,59.7293,0,0.000885,0,0
0:4:10.765,470.671,59.9292,0,0.000885,0,0
0:4:11.062,470.844,59.9499,0,0.000885,0,0
0:4:11.366,471.489,60.0327,0,0.000885,0,0
0:4:11.665,472.076,60.1085,0,0.000885,0,0
0:4:11.958,472.254,60.1292,0,0.000885,0,0
0:4:12.258,473.015,60.2257,0,0.000885,0,0
0:4:12.553,473.722,60.3153,0,0.000885,0,0
0:4:12.848,474.011,60.3498,0,0.000885,0,0
0:4:13.145,474.011,60.3498,0,0.000885,0,0
0:4:13.440,474.892,60.467,0,0.000885,0,0
0:4:13.739,476.066,60.6118,0,0.000885,0,0
0:4:14.033,476.769,60.7014,0,0.000885,0,0
0:4:14.333,476.889,60.7221,0,0.000885,0,0
0:4:14.636,477.824,60.8393,0,0.000885,0,0
0:4:14.937,478.117,60.8738,0,0.000885,0,0
0:4:15.239,478.704,60.9497,0,0.000885,0,0
0:4:15.540,479.176,61.0117,0,0.000885,0,0
0:4:15.839,479.701,61.0807,0,0.000885,0,0
0:4:16.134,480.702,61.2048,0,0.000885,0,0
0:4:16.430,481.226,61.2737,0,0.000885,0,0
0:4:16.728,482.107,61.384,0,0.000885,0,0
0:4:17.020,482.81,61.4737,0,0.000885,0,0
0:4:17.320,483.046,61.5012,0,0.000885,0,0
0:4:17.614,483.397,61.5495,0,0.000885,0,0
0:4:17.911,484.336,61.6667,0,0.000885,0,0
0:4:18.207,484.745,61.7219,0,0.000885,0,0
0:4:18.503,485.804,61.8529,0,0.000885,0,0
0:4:18.802,485.684,61.8391,0,0.000885,0,0
0:4:19.094,486.155,61.9011,0,0.000885,0,0
0:4:19.395,487.036,62.0114,0,0.000885,0,0
0:4:19.698,487.036,62.0114,0,0.000885,0,0
0:4:19.999,488.032,62.1356,0,0.000885,0,0
0:4:20.301,488.499,62.1976,0,0.000885,0,0
0:4:20.601,489.202,62.2872,0,0.000885,0,0
0:4:20.904,489.553,62.3355,0,0.000885,0,0
0:4:21.197,490.728,62.4803,0,0.000885,0,0
0:4:21.495,491.315,62.5561,0,0.000885,0,0
0:4:21.793,491.609,62.5906,0,0.000885,0,0
0:4:22.087,492.138,62.6596,0,0.000885,0,0
0:4:22.384,492.783,62.7423,0,0.000885,0,0
0:4:22.679,493.192,62.7974,0,0.000885,0,0
0:4:22.980,493.779,62.8664,0,0.000885,0,0
0:4:23.283,494.246,62.9284,0,0.000885,0,0
0:4:23.581,494.891,63.0112,0,0.000885,0,0
0:4:23.878,495.363,63.0732,0,0.000885,0,0
0:4:24.180,496.537,63.218,0,0.000885,0,0
0:4:24.483,497.004,63.2801,0,0.000885,0,0
0:4:24.784,497.298,63.3146,0,0.000885,0,0
0:4:25.084,497.885,63.3904,0,0.000885,0,0
0:4:25.385,499.175,63.5559,0,0.000885,0,0
0:4:25.680,499.526,63.6041,0,0.000885,0,0
0:4:25.980,499.936,63.6524,0,0.000885,0,0
0:4:26.282,500.465,63.7213,0,0.000885,0,0
0:4:26.582,501.052,63.7972,0,0.000885,0,0
0:4:26.874,502.106,63.9282,0,0.000885,0,0
0:4:27.183,502.4,63.9696,0,0.000885,0,0
0:4:27.479,502.871,64.0247,0,0.000885,0,0
0:4:27.782,503.516,64.1075,0,0.000885,0,0
0:4:28.083,504.219,64.1971,0,0.000885,0,0
0:4:28.373,504.628,64.2522,0,0.000885,0,0
0:4:28.673,505.331,64.3419,0,0.000885,0,0
0:4:28.967,505.745,64.3901,0,0.000885,0,0
0:4:29.268,506.096,64.4384,0,0.000885,0,0
0:4:29.573,507.208,64.5832,0,0.000885,0,0
0:4:29.875,507.56,64.6246,0,0.000885,0,0
0:4:30.174,508.267,64.7142,0,0.000885,0,0
0:4:30.474,508.792,64.7831,0,0.000885,0,0
0:4:30.771,509.673,64.8935,0,0.000885,0,0
0:4:31.076,510.14,64.9555,0,0.000885,0,0
0:4:31.382,510.26,64.9693,0,0.000885,0,0
0:4:31.681,510.669,65.0176,0,0.000885,0,0
0:4:31.983,511.256,65.0934,0,0.000885,0,0
0:4:32.284,512.368,65.2382,0,0.000885,0,0
0:4:32.579,513.191,65.3416,0,0.000885,0,0
0:4:32.874,513.307,65.3554,0,0.000885,0,0
0:4:33.171,513.894,65.4312,0,0.000885,0,0
0:4:33.476,514.308,65.4864,0,0.000885,0,0
0:4:33.774,515.598,65.645,0,0.000885,0,0
0:4:34.066,515.829,65.6795,0,0.000885,0,0
0:4:34.367,516.474,65.7622,0,0.000885,0,0
0:4:34.670,516.652,65.7829,0,0.000885,0,0
0:4:34.971,517.648,65.907,0,0.000885,0,0
0:4:35.273,518.293,65.9897,0,0.000885,0,0
0:4:35.572,518.765,66.0518,0,0.000885,0,0
0:4:35.872,519.059,66.0862,0,0.000885,0,0
0:4:36.174,519.29,66.1207,0,0.000885,0,0
0:4:36.472,520.171,66.231,0,0.000885,0,0
0:4:36.769,520.406,66.2586,0,0.000885,0,0
0:4:37.072,521.109,66.3482,0,0.000885,0,0
0:4:37.372,521.812,66.4379,0,0.000885,0,0
0:4:37.674,522.163,66.4861,0,0.000885,0,0
0:4:37.973,523.164,66.6103,0,0.000885,0,0
0:4:38.280,523.516,66.6585,0,0.000885,0,0
0:4:38.574,524.218,66.7481,0,0.000885,0,0
0:4:38.872,521.167,66.3551,0,0.000885,0,0
0:4:39.174,522.226,66.493,0,0.000885,0,0
0:4:39.474,522.457,66.5206,0,0.000885,0,0
0:4:39.773,523.28,66.624,0,0.000885,0,0
0:4:40.071,524.218,66.7481,0,0.000885,0,0
0:4:40.372,523.925,66.7068,0,0.000885,0,0
0:4:40.666,524.628,66.7964,0,0.000885,0,0
0:4:40.966,525.802,66.9481,0,0.000885,0,0
0:4:41.267,526.153,66.9895,0,0.000885,0,0
0:4:41.566,526.798,67.0722,0,0.000885,0,0
0:4:41.863,527.795,67.2032,0,0.000885,0,0
0:4:42.167,520.7,66.3,0,0.000885,0,0
0:4:42.464,517.061,65.8311,0,0.000885,0,0
0:4:42.758,517.181,65.8518,0,0.000885,0,0
0:4:43.056,503.926,64.1626,0,0.000885,0,0
0:4:43.348,500.932,63.7834,0,0.000885,0,0
0:4:43.646,500.816,63.7627,0,0.000885,0,0
0:4:43.942,502.164,63.9351,0,0.000885,0,0
0:4:44.243,503.045,64.0523,0,0.000885,0,0
0:4:44.545,504.393,64.2247,0,0.000885,0,0
0:4:44.844,505.509,64.3626,0,0.000885,0,0
0:4:45.143,505.976,64.4246,0,0.000885,0,0
0:4:45.443,495.305,63.0663,0,0.000885,0,0
0:4:45.738,492.721,62.7354,0,0.000885,0,0
0:4:46.035,491.666,62.6044,0,0.000885,0,0
0:4:46.328,486.8,61.9839,0,0.000885,0,0
0:4:46.626,486.68,61.9632,0,0.000885,0,0
0:4:46.919,487.445,62.0666,0,0.000885,0,0
0:4:47.219,488.557,62.2045,0,0.000885,0,0
0:4:47.512,489.38,62.3079,0,0.000885,0,0
0:4:47.807,490.906,62.501,0,0.000885,0,0
0:4:48.104,492.431,62.7009,0,0.000885,0,0
0:4:48.397,493.192,62.7974,0,0.000885,0,0
0:4:48.697,494.304,62.9353,0,0.000885,0,0
0:4:48.989,495.069,63.0319,0,0.000885,0,0
0:4:49.289,496.008,63.156,0,0.000885,0,0
0:4:49.590,497.534,63.349,0,0.000885,0,0
0:4:49.892,498.294,63.4456,0,0.000885,0,0
0:4:50.191,499.233,63.5628,0,0.000885,0,0
0:4:50.491,499.936,63.6524,0,0.000885,0,0
0:4:50.791,500.638,63.742,0,0.000885,0,0
0:4:51.083,501.519,63.8523,0,0.000885,0,0
0:4:51.381,502.164,63.9351,0,0.000885,0,0
0:4:51.687,502.284,63.9558,0,0.000885,0,0
0:4:51.978,502.751,64.0109,0,0.000885,0,0
0:4:52.275,503.223,64.073,0,0.000885,0,0
0:4:52.581,503.984,64.1695,0,0.000885,0,0
0:4:52.877,504.922,64.2867,0,0.000885,0,0
0:4:53.183,504.806,64.2729,0,0.000885,0,0
0:4:53.477,488.263,62.17,0,0.000885,0,0
0:4:53.785,465.742,59.3018,0,0.000885,0,0
0:4:54.085,464.63,59.157,0,0.000885,0,0
0:4:54.387,465.391,59.2535,0,0.000885,0,0
0:4:54.686,466.507,59.3983,0,0.000885,0,0
0:4:54.986,467.504,59.5224,0,0.000885,0,0
0:4:55.285,440.877,56.1371,0,0.000885,0,0
0:4:55.587,437.416,55.6958,0,0.000885,0,0
0:4:55.886,436.184,55.5373,0,0.000885,0,0
0:4:56.175,435.654,55.4683,0,0.000885,0,0
0:4:56.475,434.894,55.3718,0,0.000885,0,0
0:4:56.771,434.894,55.3718,0,0.000885,0,0
0:4:57.074,408.325,51.9865,0,0.000885,0,0
0:4:57.284,376.538,47.9392,0,0.000885,0,0