File: DataFile2021-07-15_055344.csv
Test ID:,Date Tested:,Time:,Test Type:,Diameter Avg. (mm):,Cyl. Corr. Factor:,Height (mm):,Age (days):,Weight (kN):,Break Type:,Ramp Rate (MPa/s):,Load at Break (kN):,Stress at Break (MPa):
12,7/15/2021,05:53,Cylinder,150,1,300,0,3.6,3,0.25,1734.99,98.18
Sample Time,Load (kN),Stress (MPa),Long. Strain,Trans. Strain,Chan1 Deflection (mm),Chan2 Deflection (mm)
0:0:6.813,5.80493,0.330948,0,0.000885,0,0
0:0:7.209,7.03709,0.399896,0,0.000885,0,0
0:0:7.609,9.38575,0.530896,0,0.000885,0,0
0:0:8.008,9.67933,0.544686,0,0.000885,0,0
0:0:8.404,11.4942,0.648107,0,0.000885,0,0
0:0:8.799,14.2521,0.806687,0,0.000885,0,0
0:0:9.199,15.3686,0.868739,0,0.000885,0,0
0:0:9.598,18.0064,1.02042,0,0.000885,0,0
0:0:9.995,18.8249,1.06869,0,0.000885,0,0
0:0:10.391,19.7634,1.11695,0,0.000885,0,0
0:0:10.786,21.8764,1.24106,0,0.000885,0,0
0:0:11.188,23.5756,1.33758,0,0.000885,0,0
0:0:11.588,25.4527,1.441,0,0.000885,0,0
0:0:11.984,27.2142,1.53753,0,0.000885,0,0
0:0:12.390,29.6785,1.68232,0,0.000885,0,0
0:0:12.795,31.0263,1.75816,0,0.000885,0,0
0:0:13.200,33.6063,1.90295,0,0.000885,0,0
0:0:13.603,35.1321,1.98569,0,0.000885,0,0
0:0:14.002,37.5385,2.12359,0,0.000885,0,0
0:0:14.400,39.8828,2.25459,0,0.000885,0,0
0:0:14.800,41.2306,2.33043,0,0.000885,0,0
0:0:15.200,43.2856,2.44764,0,0.000885,0,0
0:0:15.596,45.2784,2.56485,0,0.000885,0,0
0:0:15.991,47.1556,2.66827,0,0.000885,0,0
0:0:16.390,48.8548,2.7648,0,0.000885,0,0
0:0:16.792,50.2026,2.84064,0,0.000885,0,0
0:0:17.190,51.377,2.90959,0,0.000885,0,0
0:0:17.597,53.1385,3.00611,0,0.000885,0,0
0:0:18.003,54.8377,3.10264,0,0.000885,0,0
0:0:18.407,56.8928,3.21985,0,0.000885,0,0
0:0:18.811,58.3562,3.30259,0,0.000885,0,0
0:0:19.208,60.4691,3.4198,0,0.000885,0,0
0:0:19.604,62.6399,3.54391,0,0.000885,0,0
0:0:20.003,64.4547,3.64733,0,0.000885,0,0
0:0:20.403,65.8648,3.73006,0,0.000885,0,0
0:0:20.801,67.1548,3.79901,0,0.000885,0,0
0:0:21.196,68.9163,3.90243,0,0.000885,0,0
0:0:21.592,71.2027,4.02654,0,0.000885,0,0
0:0:21.993,72.7863,4.11617,0,0.000885,0,0
0:0:22.392,74.2497,4.19891,0,0.000885,0,0
0:0:22.800,76.069,4.30233,0,0.000885,0,0
0:0:23.205,78.0618,4.41954,0,0.000885,0,0
0:0:23.608,79.8812,4.52296,0,0.000885,0,0
0:0:24.012,81.6427,4.61949,0,0.000885,0,0
0:0:24.410,83.4575,4.72291,0,0.000885,0,0
0:0:24.806,84.6897,4.79186,0,0.000885,0,0
0:0:25.202,86.6869,4.90217,0,0.000885,0,0
0:0:25.602,88.1504,4.9918,0,0.000885,0,0
0:0:26.002,90.4412,5.11591,0,0.000885,0,0
0:0:26.401,92.3139,5.22623,0,0.000885,0,0
0:0:26.795,94.1911,5.32965,0,0.000885,0,0
0:0:27.201,96.1261,5.43996,0,0.000885,0,0
0:0:27.607,97.5362,5.5227,0,0.000885,0,0
0:0:28.011,99.2932,5.61923,0,0.000885,0,0
0:0:28.414,100.939,5.70886,0,0.000885,0,0
0:0:28.812,102.816,5.81918,0,0.000885,0,0
0:0:29.211,104.573,5.9157,0,0.000885,0,0
0:0:29.612,106.802,6.0467,0,0.000885,0,0
0:0:30.010,108.737,6.15012,0,0.000885,0,0
0:0:30.406,109.675,6.20528,0,0.000885,0,0
0:0:30.806,111.495,6.3087,0,0.000885,0,0
0:0:31.205,113.078,6.39833,0,0.000885,0,0
0:0:31.606,115.071,6.50865,0,0.000885,0,0
0:0:32.000,116.481,6.59139,0,0.000885,0,0
0:0:32.407,118.71,6.71549,0,0.000885,0,0
0:0:32.813,120.645,6.82581,0,0.000885,0,0
0:0:33.216,122.637,6.94302,0,0.000885,0,0
0:0:33.621,124.75,7.06023,0,0.000885,0,0
0:0:34.018,126.156,7.13607,0,0.000885,0,0
0:0:34.417,128.033,7.24639,0,0.000885,0,0
0:0:34.818,129.91,7.34981,0,0.000885,0,0
0:0:35.215,130.849,7.40497,0,0.000885,0,0
0:0:35.610,132.432,7.4946,0,0.000885,0,0
0:0:36.010,134.425,7.60492,0,0.000885,0,0
0:0:36.410,136.48,7.72213,0,0.000885,0,0
0:0:36.809,137.886,7.80487,0,0.000885,0,0
0:0:37.206,139.883,7.91518,0,0.000885,0,0
0:0:37.612,141.582,8.01171,0,0.000885,0,0
0:0:38.018,143.46,8.11513,0,0.000885,0,0
0:0:38.422,145.217,8.21855,0,0.000885,0,0
0:0:38.826,146.742,8.30129,0,0.000885,0,0
0:0:39.224,149.265,8.44608,0,0.000885,0,0
0:0:39.619,150.79,8.53571,0,0.000885,0,0
0:0:40.021,152.667,8.63913,0,0.000885,0,0
0:0:40.420,154.309,8.72876,0,0.000885,0,0
0:0:40.815,155.657,8.8115,0,0.000885,0,0
0:0:41.212,157.302,8.90113,0,0.000885,0,0
0:0:41.611,159.411,9.01834,0,0.000885,0,0
0:0:42.012,160.937,9.10797,0,0.000885,0,0
0:0:42.418,162.52,9.19761,0,0.000885,0,0
0:0:42.823,164.455,9.30792,0,0.000885,0,0
0:0:43.226,166.332,9.41134,0,0.000885,0,0
0:0:43.629,168.387,9.52855,0,0.000885,0,0
0:0:44.030,170.202,9.63198,0,0.000885,0,0
0:0:44.425,171.906,9.7285,0,0.000885,0,0
0:0:44.820,173.49,9.81813,0,0.000885,0,0
0:0:45.221,175.482,9.92845,0,0.000885,0,0
0:0:45.621,177.595,10.0526,0,0.000885,0,0
0:0:46.020,178.472,10.1008,0,0.000885,0,0
0:0:46.416,180.469,10.2111,0,0.000885,0,0
0:0:46.812,182.346,10.3215,0,0.000885,0,0
0:0:47.216,184.223,10.4249,0,0.000885,0,0
0:0:47.623,185.864,10.5145,0,0.000885,0,0
0:0:48.026,187.39,10.6041,0,0.000885,0,0
0:0:48.430,189.205,10.7076,0,0.000885,0,0
0:0:48.830,191.318,10.8248,0,0.000885,0,0
0:0:49.230,193.08,10.9282,0,0.000885,0,0
0:0:49.624,194.952,11.0316,0,0.000885,0,0
0:0:50.017,196.304,11.1075,0,0.000885,0,0
0:0:50.412,198.062,11.2109,0,0.000885,0,0
0:0:50.811,199.587,11.2936,0,0.000885,0,0
0:0:51.207,201.642,11.4108,0,0.000885,0,0
0:0:51.597,202.812,11.4798,0,0.000885,0,0
0:0:51.992,204.983,11.597,0,0.000885,0,0
0:0:52.393,206.86,11.7073,0,0.000885,0,0
0:0:52.799,208.915,11.8245,0,0.000885,0,0
0:0:53.200,210.672,11.921,0,0.000885,0,0
0:0:53.601,212.492,12.0245,0,0.000885,0,0
0:0:53.995,214.191,12.121,0,0.000885,0,0
0:0:54.392,216.419,12.2451,0,0.000885,0,0
0:0:54.788,218.181,12.3485,0,0.000885,0,0
0:0:55.183,219.586,12.4244,0,0.000885,0,0
0:0:55.576,220.761,12.4933,0,0.000885,0,0
0:0:55.974,222.696,12.6036,0,0.000885,0,0
0:0:56.370,223.928,12.6726,0,0.000885,0,0
0:0:56.763,226.041,12.7898,0,0.000885,0,0
0:0:57.166,227.504,12.8725,0,0.000885,0,0
0:0:57.568,229.733,13.0035,0,0.000885,0,0
0:0:57.973,231.201,13.0862,0,0.000885,0,0
0:0:58.374,233.194,13.1966,0,0.000885,0,0
0:0:58.774,234.955,13.2931,0,0.000885,0,0
0:0:59.169,236.712,13.3965,0,0.000885,0,0
0:0:59.565,238.531,13.4999,0,0.000885,0,0
0:0:59.959,240.409,13.6034,0,0.000885,0,0
0:1:0.355,241.934,13.693,0,0.000885,0,0
0:1:0.748,243.46,13.7757,0,0.000885,0,0
0:1:1.153,245.804,13.9067,0,0.000885,0,0
0:1:1.563,247.681,14.017,0,0.000885,0,0
0:1:1.966,249.381,14.1136,0,0.000885,0,0
0:1:2.369,251.671,14.2446,0,0.000885,0,0
0:1:2.772,253.255,14.3342,0,0.000885,0,0
0:1:3.173,255.306,14.4445,0,0.000885,0,0
0:1:3.574,257.005,14.541,0,0.000885,0,0
0:1:3.969,258.588,14.6307,0,0.000885,0,0
0:1:4.360,259.354,14.6789,0,0.000885,0,0
0:1:4.767,260.937,14.7686,0,0.000885,0,0
0:1:5.165,262.872,14.8789,0,0.000885,0,0
0:1:5.558,264.691,14.9754,0,0.000885,0,0
0:1:5.962,266.275,15.065,0,0.000885,0,0
0:1:6.366,267.916,15.1616,0,0.000885,0,0
0:1:6.764,270.318,15.2995,0,0.000885,0,0
0:1:7.170,271.729,15.3753,0,0.000885,0,0
0:1:7.573,273.486,15.4787,0,0.000885,0,0
0:1:7.975,275.656,15.5959,0,0.000885,0,0
0:1:8.375,277.298,15.6925,0,0.000885,0,0
0:1:8.775,279.295,15.8028,0,0.000885,0,0
0:1:9.170,280.994,15.8993,0,0.000885,0,0
0:1:9.572,282.929,16.0096,0,0.000885,0,0
0:1:9.968,284.748,16.113,0,0.000885,0,0
0:1:10.364,286.568,16.2165,0,0.000885,0,0
0:1:10.759,287.973,16.2992,0,0.000885,0,0
0:1:11.165,289.673,16.3888,0,0.000885,0,0
0:1:11.566,291.67,16.506,0,0.000885,0,0
0:1:11.964,293.427,16.6026,0,0.000885,0,0
0:1:12.370,294.953,16.6922,0,0.000885,0,0
0:1:12.775,297.533,16.837,0,0.000885,0,0
0:1:13.176,298.885,16.9128,0,0.000885,0,0
0:1:13.576,301.051,17.0369,0,0.000885,0,0
0:1:13.976,302.341,17.1059,0,0.000885,0,0
0:1:14.372,303.222,17.1611,0,0.000885,0,0
0:1:14.765,305.45,17.2852,0,0.000885,0,0
0:1:15.169,306.976,17.3679,0,0.000885,0,0
0:1:15.567,308.911,17.4782,0,0.000885,0,0
0:1:15.963,310.495,17.5678,0,0.000885,0,0
0:1:16.357,312.608,17.6919,0,0.000885,0,0
0:1:16.760,314.427,17.7954,0,0.000885,0,0
0:1:17.161,316.593,17.9126,0,0.000885,0,0
0:1:17.567,318.355,18.016,0,0.000885,0,0
0:1:17.968,319.938,18.1056,0,0.000885,0,0
0:1:18.367,321.406,18.1884,0,0.000885,0,0
0:1:18.771,323.577,18.3125,0,0.000885,0,0
0:1:19.170,325.276,18.409,0,0.000885,0,0
0:1:19.567,327.327,18.5262,0,0.000885,0,0
0:1:19.959,329.262,18.6296,0,0.000885,0,0
0:1:20.353,330.614,18.7055,0,0.000885,0,0
0:1:20.749,332.429,18.8089,0,0.000885,0,0
0:1:21.166,333.723,18.8847,0,0.000885,0,0
0:1:21.561,335.596,18.9882,0,0.000885,0,0
0:1:21.954,337.3,19.0847,0,0.000885,0,0
0:1:22.356,339.057,19.1881,0,0.000885,0,0
0:1:22.759,340.64,19.2777,0,0.000885,0,0
0:1:23.161,342.402,19.3743,0,0.000885,0,0
0:1:23.561,344.452,19.4915,0,0.000885,0,0
0:1:23.956,346.508,19.6087,0,0.000885,0,0
0:1:24.350,347.913,19.6845,0,0.000885,0,0
0:1:24.747,349.617,19.7811,0,0.000885,0,0
0:1:25.142,351.725,19.9052,0,0.000885,0,0
0:1:25.536,352.784,19.9603,0,0.000885,0,0
0:1:25.931,354.777,20.0775,0,0.000885,0,0
0:1:26.327,356.89,20.1947,0,0.000885,0,0
0:1:26.725,358.353,20.2775,0,0.000885,0,0
0:1:27.118,360.466,20.4016,0,0.000885,0,0
0:1:27.522,361.872,20.4774,0,0.000885,0,0
0:1:27.925,364.042,20.6015,0,0.000885,0,0
0:1:28.324,366.271,20.7256,0,0.000885,0,0
0:1:28.725,367.623,20.8015,0,0.000885,0,0
0:1:29.119,369.207,20.8911,0,0.000885,0,0
0:1:29.513,370.612,20.9739,0,0.000885,0,0
0:1:29.912,372.432,21.0773,0,0.000885,0,0
0:1:30.306,374.367,21.1876,0,0.000885,0,0
0:1:30.699,376.186,21.291,0,0.000885,0,0
0:1:31.094,377.885,21.3806,0,0.000885,0,0
0:1:31.490,379.762,21.491,0,0.000885,0,0
0:1:31.887,381.288,21.5737,0,0.000885,0,0
0:1:32.290,383.103,21.6771,0,0.000885,0,0
0:1:32.693,384.687,21.7667,0,0.000885,0,0
0:1:33.094,386.8,21.8909,0,0.000885,0,0
0:1:33.494,388.383,21.9805,0,0.000885,0,0
0:1:33.889,390.318,22.0908,0,0.000885,0,0
0:1:34.282,392.195,22.1942,0,0.000885,0,0
0:1:34.676,393.957,22.2908,0,0.000885,0,0
0:1:35.072,394.895,22.3459,0,0.000885,0,0
0:1:35.471,396.772,22.4493,0,0.000885,0,0
0:1:35.863,398.294,22.539,0,0.000885,0,0
0:1:36.268,400.233,22.6493,0,0.000885,0,0
0:1:36.673,401.817,22.7389,0,0.000885,0,0
0:1:37.073,403.81,22.8492,0,0.000885,0,0
0:1:37.476,405.98,22.9733,0,0.000885,0,0
0:1:37.878,407.27,23.0492,0,0.000885,0,0
0:1:38.279,409.614,23.1802,0,0.000885,0,0
0:1:38.677,411.314,23.2767,0,0.000885,0,0
0:1:39.074,413.253,23.387,0,0.000885,0,0
0:1:39.470,415.01,23.4835,0,0.000885,0,0
0:1:39.873,417.003,23.6008,0,0.000885,0,0
0:1:40.267,419,23.7111,0,0.000885,0,0
0:1:40.661,420.232,23.78,0,0.000885,0,0
0:1:41.059,422.399,23.9041,0,0.000885,0,0
0:1:41.462,423.631,23.9731,0,0.000885,0,0
0:1:41.867,425.744,24.0903,0,0.000885,0,0
0:1:42.270,427.034,24.1661,0,0.000885,0,0
0:1:42.673,428.502,24.2489,0,0.000885,0,0
0:1:43.075,430.552,24.3661,0,0.000885,0,0
0:1:43.475,432.839,24.4971,0,0.000885,0,0
0:1:43.869,434.307,24.5798,0,0.000885,0,0
0:1:44.274,435.832,24.6625,0,0.000885,0,0
0:1:44.672,437.825,24.7729,0,0.000885,0,0
0:1:45.069,439.76,24.8832,0,0.000885,0,0
0:1:45.470,441.401,24.9797,0,0.000885,0,0
0:1:45.864,443.163,25.0762,0,0.000885,0,0
0:1:46.260,445.098,25.1865,0,0.000885,0,0
0:1:46.656,446.508,25.2693,0,0.000885,0,0
0:1:47.062,448.501,25.3796,0,0.000885,0,0
0:1:47.464,450.2,25.4761,0,0.000885,0,0
0:1:47.870,451.904,25.5727,0,0.000885,0,0
0:1:48.270,453.839,25.683,0,0.000885,0,0
0:1:48.671,455.364,25.7657,0,0.000885,0,0
0:1:49.062,457.473,25.8898,0,0.000885,0,0
0:1:49.457,458.999,25.9726,0,0.000885,0,0
0:1:49.854,461.054,26.0898,0,0.000885,0,0
0:1:50.260,462.695,26.1863,0,0.000885,0,0
0:1:50.655,464.924,26.3104,0,0.000885,0,0
0:1:51.048,465.92,26.3656,0,0.000885,0,0
0:1:51.444,467.388,26.4483,0,0.000885,0,0
0:1:51.841,469.554,26.5724,0,0.000885,0,0
0:1:52.237,471.552,26.6827,0,0.000885,0,0
0:1:52.641,473.193,26.7792,0,0.000885,0,0
0:1:53.043,475.07,26.8827,0,0.000885,0,0
0:1:53.444,476.476,26.9654,0,0.000885,0,0
0:1:53.844,478.411,27.0757,0,0.000885,0,0
0:1:54.239,479.994,27.1653,0,0.000885,0,0
0:1:54.632,481.347,27.2412,0,0.000885,0,0
0:1:55.027,483.455,27.3584,0,0.000885,0,0
0:1:55.426,485.159,27.4549,0,0.000885,0,0
0:1:55.822,487.325,27.579,0,0.000885,0,0
0:1:56.217,489.086,27.6756,0,0.000885,0,0
0:1:56.611,491.257,27.7997,0,0.000885,0,0
0:1:57.012,492.956,27.8962,0,0.000885,0,0
0:1:57.416,494.66,27.9927,0,0.000885,0,0
0:1:57.816,496.301,28.0823,0,0.000885,0,0
0:1:58.217,497.827,28.172,0,0.000885,0,0
0:1:58.610,499.526,28.2685,0,0.000885,0,0
0:1:59.006,501.168,28.3581,0,0.000885,0,0
0:1:59.404,502.871,28.4547,0,0.000885,0,0
0:1:59.800,504.219,28.5305,0,0.000885,0,0
0:2:0.194,506.154,28.6408,0,0.000885,0,0
0:2:0.588,507.853,28.7373,0,0.000885,0,0
0:2:0.986,509.851,28.8546,0,0.000885,0,0
0:2:1.383,511.959,28.9718,0,0.000885,0,0
0:2:1.776,513.601,29.0614,0,0.000885,0,0
0:2:2.179,515.011,29.1441,0,0.000885,0,0
0:2:2.580,516.888,29.2476,0,0.000885,0,0
0:2:2.981,518.996,29.3717,0,0.000885,0,0
0:2:3.383,520.642,29.4613,0,0.000885,0,0
0:2:3.777,522.519,29.5716,0,0.000885,0,0
0:2:4.172,524.334,29.6681,0,0.000885,0,0
0:2:4.569,525.624,29.744,0,0.000885,0,0
0:2:4.975,527.208,29.8336,0,0.000885,0,0
0:2:5.370,529.205,29.9439,0,0.000885,0,0
0:2:5.771,530.668,30.0267,0,0.000885,0,0
0:2:6.170,532.43,30.1301,0,0.000885,0,0
0:2:6.565,534.129,30.2266,0,0.000885,0,0
0:2:6.958,536.126,30.3369,0,0.000885,0,0
0:2:7.361,537.768,30.4335,0,0.000885,0,0
0:2:7.763,539.996,30.5576,0,0.000885,0,0
0:2:8.163,541.931,30.6679,0,0.000885,0,0
0:2:8.563,543.337,30.7437,0,0.000885,0,0
0:2:8.957,545.098,30.8471,0,0.000885,0,0
0:2:9.352,546.504,30.923,0,0.000885,0,0
0:2:9.749,548.675,31.0471,0,0.000885,0,0
0:2:10.156,550.73,31.1643,0,0.000885,0,0
0:2:10.560,552.429,31.2608,0,0.000885,0,0
0:2:10.961,554.191,31.3574,0,0.000885,0,0
0:2:11.359,555.832,31.4539,0,0.000885,0,0
0:2:11.755,558.003,31.578,0,0.000885,0,0
0:2:12.151,559.293,31.6469,0,0.000885,0,0
0:2:12.554,560.698,31.7297,0,0.000885,0,0
0:2:12.957,562.282,31.8193,0,0.000885,0,0
0:2:13.357,564.453,31.9434,0,0.000885,0,0
0:2:13.759,566.036,32.033,0,0.000885,0,0
0:2:14.163,567.62,32.1227,0,0.000885,0,0
0:2:14.556,569.906,32.2468,0,0.000885,0,0
0:2:14.952,571.668,32.3502,0,0.000885,0,0
0:2:15.350,573.367,32.4467,0,0.000885,0,0
0:2:15.746,574.835,32.5295,0,0.000885,0,0
0:2:16.138,576.592,32.626,0,0.000885,0,0
0:2:16.532,578.705,32.7501,0,0.000885,0,0
0:2:16.933,580.346,32.8397,0,0.000885,0,0
0:2:17.337,581.988,32.9363,0,0.000885,0,0
0:2:17.738,584.158,33.0535,0,0.000885,0,0
0:2:18.139,586.035,33.1638,0,0.000885,0,0
0:2:18.534,587.855,33.2672,0,0.000885,0,0
0:2:18.932,589.029,33.3293,0,0.000885,0,0
0:2:19.328,591.022,33.4465,0,0.000885,0,0
0:2:19.724,592.668,33.5361,0,0.000885,0,0
0:2:20.121,594.545,33.6464,0,0.000885,0,0
0:2:20.519,595.719,33.7085,0,0.000885,0,0
0:2:20.916,597.948,33.8395,0,0.000885,0,0
0:2:21.313,599.887,33.9498,0,0.000885,0,0
0:2:21.707,601.061,34.0118,0,0.000885,0,0
0:2:22.110,603.232,34.1359,0,0.000885,0,0
0:2:22.515,604.7,34.2187,0,0.000885,0,0
0:2:22.918,606.577,34.3221,0,0.000885,0,0
0:2:23.321,608.223,34.4186,0,0.000885,0,0
0:2:23.719,610.567,34.5496,0,0.000885,0,0
0:2:24.120,612.213,34.6462,0,0.000885,0,0
0:2:24.517,614.033,34.7496,0,0.000885,0,0
0:2:24.913,616.145,34.8668,0,0.000885,0,0
0:2:25.309,617.787,34.9564,0,0.000885,0,0
0:2:25.709,619.49,35.0529,0,0.000885,0,0
0:2:26.106,621.252,35.1564,0,0.000885,0,0
0:2:26.502,622.604,35.2322,0,0.000885,0,0
0:2:26.896,623.774,35.3012,0,0.000885,0,0
0:2:27.300,625.598,35.4046,0,0.000885,0,0
0:2:27.705,627.297,35.5011,0,0.000885,0,0
0:2:28.110,629.53,35.6252,0,0.000885,0,0
0:2:28.513,631.056,35.7079,0,0.000885,0,0
0:2:28.910,633.284,35.8389,0,0.000885,0,0
0:2:29.309,635.046,35.9355,0,0.000885,0,0
0:2:29.707,636.629,36.0251,0,0.000885,0,0
0:2:30.102,638.685,36.1423,0,0.000885,0,0
0:2:30.496,640.388,36.2388,0,0.000885,0,0
0:2:30.894,642.03,36.3285,0,0.000885,0,0
0:2:31.293,643.498,36.4112,0,0.000885,0,0
0:2:31.691,645.023,36.5008,0,0.000885,0,0
0:2:32.096,647.141,36.6181,0,0.000885,0,0
0:2:32.502,649.369,36.7491,0,0.000885,0,0
0:2:32.905,650.779,36.8249,0,0.000885,0,0
0:2:33.308,652.95,36.949,0,0.000885,0,0
0:2:33.703,654.418,37.0317,0,0.000885,0,0
0:2:34.097,656.589,37.1558,0,0.000885,0,0
0:2:34.495,658.234,37.2455,0,0.000885,0,0
0:2:34.895,659.64,37.3282,0,0.000885,0,0
0:2:35.292,661.522,37.4316,0,0.000885,0,0
0:2:35.686,663.163,37.5282,0,0.000885,0,0
0:2:36.084,664.809,37.6178,0,0.000885,0,0
0:2:36.483,666.393,37.7074,0,0.000885,0,0
0:2:36.880,668.27,37.8177,0,0.000885,0,0
0:2:37.285,669.622,37.8936,0,0.000885,0,0
0:2:37.689,671.615,38.0039,0,0.000885,0,0
0:2:38.092,673.79,38.128,0,0.000885,0,0
0:2:38.496,675.196,38.2107,0,0.000885,0,0
0:2:38.892,677.429,38.3349,0,0.000885,0,0
0:2:39.287,679.128,38.4314,0,0.000885,0,0
0:2:39.684,680.831,38.5279,0,0.000885,0,0
0:2:40.084,682.944,38.6451,0,0.000885,0,0
0:2:40.481,684.297,38.721,0,0.000885,0,0
0:2:40.875,686.352,38.8382,0,0.000885,0,0
0:2:41.270,687.757,38.9209,0,0.000885,0,0
0:2:41.668,689.225,39.0036,0,0.000885,0,0
0:2:42.079,691.28,39.1209,0,0.000885,0,0
0:2:42.485,693.335,39.2381,0,0.000885,0,0
0:2:42.888,695.506,39.3553,0,0.000885,0,0
0:2:43.291,696.796,39.4311,0,0.000885,0,0
0:2:43.692,698.5,39.5276,0,0.000885,0,0
0:2:44.091,700.848,39.6586,0,0.000885,0,0
0:2:44.487,701.258,39.6862,0,0.000885,0,0
0:2:44.882,703.958,39.8379,0,0.000885,0,0
0:2:45.280,705.604,39.9275,0,0.000885,0,0
0:2:45.681,707.481,40.0379,0,0.000885,0,0
0:2:46.076,709.184,40.1344,0,0.000885,0,0
0:2:46.468,710.474,40.2033,0,0.000885,0,0
0:2:46.875,713.001,40.3481,0,0.000885,0,0
0:2:47.281,714.233,40.4171,0,0.000885,0,0
0:2:47.685,715.995,40.5136,0,0.000885,0,0
0:2:48.088,717.752,40.617,0,0.000885,0,0
0:2:48.484,719.571,40.7204,0,0.000885,0,0
0:2:48.882,721.217,40.8101,0,0.000885,0,0
0:2:49.282,723.214,40.9273,0,0.000885,0,0
0:2:49.677,725.385,41.0514,0,0.000885,0,0
0:2:50.070,727.026,41.141,0,0.000885,0,0
0:2:50.467,728.614,41.2306,0,0.000885,0,0
0:2:50.868,730.607,41.341,0,0.000885,0,0
0:2:51.265,732.195,41.4306,0,0.000885,0,0
0:2:51.659,733.894,41.5271,0,0.000885,0,0
0:2:52.062,735.949,41.6443,0,0.000885,0,0
0:2:52.468,737.475,41.734,0,0.000885,0,0
0:2:52.870,738.707,41.8029,0,0.000885,0,0
0:2:53.275,740.589,41.9063,0,0.000885,0,0
0:2:53.668,742.115,41.996,0,0.000885,0,0
0:2:54.067,743.64,42.0787,0,0.000885,0,0
0:2:54.467,745.344,42.1752,0,0.000885,0,0
0:2:54.864,747.982,42.3269,0,0.000885,0,0
0:2:55.260,749.863,42.4303,0,0.000885,0,0
0:2:55.676,751.625,42.5338,0,0.000885,0,0
0:2:56.075,753.208,42.6234,0,0.000885,0,0
0:2:56.474,755.379,42.7475,0,0.000885,0,0
0:2:56.868,756.847,42.8302,0,0.000885,0,0
0:2:57.275,758.493,42.9199,0,0.000885,0,0
0:2:57.679,760.37,43.0302,0,0.000885,0,0
0:2:58.082,762.011,43.1198,0,0.000885,0,0
0:2:58.485,764.009,43.237,0,0.000885,0,0
0:2:58.879,765.77,43.3335,0,0.000885,0,0
0:2:59.275,767.412,43.4301,0,0.000885,0,0
0:2:59.683,768.937,43.5128,0,0.000885,0,0
0:3:0.083,770.699,43.6093,0,0.000885,0,0
0:3:0.480,772.46,43.7128,0,0.000885,0,0
0:3:0.872,774.693,43.8369,0,0.000885,0,0
0:3:1.271,776.922,43.9679,0,0.000885,0,0
0:3:1.672,778.626,44.0644,0,0.000885,0,0
0:3:2.079,780.031,44.1402,0,0.000885,0,0
0:3:2.483,781.326,44.2161,0,0.000885,0,0
0:3:2.885,782.673,44.2919,0,0.000885,0,0
0:3:3.284,784.729,44.4091,0,0.000885,0,0
0:3:3.684,786.254,44.4919,0,0.000885,0,0
0:3:4.080,788.016,44.5953,0,0.000885,0,0
0:3:4.475,789.835,44.6987,0,0.000885,0,0
0:3:4.881,791.948,44.8159,0,0.000885,0,0
0:3:5.280,793.767,44.9193,0,0.000885,0,0
0:3:5.680,795.355,45.009,0,0.000885,0,0
0:3:6.075,797.41,45.1262,0,0.000885,0,0
0:3:6.469,799.167,45.2227,0,0.000885,0,0
0:3:6.872,801.049,45.333,0,0.000885,0,0
0:3:7.280,802.868,45.4296,0,0.000885,0,0
0:3:7.684,804.803,45.5399,0,0.000885,0,0
0:3:8.086,806.685,45.6502,0,0.000885,0,0
0:3:8.482,808.736,45.7674,0,0.000885,0,0
0:3:8.883,810.146,45.8432,0,0.000885,0,0
0:3:9.280,811.556,45.926,0,0.000885,0,0
0:3:9.676,813.491,46.0363,0,0.000885,0,0
0:3:10.071,814.901,46.1121,0,0.000885,0,0
0:3:10.469,816.956,46.2293,0,0.000885,0,0
0:3:10.880,819.305,46.3603,0,0.000885,0,0
0:3:11.285,820.479,46.4293,0,0.000885,0,0
0:3:11.680,821.769,46.5051,0,0.000885,0,0
0:3:12.083,823.882,46.6223,0,0.000885,0,0
0:3:12.489,825.292,46.7051,0,0.000885,0,0
0:3:12.893,827.053,46.8016,0,0.000885,0,0
0:3:13.295,828.753,46.8981,0,0.000885,0,0
0:3:13.690,830.986,47.0222,0,0.000885,0,0
0:3:14.092,832.805,47.1257,0,0.000885,0,0
0:3:14.489,834.566,47.2291,0,0.000885,0,0
0:3:14.883,836.15,47.3187,0,0.000885,0,0
0:3:15.280,837.969,47.4221,0,0.000885,0,0
0:3:15.678,839.789,47.5256,0,0.000885,0,0
0:3:16.078,841.492,47.6221,0,0.000885,0,0
0:3:16.473,843.547,47.7324,0,0.000885,0,0
0:3:16.879,845.367,47.8358,0,0.000885,0,0
0:3:17.282,847.244,47.9461,0,0.000885,0,0
0:3:17.688,848.77,48.0289,0,0.000885,0,0
0:3:18.091,850.473,48.1254,0,0.000885,0,0
0:3:18.493,851.763,48.2012,0,0.000885,0,0
0:3:18.889,853.818,48.3185,0,0.000885,0,0
0:3:19.288,855.931,48.4357,0,0.000885,0,0
0:3:19.688,857.928,48.546,0,0.000885,0,0
0:3:20.084,859.334,48.6287,0,0.000885,0,0
0:3:20.480,861.158,48.7321,0,0.000885,0,0
0:3:20.885,863.209,48.8494,0,0.000885,0,0
0:3:21.284,864.383,48.9114,0,0.000885,0,0
0:3:21.683,865.793,48.9941,0,0.000885,0,0
0:3:22.089,867.848,49.1114,0,0.000885,0,0
0:3:22.493,869.489,49.201,0,0.000885,0,0
0:3:22.895,871.251,49.3044,0,0.000885,0,0
0:3:23.296,873.364,49.4216,0,0.000885,0,0
0:3:23.693,875.01,49.5181,0,0.000885,0,0
0:3:24.088,876.945,49.6216,0,0.000885,0,0
0:3:24.484,878.822,49.7319,0,0.000885,0,0
0:3:24.884,880.41,49.8215,0,0.000885,0,0
0:3:25.283,882.113,49.918,0,0.000885,0,0
0:3:25.677,883.519,49.9939,0,0.000885,0,0
0:3:26.072,885.516,50.1111,0,0.000885,0,0
0:3:26.469,887.687,50.2352,0,0.000885,0,0
0:3:26.881,889.449,50.3317,0,0.000885,0,0
0:3:27.286,891.152,50.4283,0,0.000885,0,0
0:3:27.689,892.794,50.5248,0,0.000885,0,0
0:3:28.092,894.849,50.6351,0,0.000885,0,0
0:3:28.493,896.495,50.7316,0,0.000885,0,0
0:3:28.892,898.665,50.8557,0,0.000885,0,0
0:3:29.287,900.191,50.9385,0,0.000885,0,0
0:3:29.682,901.895,51.035,0,0.000885,0,0
0:3:30.082,904.123,51.166,0,0.000885,0,0
0:3:30.480,905.533,51.2418,0,0.000885,0,0
0:3:30.874,907.117,51.3315,0,0.000885,0,0
0:3:31.270,908.643,51.4211,0,0.000885,0,0
0:3:31.667,910.053,51.4969,0,0.000885,0,0
0:3:32.067,912.108,51.6142,0,0.000885,0,0
0:3:32.472,913.576,51.6969,0,0.000885,0,0
0:3:32.875,915.217,51.7934,0,0.000885,0,0
0:3:33.279,917.157,51.9037,0,0.000885,0,0
0:3:33.678,919.501,52.0347,0,0.000885,0,0
0:3:34.075,921.262,52.1313,0,0.000885,0,0
0:3:34.473,923.144,52.2416,0,0.000885,0,0
0:3:34.867,925.021,52.345,0,0.000885,0,0
0:3:35.265,926.253,52.4139,0,0.000885,0,0
0:3:35.665,928.015,52.5174,0,0.000885,0,0
0:3:36.061,929.598,52.607,0,0.000885,0,0
0:3:36.458,931.711,52.7242,0,0.000885,0,0
0:3:36.862,933.651,52.8345,0,0.000885,0,0
0:3:37.267,935.118,52.9173,0,0.000885,0,0
0:3:37.668,937.405,53.0483,0,0.000885,0,0
0:3:38.072,939.109,53.1448,0,0.000885,0,0
0:3:38.467,940.986,53.2482,0,0.000885,0,0
0:3:38.874,942.925,53.3585,0,0.000885,0,0
0:3:39.285,944.918,53.4688,0,0.000885,0,0
0:3:39.682,945.977,53.5309,0,0.000885,0,0
0:3:40.078,946.857,53.5792,0,0.000885,0,0
0:3:40.471,949.206,53.7171,0,0.000885,0,0
0:3:40.870,950.674,53.7998,0,0.000885,0,0
0:3:41.270,953.08,53.9308,0,0.000885,0,0
0:3:41.674,954.37,54.0066,0,0.000885,0,0
0:3:42.080,956.425,54.1238,0,0.000885,0,0
0:3:42.484,958.187,54.2204,0,0.000885,0,0
0:3:42.885,959.419,54.2893,0,0.000885,0,0
0:3:43.288,961.412,54.4065,0,0.000885,0,0
0:3:43.684,963.294,54.51,0,0.000885,0,0
0:3:44.080,965.229,54.6203,0,0.000885,0,0
0:3:44.487,967.106,54.7237,0,0.000885,0,0
0:3:44.887,969.103,54.8409,0,0.000885,0,0
0:3:45.284,970.922,54.9443,0,0.000885,0,0
0:3:45.688,972.506,55.034,0,0.000885,0,0
0:3:46.084,975.09,55.1787,0,0.000885,0,0
0:3:46.482,976.029,55.2339,0,0.000885,0,0
0:3:46.879,978.142,55.3511,0,0.000885,0,0
0:3:47.285,979.436,55.427,0,0.000885,0,0
0:3:47.689,980.784,55.5028,0,0.000885,0,0
0:3:48.091,982.897,55.62,0,0.000885,0,0
0:3:48.494,984.716,55.7234,0,0.000885,0,0
0:3:48.891,986.829,55.8406,0,0.000885,0,0
0:3:49.286,987.474,55.882,0,0.000885,0,0
0:3:49.681,990.001,56.0199,0,0.000885,0,0
0:3:50.080,991.704,56.1164,0,0.000885,0,0
0:3:50.490,993.346,56.213,0,0.000885,0,0
0:3:50.884,995.285,56.3233,0,0.000885,0,0
0:3:51.282,996.984,56.4198,0,0.000885,0,0
0:3:51.688,999.039,56.537,0,0.000885,0,0
0:3:52.088,1000.51,56.6197,0,0.000885,0,0
0:3:52.494,1002.21,56.7163,0,0.000885,0,0
0:3:52.897,1004.5,56.8404,0,0.000885,0,0
0:3:53.298,1006.38,56.9507,0,0.000885,0,0
0:3:53.698,1007.61,57.0196,0,0.000885,0,0
0:3:54.097,1009.37,57.1162,0,0.000885,0,0
0:3:54.491,1011.01,57.2127,0,0.000885,0,0
0:3:54.888,1012.72,57.3092,0,0.000885,0,0
0:3:55.287,1014.71,57.4195,0,0.000885,0,0
0:3:55.686,1016.41,57.5161,0,0.000885,0,0
0:3:56.091,1018.29,57.6264,0,0.000885,0,0
0:3:56.486,1020.17,57.7298,0,0.000885,0,0
0:3:56.888,1021.64,57.8125,0,0.000885,0,0
0:3:57.294,1023.69,57.9298,0,0.000885,0,0
0:3:57.697,1025.22,58.0125,0,0.000885,0,0
0:3:58.099,1027.63,58.1504,0,0.000885,0,0
0:3:58.494,1029.1,58.2331,0,0.000885,0,0
0:3:58.894,1030.68,58.3228,0,0.000885,0,0
0:3:59.293,1032.85,58.4469,0,0.000885,0,0
0:3:59.688,1034.43,58.5365,0,0.000885,0,0
0:4:0.084,1035.84,58.6192,0,0.000885,0,0
0:4:0.489,1037.43,58.7089,0,0.000885,0,0
0:4:0.890,1039.19,58.8054,0,0.000885,0,0
0:4:1.288,1040.78,58.895,0,0.000885,0,0
0:4:1.681,1043.06,59.026,0,0.000885,0,0
0:4:2.086,1044.77,59.1225,0,0.000885,0,0
0:4:2.490,1046.47,59.2191,0,0.000885,0,0
0:4:2.894,1047.93,59.3018,0,0.000885,0,0
0:4:3.296,1049.7,59.3983,0,0.000885,0,0
0:4:3.691,1051.4,59.4949,0,0.000885,0,0
0:4:4.090,1053.63,59.6259,0,0.000885,0,0
0:4:4.490,1055.33,59.7224,0,0.000885,0,0
0:4:4.887,1057.27,59.8258,0,0.000885,0,0
0:4:5.283,1059.03,59.9292,0,0.000885,0,0
0:4:5.688,1061.5,60.0671,0,0.000885,0,0
0:4:6.087,1062.84,60.143,0,0.000885,0,0
0:4:6.487,1064.02,60.2119,0,0.000885,0,0
0:4:6.893,1066.37,60.3429,0,0.000885,0,0
0:4:7.298,1067.84,60.4257,0,0.000885,0,0
0:4:7.703,1069.77,60.536,0,0.000885,0,0
0:4:8.105,1072,60.6601,0,0.000885,0,0
0:4:8.508,1073.29,60.7359,0,0.000885,0,0
0:4:8.904,1075.29,60.8462,0,0.000885,0,0
0:4:9.299,1076.29,60.9083,0,0.000885,0,0
0:4:9.695,1078.34,61.0186,0,0.000885,0,0
0:4:10.095,1079.99,61.1151,0,0.000885,0,0
0:4:10.494,1081.81,61.2185,0,0.000885,0,0
0:4:10.888,1083.57,61.3151,0,0.000885,0,0
0:4:11.283,1085.5,61.4254,0,0.000885,0,0
0:4:11.683,1086.91,61.5081,0,0.000885,0,0
0:4:12.082,1088.79,61.6116,0,0.000885,0,0
0:4:12.488,1090.55,61.715,0,0.000885,0,0
0:4:12.892,1092.43,61.8184,0,0.000885,0,0
0:4:13.295,1094.19,61.9218,0,0.000885,0,0
0:4:13.697,1096.6,62.0528,0,0.000885,0,0
0:4:14.095,1098.07,62.1356,0,0.000885,0,0
0:4:14.490,1099.65,62.2252,0,0.000885,0,0
0:4:14.886,1101.88,62.3562,0,0.000885,0,0
0:4:15.284,1102.94,62.4113,0,0.000885,0,0
0:4:15.694,1105.34,62.5492,0,0.000885,0,0
0:4:16.090,1106.93,62.6389,0,0.000885,0,0
0:4:16.485,1108.39,62.7216,0,0.000885,0,0
0:4:16.889,1110.39,62.8319,0,0.000885,0,0
0:4:17.293,1112.68,62.9629,0,0.000885,0,0
0:4:17.697,1113.86,63.0319,0,0.000885,0,0
0:4:18.098,1114.97,63.0939,0,0.000885,0,0
0:4:18.494,1117.2,63.218,0,0.000885,0,0
0:4:18.891,1119.2,63.3352,0,0.000885,0,0
0:4:19.291,1121.37,63.4593,0,0.000885,0,0
0:4:19.689,1122.31,63.5076,0,0.000885,0,0
0:4:20.085,1124.19,63.6179,0,0.000885,0,0
0:4:20.490,1126.24,63.7351,0,0.000885,0,0
0:4:20.888,1127.71,63.8179,0,0.000885,0,0
0:4:21.287,1129.71,63.9282,0,0.000885,0,0
0:4:21.685,1131.11,64.0109,0,0.000885,0,0
0:4:22.089,1133.11,64.1212,0,0.000885,0,0
0:4:22.492,1134.93,64.2247,0,0.000885,0,0
0:4:22.896,1136.93,64.335,0,0.000885,0,0
0:4:23.299,1138.27,64.4108,0,0.000885,0,0
0:4:23.695,1139.86,64.5005,0,0.000885,0,0
0:4:24.091,1141.91,64.6177,0,0.000885,0,0
0:4:24.487,1143.62,64.7142,0,0.000885,0,0
0:4:24.885,1146.08,64.8521,0,0.000885,0,0
0:4:25.294,1148.13,64.9693,0,0.000885,0,0
0:4:25.691,1149.31,65.0382,0,0.000885,0,0
0:4:26.085,1151.13,65.1417,0,0.000885,0,0
0:4:26.493,1153.18,65.2589,0,0.000885,0,0
0:4:26.895,1154.89,65.3554,0,0.000885,0,0
0:4:27.302,1156.76,65.4588,0,0.000885,0,0
0:4:27.705,1157.94,65.5278,0,0.000885,0,0
0:4:28.108,1160.05,65.645,0,0.000885,0,0
0:4:28.505,1160.99,65.7001,0,0.000885,0,0
0:4:28.904,1162.87,65.8036,0,0.000885,0,0
0:4:29.302,1164.75,65.9139,0,0.000885,0,0
0:4:29.698,1166.63,66.0173,0,0.000885,0,0
0:4:30.093,1168.56,66.1276,0,0.000885,0,0
0:4:30.492,1170.26,66.2241,0,0.000885,0,0
0:4:30.892,1171.79,66.3069,0,0.000885,0,0
0:4:31.288,1173.67,66.4172,0,0.000885,0,0
0:4:31.693,1175.72,66.5344,0,0.000885,0,0
0:4:32.098,1177.84,66.6516,0,0.000885,0,0
0:4:32.505,1179.42,66.7413,0,0.000885,0,0
0:4:32.907,1181.48,66.8585,0,0.000885,0,0
0:4:33.309,1183,66.9412,0,0.000885,0,0
0:4:33.706,1184.53,67.0308,0,0.000885,0,0
0:4:34.102,1186.35,67.1343,0,0.000885,0,0
0:4:34.501,1188.05,67.2308,0,0.000885,0,0
0:4:34.899,1189.81,67.3273,0,0.000885,0,0
0:4:35.296,1192.04,67.4583,0,0.000885,0,0
0:4:35.691,1193.63,67.5479,0,0.000885,0,0
0:4:36.090,1195.33,67.6445,0,0.000885,0,0
0:4:36.489,1196.5,67.7065,0,0.000885,0,0
0:4:36.884,1198.32,67.8099,0,0.000885,0,0
0:4:37.289,1200.62,67.9409,0,0.000885,0,0
0:4:37.694,1202.26,68.0306,0,0.000885,0,0
0:4:38.097,1203.9,68.1271,0,0.000885,0,0
0:4:38.501,1205.78,68.2305,0,0.000885,0,0
0:4:38.897,1206.66,68.2857,0,0.000885,0,0
0:4:39.293,1208.36,68.3822,0,0.000885,0,0
0:4:39.689,1210.89,68.5201,0,0.000885,0,0
0:4:40.091,1212.88,68.6373,0,0.000885,0,0
0:4:40.487,1214.17,68.7063,0,0.000885,0,0
0:4:40.891,1216.29,68.8304,0,0.000885,0,0
0:4:41.288,1218.16,68.9338,0,0.000885,0,0
0:4:41.687,1220.45,69.0648,0,0.000885,0,0
0:4:42.085,1221.51,69.1199,0,0.000885,0,0
0:4:42.490,1223.62,69.244,0,0.000885,0,0
0:4:42.895,1225.32,69.3406,0,0.000885,0,0
0:4:43.298,1226.91,69.4302,0,0.000885,0,0
0:4:43.702,1228.85,69.5405,0,0.000885,0,0
0:4:44.097,1230.43,69.6302,0,0.000885,0,0
0:4:44.493,1232.78,69.7612,0,0.000885,0,0
0:4:44.887,1234.54,69.8577,0,0.000885,0,0
0:4:45.287,1235.19,69.899,0,0.000885,0,0
0:4:45.687,1236.65,69.9818,0,0.000885,0,0
0:4:46.092,1238.71,70.099,0,0.000885,0,0
0:4:46.487,1240.41,70.1955,0,0.000885,0,0
0:4:46.891,1242.58,70.3127,0,0.000885,0,0
0:4:47.298,1244.64,70.4299,0,0.000885,0,0
0:4:47.699,1246.28,70.5265,0,0.000885,0,0
0:4:48.103,1247.69,70.6023,0,0.000885,0,0
0:4:48.498,1249.92,70.7333,0,0.000885,0,0
0:4:48.897,1251.09,70.7954,0,0.000885,0,0
0:4:49.297,1253.21,70.9195,0,0.000885,0,0
0:4:49.693,1254.79,71.0091,0,0.000885,0,0
0:4:50.088,1256.85,71.1263,0,0.000885,0,0
0:4:50.494,1259.02,71.2435,0,0.000885,0,0
0:4:50.895,1261.13,71.3676,0,0.000885,0,0
0:4:51.292,1262.66,71.4504,0,0.000885,0,0
0:4:51.688,1264.65,71.5676,0,0.000885,0,0
0:4:52.092,1265.89,71.6365,0,0.000885,0,0
0:4:52.497,1268.12,71.7606,0,0.000885,0,0
0:4:52.899,1269.18,71.8227,0,0.000885,0,0
0:4:53.299,1271.23,71.9399,0,0.000885,0,0
0:4:53.696,1272.34,72.002,0,0.000885,0,0
0:4:54.095,1274.4,72.1192,0,0.000885,0,0
0:4:54.494,1276.63,72.2433,0,0.000885,0,0
0:4:54.891,1277.51,72.2915,0,0.000885,0,0
0:4:55.283,1279.56,72.4087,0,0.000885,0,0
0:4:55.692,1281.62,72.526,0,0.000885,0,0
0:4:56.092,1283.56,72.6363,0,0.000885,0,0
0:4:56.490,1284.9,72.7121,0,0.000885,0,0
0:4:56.894,1287.08,72.8362,0,0.000885,0,0
0:4:57.298,1288.96,72.9396,0,0.000885,0,0
0:4:57.703,1290.13,73.0086,0,0.000885,0,0
0:4:58.106,1292.24,73.1258,0,0.000885,0,0
0:4:58.508,1293.77,73.2154,0,0.000885,0,0
0:4:58.904,1295.59,73.312,0,0.000885,0,0
0:4:59.299,1297.23,73.4085,0,0.000885,0,0
0:4:59.697,1298.76,73.4912,0,0.000885,0,0
0:5:0.097,1300.75,73.6084,0,0.000885,0,0
0:5:0.494,1302.57,73.7119,0,0.000885,0,0
0:5:0.887,1304.51,73.8222,0,0.000885,0,0
0:5:1.294,1306.8,73.9532,0,0.000885,0,0
0:5:1.693,1308.56,74.0497,0,0.000885,0,0
0:5:2.091,1310.38,74.1531,0,0.000885,0,0
0:5:2.496,1312.32,74.2634,0,0.000885,0,0
0:5:2.901,1313.84,74.3462,0,0.000885,0,0
0:5:3.303,1315.49,74.4427,0,0.000885,0,0
0:5:3.706,1317.19,74.5392,0,0.000885,0,0
0:5:4.103,1319.24,74.6564,0,0.000885,0,0
0:5:4.496,1320.71,74.7392,0,0.000885,0,0
0:5:4.894,1321.82,74.8012,0,0.000885,0,0
0:5:5.293,1323.35,74.884,0,0.000885,0,0
0:5:5.690,1325.05,74.9805,0,0.000885,0,0
0:5:6.084,1327.7,75.1322,0,0.000885,0,0
0:5:6.491,1329.46,75.2287,0,0.000885,0,0
0:5:6.893,1331.75,75.3597,0,0.000885,0,0
0:5:7.298,1332.86,75.4217,0,0.000885,0,0
0:5:7.703,1334.21,75.4976,0,0.000885,0,0
0:5:8.105,1336.15,75.6079,0,0.000885,0,0
0:5:8.504,1337.91,75.7113,0,0.000885,0,0
0:5:8.904,1339.44,75.7941,0,0.000885,0,0
0:5:9.302,1341.37,75.9044,0,0.000885,0,0
0:5:9.696,1343.31,76.0147,0,0.000885,0,0
0:5:10.093,1345.54,76.1388,0,0.000885,0,0
0:5:10.491,1347.83,76.2698,0,0.000885,0,0
0:5:10.890,1349.42,76.3594,0,0.000885,0,0
0:5:11.294,1350.76,76.4353,0,0.000885,0,0
0:5:11.689,1352.58,76.5387,0,0.000885,0,0
0:5:12.092,1354.29,76.6352,0,0.000885,0,0
0:5:12.497,1356.11,76.7386,0,0.000885,0,0
0:5:12.902,1357.81,76.8352,0,0.000885,0,0
0:5:13.304,1360.33,76.98,0,0.000885,0,0
0:5:13.699,1362.21,77.0834,0,0.000885,0,0
0:5:14.099,1363.03,77.1316,0,0.000885,0,0
0:5:14.497,1364.5,77.2144,0,0.000885,0,0
0:5:14.892,1366.08,77.304,0,0.000885,0,0
0:5:15.288,1367.9,77.4074,0,0.000885,0,0
0:5:15.695,1369.96,77.5247,0,0.000885,0,0
0:5:16.094,1371.37,77.6005,0,0.000885,0,0
0:5:16.493,1373.07,77.697,0,0.000885,0,0
0:5:16.897,1375.19,77.8211,0,0.000885,0,0
0:5:17.301,1376.88,77.9177,0,0.000885,0,0
0:5:17.707,1378.59,78.0142,0,0.000885,0,0
0:5:18.110,1380.88,78.1383,0,0.000885,0,0
0:5:18.513,1382.87,78.2555,0,0.000885,0,0
0:5:18.907,1384.34,78.3382,0,0.000885,0,0
0:5:19.306,1385.93,78.4279,0,0.000885,0,0
0:5:19.705,1387.57,78.5175,0,0.000885,0,0
0:5:20.103,1389.45,78.6278,0,0.000885,0,0
0:5:20.497,1391.44,78.7381,0,0.000885,0,0
0:5:20.892,1393.38,78.8484,0,0.000885,0,0
0:5:21.291,1394.79,78.9312,0,0.000885,0,0
0:5:21.692,1396.84,79.0484,0,0.000885,0,0
0:5:22.097,1398.43,79.138,0,0.000885,0,0
0:5:22.502,1400.31,79.2414,0,0.000885,0,0
0:5:22.904,1402.36,79.3587,0,0.000885,0,0
0:5:23.306,1403.71,79.4345,0,0.000885,0,0
0:5:23.703,1405,79.5103,0,0.000885,0,0
0:5:24.098,1406.94,79.6138,0,0.000885,0,0
0:5:24.494,1408.82,79.7241,0,0.000885,0,0
0:5:24.894,1410.87,79.8413,0,0.000885,0,0
0:5:25.293,1412.75,79.9447,0,0.000885,0,0
0:5:25.697,1414.16,80.0274,0,0.000885,0,0
0:5:26.093,1415.74,80.1171,0,0.000885,0,0
0:5:26.490,1417.56,80.2205,0,0.000885,0,0
0:5:26.899,1419.15,80.3101,0,0.000885,0,0
0:5:27.304,1421.09,80.4204,0,0.000885,0,0
0:5:27.708,1422.91,80.517,0,0.000885,0,0
0:5:28.111,1424.37,80.5997,0,0.000885,0,0
0:5:28.512,1426.84,80.7445,0,0.000885,0,0
0:5:28.911,1428.48,80.8341,0,0.000885,0,0
0:5:29.306,1430.42,80.9445,0,0.000885,0,0
0:5:29.699,1432.42,81.0548,0,0.000885,0,0
0:5:30.098,1434.24,81.1582,0,0.000885,0,0
0:5:30.499,1435.82,81.2478,0,0.000885,0,0
0:5:30.894,1437.76,81.3581,0,0.000885,0,0
0:5:31.288,1439.23,81.4409,0,0.000885,0,0
0:5:31.695,1441.28,81.5581,0,0.000885,0,0
0:5:32.097,1442.57,81.6339,0,0.000885,0,0
0:5:32.504,1444.51,81.7442,0,0.000885,0,0
0:5:32.906,1445.86,81.8201,0,0.000885,0,0
0:5:33.308,1446.8,81.8752,0,0.000885,0,0
0:5:33.706,1449.15,82.0062,0,0.000885,0,0
0:5:34.106,1451.43,82.1372,0,0.000885,0,0
0:5:34.503,1452.78,82.2131,0,0.000885,0,0
0:5:34.895,1454.6,82.3165,0,0.000885,0,0
0:5:35.292,1456.54,82.4268,0,0.000885,0,0
0:5:35.693,1458.36,82.5233,0,0.000885,0,0
0:5:36.099,1460.3,82.6337,0,0.000885,0,0
0:5:36.495,1462.06,82.7371,0,0.000885,0,0
0:5:36.901,1463.29,82.806,0,0.000885,0,0
0:5:37.306,1465.58,82.937,0,0.000885,0,0
0:5:37.708,1467.4,83.0405,0,0.000885,0,0
0:5:38.111,1469.39,83.1508,0,0.000885,0,0
0:5:38.505,1470.86,83.2335,0,0.000885,0,0
0:5:38.903,1472.45,83.3231,0,0.000885,0,0
0:5:39.302,1474.62,83.4472,0,0.000885,0,0
0:5:39.698,1476.32,83.5438,0,0.000885,0,0
0:5:40.095,1478.32,83.6541,0,0.000885,0,0
0:5:40.501,1479.85,83.7437,0,0.000885,0,0
0:5:40.899,1481.97,83.8609,0,0.000885,0,0
0:5:41.298,1483.5,83.9506,0,0.000885,0,0
0:5:41.693,1484.5,84.0057,0,0.000885,0,0
0:5:42.099,1486.27,84.1022,0,0.000885,0,0
0:5:42.504,1488.33,84.2195,0,0.000885,0,0
0:5:42.905,1490.15,84.3229,0,0.000885,0,0
0:5:43.309,1492.39,84.4539,0,0.000885,0,0
0:5:43.705,1493.74,84.5297,0,0.000885,0,0
0:5:44.100,1495.27,84.6125,0,0.000885,0,0
0:5:44.499,1497.1,84.7159,0,0.000885,0,0
0:5:44.898,1498.86,84.8193,0,0.000885,0,0
0:5:45.294,1500.34,84.902,0,0.000885,0,0
0:5:45.699,1502.4,85.0193,0,0.000885,0,0
0:5:46.096,1504.11,85.1158,0,0.000885,0,0
0:5:46.495,1505.93,85.2192,0,0.000885,0,0
0:5:46.893,1507.88,85.3295,0,0.000885,0,0
0:5:47.298,1509.94,85.4467,0,0.000885,0,0
0:5:47.703,1511.94,85.557,0,0.000885,0,0
0:5:48.105,1513.65,85.6536,0,0.000885,0,0
0:5:48.508,1515.59,85.7639,0,0.000885,0,0
0:5:48.904,1517.3,85.8604,0,0.000885,0,0
0:5:49.299,1518.94,85.9569,0,0.000885,0,0
0:5:49.695,1520.65,86.0535,0,0.000885,0,0
0:5:50.093,1522.24,86.1431,0,0.000885,0,0
0:5:50.493,1523.12,86.1914,0,0.000885,0,0
0:5:50.897,1524.54,86.2741,0,0.000885,0,0
0:5:51.293,1526.83,86.3982,0,0.000885,0,0
0:5:51.700,1529.13,86.5292,0,0.000885,0,0
0:5:52.102,1531.07,86.6395,0,0.000885,0,0
0:5:52.506,1532.67,86.7292,0,0.000885,0,0
0:5:52.910,1534.31,86.8257,0,0.000885,0,0
0:5:53.312,1535.61,86.8946,0,0.000885,0,0
0:5:53.713,1537.43,86.998,0,0.000885,0,0
0:5:54.111,1539.61,87.1222,0,0.000885,0,0
0:5:54.505,1541.38,87.2256,0,0.000885,0,0
0:5:54.900,1543.26,87.329,0,0.000885,0,0
0:5:55.298,1544.97,87.4255,0,0.000885,0,0
0:5:55.698,1546.8,87.5289,0,0.000885,0,0
0:5:56.094,1548.74,87.6393,0,0.000885,0,0
0:5:56.498,1550.62,87.7496,0,0.000885,0,0
0:5:56.902,1552.33,87.8461,0,0.000885,0,0
0:5:57.308,1554.1,87.9426,0,0.000885,0,0
0:5:57.712,1555.86,88.0461,0,0.000885,0,0
0:5:58.115,1557.63,88.1426,0,0.000885,0,0
0:5:58.511,1559.4,88.246,0,0.000885,0,0
0:5:58.909,1560.99,88.3356,0,0.000885,0,0
0:5:59.309,1563.11,88.4528,0,0.000885,0,0
0:5:59.705,1564.99,88.5632,0,0.000885,0,0
0:6:0.100,1566.52,88.6459,0,0.000885,0,0
0:6:0.495,1567.76,88.7148,0,0.000885,0,0
0:6:0.896,1569.52,88.8183,0,0.000885,0,0
0:6:1.303,1571.12,88.9079,0,0.000885,0,0
0:6:1.697,1572.65,88.9906,0,0.000885,0,0
0:6:2.103,1575,89.1285,0,0.000885,0,0
0:6:2.506,1576.3,89.1975,0,0.000885,0,0
0:6:2.910,1578.54,89.3285,0,0.000885,0,0
0:6:3.312,1580.36,89.4319,0,0.000885,0,0
0:6:3.707,1582.36,89.5422,0,0.000885,0,0
0:6:4.105,1584.19,89.6456,0,0.000885,0,0
0:6:4.503,1585.42,89.7146,0,0.000885,0,0
0:6:4.899,1587.01,89.8042,0,0.000885,0,0
0:6:5.297,1588.72,89.9007,0,0.000885,0,0
0:6:5.702,1590.19,89.9835,0,0.000885,0,0
0:6:6.099,1592.37,90.1076,0,0.000885,0,0
0:6:6.501,1594.26,90.2179,0,0.000885,0,0
0:6:6.895,1596.49,90.342,0,0.000885,0,0
0:6:7.300,1598.44,90.4523,0,0.000885,0,0
0:6:7.703,1599.79,90.5282,0,0.000885,0,0
0:6:8.105,1602.03,90.6592,0,0.000885,0,0
0:6:8.509,1603.56,90.7419,0,0.000885,0,0
0:6:8.903,1605.33,90.8453,0,0.000885,0,0
0:6:9.298,1606.33,90.9005,0,0.000885,0,0
0:6:9.698,1608.51,91.0246,0,0.000885,0,0
0:6:10.097,1610.45,91.1349,0,0.000885,0,0
0:6:10.502,1611.86,91.2107,0,0.000885,0,0
0:6:10.896,1614.16,91.3417,0,0.000885,0,0
0:6:11.291,1615.51,91.4176,0,0.000885,0,0
0:6:11.691,1617.22,91.5141,0,0.000885,0,0
0:6:12.100,1619.28,91.6313,0,0.000885,0,0
0:6:12.506,1620.81,91.721,0,0.000885,0,0
0:6:12.910,1622.99,91.8451,0,0.000885,0,0
0:6:13.313,1624.46,91.9278,0,0.000885,0,0
0:6:13.715,1626.41,92.0381,0,0.000885,0,0
0:6:14.111,1627.88,92.1209,0,0.000885,0,0
0:6:14.504,1629.94,92.2381,0,0.000885,0,0
0:6:14.902,1631.53,92.3277,0,0.000885,0,0
0:6:15.302,1633.41,92.4311,0,0.000885,0,0
0:6:15.698,1635.06,92.5276,0,0.000885,0,0
0:6:16.103,1636.54,92.6104,0,0.000885,0,0
0:6:16.497,1638.54,92.7207,0,0.000885,0,0
0:6:16.900,1640.18,92.8172,0,0.000885,0,0
0:6:17.306,1642.13,92.9275,0,0.000885,0,0
0:6:17.709,1644.07,93.0379,0,0.000885,0,0
0:6:18.112,1646.25,93.162,0,0.000885,0,0
0:6:18.510,1648.13,93.2654,0,0.000885,0,0
0:6:18.908,1650.13,93.3757,0,0.000885,0,0
0:6:19.306,1651.43,93.4515,0,0.000885,0,0
0:6:19.700,1652.73,93.5274,0,0.000885,0,0
0:6:20.097,1654.73,93.6377,0,0.000885,0,0
0:6:20.496,1656.08,93.7135,0,0.000885,0,0
0:6:20.904,1656.32,93.7273,0,0.000885,0,0
0:6:21.300,1658.44,93.8514,0,0.000885,0,0
0:6:21.704,1660.68,93.9755,0,0.000885,0,0
0:6:22.108,1662.97,94.1065,0,0.000885,0,0
0:6:22.512,1665.33,94.2375,0,0.000885,0,0
0:6:22.915,1666.98,94.3341,0,0.000885,0,0
0:6:23.317,1669.28,94.4582,0,0.000885,0,0
0:6:23.713,1670.86,94.5547,0,0.000885,0,0
0:6:24.112,1672.69,94.6581,0,0.000885,0,0
0:6:24.510,1674.4,94.7546,0,0.000885,0,0
0:6:24.905,1675.57,94.8167,0,0.000885,0,0
0:6:25.299,1676.81,94.8856,0,0.000885,0,0
0:6:25.698,1678.7,94.996,0,0.000885,0,0
0:6:26.107,1681.05,95.127,0,0.000885,0,0
0:6:26.503,1682.87,95.2304,0,0.000885,0,0
0:6:26.898,1685.05,95.3545,0,0.000885,0,0
0:6:27.303,1686.47,95.4372,0,0.000885,0,0
0:6:27.707,1688.47,95.5475,0,0.000885,0,0
0:6:28.109,1689.53,95.6096,0,0.000885,0,0
0:6:28.510,1691.12,95.6992,0,0.000885,0,0
0:6:28.908,1693.24,95.8164,0,0.000885,0,0
0:6:29.304,1694.95,95.913,0,0.000885,0,0
0:6:29.703,1697.3,96.0509,0,0.000885,0,0
0:6:30.101,1698.89,96.1405,0,0.000885,0,0
0:6:30.505,1700.13,96.2094,0,0.000885,0,0
0:6:30.899,1702.19,96.3267,0,0.000885,0,0
0:6:31.299,1703.78,96.4163,0,0.000885,0,0
0:6:31.707,1705.9,96.5335,0,0.000885,0,0
0:6:32.112,1707.78,96.6438,0,0.000885,0,0
0:6:32.515,1709.26,96.7265,0,0.000885,0,0
0:6:32.918,1711.26,96.8369,0,0.000885,0,0
0:6:33.319,1710.73,96.8093,0,0.000885,0,0
0:6:33.716,1711.67,96.8576,0,0.000885,0,0
0:6:34.110,1713.44,96.961,0,0.000885,0,0
0:6:34.505,1714.38,97.0161,0,0.000885,0,0
0:6:34.903,1715.67,97.0851,0,0.000885,0,0
0:6:35.305,1719.44,97.2988,0,0.000885,0,0
0:6:35.698,1721.03,97.3884,0,0.000885,0,0
0:6:36.102,1719.56,97.3057,0,0.000885,0,0
0:6:36.500,1722.27,97.4574,0,0.000885,0,0
0:6:36.899,1723.45,97.5263,0,0.000885,0,0
0:6:37.305,1725.86,97.6642,0,0.000885,0,0
0:6:37.709,1728.04,97.7883,0,0.000885,0,0
0:6:38.110,1728.21,97.7952,0,0.000885,0,0
0:6:38.512,1730.1,97.9056,0,0.000885,0,0
0:6:38.909,1731.98,98.009,0,0.000885,0,0
0:6:39.304,1734.28,98.14,0,0.000885,0,0
0:6:39.699,1735.34,98.202,0,0.000885,0,0
0:6:40.095,1734.52,98.1538,0,0.000885,0,0
0:6:40.505,1721.62,97.4229,0,0.000885,0,0
0:6:40.544,1721.62,97.4229,0,0.000885,0,0