File: DataFile2021-06-29_071323.csv
Test ID:,Date Tested:,Time:,Test Type:,Diameter Avg. (mm):,Cyl. Corr. Factor:,Height (mm):,Age (days):,Weight (kN):,Break Type:,Ramp Rate (MPa/s):,Load at Break (kN):,Stress at Break (MPa):
12,6/29/2021,07:13,Cylinder,100,1,200,0,3.6,3,0.23,336.6,42.86
Sample Time,Load (kN),Stress (MPa),Long. Strain,Trans. Strain,Chan1 Deflection (mm),Chan2 Deflection (mm)
0:0:14.387,5.57362,0.71016,0,0.000885,0,0
0:0:14.582,9.03434,1.15142,0,0.000885,0,0
0:0:14.781,14.0742,1.79264,0,0.000885,0,0
0:0:14.982,13.9585,1.77885,0,0.000885,0,0
0:0:15.176,13.785,1.75816,0,0.000885,0,0
0:0:15.377,13.785,1.75816,0,0.000885,0,0
0:0:15.574,13.4292,1.7099,0,0.000885,0,0
0:0:15.774,13.3714,1.70301,0,0.000885,0,0
0:0:15.974,12.8465,1.63406,0,0.000885,0,0
0:0:16.177,12.7842,1.62716,0,0.000885,0,0
0:0:16.378,12.7842,1.62716,0,0.000885,0,0
0:0:16.574,12.7842,1.62716,0,0.000885,0,0
0:0:16.774,12.4328,1.58579,0,0.000885,0,0
0:0:16.975,12.6107,1.60648,0,0.000885,0,0
0:0:17.178,12.8465,1.63406,0,0.000885,0,0
0:0:17.378,12.7264,1.62027,0,0.000885,0,0
0:0:17.575,12.4906,1.59269,0,0.000885,0,0
0:0:17.774,12.3171,1.56511,0,0.000885,0,0
0:0:17.975,12.375,1.5789,0,0.000885,0,0
0:0:18.178,12.7264,1.62027,0,0.000885,0,0
0:0:18.380,12.9043,1.64095,0,0.000885,0,0
0:0:18.577,12.9621,1.64785,0,0.000885,0,0
0:0:18.775,13.2557,1.68922,0,0.000885,0,0
0:0:18.976,12.9621,1.64785,0,0.000885,0,0
0:0:19.180,14.0742,1.79264,0,0.000885,0,0
0:0:19.380,13.6649,1.73748,0,0.000885,0,0
0:0:19.579,14.7192,1.87537,0,0.000885,0,0
0:0:19.775,14.6613,1.86848,0,0.000885,0,0
0:0:19.977,15.1328,1.92364,0,0.000885,0,0
0:0:20.179,15.8935,2.02706,0,0.000885,0,0
0:0:20.384,16.2449,2.06843,0,0.000885,0,0
0:0:20.587,16.8321,2.14427,0,0.000885,0,0
0:0:20.788,17.3036,2.20632,0,0.000885,0,0
0:0:20.990,17.655,2.24769,0,0.000885,0,0
0:0:21.191,18.3578,2.33732,0,0.000885,0,0
0:0:21.392,18.945,2.41317,0,0.000885,0,0
0:0:21.594,19.4699,2.48211,0,0.000885,0,0
0:0:21.790,20.1193,2.55795,0,0.000885,0,0
0:0:21.990,20.3506,2.59243,0,0.000885,0,0
0:0:22.193,20.7643,2.64069,0,0.000885,0,0
0:0:22.388,21.1735,2.69585,0,0.000885,0,0
0:0:22.590,21.4671,2.73032,0,0.000885,0,0
0:0:22.786,21.8185,2.77859,0,0.000885,0,0
0:0:22.986,22.3479,2.84753,0,0.000885,0,0
0:0:23.187,22.5792,2.87511,0,0.000885,0,0
0:0:23.383,22.9929,2.93027,0,0.000885,0,0
0:0:23.585,23.2242,2.95785,0,0.000885,0,0
0:0:23.781,24.1627,3.07506,0,0.000885,0,0
0:0:23.979,24.2828,3.08885,0,0.000885,0,0
0:0:24.182,24.5141,3.12333,0,0.000885,0,0
0:0:24.377,25.0435,3.18538,0,0.000885,0,0
0:0:24.579,25.3949,3.23364,0,0.000885,0,0
0:0:24.780,25.3949,3.23364,0,0.000885,0,0
0:0:24.985,25.515,3.24743,0,0.000885,0,0
0:0:25.188,26.2178,3.33706,0,0.000885,0,0
0:0:25.389,27.0986,3.44738,0,0.000885,0,0
0:0:25.591,27.3877,3.48875,0,0.000885,0,0
0:0:25.793,27.5656,3.50943,0,0.000885,0,0
0:0:25.994,28.095,3.57838,0,0.000885,0,0
0:0:26.196,28.3263,3.60596,0,0.000885,0,0
0:0:26.394,28.562,3.63354,0,0.000885,0,0
0:0:26.594,29.0914,3.70248,0,0.000885,0,0
0:0:26.794,29.5584,3.76454,0,0.000885,0,0
0:0:26.989,29.7942,3.79212,0,0.000885,0,0
0:0:27.192,30.0878,3.83349,0,0.000885,0,0
0:0:27.389,30.1456,3.84038,0,0.000885,0,0
0:0:27.589,30.9685,3.9438,0,0.000885,0,0
0:0:27.790,31.4934,4.01275,0,0.000885,0,0
0:0:27.985,31.9071,4.06101,0,0.000885,0,0
0:0:28.186,32.0806,4.0817,0,0.000885,0,0
0:0:28.386,32.6099,4.15064,0,0.000885,0,0
0:0:28.583,32.9613,4.19891,0,0.000885,0,0
0:0:28.786,33.6063,4.28164,0,0.000885,0,0
0:0:28.979,33.9577,4.32301,0,0.000885,0,0
0:0:29.180,34.1935,4.35059,0,0.000885,0,0
0:0:29.381,34.8385,4.43333,0,0.000885,0,0
0:0:29.577,35.1899,4.48159,0,0.000885,0,0
0:0:29.780,35.6614,4.54365,0,0.000885,0,0
0:0:29.984,36.1285,4.5988,0,0.000885,0,0
0:0:30.187,36.5377,4.65396,0,0.000885,0,0
0:0:30.389,36.3642,4.63328,0,0.000885,0,0
0:0:30.591,37.0092,4.70912,0,0.000885,0,0
0:0:30.792,37.067,4.72291,0,0.000885,0,0
0:0:30.994,37.3606,4.75738,0,0.000885,0,0
0:0:31.195,37.5341,4.77807,0,0.000885,0,0
0:0:31.397,38.357,4.88149,0,0.000885,0,0
0:0:31.593,38.7663,4.93665,0,0.000885,0,0
0:0:31.796,39.5892,5.04007,0,0.000885,0,0
0:0:31.994,39.8828,5.07454,0,0.000885,0,0
0:0:32.190,40.1185,5.10902,0,0.000885,0,0
0:0:32.393,40.4699,5.15038,0,0.000885,0,0
0:0:32.588,40.5856,5.16417,0,0.000885,0,0
0:0:32.789,40.8792,5.20554,0,0.000885,0,0
0:0:32.989,41.4663,5.28138,0,0.000885,0,0
0:0:33.185,41.9334,5.33654,0,0.000885,0,0
0:0:33.387,43.0499,5.48133,0,0.000885,0,0
0:0:33.585,43.3435,5.51581,0,0.000885,0,0
0:0:33.784,43.8105,5.57786,0,0.000885,0,0
0:0:33.986,43.8105,5.57786,0,0.000885,0,0
0:0:34.179,44.1041,5.61233,0,0.000885,0,0
0:0:34.381,44.7491,5.69507,0,0.000885,0,0
0:0:34.577,44.8069,5.70196,0,0.000885,0,0
0:0:34.776,45.3363,5.77091,0,0.000885,0,0
0:0:34.978,45.4519,5.7847,0,0.000885,0,0
0:0:35.180,45.8078,5.83296,0,0.000885,0,0
0:0:35.385,46.1014,5.86744,0,0.000885,0,0
0:0:35.587,46.217,5.88123,0,0.000885,0,0
0:0:35.789,46.9777,5.98465,0,0.000885,0,0
0:0:35.990,47.3914,6.03291,0,0.000885,0,0
0:0:36.192,47.6227,6.06049,0,0.000885,0,0
0:0:36.395,48.3878,6.16391,0,0.000885,0,0
0:0:36.595,48.6191,6.19149,0,0.000885,0,0
0:0:36.790,49.442,6.29491,0,0.000885,0,0
0:0:36.992,49.3263,6.28112,0,0.000885,0,0
0:0:37.191,49.9135,6.35697,0,0.000885,0,0
0:0:37.388,49.7934,6.34318,0,0.000885,0,0
0:0:37.589,50.6741,6.45349,0,0.000885,0,0
0:0:37.784,50.9677,6.48797,0,0.000885,0,0
0:0:37.986,51.8485,6.59828,0,0.000885,0,0
0:0:38.186,51.8485,6.59828,0,0.000885,0,0
0:0:38.380,52.0798,6.63276,0,0.000885,0,0
0:0:38.584,52.5513,6.68791,0,0.000885,0,0
0:0:38.778,52.7248,6.71549,0,0.000885,0,0
0:0:38.979,53.0806,6.75686,0,0.000885,0,0
0:0:39.180,53.6633,6.8327,0,0.000885,0,0
0:0:39.376,54.077,6.88786,0,0.000885,0,0
0:0:39.578,54.6019,6.94992,0,0.000885,0,0
0:0:39.781,55.1313,7.01886,0,0.000885,0,0
0:0:39.986,55.3092,7.03955,0,0.000885,0,0
0:0:40.188,56.3056,7.17055,0,0.000885,0,0
0:0:40.389,56.1855,7.15676,0,0.000885,0,0
0:0:40.592,56.657,7.21192,0,0.000885,0,0
0:0:40.792,57.0084,7.26018,0,0.000885,0,0
0:0:40.994,57.7112,7.34981,0,0.000885,0,0
0:0:41.196,57.8313,7.3636,0,0.000885,0,0
0:0:41.391,58.3562,7.43255,0,0.000885,0,0
0:0:41.593,58.8277,7.48771,0,0.000885,0,0
0:0:41.791,59.1791,7.53597,0,0.000885,0,0
0:0:41.989,59.4149,7.56355,0,0.000885,0,0
0:0:42.190,59.9976,7.63939,0,0.000885,0,0
0:0:42.388,60.2334,7.66697,0,0.000885,0,0
0:0:42.589,60.4113,7.69455,0,0.000885,0,0
0:0:42.787,60.7049,7.72902,0,0.000885,0,0
0:0:42.984,60.9362,7.7566,0,0.000885,0,0
0:0:43.186,61.1141,7.78418,0,0.000885,0,0
0:0:43.383,61.4655,7.82555,0,0.000885,0,0
0:0:43.582,62.5198,7.96344,0,0.000885,0,0
0:0:43.783,62.9334,8.01171,0,0.000885,0,0
0:0:43.977,63.2848,8.05997,0,0.000885,0,0
0:0:44.179,63.9877,8.1496,0,0.000885,0,0
0:0:44.377,64.1033,8.16339,0,0.000885,0,0
0:0:44.587,64.6905,8.23923,0,0.000885,0,0
0:0:44.787,65.3933,8.32887,0,0.000885,0,0
0:0:44.990,65.2198,8.30129,0,0.000885,0,0
0:0:45.194,65.6869,8.36334,0,0.000885,0,0
0:0:45.396,66.3319,8.44608,0,0.000885,0,0
0:0:45.597,66.1006,8.4185,0,0.000885,0,0
0:0:45.798,66.8034,8.50813,0,0.000885,0,0
0:0:46.000,67.097,8.5426,0,0.000885,0,0
0:0:46.203,67.742,8.62534,0,0.000885,0,0
0:0:46.400,68.2713,8.69429,0,0.000885,0,0
0:0:46.599,68.5604,8.72876,0,0.000885,0,0
0:0:46.800,68.7962,8.75634,0,0.000885,0,0
0:0:46.996,68.5026,8.72187,0,0.000885,0,0
0:0:47.197,69.6191,8.86666,0,0.000885,0,0
0:0:47.395,69.8549,8.89424,0,0.000885,0,0
0:0:47.593,70.4376,8.97008,0,0.000885,0,0
0:0:47.795,70.8513,9.01834,0,0.000885,0,0
0:0:47.992,71.0826,9.05282,0,0.000885,0,0
0:0:48.191,71.9055,9.15624,0,0.000885,0,0
0:0:48.391,71.7276,9.13555,0,0.000885,0,0
0:0:48.587,72.1991,9.19071,0,0.000885,0,0
0:0:48.788,72.6083,9.24587,0,0.000885,0,0
0:0:48.987,73.022,9.29413,0,0.000885,0,0
0:0:49.184,73.4891,9.35619,0,0.000885,0,0
0:0:49.386,73.7827,9.39755,0,0.000885,0,0
0:0:49.580,73.4891,9.35619,0,0.000885,0,0
0:0:49.784,75.0726,9.55613,0,0.000885,0,0
0:0:49.985,75.1883,9.57682,0,0.000885,0,0
0:0:50.190,75.8333,9.65266,0,0.000885,0,0
0:0:50.391,75.3662,9.5975,0,0.000885,0,0
0:0:50.593,75.8956,9.66645,0,0.000885,0,0
0:0:50.794,76.3626,9.72161,0,0.000885,0,0
0:0:50.997,76.892,9.79056,0,0.000885,0,0
0:0:51.197,76.9498,9.79745,0,0.000885,0,0
0:0:51.400,77.4791,9.8664,0,0.000885,0,0
0:0:51.597,78.3554,9.97671,0,0.000885,0,0
0:0:51.795,78.649,10.0112,0,0.000885,0,0
0:0:51.997,79.1205,10.0732,0,0.000885,0,0
0:0:52.192,79.3563,10.1008,0,0.000885,0,0
0:0:52.395,80.2904,10.2249,0,0.000885,0,0
0:0:52.593,80.8776,10.3008,0,0.000885,0,0
0:0:52.788,81.1133,10.3283,0,0.000885,0,0
0:0:52.990,80.9977,10.3146,0,0.000885,0,0
0:0:53.188,81.7583,10.4111,0,0.000885,0,0
0:0:53.388,81.4647,10.3697,0,0.000885,0,0
0:0:53.587,82.4033,10.4938,0,0.000885,0,0
0:0:53.783,82.2298,10.4662,0,0.000885,0,0
0:0:53.984,82.5234,10.5076,0,0.000885,0,0
0:0:54.183,83.1684,10.5903,0,0.000885,0,0
0:0:54.381,83.5198,10.6317,0,0.000885,0,0
0:0:54.583,83.6355,10.6455,0,0.000885,0,0
0:0:54.787,84.4584,10.7558,0,0.000885,0,0
0:0:54.990,84.6897,10.7834,0,0.000885,0,0
0:0:55.192,85.9797,10.9489,0,0.000885,0,0
0:0:55.393,86.042,10.9558,0,0.000885,0,0
0:0:55.595,86.3934,10.9971,0,0.000885,0,0
0:0:55.796,86.2154,10.9765,0,0.000885,0,0
0:0:55.998,86.9183,11.0661,0,0.000885,0,0
0:0:56.197,86.9805,11.073,0,0.000885,0,0
0:0:56.395,87.5632,11.1488,0,0.000885,0,0
0:0:56.597,87.9191,11.1971,0,0.000885,0,0
0:0:56.791,88.8577,11.3143,0,0.000885,0,0
0:0:56.992,88.3283,11.2453,0,0.000885,0,0
0:0:57.193,89.734,11.4246,0,0.000885,0,0
0:0:57.389,89.3247,11.3763,0,0.000885,0,0
0:0:57.591,89.6183,11.4108,0,0.000885,0,0
0:0:57.787,90.6725,11.5418,0,0.000885,0,0
0:0:57.987,90.9661,11.5832,0,0.000885,0,0
0:0:58.187,91.0862,11.597,0,0.000885,0,0
0:0:58.381,91.024,11.5901,0,0.000885,0,0
0:0:58.585,92.2561,11.7487,0,0.000885,0,0
0:0:58.783,92.3762,11.7625,0,0.000885,0,0
0:0:58.979,92.9011,11.8314,0,0.000885,0,0
0:0:59.180,92.5497,11.7831,0,0.000885,0,0
0:0:59.386,93.079,11.8521,0,0.000885,0,0
0:0:59.587,93.4883,11.9004,0,0.000885,0,0
0:0:59.789,94.0176,11.9693,0,0.000885,0,0
0:0:59.993,94.8361,12.0727,0,0.000885,0,0
0:1:0.196,95.3076,12.1348,0,0.000885,0,0
0:1:0.397,95.3076,12.1348,0,0.000885,0,0
0:1:0.600,96.1261,12.2382,0,0.000885,0,0
0:1:0.800,96.4819,12.2865,0,0.000885,0,0
0:1:1.003,96.8333,12.3278,0,0.000885,0,0
0:1:1.205,97.2426,12.383,0,0.000885,0,0
0:1:1.402,98.0032,12.4795,0,0.000885,0,0
0:1:1.603,98.1233,12.4933,0,0.000885,0,0
0:1:1.803,98.1811,12.5002,0,0.000885,0,0
0:1:1.998,98.5326,12.5485,0,0.000885,0,0
0:1:2.200,98.7683,12.576,0,0.000885,0,0
0:1:2.397,98.8261,12.5829,0,0.000885,0,0
0:1:2.596,99.5868,12.6795,0,0.000885,0,0
0:1:2.798,100.174,12.7553,0,0.000885,0,0
0:1:2.992,99.8804,12.7139,0,0.000885,0,0
0:1:3.194,100.645,12.8174,0,0.000885,0,0
0:1:3.392,101.29,12.8932,0,0.000885,0,0
0:1:3.590,102.051,12.9966,0,0.000885,0,0
0:1:3.792,102.523,13.0518,0,0.000885,0,0
0:1:3.987,103.11,13.1276,0,0.000885,0,0
0:1:4.187,102.46,13.0449,0,0.000885,0,0
0:1:4.387,103.11,13.1276,0,0.000885,0,0
0:1:4.584,103.813,13.2172,0,0.000885,0,0
0:1:4.786,103.399,13.1621,0,0.000885,0,0
0:1:4.987,103.755,13.2104,0,0.000885,0,0
0:1:5.191,105.396,13.4172,0,0.000885,0,0
0:1:5.395,105.512,13.431,0,0.000885,0,0
0:1:5.596,105.512,13.431,0,0.000885,0,0
0:1:5.797,105.805,13.4724,0,0.000885,0,0
0:1:5.998,106.86,13.6034,0,0.000885,0,0
0:1:6.199,107.038,13.6309,0,0.000885,0,0
0:1:6.401,106.98,13.624,0,0.000885,0,0
0:1:6.595,107.625,13.6999,0,0.000885,0,0
0:1:6.797,107.976,13.7481,0,0.000885,0,0
0:1:6.997,108.973,13.8723,0,0.000885,0,0
0:1:7.192,108.795,13.8516,0,0.000885,0,0
0:1:7.395,108.795,13.8516,0,0.000885,0,0
0:1:7.590,109.324,13.9205,0,0.000885,0,0
0:1:7.789,109.208,13.9067,0,0.000885,0,0
0:1:7.989,109.795,13.9826,0,0.000885,0,0
0:1:8.185,110.263,14.0377,0,0.000885,0,0
0:1:8.387,110.378,14.0515,0,0.000885,0,0
0:1:8.585,111.379,14.1825,0,0.000885,0,0
0:1:8.784,111.73,14.2239,0,0.000885,0,0
0:1:8.985,112.669,14.348,0,0.000885,0,0
0:1:9.180,112.842,14.3687,0,0.000885,0,0
0:1:9.384,113.665,14.4721,0,0.000885,0,0
0:1:9.579,114.017,14.5204,0,0.000885,0,0
0:1:9.788,115.071,14.6514,0,0.000885,0,0
0:1:9.989,114.777,14.6169,0,0.000885,0,0
0:1:10.190,115.071,14.6514,0,0.000885,0,0
0:1:10.393,115.249,14.672,0,0.000885,0,0
0:1:10.596,115.071,14.6514,0,0.000885,0,0
0:1:10.797,114.84,14.6238,0,0.000885,0,0
0:1:10.999,116.303,14.8099,0,0.000885,0,0
0:1:11.200,116.775,14.8651,0,0.000885,0,0
0:1:11.403,117.126,14.9134,0,0.000885,0,0
0:1:11.603,117.357,14.9409,0,0.000885,0,0
0:1:11.802,118.358,15.0719,0,0.000885,0,0
0:1:12.003,118.416,15.0788,0,0.000885,0,0
0:1:12.199,119.061,15.1616,0,0.000885,0,0
0:1:12.401,118.825,15.1271,0,0.000885,0,0
0:1:12.598,119.706,15.2443,0,0.000885,0,0
0:1:12.797,119.942,15.2719,0,0.000885,0,0
0:1:12.999,120.058,15.2857,0,0.000885,0,0
0:1:13.195,120.818,15.3822,0,0.000885,0,0
0:1:13.397,121.112,15.4236,0,0.000885,0,0
0:1:13.595,121.232,15.4374,0,0.000885,0,0
0:1:13.791,121.29,15.4443,0,0.000885,0,0
0:1:13.993,121.174,15.4305,0,0.000885,0,0
0:1:14.189,122.17,15.5546,0,0.000885,0,0
0:1:14.390,122.989,15.658,0,0.000885,0,0
0:1:14.590,123.282,15.6994,0,0.000885,0,0
0:1:14.786,123.87,15.7683,0,0.000885,0,0
0:1:14.988,123.985,15.789,0,0.000885,0,0
0:1:15.192,124.75,15.8855,0,0.000885,0,0
0:1:15.394,125.044,15.92,0,0.000885,0,0
0:1:15.598,125.689,16.0027,0,0.000885,0,0
0:1:15.798,125.338,15.9614,0,0.000885,0,0
0:1:16.001,126.214,16.0717,0,0.000885,0,0
0:1:16.201,126.392,16.0924,0,0.000885,0,0
0:1:16.404,127.273,16.2027,0,0.000885,0,0
0:1:16.605,127.508,16.2372,0,0.000885,0,0
0:1:16.802,127.918,16.2854,0,0.000885,0,0
0:1:17.004,128.033,16.2992,0,0.000885,0,0
0:1:17.200,128.442,16.3544,0,0.000885,0,0
0:1:17.399,128.798,16.3957,0,0.000885,0,0
0:1:17.600,128.563,16.3682,0,0.000885,0,0
0:1:17.797,129.795,16.5267,0,0.000885,0,0
0:1:17.998,130.146,16.5681,0,0.000885,0,0
0:1:18.196,130.382,16.6026,0,0.000885,0,0
0:1:18.394,130.497,16.6164,0,0.000885,0,0
0:1:18.596,131.142,16.6991,0,0.000885,0,0
0:1:18.792,131.61,16.7543,0,0.000885,0,0
0:1:18.994,132.081,16.8163,0,0.000885,0,0
0:1:19.191,131.965,16.8025,0,0.000885,0,0
0:1:19.390,133.02,16.9335,0,0.000885,0,0
0:1:19.591,133.193,16.9611,0,0.000885,0,0
0:1:19.793,133.843,17.0438,0,0.000885,0,0
0:1:19.997,134.074,17.0714,0,0.000885,0,0
0:1:20.200,134.839,17.1679,0,0.000885,0,0
0:1:20.401,134.661,17.1473,0,0.000885,0,0
0:1:20.602,135.248,17.2231,0,0.000885,0,0
0:1:20.804,134.955,17.1817,0,0.000885,0,0
0:1:21.005,135.248,17.2231,0,0.000885,0,0
0:1:21.205,135.778,17.2852,0,0.000885,0,0
0:1:21.403,136.947,17.4368,0,0.000885,0,0
0:1:21.604,136.654,17.4024,0,0.000885,0,0
0:1:21.802,138.122,17.5885,0,0.000885,0,0
0:1:22.001,137.828,17.5472,0,0.000885,0,0
0:1:22.200,137.886,17.5541,0,0.000885,0,0
0:1:22.397,138.825,17.6782,0,0.000885,0,0
0:1:22.598,138.825,17.6782,0,0.000885,0,0
0:1:22.795,139.59,17.7747,0,0.000885,0,0
0:1:22.995,140.235,17.8574,0,0.000885,0,0
0:1:23.194,140.057,17.8298,0,0.000885,0,0
0:1:23.391,141.467,18.0091,0,0.000885,0,0
0:1:23.591,140.408,17.8781,0,0.000885,0,0
0:1:23.790,141.64,18.0367,0,0.000885,0,0
0:1:23.989,141.992,18.0781,0,0.000885,0,0
0:1:24.188,142.05,18.0849,0,0.000885,0,0
0:1:24.384,142.285,18.1194,0,0.000885,0,0
0:1:24.585,142.757,18.1746,0,0.000885,0,0
0:1:24.787,143.575,18.278,0,0.000885,0,0
0:1:24.991,143.753,18.3056,0,0.000885,0,0
0:1:25.192,144.456,18.3952,0,0.000885,0,0
0:1:25.395,144.105,18.3469,0,0.000885,0,0
0:1:25.597,144.634,18.4159,0,0.000885,0,0
0:1:25.797,145.279,18.4986,0,0.000885,0,0
0:1:26.000,145.924,18.5814,0,0.000885,0,0
0:1:26.201,146.217,18.6158,0,0.000885,0,0
0:1:26.396,146.511,18.6572,0,0.000885,0,0
0:1:26.598,146.569,18.6641,0,0.000885,0,0
0:1:26.797,147.272,18.7537,0,0.000885,0,0
0:1:26.995,147.739,18.8089,0,0.000885,0,0
0:1:27.198,147.859,18.8227,0,0.000885,0,0
0:1:27.393,148.62,18.9261,0,0.000885,0,0
0:1:27.594,149.029,18.9744,0,0.000885,0,0
0:1:27.793,149.442,19.0295,0,0.000885,0,0
0:1:27.990,149.91,19.0847,0,0.000885,0,0
0:1:28.192,150.323,19.1398,0,0.000885,0,0
0:1:28.387,150.261,19.133,0,0.000885,0,0
0:1:28.587,150.03,19.1054,0,0.000885,0,0
0:1:28.787,150.497,19.1605,0,0.000885,0,0
0:1:28.984,151.377,19.2708,0,0.000885,0,0
0:1:29.187,152.138,19.3743,0,0.000885,0,0
0:1:29.382,152.667,19.4363,0,0.000885,0,0
0:1:29.583,152.489,19.4156,0,0.000885,0,0
0:1:29.785,153.019,19.4846,0,0.000885,0,0
0:1:29.987,153.9,19.5949,0,0.000885,0,0
0:1:30.190,155.012,19.7397,0,0.000885,0,0
0:1:30.391,154.718,19.6983,0,0.000885,0,0
0:1:30.593,154.429,19.6638,0,0.000885,0,0
0:1:30.794,154.954,19.7328,0,0.000885,0,0
0:1:30.995,155.777,19.8362,0,0.000885,0,0
0:1:31.198,156.422,19.919,0,0.000885,0,0
0:1:31.396,155.657,19.8224,0,0.000885,0,0
0:1:31.594,156.715,19.9534,0,0.000885,0,0
0:1:31.794,156.657,19.9465,0,0.000885,0,0
0:1:31.990,157.476,20.05,0,0.000885,0,0
0:1:32.191,157.885,20.1051,0,0.000885,0,0
0:1:32.390,159.002,20.243,0,0.000885,0,0
0:1:32.587,159.06,20.2499,0,0.000885,0,0
0:1:32.789,159.002,20.243,0,0.000885,0,0
0:1:32.983,158.944,20.2361,0,0.000885,0,0
0:1:33.185,160.114,20.3878,0,0.000885,0,0
0:1:33.385,160.292,20.4085,0,0.000885,0,0
0:1:33.590,159.998,20.374,0,0.000885,0,0
0:1:33.793,160.763,20.4705,0,0.000885,0,0
0:1:33.987,161.466,20.5602,0,0.000885,0,0
0:1:34.188,161.639,20.5809,0,0.000885,0,0
0:1:34.388,162.405,20.6774,0,0.000885,0,0
0:1:34.585,162.814,20.7325,0,0.000885,0,0
0:1:34.787,163.223,20.7808,0,0.000885,0,0
0:1:34.989,163.05,20.7601,0,0.000885,0,0
0:1:35.193,163.574,20.8291,0,0.000885,0,0
0:1:35.395,164.104,20.8911,0,0.000885,0,0
0:1:35.597,164.34,20.9256,0,0.000885,0,0
0:1:35.799,164.575,20.9532,0,0.000885,0,0
0:1:35.999,165.042,21.0152,0,0.000885,0,0
0:1:36.201,165.745,21.1049,0,0.000885,0,0
0:1:36.402,165.923,21.1255,0,0.000885,0,0
0:1:36.598,166.39,21.1876,0,0.000885,0,0
0:1:36.799,167.213,21.291,0,0.000885,0,0
0:1:36.997,168.152,21.4082,0,0.000885,0,0
0:1:37.197,167.742,21.36,0,0.000885,0,0
0:1:37.397,167.622,21.3393,0,0.000885,0,0
0:1:37.593,168.032,21.3944,0,0.000885,0,0
0:1:37.796,169.148,21.5392,0,0.000885,0,0
0:1:37.992,169.499,21.5806,0,0.000885,0,0
0:1:38.191,170.554,21.7185,0,0.000885,0,0
0:1:38.391,170.438,21.6978,0,0.000885,0,0
0:1:38.588,170.202,21.6702,0,0.000885,0,0
0:1:38.790,170.38,21.6909,0,0.000885,0,0
0:1:38.988,171.434,21.8288,0,0.000885,0,0
0:1:39.186,171.848,21.8771,0,0.000885,0,0
0:1:39.387,171.786,21.8702,0,0.000885,0,0
0:1:39.583,172.493,21.9598,0,0.000885,0,0
0:1:39.784,172.431,21.9529,0,0.000885,0,0
0:1:39.987,173.138,22.0425,0,0.000885,0,0
0:1:40.190,173.49,22.0908,0,0.000885,0,0
0:1:40.393,173.312,22.0701,0,0.000885,0,0
0:1:40.596,174.308,22.1942,0,0.000885,0,0
0:1:40.797,174.544,22.2218,0,0.000885,0,0
0:1:40.998,175.011,22.2839,0,0.000885,0,0
0:1:41.199,175.598,22.3597,0,0.000885,0,0
0:1:41.401,175.66,22.3666,0,0.000885,0,0
0:1:41.598,175.776,22.3804,0,0.000885,0,0
0:1:41.798,176.657,22.4907,0,0.000885,0,0
0:1:41.998,177.417,22.5872,0,0.000885,0,0
0:1:42.193,176.888,22.5252,0,0.000885,0,0
0:1:42.395,177.475,22.5941,0,0.000885,0,0
0:1:42.591,177.711,22.6286,0,0.000885,0,0
0:1:42.791,178.649,22.7458,0,0.000885,0,0
0:1:42.993,179.001,22.7941,0,0.000885,0,0
0:1:43.188,179.762,22.8906,0,0.000885,0,0
0:1:43.390,180.411,22.9733,0,0.000885,0,0
0:1:43.587,180.878,23.0285,0,0.000885,0,0
0:1:43.784,180.82,23.0216,0,0.000885,0,0
0:1:43.986,181.172,23.0699,0,0.000885,0,0
0:1:44.193,181.759,23.1388,0,0.000885,0,0
0:1:44.393,182.226,23.2009,0,0.000885,0,0
0:1:44.593,183.285,23.3388,0,0.000885,0,0
0:1:44.789,182.929,23.2905,0,0.000885,0,0
0:1:44.990,183.636,23.3801,0,0.000885,0,0
0:1:45.192,183.342,23.3456,0,0.000885,0,0
0:1:45.395,183.578,23.3732,0,0.000885,0,0
0:1:45.598,184.161,23.4491,0,0.000885,0,0
0:1:45.798,184.632,23.5111,0,0.000885,0,0
0:1:46.001,184.397,23.4766,0,0.000885,0,0
0:1:46.202,185.393,23.6076,0,0.000885,0,0
0:1:46.404,186.158,23.7042,0,0.000885,0,0
0:1:46.605,185.451,23.6145,0,0.000885,0,0
0:1:46.800,185.98,23.6766,0,0.000885,0,0
0:1:47.003,187.328,23.849,0,0.000885,0,0
0:1:47.200,187.154,23.8283,0,0.000885,0,0
0:1:47.399,188.035,23.9386,0,0.000885,0,0
0:1:47.600,187.27,23.8421,0,0.000885,0,0
0:1:47.794,188.209,23.9662,0,0.000885,0,0
0:1:47.996,189.147,24.0834,0,0.000885,0,0
0:1:48.195,189.089,24.0765,0,0.000885,0,0
0:1:48.392,189.205,24.0903,0,0.000885,0,0
0:1:48.595,189.792,24.1661,0,0.000885,0,0
0:1:48.790,190.379,24.242,0,0.000885,0,0
0:1:48.990,190.673,24.2764,0,0.000885,0,0
0:1:49.192,191.024,24.3247,0,0.000885,0,0
0:1:49.387,191.082,24.3316,0,0.000885,0,0
0:1:49.590,191.905,24.435,0,0.000885,0,0
0:1:49.789,192.902,24.5591,0,0.000885,0,0
0:1:49.991,193.137,24.5936,0,0.000885,0,0
0:1:50.195,193.195,24.6005,0,0.000885,0,0
0:1:50.395,193.898,24.6901,0,0.000885,0,0
0:1:50.595,194.307,24.7384,0,0.000885,0,0
0:1:50.796,194.601,24.7798,0,0.000885,0,0
0:1:50.994,195.246,24.8625,0,0.000885,0,0
0:1:51.195,195.597,24.9039,0,0.000885,0,0
0:1:51.389,194.837,24.8073,0,0.000885,0,0
0:1:51.588,195.833,24.9314,0,0.000885,0,0
0:1:51.786,196.184,24.9797,0,0.000885,0,0
0:1:51.990,196.949,25.0762,0,0.000885,0,0
0:1:52.190,197.301,25.1176,0,0.000885,0,0
0:1:52.387,197.652,25.1659,0,0.000885,0,0
0:1:52.585,197.768,25.1797,0,0.000885,0,0
0:1:52.784,198.591,25.2831,0,0.000885,0,0
0:1:52.988,198.649,25.29,0,0.000885,0,0
0:1:53.189,199.236,25.3658,0,0.000885,0,0
0:1:53.385,199.12,25.352,0,0.000885,0,0
0:1:53.592,199.529,25.4072,0,0.000885,0,0
0:1:53.792,200.117,25.4761,0,0.000885,0,0
0:1:53.985,200.41,25.5175,0,0.000885,0,0
0:1:54.185,200.997,25.5933,0,0.000885,0,0
0:1:54.383,201.816,25.6968,0,0.000885,0,0
0:1:54.588,201.994,25.7174,0,0.000885,0,0
0:1:54.789,202.461,25.7795,0,0.000885,0,0
0:1:54.989,202.461,25.7795,0,0.000885,0,0
0:1:55.191,202.345,25.7657,0,0.000885,0,0
0:1:55.394,203.457,25.9036,0,0.000885,0,0
0:1:55.593,204.102,25.9863,0,0.000885,0,0
0:1:55.794,204.454,26.0346,0,0.000885,0,0
0:1:55.994,204.809,26.076,0,0.000885,0,0
0:1:56.194,204.867,26.0829,0,0.000885,0,0
0:1:56.393,204.867,26.0829,0,0.000885,0,0
0:1:56.589,205.454,26.1587,0,0.000885,0,0
0:1:56.788,205.979,26.2277,0,0.000885,0,0
0:1:56.985,206.976,26.3518,0,0.000885,0,0
0:1:57.191,206.976,26.3518,0,0.000885,0,0
0:1:57.391,207.505,26.4207,0,0.000885,0,0
0:1:57.585,207.505,26.4207,0,0.000885,0,0
0:1:57.786,208.15,26.5034,0,0.000885,0,0
0:1:57.992,208.501,26.5448,0,0.000885,0,0
0:1:58.187,208.266,26.5172,0,0.000885,0,0
0:1:58.389,208.853,26.5931,0,0.000885,0,0
0:1:58.592,209.324,26.6551,0,0.000885,0,0
0:1:58.793,210.263,26.7723,0,0.000885,0,0
0:1:58.991,210.436,26.793,0,0.000885,0,0
0:1:59.185,211.144,26.8827,0,0.000885,0,0
0:1:59.386,211.847,26.9723,0,0.000885,0,0
0:1:59.591,211.669,26.9516,0,0.000885,0,0
0:1:59.788,212.082,26.9999,0,0.000885,0,0
0:1:59.990,213.252,27.1516,0,0.000885,0,0
0:2:0.191,212.959,27.1171,0,0.000885,0,0
0:2:0.393,213.488,27.1791,0,0.000885,0,0
0:2:0.593,213.31,27.1584,0,0.000885,0,0
0:2:0.793,213.839,27.2274,0,0.000885,0,0
0:2:0.993,214.72,27.3377,0,0.000885,0,0
0:2:1.193,215.601,27.448,0,0.000885,0,0
0:2:1.393,215.481,27.4342,0,0.000885,0,0
0:2:1.590,215.832,27.4825,0,0.000885,0,0
0:2:1.785,215.307,27.4136,0,0.000885,0,0
0:2:1.986,216.655,27.5859,0,0.000885,0,0
0:2:2.190,216.304,27.5377,0,0.000885,0,0
0:2:2.389,216.655,27.5859,0,0.000885,0,0
0:2:2.587,217.709,27.7169,0,0.000885,0,0
0:2:2.790,217.767,27.7238,0,0.000885,0,0
0:2:2.991,218.123,27.7721,0,0.000885,0,0
0:2:3.187,217.709,27.7169,0,0.000885,0,0
0:2:3.385,218.532,27.8272,0,0.000885,0,0
0:2:3.585,219.293,27.9238,0,0.000885,0,0
0:2:3.787,219.88,27.9927,0,0.000885,0,0
0:2:3.988,220.058,28.0203,0,0.000885,0,0
0:2:4.186,220.409,28.0617,0,0.000885,0,0
0:2:4.379,221.054,28.1444,0,0.000885,0,0
0:2:4.580,221.348,28.1858,0,0.000885,0,0
0:2:4.785,221.584,28.2133,0,0.000885,0,0
0:2:4.986,222.518,28.3306,0,0.000885,0,0
0:2:5.187,222.754,28.365,0,0.000885,0,0
0:2:5.389,223.225,28.4202,0,0.000885,0,0
0:2:5.588,223.225,28.4202,0,0.000885,0,0
0:2:5.789,224.279,28.5581,0,0.000885,0,0
0:2:5.990,224.866,28.6339,0,0.000885,0,0
0:2:6.190,225.102,28.6615,0,0.000885,0,0
0:2:6.393,225.685,28.7373,0,0.000885,0,0
0:2:6.593,226.214,28.7994,0,0.000885,0,0
0:2:6.789,226.156,28.7925,0,0.000885,0,0
0:2:6.986,226.099,28.7856,0,0.000885,0,0
0:2:7.186,226.334,28.8201,0,0.000885,0,0
0:2:7.390,227.211,28.9304,0,0.000885,0,0
0:2:7.589,227.976,29.0269,0,0.000885,0,0
0:2:7.786,227.918,29.02,0,0.000885,0,0
0:2:7.979,228.501,29.0959,0,0.000885,0,0
0:2:8.179,228.563,29.1028,0,0.000885,0,0
0:2:8.387,228.972,29.151,0,0.000885,0,0
0:2:8.585,228.972,29.151,0,0.000885,0,0
0:2:8.792,229.439,29.2131,0,0.000885,0,0
0:2:8.988,230.498,29.351,0,0.000885,0,0
0:2:9.188,229.733,29.2476,0,0.000885,0,0
0:2:9.393,230.671,29.3717,0,0.000885,0,0
0:2:9.593,231.494,29.4751,0,0.000885,0,0
0:2:9.793,231.316,29.4544,0,0.000885,0,0
0:2:9.995,232.139,29.5578,0,0.000885,0,0
0:2:10.196,231.552,29.482,0,0.000885,0,0
0:2:10.397,232.375,29.5854,0,0.000885,0,0
0:2:10.597,233.136,29.6819,0,0.000885,0,0
0:2:10.797,233.839,29.7716,0,0.000885,0,0
0:2:10.996,234.074,29.806,0,0.000885,0,0
0:2:11.198,234.426,29.8474,0,0.000885,0,0
0:2:11.393,234.777,29.8957,0,0.000885,0,0
0:2:11.591,235.306,29.9577,0,0.000885,0,0
0:2:11.791,235.542,29.9922,0,0.000885,0,0
0:2:11.993,235.716,30.0129,0,0.000885,0,0
0:2:12.193,235.951,30.0405,0,0.000885,0,0
0:2:12.390,236.539,30.1163,0,0.000885,0,0
0:2:12.587,237.126,30.1921,0,0.000885,0,0
0:2:12.788,237.944,30.2956,0,0.000885,0,0
0:2:12.993,238.647,30.3852,0,0.000885,0,0
0:2:13.189,238.474,30.3645,0,0.000885,0,0
0:2:13.388,239.061,30.4404,0,0.000885,0,0
0:2:13.585,239.354,30.4748,0,0.000885,0,0
0:2:13.781,239.292,30.4679,0,0.000885,0,0
0:2:13.990,240.409,30.6127,0,0.000885,0,0
0:2:14.187,240.644,30.6403,0,0.000885,0,0
0:2:14.387,241.054,30.6886,0,0.000885,0,0
0:2:14.591,241.405,30.7368,0,0.000885,0,0
0:2:14.790,241.289,30.723,0,0.000885,0,0
0:2:14.990,242.05,30.8196,0,0.000885,0,0
0:2:15.193,242.17,30.8334,0,0.000885,0,0
0:2:15.395,242.108,30.8265,0,0.000885,0,0
0:2:15.596,242.815,30.9161,0,0.000885,0,0
0:2:15.795,243.398,30.9919,0,0.000885,0,0
0:2:15.995,243.282,30.9781,0,0.000885,0,0
0:2:16.194,244.043,31.0747,0,0.000885,0,0
0:2:16.396,244.572,31.1367,0,0.000885,0,0
0:2:16.591,245.569,31.2677,0,0.000885,0,0
0:2:16.789,245.804,31.2953,0,0.000885,0,0
0:2:16.989,245.395,31.247,0,0.000885,0,0
0:2:17.191,246.04,31.3298,0,0.000885,0,0
0:2:17.392,246.04,31.3298,0,0.000885,0,0
0:2:17.587,247.036,31.4539,0,0.000885,0,0
0:2:17.795,247.21,31.4746,0,0.000885,0,0
0:2:17.995,247.624,31.5297,0,0.000885,0,0
0:2:18.189,247.975,31.5711,0,0.000885,0,0
0:2:18.389,248.62,31.6538,0,0.000885,0,0
0:2:18.587,249.323,31.7435,0,0.000885,0,0
0:2:18.791,250.204,31.8538,0,0.000885,0,0
0:2:18.992,249.559,31.7779,0,0.000885,0,0
0:2:19.187,250.439,31.8883,0,0.000885,0,0
0:2:19.385,250.791,31.9296,0,0.000885,0,0
0:2:19.593,250.439,31.8883,0,0.000885,0,0
0:2:19.789,251.609,32.033,0,0.000885,0,0
0:2:19.989,252.548,32.1571,0,0.000885,0,0
0:2:20.189,252.196,32.1089,0,0.000885,0,0
0:2:20.391,252.139,32.102,0,0.000885,0,0
0:2:20.591,252.023,32.0882,0,0.000885,0,0
0:2:20.793,253.135,32.233,0,0.000885,0,0
0:2:20.993,253.429,32.2675,0,0.000885,0,0
0:2:21.193,254.131,32.3571,0,0.000885,0,0
0:2:21.393,254.016,32.3433,0,0.000885,0,0
0:2:21.592,254.603,32.4191,0,0.000885,0,0
0:2:21.786,255.248,32.5019,0,0.000885,0,0
0:2:21.981,255.012,32.4674,0,0.000885,0,0
0:2:22.193,256.008,32.5984,0,0.000885,0,0
0:2:22.389,256.538,32.6605,0,0.000885,0,0
0:2:22.589,256.831,32.7018,0,0.000885,0,0
0:2:22.793,256.889,32.7087,0,0.000885,0,0
0:2:22.992,257.65,32.8053,0,0.000885,0,0
0:2:23.192,258.357,32.8949,0,0.000885,0,0
0:2:23.387,259.176,32.9983,0,0.000885,0,0
0:2:23.588,259.06,32.9845,0,0.000885,0,0
0:2:23.791,259.296,33.0121,0,0.000885,0,0
0:2:23.988,259.527,33.0466,0,0.000885,0,0
0:2:24.188,260.056,33.1086,0,0.000885,0,0
0:2:24.393,260.644,33.1845,0,0.000885,0,0
0:2:24.593,261.404,33.281,0,0.000885,0,0
0:2:24.794,261.231,33.2603,0,0.000885,0,0
0:2:24.996,261.289,33.2672,0,0.000885,0,0
0:2:25.198,261.698,33.3224,0,0.000885,0,0
0:2:25.398,262.107,33.3706,0,0.000885,0,0
0:2:25.598,262.521,33.4258,0,0.000885,0,0
0:2:25.798,263.281,33.5223,0,0.000885,0,0
0:2:25.996,263.281,33.5223,0,0.000885,0,0
0:2:26.197,263.753,33.5844,0,0.000885,0,0
0:2:26.392,264.162,33.6326,0,0.000885,0,0
0:2:26.591,264.513,33.6809,0,0.000885,0,0
0:2:26.789,264.865,33.7223,0,0.000885,0,0
0:2:26.992,265.452,33.7981,0,0.000885,0,0
0:2:27.193,265.216,33.7705,0,0.000885,0,0
0:2:27.388,265.981,33.867,0,0.000885,0,0
0:2:27.587,266.626,33.9498,0,0.000885,0,0
0:2:27.787,266.569,33.9429,0,0.000885,0,0
0:2:27.989,267.093,34.0049,0,0.000885,0,0
0:2:28.191,267.738,34.0877,0,0.000885,0,0
0:2:28.387,268.504,34.1842,0,0.000885,0,0
0:2:28.594,268.561,34.1911,0,0.000885,0,0
0:2:28.795,269.322,34.2945,0,0.000885,0,0
0:2:28.989,269.206,34.2738,0,0.000885,0,0
0:2:29.188,269.736,34.3428,0,0.000885,0,0
0:2:29.386,269.909,34.3635,0,0.000885,0,0
0:2:29.580,270.496,34.4393,0,0.000885,0,0
0:2:29.781,271.257,34.5358,0,0.000885,0,0
0:2:29.982,271.844,34.6117,0,0.000885,0,0
0:2:30.186,271.493,34.5703,0,0.000885,0,0
0:2:30.387,272.316,34.6737,0,0.000885,0,0
0:2:30.586,272.725,34.722,0,0.000885,0,0
0:2:30.787,272.489,34.6944,0,0.000885,0,0
0:2:30.987,273.254,34.7909,0,0.000885,0,0
0:2:31.186,274.251,34.9219,0,0.000885,0,0
0:2:31.386,274.424,34.9426,0,0.000885,0,0
0:2:31.590,274.073,34.8944,0,0.000885,0,0
0:2:31.789,274.718,34.9771,0,0.000885,0,0
0:2:31.987,275.189,35.0392,0,0.000885,0,0
0:2:32.181,275.363,35.0598,0,0.000885,0,0
0:2:32.380,276.128,35.1564,0,0.000885,0,0
0:2:32.584,276.653,35.2253,0,0.000885,0,0
0:2:32.786,276.831,35.246,0,0.000885,0,0
0:2:32.993,277.066,35.2736,0,0.000885,0,0
0:2:33.189,277.769,35.3632,0,0.000885,0,0
0:2:33.390,278.356,35.4391,0,0.000885,0,0
0:2:33.593,278.356,35.4391,0,0.000885,0,0
0:2:33.791,279.117,35.5356,0,0.000885,0,0
0:2:33.991,279.526,35.5907,0,0.000885,0,0
0:2:34.194,280.171,35.6735,0,0.000885,0,0
0:2:34.393,279.94,35.6459,0,0.000885,0,0
0:2:34.589,279.94,35.6459,0,0.000885,0,0
0:2:34.786,280.585,35.7217,0,0.000885,0,0
0:2:34.986,280.758,35.7493,0,0.000885,0,0
0:2:35.188,281.346,35.8252,0,0.000885,0,0
0:2:35.388,281.639,35.8596,0,0.000885,0,0
0:2:35.590,281.933,35.8941,0,0.000885,0,0
0:2:35.790,282.342,35.9493,0,0.000885,0,0
0:2:35.990,282.693,35.9906,0,0.000885,0,0
0:2:36.190,283.223,36.0596,0,0.000885,0,0
0:2:36.391,283.926,36.1492,0,0.000885,0,0
0:2:36.589,283.81,36.1354,0,0.000885,0,0
0:2:36.794,284.633,36.2388,0,0.000885,0,0
0:2:36.995,285.158,36.3078,0,0.000885,0,0
0:2:37.190,285.745,36.3836,0,0.000885,0,0
0:2:37.389,286.096,36.425,0,0.000885,0,0
0:2:37.587,286.741,36.5077,0,0.000885,0,0
0:2:37.791,286.683,36.5008,0,0.000885,0,0
0:2:37.992,287.155,36.5629,0,0.000885,0,0
0:2:38.188,287.916,36.6594,0,0.000885,0,0
0:2:38.397,288.151,36.687,0,0.000885,0,0
0:2:38.594,287.973,36.6663,0,0.000885,0,0
0:2:38.789,288.503,36.7353,0,0.000885,0,0
0:2:38.989,288.854,36.7766,0,0.000885,0,0
0:2:39.184,289.673,36.8801,0,0.000885,0,0
0:2:39.392,289.615,36.8732,0,0.000885,0,0
0:2:39.593,290.38,36.9697,0,0.000885,0,0
0:2:39.794,290.611,37.0042,0,0.000885,0,0
0:2:39.996,290.789,37.0248,0,0.000885,0,0
0:2:40.197,291.141,37.0662,0,0.000885,0,0
0:2:40.397,291.843,37.1558,0,0.000885,0,0
0:2:40.596,292.079,37.1903,0,0.000885,0,0
0:2:40.796,292.195,37.2041,0,0.000885,0,0
0:2:40.997,292.608,37.2593,0,0.000885,0,0
0:2:41.194,293.489,37.3696,0,0.000885,0,0
0:2:41.389,294.25,37.4661,0,0.000885,0,0
0:2:41.590,293.898,37.4178,0,0.000885,0,0
0:2:41.794,294.659,37.5144,0,0.000885,0,0
0:2:41.992,295.304,37.5971,0,0.000885,0,0
0:2:42.191,295.776,37.6592,0,0.000885,0,0
0:2:42.384,295.362,37.604,0,0.000885,0,0
0:2:42.584,295.718,37.6523,0,0.000885,0,0
0:2:42.792,296.421,37.7419,0,0.000885,0,0
0:2:42.989,296.714,37.7764,0,0.000885,0,0
0:2:43.189,296.83,37.7902,0,0.000885,0,0
0:2:43.394,297.533,37.8798,0,0.000885,0,0
0:2:43.594,297.946,37.935,0,0.000885,0,0
0:2:43.790,298.471,38.0039,0,0.000885,0,0
0:2:43.984,298.823,38.0453,0,0.000885,0,0
0:2:44.184,299.236,38.1004,0,0.000885,0,0
0:2:44.391,299.116,38.0866,0,0.000885,0,0
0:2:44.590,299.588,38.1418,0,0.000885,0,0
0:2:44.789,300.233,38.2245,0,0.000885,0,0
0:2:44.992,300.526,38.2659,0,0.000885,0,0
0:2:45.194,301.171,38.3486,0,0.000885,0,0
0:2:45.394,301.581,38.3969,0,0.000885,0,0
0:2:45.595,302.168,38.4727,0,0.000885,0,0
0:2:45.795,302.461,38.5072,0,0.000885,0,0
0:2:45.995,303.048,38.5831,0,0.000885,0,0
0:2:46.195,303.458,38.6382,0,0.000885,0,0
0:2:46.390,303.867,38.6865,0,0.000885,0,0
0:2:46.585,303.867,38.6865,0,0.000885,0,0
0:2:46.788,304.396,38.7554,0,0.000885,0,0
0:2:46.991,305.099,38.8451,0,0.000885,0,0
0:2:47.191,305.508,38.9002,0,0.000885,0,0
0:2:47.388,305.277,38.8657,0,0.000885,0,0
0:2:47.592,305.508,38.9002,0,0.000885,0,0
0:2:47.792,305.98,38.9554,0,0.000885,0,0
0:2:47.988,306.389,39.0105,0,0.000885,0,0
0:2:48.185,307.154,39.1071,0,0.000885,0,0
0:2:48.384,307.679,39.176,0,0.000885,0,0
0:2:48.590,308.151,39.2381,0,0.000885,0,0
0:2:48.790,308.796,39.3139,0,0.000885,0,0
0:2:48.985,308.56,39.2863,0,0.000885,0,0
0:2:49.181,308.969,39.3415,0,0.000885,0,0
0:2:49.381,309.441,39.3966,0,0.000885,0,0
0:2:49.585,309.32,39.3829,0,0.000885,0,0
0:2:49.785,310.143,39.4863,0,0.000885,0,0
0:2:49.985,310.379,39.5207,0,0.000885,0,0
0:2:50.191,310.908,39.5828,0,0.000885,0,0
0:2:50.391,310.788,39.569,0,0.000885,0,0
0:2:50.593,311.553,39.6655,0,0.000885,0,0
0:2:50.792,312.136,39.7414,0,0.000885,0,0
0:2:50.992,312.723,39.8172,0,0.000885,0,0
0:2:51.193,313.426,39.9069,0,0.000885,0,0
0:2:51.393,313.488,39.9137,0,0.000885,0,0
0:2:51.588,313.604,39.9275,0,0.000885,0,0
0:2:51.785,314.249,40.0103,0,0.000885,0,0
0:2:51.984,314.076,39.9896,0,0.000885,0,0
0:2:52.190,314.133,39.9965,0,0.000885,0,0
0:2:52.391,315.188,40.1344,0,0.000885,0,0
0:2:52.596,315.245,40.1413,0,0.000885,0,0
0:2:52.793,315.833,40.2102,0,0.000885,0,0
0:2:52.993,316.242,40.2654,0,0.000885,0,0
0:2:53.196,317.007,40.3619,0,0.000885,0,0
0:2:53.397,317.065,40.3688,0,0.000885,0,0
0:2:53.593,317.474,40.424,0,0.000885,0,0
0:2:53.789,318.177,40.5136,0,0.000885,0,0
0:2:53.989,318.297,40.5274,0,0.000885,0,0
0:2:54.194,318.706,40.5756,0,0.000885,0,0
0:2:54.393,318.591,40.5619,0,0.000885,0,0
0:2:54.590,319,40.617,0,0.000885,0,0
0:2:54.795,319.823,40.7204,0,0.000885,0,0
0:2:54.995,320.054,40.748,0,0.000885,0,0
0:2:55.196,321.17,40.8928,0,0.000885,0,0
0:2:55.398,321.17,40.8928,0,0.000885,0,0
0:2:55.600,321.464,40.9273,0,0.000885,0,0
0:2:55.800,321.873,40.9824,0,0.000885,0,0
0:2:56.001,322.403,41.0514,0,0.000885,0,0
0:2:56.199,322.754,41.0928,0,0.000885,0,0
0:2:56.401,323.048,41.1341,0,0.000885,0,0
0:2:56.601,323.399,41.1755,0,0.000885,0,0
0:2:56.794,323.341,41.1686,0,0.000885,0,0
0:2:56.995,324.222,41.2789,0,0.000885,0,0
0:2:57.190,324.395,41.3065,0,0.000885,0,0
0:2:57.398,324.631,41.3341,0,0.000885,0,0
0:2:57.599,325.218,41.4099,0,0.000885,0,0
0:2:57.792,325.098,41.3961,0,0.000885,0,0
0:2:57.993,325.57,41.4513,0,0.000885,0,0
0:2:58.190,326.215,41.534,0,0.000885,0,0
0:2:58.384,326.388,41.5547,0,0.000885,0,0
0:2:58.585,326.74,41.603,0,0.000885,0,0
0:2:58.792,327.563,41.7064,0,0.000885,0,0
0:2:58.990,328.15,41.7822,0,0.000885,0,0
0:2:59.186,328.328,41.8029,0,0.000885,0,0
0:2:59.394,328.386,41.8098,0,0.000885,0,0
0:2:59.594,328.443,41.8167,0,0.000885,0,0
0:2:59.796,329.031,41.8925,0,0.000885,0,0
0:2:59.998,329.555,41.9615,0,0.000885,0,0
0:3:0.198,329.555,41.9615,0,0.000885,0,0
0:3:0.400,329.733,41.9822,0,0.000885,0,0
0:3:0.600,330.085,42.0304,0,0.000885,0,0
0:3:0.800,330.378,42.0649,0,0.000885,0,0
0:3:1.000,330.908,42.1339,0,0.000885,0,0
0:3:1.199,330.845,42.127,0,0.000885,0,0
0:3:1.394,331.375,42.189,0,0.000885,0,0
0:3:1.593,331.553,42.2166,0,0.000885,0,0
0:3:1.792,332.665,42.3545,0,0.000885,0,0
0:3:1.997,333.136,42.4165,0,0.000885,0,0
0:3:2.197,333.31,42.4372,0,0.000885,0,0
0:3:2.391,333.545,42.4717,0,0.000885,0,0
0:3:2.591,334.368,42.5751,0,0.000885,0,0
0:3:2.789,334.542,42.5958,0,0.000885,0,0
0:3:2.994,334.72,42.6165,0,0.000885,0,0
0:3:3.195,335.187,42.6785,0,0.000885,0,0
0:3:3.399,335.423,42.7061,0,0.000885,0,0
0:3:3.597,335.596,42.7268,0,0.000885,0,0
0:3:3.797,335.832,42.7613,0,0.000885,0,0
0:3:3.991,336.535,42.8509,0,0.000885,0,0
0:3:4.191,336.419,42.8371,0,0.000885,0,0
0:3:4.397,336.713,42.8716,0,0.000885,0,0
0:3:4.591,336.361,42.8233,0,0.000885,0,0
0:3:4.792,336.241,42.8095,0,0.000885,0,0
0:3:4.991,336.597,42.8578,0,0.000885,0,0
0:3:5.194,336.828,42.8854,0,0.000885,0,0
0:3:5.395,336.713,42.8716,0,0.000885,0,0
0:3:5.595,335.596,42.7268,0,0.000885,0,0
0:3:5.796,334.542,42.5958,0,0.000885,0,0
0:3:5.994,331.61,42.2235,0,0.000885,0,0
0:3:6.194,329.791,41.9891,0,0.000885,0,0
0:3:6.394,327.856,41.7409,0,0.000885,0,0
0:3:6.584,327.327,41.6788,0,0.000885,0,0
0:3:6.785,325.628,41.4582,0,0.000885,0,0
0:3:6.994,324.631,41.3341,0,0.000885,0,0
0:3:7.191,321.055,40.879,0,0.000885,0,0
0:3:7.387,318.942,40.6101,0,0.000885,0,0
0:3:7.592,313.137,39.8724,0,0.000885,0,0
0:3:7.791,309.441,39.3966,0,0.000885,0,0
0:3:7.986,303.925,38.7003,0,0.000885,0,0
0:3:8.194,284.691,36.2457,0,0.000885,0,0
0:3:8.394,276.888,35.2529,0,0.000885,0,0
0:3:8.596,261.756,33.3293,0,0.000885,0,0
0:3:8.796,255.541,32.5364,0,0.000885,0,0
0:3:8.993,246.449,31.378,0,0.000885,0,0
0:3:9.186,242.695,30.9023,0,0.000885,0,0
0:3:9.386,236.245,30.0818,0,0.000885,0,0
0:3:9.474,236.245,30.0818,0,0.000885,0,0