File: DataFile2021-07-03_074140.csv
Test ID:,Date Tested:,Time:,Test Type:,Diameter Avg. (mm):,Cyl. Corr. Factor:,Height (mm):,Age (days):,Weight (kN):,Break Type:,Ramp Rate (MPa/s):,Load at Break (kN):,Stress at Break (MPa):
12,7/3/2021,07:41,Cylinder,100,1,200,0,3.6,3,0.24,602.53,76.72
Sample Time,Load (kN),Stress (MPa),Long. Strain,Trans. Strain,Chan1 Deflection (mm),Chan2 Deflection (mm)
0:0:5.123,5.21776,0.661897,0,0.000885,0,0
0:0:5.427,6.09851,0.779108,0,0.000885,0,0
0:0:5.729,6.09851,0.779108,0,0.000885,0,0
0:0:6.026,6.5122,0.827371,0,0.000885,0,0
0:0:6.323,7.03709,0.896318,0,0.000885,0,0
0:0:6.623,7.86001,0.99974,0,0.000885,0,0
0:0:6.920,8.85641,1.13074,0,0.000885,0,0
0:0:7.220,8.67848,1.10316,0,0.000885,0,0
0:0:7.525,9.32347,1.1859,0,0.000885,0,0
0:0:7.826,10.6757,1.35827,0,0.000885,0,0
0:0:8.136,10.907,1.38585,0,0.000885,0,0
0:0:8.428,11.8456,1.50995,0,0.000885,0,0
0:0:8.730,12.0814,1.53753,0,0.000885,0,0
0:0:9.038,12.0814,1.53753,0,0.000885,0,0
0:0:9.336,12.9043,1.64095,0,0.000885,0,0
0:0:9.644,13.1356,1.67543,0,0.000885,0,0
0:0:9.941,14.6035,1.86158,0,0.000885,0,0
0:0:10.243,14.6035,1.86158,0,0.000885,0,0
0:0:10.537,14.8393,1.88916,0,0.000885,0,0
0:0:10.840,15.6577,1.99258,0,0.000885,0,0
0:0:11.144,16.1871,2.06153,0,0.000885,0,0
0:0:11.447,16.9522,2.15806,0,0.000885,0,0
0:0:11.750,17.7128,2.25459,0,0.000885,0,0
0:0:12.053,18.6514,2.3718,0,0.000885,0,0
0:0:12.356,19.3542,2.46143,0,0.000885,0,0
0:0:12.652,19.9414,2.53727,0,0.000885,0,0
0:0:12.949,20.1771,2.57174,0,0.000885,0,0
0:0:13.252,20.88,2.66138,0,0.000885,0,0
0:0:13.546,21.347,2.71653,0,0.000885,0,0
0:0:13.846,21.8764,2.78548,0,0.000885,0,0
0:0:14.146,22.5792,2.87511,0,0.000885,0,0
0:0:14.444,23.0507,2.93717,0,0.000885,0,0
0:0:14.743,23.8113,3.03369,0,0.000885,0,0
0:0:15.040,24.2828,3.08885,0,0.000885,0,0
0:0:15.343,25.6885,3.26811,0,0.000885,0,0
0:0:15.649,26.2756,3.34396,0,0.000885,0,0
0:0:15.952,26.9206,3.42669,0,0.000885,0,0
0:0:16.255,27.5656,3.50943,0,0.000885,0,0
0:0:16.559,28.562,3.63354,0,0.000885,0,0
0:0:16.862,29.2648,3.72317,0,0.000885,0,0
0:0:17.158,29.7942,3.79212,0,0.000885,0,0
0:0:17.458,30.1456,3.84038,0,0.000885,0,0
0:0:17.757,31.0842,3.95759,0,0.000885,0,0
0:0:18.052,31.3199,3.98517,0,0.000885,0,0
0:0:18.355,32.3163,4.11617,0,0.000885,0,0
0:0:18.649,32.7256,4.16443,0,0.000885,0,0
0:0:18.949,33.0191,4.2058,0,0.000885,0,0
0:0:19.249,33.3706,4.24717,0,0.000885,0,0
0:0:19.546,33.722,4.29543,0,0.000885,0,0
0:0:19.847,33.9577,4.32301,0,0.000885,0,0
0:0:20.143,34.367,4.37817,0,0.000885,0,0
0:0:20.445,35.0742,4.4678,0,0.000885,0,0
0:0:20.750,35.8927,4.57122,0,0.000885,0,0
0:0:21.053,36.1863,4.6057,0,0.000885,0,0
0:0:21.357,36.3642,4.63328,0,0.000885,0,0
0:0:21.658,37.067,4.72291,0,0.000885,0,0
0:0:21.962,37.8277,4.81944,0,0.000885,0,0
0:0:22.258,38.2992,4.87459,0,0.000885,0,0
0:0:22.557,38.7084,4.92975,0,0.000885,0,0
0:0:22.858,39.5892,5.04007,0,0.000885,0,0
0:0:23.153,39.647,5.04696,0,0.000885,0,0
0:0:23.456,40.937,5.21244,0,0.000885,0,0
0:0:23.753,41.6398,5.30207,0,0.000885,0,0
0:0:24.052,41.9334,5.33654,0,0.000885,0,0
0:0:24.352,42.872,5.46065,0,0.000885,0,0
0:0:24.647,43.3435,5.51581,0,0.000885,0,0
0:0:24.950,44.3977,5.6537,0,0.000885,0,0
0:0:25.245,45.0427,5.73644,0,0.000885,0,0
0:0:25.548,45.572,5.80539,0,0.000885,0,0
0:0:25.852,45.8078,5.83296,0,0.000885,0,0
0:0:26.157,47.1556,6.00533,0,0.000885,0,0
0:0:26.459,47.4492,6.03981,0,0.000885,0,0
0:0:26.762,47.9741,6.10875,0,0.000885,0,0
0:0:27.065,48.2677,6.14323,0,0.000885,0,0
0:0:27.361,49.3263,6.28112,0,0.000885,0,0
0:0:27.659,49.7934,6.34318,0,0.000885,0,0
0:0:27.958,50.3806,6.41212,0,0.000885,0,0
0:0:28.254,50.8521,6.47418,0,0.000885,0,0
0:0:28.556,51.1412,6.50865,0,0.000885,0,0
0:0:28.851,52.0798,6.63276,0,0.000885,0,0
0:0:29.153,52.7248,6.71549,0,0.000885,0,0
0:0:29.451,52.9605,6.74307,0,0.000885,0,0
0:0:29.746,53.6055,6.82581,0,0.000885,0,0
0:0:30.047,53.7256,6.8396,0,0.000885,0,0
0:0:30.343,54.722,6.9706,0,0.000885,0,0
0:0:30.645,55.8341,7.10849,0,0.000885,0,0
0:0:30.950,55.8341,7.10849,0,0.000885,0,0
0:0:31.253,56.4212,7.18434,0,0.000885,0,0
0:0:31.557,56.7148,7.21881,0,0.000885,0,0
0:0:31.858,57.947,7.37739,0,0.000885,0,0
0:0:32.161,59.059,7.52218,0,0.000885,0,0
0:0:32.457,59.4149,7.56355,0,0.000885,0,0
0:0:32.757,59.9976,7.63939,0,0.000885,0,0
0:0:33.055,60.4113,7.69455,0,0.000885,0,0
0:0:33.352,60.8784,7.74971,0,0.000885,0,0
0:0:33.653,61.3499,7.81176,0,0.000885,0,0
0:0:33.947,61.5234,7.83244,0,0.000885,0,0
0:0:34.249,62.6977,7.98413,0,0.000885,0,0
0:0:34.546,63.4583,8.08066,0,0.000885,0,0
0:0:34.843,63.3427,8.06687,0,0.000885,0,0
0:0:35.143,64.2813,8.18408,0,0.000885,0,0
0:0:35.439,64.4547,8.20476,0,0.000885,0,0
0:0:35.741,64.5748,8.21855,0,0.000885,0,0
0:0:36.046,65.5134,8.34266,0,0.000885,0,0
0:0:36.350,66.5098,8.46676,0,0.000885,0,0
0:0:36.653,67.1548,8.5495,0,0.000885,0,0
0:0:36.953,67.3327,8.57018,0,0.000885,0,0
0:0:37.257,68.6227,8.73566,0,0.000885,0,0
0:0:37.552,69.2054,8.8115,0,0.000885,0,0
0:0:37.855,70.2641,8.94939,0,0.000885,0,0
0:0:38.150,70.0284,8.91492,0,0.000885,0,0
0:0:38.449,71.1449,9.05971,0,0.000885,0,0
0:0:38.749,71.2605,9.0735,0,0.000885,0,0
0:0:39.044,71.6119,9.11487,0,0.000885,0,0
0:0:39.345,72.8441,9.27345,0,0.000885,0,0
0:0:39.640,72.8441,9.27345,0,0.000885,0,0
0:0:39.941,73.2533,9.32861,0,0.000885,0,0
0:0:40.238,74.1341,9.43892,0,0.000885,0,0
0:0:40.541,74.6056,9.50098,0,0.000885,0,0
0:0:40.846,75.6598,9.63198,0,0.000885,0,0
0:0:41.149,76.4783,9.7354,0,0.000885,0,0
0:0:41.453,76.892,9.79056,0,0.000885,0,0
0:0:41.755,77.3012,9.84571,0,0.000885,0,0
0:0:42.054,77.4168,9.8595,0,0.000885,0,0
0:0:42.353,78.004,9.93535,0,0.000885,0,0
0:0:42.649,79.294,10.0939,0,0.000885,0,0
0:0:42.951,79.2362,10.087,0,0.000885,0,0
0:0:43.246,79.4719,10.1215,0,0.000885,0,0
0:0:43.547,80.3527,10.2318,0,0.000885,0,0
0:0:43.844,81.1711,10.3352,0,0.000885,0,0
0:0:44.143,81.8161,10.418,0,0.000885,0,0
0:0:44.442,82.1675,10.4593,0,0.000885,0,0
0:0:44.735,83.1684,10.5903,0,0.000885,0,0
0:0:45.039,83.4575,10.6248,0,0.000885,0,0
0:0:45.334,84.5162,10.7627,0,0.000885,0,0
0:0:45.639,84.752,10.7903,0,0.000885,0,0
0:0:45.946,85.2769,10.8592,0,0.000885,0,0
0:0:46.247,85.9797,10.9489,0,0.000885,0,0
0:0:46.550,86.5668,11.0247,0,0.000885,0,0
0:0:46.852,87.2118,11.1075,0,0.000885,0,0
0:0:47.152,87.8568,11.1833,0,0.000885,0,0
0:0:47.450,88.6219,11.2867,0,0.000885,0,0
0:0:47.746,88.8577,11.3143,0,0.000885,0,0
0:0:48.047,89.3247,11.3763,0,0.000885,0,0
0:0:48.343,90.2633,11.4936,0,0.000885,0,0
0:0:48.645,90.4991,11.5211,0,0.000885,0,0
0:0:48.942,91.2019,11.6108,0,0.000885,0,0
0:0:49.241,91.7891,11.6866,0,0.000885,0,0
0:0:49.539,92.5497,11.7831,0,0.000885,0,0
0:0:49.844,92.6075,11.79,0,0.000885,0,0
0:0:50.146,93.4883,11.9004,0,0.000885,0,0
0:0:50.441,93.9598,11.9624,0,0.000885,0,0
0:0:50.745,94.8361,12.0727,0,0.000885,0,0
0:0:51.050,95.6012,12.1692,0,0.000885,0,0
0:0:51.354,95.8369,12.2037,0,0.000885,0,0
0:0:51.655,96.3618,12.2727,0,0.000885,0,0
0:0:51.958,96.4819,12.2865,0,0.000885,0,0
0:0:52.260,97.7096,12.4381,0,0.000885,0,0
0:0:52.557,98.239,12.5071,0,0.000885,0,0
0:0:52.857,99.0041,12.6036,0,0.000885,0,0
0:0:53.155,99.7069,12.6932,0,0.000885,0,0
0:0:53.451,100.174,12.7553,0,0.000885,0,0
0:0:53.753,100.819,12.838,0,0.000885,0,0
0:0:54.047,101.348,12.907,0,0.000885,0,0
0:0:54.349,102.171,13.0104,0,0.000885,0,0
0:0:54.646,102.287,13.0242,0,0.000885,0,0
0:0:54.944,103.048,13.1207,0,0.000885,0,0
0:0:55.245,104.106,13.2517,0,0.000885,0,0
0:0:55.548,104.164,13.2655,0,0.000885,0,0
0:0:55.853,105.276,13.4034,0,0.000885,0,0
0:0:56.155,105.627,13.4517,0,0.000885,0,0
0:0:56.457,106.157,13.5137,0,0.000885,0,0
0:0:56.758,106.744,13.5896,0,0.000885,0,0
0:0:57.057,107.211,13.6516,0,0.000885,0,0
0:0:57.358,107.625,13.6999,0,0.000885,0,0
0:0:57.652,108.27,13.7826,0,0.000885,0,0
0:0:57.953,108.737,13.8447,0,0.000885,0,0
0:0:58.250,109.382,13.9274,0,0.000885,0,0
0:0:58.548,110.089,14.017,0,0.000885,0,0
0:0:58.847,110.205,14.0308,0,0.000885,0,0
0:0:59.144,111.028,14.1343,0,0.000885,0,0
0:0:59.447,112.318,14.2997,0,0.000885,0,0
0:0:59.742,112.14,14.279,0,0.000885,0,0
0:1:0.041,113.02,14.3894,0,0.000885,0,0
0:1:0.341,113.487,14.4514,0,0.000885,0,0
0:1:0.643,114.195,14.541,0,0.000885,0,0
0:1:0.950,114.72,14.61,0,0.000885,0,0
0:1:1.252,115.543,14.7134,0,0.000885,0,0
0:1:1.555,115.716,14.7341,0,0.000885,0,0
0:1:1.858,116.597,14.8444,0,0.000885,0,0
0:1:2.155,117.3,14.934,0,0.000885,0,0
0:1:2.456,117.357,14.9409,0,0.000885,0,0
0:1:2.751,118.474,15.0857,0,0.000885,0,0
0:1:3.053,118.825,15.1271,0,0.000885,0,0
0:1:3.351,120.467,15.3408,0,0.000885,0,0
0:1:3.649,120.293,15.3133,0,0.000885,0,0
0:1:3.947,121.112,15.4236,0,0.000885,0,0
0:1:4.243,121.583,15.4787,0,0.000885,0,0
0:1:4.545,122.05,15.5408,0,0.000885,0,0
0:1:4.836,122.286,15.5684,0,0.000885,0,0
0:1:5.140,122.637,15.6166,0,0.000885,0,0
0:1:5.436,123.403,15.7132,0,0.000885,0,0
0:1:5.741,123.754,15.7545,0,0.000885,0,0
0:1:6.047,124.75,15.8855,0,0.000885,0,0
0:1:6.349,126.098,16.0579,0,0.000885,0,0
0:1:6.652,126.334,16.0855,0,0.000885,0,0
0:1:6.953,126.628,16.1199,0,0.000885,0,0
0:1:7.251,127.273,16.2027,0,0.000885,0,0
0:1:7.552,127.86,16.2785,0,0.000885,0,0
0:1:7.846,128.856,16.4095,0,0.000885,0,0
0:1:8.149,129.15,16.444,0,0.000885,0,0
0:1:8.445,129.381,16.4716,0,0.000885,0,0
0:1:8.745,130.146,16.5681,0,0.000885,0,0
0:1:9.042,131.027,16.6853,0,0.000885,0,0
0:1:9.336,131.258,16.7129,0,0.000885,0,0
0:1:9.641,131.672,16.768,0,0.000885,0,0
0:1:9.933,132.49,16.8715,0,0.000885,0,0
0:1:10.235,132.668,16.8922,0,0.000885,0,0
0:1:10.544,133.549,17.0025,0,0.000885,0,0
0:1:10.847,134.016,17.0645,0,0.000885,0,0
0:1:11.152,134.488,17.1266,0,0.000885,0,0
0:1:11.456,135.133,17.2024,0,0.000885,0,0
0:1:11.759,136.009,17.3196,0,0.000885,0,0
0:1:12.062,136.302,17.3541,0,0.000885,0,0
0:1:12.360,137.655,17.5265,0,0.000885,0,0
0:1:12.660,138.18,17.5954,0,0.000885,0,0
0:1:12.957,139.238,17.7264,0,0.000885,0,0
0:1:13.259,139.176,17.7195,0,0.000885,0,0
0:1:13.553,139.705,17.7885,0,0.000885,0,0
0:1:13.855,140.586,17.8988,0,0.000885,0,0
0:1:14.152,141.173,17.9746,0,0.000885,0,0
0:1:14.448,141.64,18.0367,0,0.000885,0,0
0:1:14.748,141.876,18.0643,0,0.000885,0,0
0:1:15.045,142.695,18.1677,0,0.000885,0,0
0:1:15.349,142.872,18.1884,0,0.000885,0,0
0:1:15.653,143.753,18.3056,0,0.000885,0,0
0:1:15.958,144.34,18.3745,0,0.000885,0,0
0:1:16.261,144.985,18.4573,0,0.000885,0,0
0:1:16.564,145.51,18.5262,0,0.000885,0,0
0:1:16.866,146.217,18.6158,0,0.000885,0,0
0:1:17.163,146.92,18.7055,0,0.000885,0,0
0:1:17.461,147.272,18.7537,0,0.000885,0,0
0:1:17.759,147.623,18.7951,0,0.000885,0,0
0:1:18.056,148.268,18.8778,0,0.000885,0,0
0:1:18.358,148.677,18.933,0,0.000885,0,0
0:1:18.652,149.558,19.0433,0,0.000885,0,0
0:1:18.953,150.381,19.1467,0,0.000885,0,0
0:1:19.252,150.732,19.195,0,0.000885,0,0
0:1:19.549,151.2,19.2502,0,0.000885,0,0
0:1:19.850,151.551,19.2984,0,0.000885,0,0
0:1:20.146,152.432,19.4087,0,0.000885,0,0
0:1:20.448,152.61,19.4294,0,0.000885,0,0
0:1:20.754,153.548,19.5535,0,0.000885,0,0
0:1:21.058,153.779,19.5811,0,0.000885,0,0
0:1:21.361,155.425,19.788,0,0.000885,0,0
0:1:21.663,155.483,19.7948,0,0.000885,0,0
0:1:21.965,156.128,19.8776,0,0.000885,0,0
0:1:22.262,156.657,19.9465,0,0.000885,0,0
0:1:22.561,157.36,20.0362,0,0.000885,0,0
0:1:22.861,157.885,20.1051,0,0.000885,0,0
0:1:23.157,158.824,20.2223,0,0.000885,0,0
0:1:23.460,159.295,20.2844,0,0.000885,0,0
0:1:23.756,159.589,20.3188,0,0.000885,0,0
0:1:24.055,160.701,20.4636,0,0.000885,0,0
0:1:24.354,160.527,20.4361,0,0.000885,0,0
0:1:24.651,161.288,20.5326,0,0.000885,0,0
0:1:24.953,161.817,20.6015,0,0.000885,0,0
0:1:25.248,162.111,20.6429,0,0.000885,0,0
0:1:25.551,163.401,20.8015,0,0.000885,0,0
0:1:25.857,163.81,20.8566,0,0.000885,0,0
0:1:26.161,164.219,20.9118,0,0.000885,0,0
0:1:26.463,164.633,20.9601,0,0.000885,0,0
0:1:26.765,165.22,21.0359,0,0.000885,0,0
0:1:27.068,166.332,21.1807,0,0.000885,0,0
0:1:27.366,166.448,21.1945,0,0.000885,0,0
0:1:27.662,166.977,21.2634,0,0.000885,0,0
0:1:27.964,167.68,21.3531,0,0.000885,0,0
0:1:28.260,168.681,21.4772,0,0.000885,0,0
0:1:28.561,168.912,21.5047,0,0.000885,0,0
0:1:28.858,169.326,21.5599,0,0.000885,0,0
0:1:29.157,170.265,21.6771,0,0.000885,0,0
0:1:29.457,171.025,21.7736,0,0.000885,0,0
0:1:29.752,171.612,21.8495,0,0.000885,0,0
0:1:30.055,172.137,21.9184,0,0.000885,0,0
0:1:30.350,172.493,21.9598,0,0.000885,0,0
0:1:30.653,172.609,21.9805,0,0.000885,0,0
0:1:30.958,174.135,22.1735,0,0.000885,0,0
0:1:31.263,174.428,22.208,0,0.000885,0,0
0:1:31.565,174.837,22.2632,0,0.000885,0,0
0:1:31.868,175.834,22.3873,0,0.000885,0,0
0:1:32.169,176.127,22.4286,0,0.000885,0,0
0:1:32.467,176.83,22.5183,0,0.000885,0,0
0:1:32.766,177.244,22.5665,0,0.000885,0,0
0:1:33.065,177.595,22.6148,0,0.000885,0,0
0:1:33.360,178.062,22.67,0,0.000885,0,0
0:1:33.662,179.41,22.8423,0,0.000885,0,0
0:1:33.959,179.824,22.8975,0,0.000885,0,0
0:1:34.259,180.762,23.0147,0,0.000885,0,0
0:1:34.557,181.229,23.0768,0,0.000885,0,0
0:1:34.853,181.701,23.1319,0,0.000885,0,0
0:1:35.154,182.226,23.2009,0,0.000885,0,0
0:1:35.448,183.342,23.3456,0,0.000885,0,0
0:1:35.751,183.164,23.3181,0,0.000885,0,0
0:1:36.055,183.285,23.3388,0,0.000885,0,0
0:1:36.360,184.632,23.5111,0,0.000885,0,0
0:1:36.662,185.042,23.5594,0,0.000885,0,0
0:1:36.965,184.868,23.5387,0,0.000885,0,0
0:1:37.268,186.096,23.6973,0,0.000885,0,0
0:1:37.563,186.745,23.78,0,0.000885,0,0
0:1:37.862,187.328,23.849,0,0.000885,0,0
0:1:38.162,187.564,23.8834,0,0.000885,0,0
0:1:38.459,188.151,23.9593,0,0.000885,0,0
0:1:38.760,189.147,24.0834,0,0.000885,0,0
0:1:39.054,190.086,24.2006,0,0.000885,0,0
0:1:39.357,189.792,24.1661,0,0.000885,0,0
0:1:39.652,190.789,24.2902,0,0.000885,0,0
0:1:39.951,191.612,24.3937,0,0.000885,0,0
0:1:40.250,191.905,24.435,0,0.000885,0,0
0:1:40.553,192.724,24.5384,0,0.000885,0,0
0:1:40.856,193.431,24.6281,0,0.000885,0,0
0:1:41.158,194.427,24.7522,0,0.000885,0,0
0:1:41.456,194.076,24.7108,0,0.000885,0,0
0:1:41.757,195.014,24.828,0,0.000885,0,0
0:1:42.053,195.891,24.9452,0,0.000885,0,0
0:1:42.352,195.597,24.9039,0,0.000885,0,0
0:1:42.645,196.892,25.0693,0,0.000885,0,0
0:1:42.945,197.474,25.1452,0,0.000885,0,0
0:1:43.236,197.594,25.159,0,0.000885,0,0
0:1:43.535,198.649,25.29,0,0.000885,0,0
0:1:43.843,199.12,25.352,0,0.000885,0,0
0:1:44.147,199.414,25.3865,0,0.000885,0,0
0:1:44.446,200.641,25.5451,0,0.000885,0,0
0:1:44.739,200.762,25.5589,0,0.000885,0,0
0:1:45.037,201.758,25.6899,0,0.000885,0,0
0:1:45.344,202.052,25.7243,0,0.000885,0,0
0:1:45.640,202.287,25.7588,0,0.000885,0,0
0:1:45.946,203.399,25.8967,0,0.000885,0,0
0:1:46.247,203.751,25.945,0,0.000885,0,0
0:1:46.548,204.689,26.0622,0,0.000885,0,0
0:1:46.847,204.925,26.0898,0,0.000885,0,0
0:1:47.146,205.806,26.207,0,0.000885,0,0
0:1:47.440,205.979,26.2277,0,0.000885,0,0
0:1:47.735,207.332,26.4,0,0.000885,0,0
0:1:48.034,206.744,26.3242,0,0.000885,0,0
0:1:48.325,207.799,26.4552,0,0.000885,0,0
0:1:48.625,208.559,26.5517,0,0.000885,0,0
0:1:48.930,208.266,26.5172,0,0.000885,0,0
0:1:49.225,209.969,26.731,0,0.000885,0,0
0:1:49.523,209.676,26.6965,0,0.000885,0,0
0:1:49.816,211.433,26.924,0,0.000885,0,0
0:1:50.116,211.144,26.8827,0,0.000885,0,0
0:1:50.409,211.904,26.9792,0,0.000885,0,0
0:1:50.708,212.314,27.0343,0,0.000885,0,0
0:1:51.013,213.43,27.1722,0,0.000885,0,0
0:1:51.311,213.31,27.1584,0,0.000885,0,0
0:1:51.613,214.6,27.3239,0,0.000885,0,0
0:1:51.912,214.427,27.3032,0,0.000885,0,0
0:1:52.213,215.659,27.4618,0,0.000885,0,0
0:1:52.505,215.832,27.4825,0,0.000885,0,0
0:1:52.803,216.833,27.6066,0,0.000885,0,0
0:1:53.099,217.006,27.6273,0,0.000885,0,0
0:1:53.395,217.536,27.6962,0,0.000885,0,0
0:1:53.694,218.239,27.7859,0,0.000885,0,0
0:1:53.986,218.941,27.8755,0,0.000885,0,0
0:1:54.287,219.764,27.9789,0,0.000885,0,0
0:1:54.580,219.764,27.9789,0,0.000885,0,0
0:1:54.877,220.934,28.1306,0,0.000885,0,0
0:1:55.171,220.819,28.1168,0,0.000885,0,0
0:1:55.473,222.109,28.2823,0,0.000885,0,0
0:1:55.777,222.166,28.2892,0,0.000885,0,0
0:1:56.078,222.932,28.3857,0,0.000885,0,0
0:1:56.379,224.164,28.5443,0,0.000885,0,0
0:1:56.679,224.222,28.5512,0,0.000885,0,0
0:1:56.974,224.751,28.6132,0,0.000885,0,0
0:1:57.272,224.809,28.6201,0,0.000885,0,0
0:1:57.565,226.099,28.7856,0,0.000885,0,0
0:1:57.866,226.744,28.8683,0,0.000885,0,0
0:1:58.160,227.389,28.9511,0,0.000885,0,0
0:1:58.457,227.856,29.0131,0,0.000885,0,0
0:1:58.754,228.034,29.0338,0,0.000885,0,0
0:1:59.047,229.03,29.1579,0,0.000885,0,0
0:1:59.346,229.266,29.1924,0,0.000885,0,0
0:1:59.639,230.556,29.3579,0,0.000885,0,0
0:1:59.937,230.671,29.3717,0,0.000885,0,0
0:2:0.230,231.668,29.4958,0,0.000885,0,0
0:2:0.531,231.904,29.5302,0,0.000885,0,0
0:2:0.834,232.784,29.6406,0,0.000885,0,0
0:2:1.136,232.784,29.6406,0,0.000885,0,0
0:2:1.435,233.781,29.7647,0,0.000885,0,0
0:2:1.736,233.723,29.7578,0,0.000885,0,0
0:2:2.034,234.777,29.8957,0,0.000885,0,0
0:2:2.330,235.774,30.0198,0,0.000885,0,0
0:2:2.626,235.951,30.0405,0,0.000885,0,0
0:2:2.923,237.064,30.1852,0,0.000885,0,0
0:2:3.217,237.126,30.1921,0,0.000885,0,0
0:2:3.516,237.944,30.2956,0,0.000885,0,0
0:2:3.809,237.419,30.2266,0,0.000885,0,0
0:2:4.107,238.647,30.3852,0,0.000885,0,0
0:2:4.401,238.709,30.3921,0,0.000885,0,0
0:2:4.699,240.115,30.5714,0,0.000885,0,0
0:2:4.998,240.173,30.5782,0,0.000885,0,0
0:2:5.290,241.169,30.7092,0,0.000885,0,0
0:2:5.590,240.876,30.6679,0,0.000885,0,0
0:2:5.893,242.637,30.8954,0,0.000885,0,0
0:2:6.194,242.695,30.9023,0,0.000885,0,0
0:2:6.494,243.869,31.0471,0,0.000885,0,0
0:2:6.794,243.927,31.0609,0,0.000885,0,0
0:2:7.096,245.101,31.2057,0,0.000885,0,0
0:2:7.387,244.866,31.1781,0,0.000885,0,0
0:2:7.687,246.271,31.3574,0,0.000885,0,0
0:2:7.984,245.982,31.316,0,0.000885,0,0
0:2:8.278,247.152,31.4677,0,0.000885,0,0
0:2:8.576,247.503,31.5159,0,0.000885,0,0
0:2:8.868,248.211,31.6056,0,0.000885,0,0
0:2:9.169,248.562,31.6469,0,0.000885,0,0
0:2:9.462,249.438,31.7573,0,0.000885,0,0
0:2:9.759,249.265,31.7366,0,0.000885,0,0
0:2:10.056,250.497,31.8951,0,0.000885,0,0
0:2:10.357,251.2,31.9848,0,0.000885,0,0
0:2:10.659,252.316,32.1227,0,0.000885,0,0
0:2:10.960,252.139,32.102,0,0.000885,0,0
0:2:11.261,253.313,32.2537,0,0.000885,0,0
0:2:11.561,254.016,32.3433,0,0.000885,0,0
0:2:11.856,253.606,32.2881,0,0.000885,0,0
0:2:12.155,255.07,32.4743,0,0.000885,0,0
0:2:12.448,254.309,32.3778,0,0.000885,0,0
0:2:12.748,256.066,32.6053,0,0.000885,0,0
0:2:13.050,256.48,32.6536,0,0.000885,0,0
0:2:13.349,256.831,32.7018,0,0.000885,0,0
0:2:13.654,257.65,32.8053,0,0.000885,0,0
0:2:13.947,258.064,32.8604,0,0.000885,0,0
0:2:14.247,259.002,32.9776,0,0.000885,0,0
0:2:14.550,258.766,32.95,0,0.000885,0,0
0:2:14.850,260.172,33.1293,0,0.000885,0,0
0:2:15.141,259.647,33.0604,0,0.000885,0,0
0:2:15.441,261.111,33.2465,0,0.000885,0,0
0:2:15.747,261.698,33.3224,0,0.000885,0,0
0:2:16.047,262.227,33.3844,0,0.000885,0,0
0:2:16.348,262.752,33.4534,0,0.000885,0,0
0:2:16.647,263.281,33.5223,0,0.000885,0,0
0:2:16.947,264.398,33.6671,0,0.000885,0,0
0:2:17.251,263.691,33.5775,0,0.000885,0,0
0:2:17.548,265.158,33.7636,0,0.000885,0,0
0:2:17.843,265.101,33.7567,0,0.000885,0,0
0:2:18.136,266.626,33.9498,0,0.000885,0,0
0:2:18.436,266.333,33.9084,0,0.000885,0,0
0:2:18.740,267.623,34.0739,0,0.000885,0,0
0:2:19.037,267.623,34.0739,0,0.000885,0,0
0:2:19.332,269.206,34.2738,0,0.000885,0,0
0:2:19.628,268.971,34.2463,0,0.000885,0,0
0:2:19.926,270.025,34.3842,0,0.000885,0,0
0:2:20.229,269.967,34.3704,0,0.000885,0,0
0:2:20.529,271.141,34.522,0,0.000885,0,0
0:2:20.831,271.257,34.5358,0,0.000885,0,0
0:2:21.134,272.841,34.7427,0,0.000885,0,0
0:2:21.434,272.609,34.7082,0,0.000885,0,0
0:2:21.734,273.606,34.8392,0,0.000885,0,0
0:2:22.035,273.428,34.8116,0,0.000885,0,0
0:2:22.350,274.424,34.9426,0,0.000885,0,0
0:2:22.644,275.363,35.0598,0,0.000885,0,0
0:2:22.942,275.834,35.1219,0,0.000885,0,0
0:2:23.247,275.95,35.1357,0,0.000885,0,0
0:2:23.544,277.004,35.2667,0,0.000885,0,0
0:2:23.850,278.063,35.4046,0,0.000885,0,0
0:2:24.148,277.885,35.3839,0,0.000885,0,0
0:2:24.441,278.823,35.5011,0,0.000885,0,0
0:2:24.748,279.237,35.5563,0,0.000885,0,0
0:2:25.045,280.234,35.6804,0,0.000885,0,0
0:2:25.349,279.82,35.6252,0,0.000885,0,0
0:2:25.651,280.994,35.7769,0,0.000885,0,0
0:2:25.951,281.466,35.8389,0,0.000885,0,0
0:2:26.251,281.639,35.8596,0,0.000885,0,0
0:2:26.551,283.223,36.0596,0,0.000885,0,0
0:2:26.853,283.281,36.0665,0,0.000885,0,0
0:2:27.154,284.103,36.1699,0,0.000885,0,0
0:2:27.448,284.633,36.2388,0,0.000885,0,0
0:2:27.754,285.216,36.3147,0,0.000885,0,0
0:2:28.051,285.981,36.4112,0,0.000885,0,0
0:2:28.344,286.216,36.4388,0,0.000885,0,0
0:2:28.643,287.213,36.5698,0,0.000885,0,0
0:2:28.948,288.031,36.6732,0,0.000885,0,0
0:2:29.244,288.503,36.7353,0,0.000885,0,0
0:2:29.551,289.499,36.8594,0,0.000885,0,0
0:2:29.855,289.321,36.8387,0,0.000885,0,0
0:2:30.152,290.144,36.9421,0,0.000885,0,0
0:2:30.453,289.851,36.9076,0,0.000885,0,0
0:2:30.755,291.083,37.0593,0,0.000885,0,0
0:2:31.057,291.141,37.0662,0,0.000885,0,0
0:2:31.357,292.431,37.2317,0,0.000885,0,0
0:2:31.656,292.666,37.2662,0,0.000885,0,0
0:2:31.953,293.721,37.3972,0,0.000885,0,0
0:2:32.251,294.192,37.4592,0,0.000885,0,0
0:2:32.544,294.366,37.4799,0,0.000885,0,0
0:2:32.841,295.718,37.6523,0,0.000885,0,0
0:2:33.135,295.891,37.673,0,0.000885,0,0
0:2:33.431,295.776,37.6592,0,0.000885,0,0
0:2:33.730,297.066,37.8246,0,0.000885,0,0
0:2:34.032,297.008,37.8177,0,0.000885,0,0
0:2:34.332,298.178,37.9625,0,0.000885,0,0
0:2:34.626,298.765,38.0384,0,0.000885,0,0
0:2:34.923,299.703,38.1625,0,0.000885,0,0
0:2:35.219,300.113,38.2107,0,0.000885,0,0
0:2:35.520,299.823,38.1763,0,0.000885,0,0
0:2:35.822,300.878,38.3073,0,0.000885,0,0
0:2:36.123,301.758,38.4176,0,0.000885,0,0
0:2:36.422,302.341,38.4934,0,0.000885,0,0
0:2:36.723,303.28,38.6175,0,0.000885,0,0
0:2:37.017,303.106,38.59,0,0.000885,0,0
0:2:37.317,304.218,38.7347,0,0.000885,0,0
0:2:37.608,305.099,38.8451,0,0.000885,0,0
0:2:37.908,305.393,38.8864,0,0.000885,0,0
0:2:38.204,305.864,38.9416,0,0.000885,0,0
0:2:38.499,306.216,38.9899,0,0.000885,0,0
0:2:38.798,307.328,39.1277,0,0.000885,0,0
0:2:39.090,307.448,39.1484,0,0.000885,0,0
0:2:39.389,308.208,39.245,0,0.000885,0,0
0:2:39.681,308.796,39.3139,0,0.000885,0,0
0:2:39.981,308.502,39.2794,0,0.000885,0,0
0:2:40.277,310.143,39.4863,0,0.000885,0,0
0:2:40.578,310.321,39.5139,0,0.000885,0,0
0:2:40.881,310.788,39.569,0,0.000885,0,0
0:2:41.183,311.727,39.6931,0,0.000885,0,0
0:2:41.483,312.136,39.7414,0,0.000885,0,0
0:2:41.783,312.492,39.7896,0,0.000885,0,0
0:2:42.080,313.662,39.9344,0,0.000885,0,0
0:2:42.378,314.133,39.9965,0,0.000885,0,0
0:2:42.669,314.133,39.9965,0,0.000885,0,0
0:2:42.970,315.303,40.1482,0,0.000885,0,0
0:2:43.264,315.89,40.2171,0,0.000885,0,0
0:2:43.561,316.478,40.293,0,0.000885,0,0
0:2:43.860,317.532,40.4309,0,0.000885,0,0
0:2:44.154,317.594,40.4378,0,0.000885,0,0
0:2:44.452,317.594,40.4378,0,0.000885,0,0
0:2:44.755,319,40.617,0,0.000885,0,0
0:2:45.053,319.058,40.6239,0,0.000885,0,0
0:2:45.351,319.938,40.7342,0,0.000885,0,0
0:2:45.652,320.468,40.8032,0,0.000885,0,0
0:2:45.954,320.116,40.7549,0,0.000885,0,0
0:2:46.256,321.17,40.8928,0,0.000885,0,0
0:2:46.554,322.167,41.0169,0,0.000885,0,0
0:2:46.855,322.696,41.0859,0,0.000885,0,0
0:2:47.150,322.638,41.079,0,0.000885,0,0
0:2:47.450,323.635,41.2031,0,0.000885,0,0
0:2:47.741,324.453,41.3134,0,0.000885,0,0
0:2:48.041,325.218,41.4099,0,0.000885,0,0
0:2:48.345,325.979,41.5064,0,0.000885,0,0
0:2:48.642,325.979,41.5064,0,0.000885,0,0
0:2:48.940,326.975,41.6305,0,0.000885,0,0
0:2:49.243,327.972,41.7615,0,0.000885,0,0
0:2:49.541,327.798,41.734,0,0.000885,0,0
0:2:49.835,328.559,41.8305,0,0.000885,0,0
0:2:50.136,328.91,41.8788,0,0.000885,0,0
0:2:50.439,329.555,41.9615,0,0.000885,0,0
0:2:50.740,330.2,42.0442,0,0.000885,0,0
0:2:51.039,330.788,42.1201,0,0.000885,0,0
0:2:51.340,331.49,42.2097,0,0.000885,0,0
0:2:51.640,331.962,42.2649,0,0.000885,0,0
0:2:51.936,332.549,42.3407,0,0.000885,0,0
0:2:52.231,333.31,42.4372,0,0.000885,0,0
0:2:52.530,333.955,42.52,0,0.000885,0,0
0:2:52.826,334.658,42.6096,0,0.000885,0,0
0:2:53.124,335.365,42.6992,0,0.000885,0,0
0:2:53.419,335.538,42.7199,0,0.000885,0,0
0:2:53.715,336.477,42.844,0,0.000885,0,0
0:2:54.013,336.828,42.8854,0,0.000885,0,0
0:2:54.306,338.003,43.0371,0,0.000885,0,0
0:2:54.605,338.296,43.0715,0,0.000885,0,0
0:2:54.898,338.238,43.0647,0,0.000885,0,0
0:2:55.199,338.999,43.1612,0,0.000885,0,0
0:2:55.503,340.347,43.3335,0,0.000885,0,0
0:2:55.803,340.347,43.3335,0,0.000885,0,0
0:2:56.103,340.76,43.3887,0,0.000885,0,0
0:2:56.403,340.992,43.4163,0,0.000885,0,0
0:2:56.702,342.518,43.6093,0,0.000885,0,0
0:2:56.999,343.105,43.6852,0,0.000885,0,0
0:2:57.295,343.283,43.7059,0,0.000885,0,0
0:2:57.594,343.634,43.7541,0,0.000885,0,0
0:2:57.887,344.573,43.8713,0,0.000885,0,0
0:2:58.186,344.982,43.9265,0,0.000885,0,0
0:2:58.481,345.453,43.9817,0,0.000885,0,0
0:2:58.777,345.92,44.0437,0,0.000885,0,0
0:2:59.074,346.565,44.1264,0,0.000885,0,0
0:2:59.368,347.037,44.1885,0,0.000885,0,0
0:2:59.668,347.74,44.2781,0,0.000885,0,0
0:2:59.960,348.207,44.3333,0,0.000885,0,0
0:3:0.262,348.852,44.416,0,0.000885,0,0
0:3:0.563,348.972,44.4298,0,0.000885,0,0
0:3:0.864,349.617,44.5126,0,0.000885,0,0
0:3:1.167,351.08,44.6987,0,0.000885,0,0
0:3:1.467,351.903,44.809,0,0.000885,0,0
0:3:1.767,351.845,44.7952,0,0.000885,0,0
0:3:2.062,352.433,44.8711,0,0.000885,0,0
0:3:2.357,353.193,44.9676,0,0.000885,0,0
0:3:2.656,353.66,45.0297,0,0.000885,0,0
0:3:2.946,354.483,45.1331,0,0.000885,0,0
0:3:3.246,354.719,45.1676,0,0.000885,0,0
0:3:3.540,355.893,45.3123,0,0.000885,0,0
0:3:3.846,356.067,45.333,0,0.000885,0,0
0:3:4.142,356.538,45.3951,0,0.000885,0,0
0:3:4.439,357.241,45.4847,0,0.000885,0,0
0:3:4.737,357.708,45.5468,0,0.000885,0,0
0:3:5.030,358.122,45.595,0,0.000885,0,0
0:3:5.330,358.705,45.6709,0,0.000885,0,0
0:3:5.633,359.412,45.7605,0,0.000885,0,0
0:3:5.935,360.173,45.857,0,0.000885,0,0
0:3:6.235,361.053,45.9673,0,0.000885,0,0
0:3:6.536,361.698,46.0501,0,0.000885,0,0
0:3:6.838,362.05,46.0983,0,0.000885,0,0
0:3:7.131,362.343,46.1328,0,0.000885,0,0
0:3:7.429,363.224,46.25,0,0.000885,0,0
0:3:7.726,363.811,46.319,0,0.000885,0,0
0:3:8.021,364.572,46.4155,0,0.000885,0,0
0:3:8.320,365.217,46.4982,0,0.000885,0,0
0:3:8.613,365.804,46.5741,0,0.000885,0,0
0:3:8.913,366.507,46.6637,0,0.000885,0,0
0:3:9.205,366.565,46.6706,0,0.000885,0,0
0:3:9.501,366.8,46.7051,0,0.000885,0,0
0:3:9.799,367.33,46.7671,0,0.000885,0,0
0:3:10.101,367.912,46.843,0,0.000885,0,0
0:3:10.404,368.678,46.9395,0,0.000885,0,0
0:3:10.704,369.616,47.0636,0,0.000885,0,0
0:3:11.006,370.083,47.1188,0,0.000885,0,0
0:3:11.306,370.555,47.1808,0,0.000885,0,0
0:3:11.602,371.787,47.3394,0,0.000885,0,0
0:3:11.899,371.845,47.3463,0,0.000885,0,0
0:3:12.193,372.432,47.4221,0,0.000885,0,0
0:3:12.492,373.428,47.5462,0,0.000885,0,0
0:3:12.788,373.544,47.56,0,0.000885,0,0
0:3:13.086,374.425,47.6704,0,0.000885,0,0
0:3:13.381,374.425,47.6704,0,0.000885,0,0
0:3:13.675,375.772,47.8427,0,0.000885,0,0
0:3:13.974,375.83,47.8496,0,0.000885,0,0
0:3:14.267,376.48,47.9324,0,0.000885,0,0
0:3:14.567,376.538,47.9392,0,0.000885,0,0
0:3:14.859,376.947,47.9944,0,0.000885,0,0
0:3:15.159,377.943,48.1185,0,0.000885,0,0
0:3:15.462,378.295,48.1668,0,0.000885,0,0
0:3:15.764,378.997,48.2564,0,0.000885,0,0
0:3:16.066,379.705,48.346,0,0.000885,0,0
0:3:16.367,380.581,48.4564,0,0.000885,0,0
0:3:16.665,381.168,48.5322,0,0.000885,0,0
0:3:16.961,381.875,48.6218,0,0.000885,0,0
0:3:17.258,382.165,48.6563,0,0.000885,0,0
0:3:17.553,382.578,48.7115,0,0.000885,0,0
0:3:17.856,383.575,48.8356,0,0.000885,0,0
0:3:18.155,384.042,48.8976,0,0.000885,0,0
0:3:18.447,384.455,48.9528,0,0.000885,0,0
0:3:18.746,385.216,49.0493,0,0.000885,0,0
0:3:19.053,385.803,49.1251,0,0.000885,0,0
0:3:19.347,386.506,49.2148,0,0.000885,0,0
0:3:19.646,386.626,49.2286,0,0.000885,0,0
0:3:19.959,386.39,49.1941,0,0.000885,0,0
0:3:20.259,387.445,49.332,0,0.000885,0,0
0:3:20.562,388.267,49.4354,0,0.000885,0,0
0:3:20.863,389.38,49.5802,0,0.000885,0,0
0:3:21.163,390.082,49.6698,0,0.000885,0,0
0:3:21.463,390.732,49.7526,0,0.000885,0,0
0:3:21.763,391.844,49.8905,0,0.000885,0,0
0:3:22.057,392.604,49.987,0,0.000885,0,0
0:3:22.357,393.249,50.0697,0,0.000885,0,0
0:3:22.651,393.957,50.1594,0,0.000885,0,0
0:3:22.945,395.069,50.3041,0,0.000885,0,0
0:3:23.242,394.895,50.2766,0,0.000885,0,0
0:3:23.537,395.54,50.3593,0,0.000885,0,0
0:3:23.837,395.95,50.4145,0,0.000885,0,0
0:3:24.139,396.007,50.4214,0,0.000885,0,0
0:3:24.438,396.537,50.4903,0,0.000885,0,0
0:3:24.744,397.066,50.5524,0,0.000885,0,0
0:3:25.044,398.12,50.6903,0,0.000885,0,0
0:3:25.348,398.881,50.7868,0,0.000885,0,0
0:3:25.648,399.468,50.8626,0,0.000885,0,0
0:3:25.948,399.646,50.8833,0,0.000885,0,0
0:3:26.248,400.464,50.9867,0,0.000885,0,0
0:3:26.544,400.522,50.9936,0,0.000885,0,0
0:3:26.842,401.639,51.1384,0,0.000885,0,0
0:3:27.137,402.106,51.2005,0,0.000885,0,0
0:3:27.435,402.813,51.2901,0,0.000885,0,0
0:3:27.740,403.28,51.3453,0,0.000885,0,0
0:3:28.037,403.689,51.4004,0,0.000885,0,0
0:3:28.343,403.983,51.4349,0,0.000885,0,0
0:3:28.646,404.334,51.4832,0,0.000885,0,0
0:3:28.947,404.806,51.5383,0,0.000885,0,0
0:3:29.248,405.802,51.6693,0,0.000885,0,0
0:3:29.547,406.39,51.7452,0,0.000885,0,0
0:3:29.855,406.857,51.8003,0,0.000885,0,0
0:3:30.155,407.737,51.9175,0,0.000885,0,0
0:3:30.459,408.382,52.0003,0,0.000885,0,0
0:3:30.761,408.854,52.0554,0,0.000885,0,0
0:3:31.062,409.205,52.1037,0,0.000885,0,0
0:3:31.361,410.144,52.2209,0,0.000885,0,0
0:3:31.658,410.38,52.2485,0,0.000885,0,0
0:3:31.954,410.847,52.3105,0,0.000885,0,0
0:3:32.248,411.492,52.3933,0,0.000885,0,0
0:3:32.546,412.488,52.5174,0,0.000885,0,0
0:3:32.838,413.075,52.5932,0,0.000885,0,0
0:3:33.139,413.605,52.6622,0,0.000885,0,0
0:3:33.434,414.423,52.7656,0,0.000885,0,0
0:3:33.730,414.774,52.8138,0,0.000885,0,0
0:3:34.025,415.891,52.9517,0,0.000885,0,0
0:3:34.320,416.127,52.9793,0,0.000885,0,0
0:3:34.620,416.887,53.0827,0,0.000885,0,0
0:3:34.911,416.887,53.0827,0,0.000885,0,0
0:3:35.212,417.71,53.1862,0,0.000885,0,0
0:3:35.515,418.235,53.2482,0,0.000885,0,0
0:3:35.817,418.822,53.3241,0,0.000885,0,0
0:3:36.119,419.587,53.4206,0,0.000885,0,0
0:3:36.417,419.997,53.4757,0,0.000885,0,0
0:3:36.718,420.526,53.5447,0,0.000885,0,0
0:3:37.013,421.287,53.6412,0,0.000885,0,0
0:3:37.310,421.874,53.7171,0,0.000885,0,0
0:3:37.608,422.519,53.7998,0,0.000885,0,0
0:3:37.902,423.164,53.8756,0,0.000885,0,0
0:3:38.201,423.279,53.8963,0,0.000885,0,0
0:3:38.497,423.751,53.9515,0,0.000885,0,0
0:3:38.793,424.396,54.0342,0,0.000885,0,0
0:3:39.091,425.277,54.1445,0,0.000885,0,0
0:3:39.385,426.153,54.2617,0,0.000885,0,0
0:3:39.685,426.567,54.31,0,0.000885,0,0
0:3:39.977,427.443,54.4272,0,0.000885,0,0
0:3:40.279,427.799,54.4686,0,0.000885,0,0
0:3:40.582,428.382,54.5444,0,0.000885,0,0
0:3:40.884,428.617,54.572,0,0.000885,0,0
0:3:41.185,429.262,54.6547,0,0.000885,0,0
0:3:41.485,429.965,54.7444,0,0.000885,0,0
0:3:41.785,430.437,54.8064,0,0.000885,0,0
0:3:42.080,431.255,54.9098,0,0.000885,0,0
0:3:42.374,431.549,54.9443,0,0.000885,0,0
0:3:42.672,432.078,55.0133,0,0.000885,0,0
0:3:42.967,432.723,55.096,0,0.000885,0,0
0:3:43.266,433.017,55.1305,0,0.000885,0,0
0:3:43.559,433.546,55.1994,0,0.000885,0,0
0:3:43.858,433.955,55.2546,0,0.000885,0,0
0:3:44.164,435.067,55.3925,0,0.000885,0,0
0:3:44.459,435.717,55.4752,0,0.000885,0,0
0:3:44.758,436.184,55.5373,0,0.000885,0,0
0:3:45.062,436.829,55.62,0,0.000885,0,0
0:3:45.364,437.358,55.689,0,0.000885,0,0
0:3:45.665,438.061,55.7786,0,0.000885,0,0
0:3:45.964,438.764,55.8682,0,0.000885,0,0
0:3:46.265,439.351,55.9372,0,0.000885,0,0
0:3:46.558,439.88,56.0061,0,0.000885,0,0
0:3:46.858,440.819,56.1233,0,0.000885,0,0
0:3:47.163,441.522,56.213,0,0.000885,0,0
0:3:47.458,441.695,56.2405,0,0.000885,0,0
0:3:47.758,442.402,56.3302,0,0.000885,0,0
0:3:48.060,442.812,56.3784,0,0.000885,0,0
0:3:48.359,443.866,56.5163,0,0.000885,0,0
0:3:48.664,444.337,56.5715,0,0.000885,0,0
0:3:48.959,444.337,56.5715,0,0.000885,0,0
0:3:49.258,445.276,56.6956,0,0.000885,0,0
0:3:49.560,445.685,56.7439,0,0.000885,0,0
0:3:49.859,446.094,56.799,0,0.000885,0,0
0:3:50.163,446.975,56.9093,0,0.000885,0,0
0:3:50.465,447.269,56.9507,0,0.000885,0,0
0:3:50.765,447.678,56.999,0,0.000885,0,0
0:3:51.065,448.852,57.1506,0,0.000885,0,0
0:3:51.364,449.261,57.1989,0,0.000885,0,0
0:3:51.659,450.027,57.3023,0,0.000885,0,0
0:3:51.965,450.378,57.3437,0,0.000885,0,0
0:3:52.263,450.672,57.3782,0,0.000885,0,0
0:3:52.557,451.374,57.4678,0,0.000885,0,0
0:3:52.857,452.429,57.6057,0,0.000885,0,0
0:3:53.159,452.9,57.6677,0,0.000885,0,0
0:3:53.458,453.309,57.716,0,0.000885,0,0
0:3:53.763,453.954,57.7988,0,0.000885,0,0
0:3:54.058,455.187,57.9573,0,0.000885,0,0
0:3:54.357,455.302,57.9711,0,0.000885,0,0
0:3:54.650,456.125,58.0745,0,0.000885,0,0
0:3:54.949,456.303,58.0952,0,0.000885,0,0
0:3:55.252,457.237,58.2193,0,0.000885,0,0
0:3:55.554,457.766,58.2814,0,0.000885,0,0
0:3:55.852,458.176,58.3365,0,0.000885,0,0
0:3:56.153,458.589,58.3917,0,0.000885,0,0
0:3:56.452,458.883,58.4262,0,0.000885,0,0
0:3:56.748,460.346,58.6123,0,0.000885,0,0
0:3:57.044,460.698,58.6606,0,0.000885,0,0
0:3:57.342,460.934,58.6882,0,0.000885,0,0
0:3:57.637,461.405,58.7502,0,0.000885,0,0
0:3:57.936,461.814,58.7985,0,0.000885,0,0
0:3:58.248,462.05,58.833,0,0.000885,0,0
0:3:58.546,462.753,58.9226,0,0.000885,0,0
0:3:58.852,463.456,59.0122,0,0.000885,0,0
0:3:59.146,463.692,59.0398,0,0.000885,0,0
0:3:59.444,464.337,59.1225,0,0.000885,0,0
0:3:59.739,465.511,59.2673,0,0.000885,0,0
0:4:0.039,466.036,59.3363,0,0.000885,0,0
0:4:0.341,466.916,59.4466,0,0.000885,0,0
0:4:0.643,467.388,59.5087,0,0.000885,0,0
0:4:0.943,468.091,59.5983,0,0.000885,0,0
0:4:1.242,468.794,59.6879,0,0.000885,0,0
0:4:1.550,469.145,59.7362,0,0.000885,0,0
0:4:1.858,469.617,59.7913,0,0.000885,0,0
0:4:2.163,470.729,59.9361,0,0.000885,0,0
0:4:2.463,471.138,59.9844,0,0.000885,0,0
0:4:2.765,471.489,60.0327,0,0.000885,0,0
0:4:3.064,472.606,60.1774,0,0.000885,0,0
0:4:3.359,473.193,60.2464,0,0.000885,0,0
0:4:3.664,473.66,60.3084,0,0.000885,0,0
0:4:3.964,474.247,60.3843,0,0.000885,0,0
0:4:4.265,474.541,60.4188,0,0.000885,0,0
0:4:4.565,474.776,60.4532,0,0.000885,0,0
0:4:4.858,475.479,60.5429,0,0.000885,0,0
0:4:5.158,476.476,60.667,0,0.000885,0,0
0:4:5.462,477.005,60.7359,0,0.000885,0,0
0:4:5.764,477.708,60.8255,0,0.000885,0,0
0:4:6.065,478.059,60.8669,0,0.000885,0,0
0:4:6.364,479.118,61.0048,0,0.000885,0,0
0:4:6.662,479.643,61.0669,0,0.000885,0,0
0:4:6.967,480.052,61.122,0,0.000885,0,0
0:4:7.263,480.408,61.1703,0,0.000885,0,0
0:4:7.561,481.053,61.2461,0,0.000885,0,0
0:4:7.862,481.871,61.3564,0,0.000885,0,0
0:4:8.163,482.401,61.4185,0,0.000885,0,0
0:4:8.467,482.93,61.4874,0,0.000885,0,0
0:4:8.764,483.161,61.515,0,0.000885,0,0
0:4:9.060,483.633,61.5771,0,0.000885,0,0
0:4:9.364,484.803,61.7288,0,0.000885,0,0
0:4:9.662,485.684,61.8391,0,0.000885,0,0
0:4:9.965,485.804,61.8529,0,0.000885,0,0
0:4:10.265,486.213,61.908,0,0.000885,0,0
0:4:10.568,487.094,62.0183,0,0.000885,0,0
0:4:10.869,487.912,62.1218,0,0.000885,0,0
0:4:11.170,487.912,62.1218,0,0.000885,0,0
0:4:11.470,489.029,62.2666,0,0.000885,0,0
0:4:11.771,489.496,62.3217,0,0.000885,0,0
0:4:12.064,489.789,62.3631,0,0.000885,0,0
0:4:12.361,490.319,62.432,0,0.000885,0,0
0:4:12.659,491.315,62.5561,0,0.000885,0,0
0:4:12.962,491.96,62.6389,0,0.000885,0,0
0:4:13.262,492.311,62.6802,0,0.000885,0,0
0:4:13.564,492.547,62.7147,0,0.000885,0,0
0:4:13.861,493.25,62.8043,0,0.000885,0,0
0:4:14.156,493.895,62.8871,0,0.000885,0,0
0:4:14.450,494.66,62.9836,0,0.000885,0,0
0:4:14.749,495.127,63.0388,0,0.000885,0,0
0:4:15.051,495.714,63.1146,0,0.000885,0,0
0:4:15.355,496.181,63.1767,0,0.000885,0,0
0:4:15.654,496.653,63.2387,0,0.000885,0,0
0:4:15.953,497.649,63.3628,0,0.000885,0,0
0:4:16.254,498.41,63.4593,0,0.000885,0,0
0:4:16.567,498.881,63.5214,0,0.000885,0,0
0:4:16.867,498.824,63.5145,0,0.000885,0,0
0:4:17.160,499.878,63.6455,0,0.000885,0,0
0:4:17.457,500.638,63.742,0,0.000885,0,0
0:4:17.762,501.168,63.811,0,0.000885,0,0
0:4:18.060,501.346,63.8317,0,0.000885,0,0
0:4:18.367,502.164,63.9351,0,0.000885,0,0
0:4:18.668,502.751,64.0109,0,0.000885,0,0
0:4:18.970,503.632,64.1212,0,0.000885,0,0
0:4:19.262,503.926,64.1626,0,0.000885,0,0
0:4:19.560,504.628,64.2522,0,0.000885,0,0
0:4:19.865,505.038,64.3005,0,0.000885,0,0
0:4:20.166,505.389,64.3488,0,0.000885,0,0
0:4:20.469,506.328,64.466,0,0.000885,0,0
0:4:20.769,506.621,64.5073,0,0.000885,0,0
0:4:21.071,507.444,64.6108,0,0.000885,0,0
0:4:21.371,508.205,64.7073,0,0.000885,0,0
0:4:21.666,509.028,64.8107,0,0.000885,0,0
0:4:21.965,509.909,64.921,0,0.000885,0,0
0:4:22.267,509.673,64.8935,0,0.000885,0,0
0:4:22.568,510.554,65.0038,0,0.000885,0,0
0:4:22.860,511.021,65.0658,0,0.000885,0,0
0:4:23.157,512.079,65.1968,0,0.000885,0,0
0:4:23.466,512.195,65.2175,0,0.000885,0,0
0:4:23.768,512.956,65.314,0,0.000885,0,0
0:4:24.068,513.307,65.3554,0,0.000885,0,0
0:4:24.361,513.836,65.4244,0,0.000885,0,0
0:4:24.660,515.011,65.576,0,0.000885,0,0
0:4:24.965,515.068,65.5829,0,0.000885,0,0
0:4:25.263,515.362,65.6174,0,0.000885,0,0
0:4:25.568,516.474,65.7622,0,0.000885,0,0
0:4:25.870,517.003,65.8242,0,0.000885,0,0
0:4:26.171,517.297,65.8656,0,0.000885,0,0
0:4:26.471,518.236,65.9828,0,0.000885,0,0
0:4:26.768,518.823,66.0587,0,0.000885,0,0
0:4:27.066,519.583,66.1552,0,0.000885,0,0
0:4:27.369,519.583,66.1552,0,0.000885,0,0
0:4:27.669,520.171,66.231,0,0.000885,0,0
0:4:27.961,520.758,66.3069,0,0.000885,0,0
0:4:28.269,521.345,66.3827,0,0.000885,0,0
0:4:28.567,522.577,66.5344,0,0.000885,0,0
0:4:28.861,523.044,66.5965,0,0.000885,0,0
0:4:29.168,523.396,66.6378,0,0.000885,0,0
0:4:29.462,524.276,66.755,0,0.000885,0,0
0:4:29.763,524.806,66.8171,0,0.000885,0,0
0:4:30.067,525.331,66.886,0,0.000885,0,0
0:4:30.369,526.211,66.9964,0,0.000885,0,0
0:4:30.669,526.741,67.0653,0,0.000885,0,0
0:4:30.969,527.328,67.1411,0,0.000885,0,0
0:4:31.270,527.795,67.2032,0,0.000885,0,0
0:4:31.562,527.915,67.217,0,0.000885,0,0
0:4:31.862,528.56,67.2997,0,0.000885,0,0
0:4:32.166,529.085,67.3687,0,0.000885,0,0
0:4:32.462,529.556,67.4238,0,0.000885,0,0
0:4:32.769,530.201,67.5066,0,0.000885,0,0
0:4:33.063,530.668,67.5686,0,0.000885,0,0
0:4:33.363,531.727,67.6996,0,0.000885,0,0
0:4:33.666,531.901,67.7272,0,0.000885,0,0
0:4:33.964,532.603,67.8099,0,0.000885,0,0
0:4:34.258,533.426,67.9203,0,0.000885,0,0
0:4:34.564,533.893,67.9754,0,0.000885,0,0
0:4:34.862,534.774,68.0926,0,0.000885,0,0
0:4:35.163,535.01,68.1202,0,0.000885,0,0
0:4:35.465,535.477,68.1823,0,0.000885,0,0
0:4:35.766,535.833,68.2236,0,0.000885,0,0
0:4:36.066,536.771,68.3408,0,0.000885,0,0
0:4:36.368,537.06,68.3822,0,0.000885,0,0
0:4:36.661,538.235,68.527,0,0.000885,0,0
0:4:36.959,538.706,68.589,0,0.000885,0,0
0:4:37.265,538.938,68.6166,0,0.000885,0,0
0:4:37.563,539.645,68.7063,0,0.000885,0,0
0:4:37.868,540.228,68.7821,0,0.000885,0,0
0:4:38.163,540.993,68.8786,0,0.000885,0,0
0:4:38.463,542.167,69.0303,0,0.000885,0,0
0:4:38.764,542.576,69.0855,0,0.000885,0,0
0:4:39.065,542.928,69.1268,0,0.000885,0,0
0:4:39.368,543.573,69.2096,0,0.000885,0,0
0:4:39.663,543.982,69.2647,0,0.000885,0,0
0:4:39.971,544.747,69.3613,0,0.000885,0,0
0:4:40.272,545.041,69.3957,0,0.000885,0,0
0:4:40.576,545.334,69.4371,0,0.000885,0,0
0:4:40.875,546.74,69.6164,0,0.000885,0,0
0:4:41.175,546.74,69.6164,0,0.000885,0,0
0:4:41.476,547.269,69.6784,0,0.000885,0,0
0:4:41.771,548.03,69.7749,0,0.000885,0,0
0:4:42.070,548.911,69.8922,0,0.000885,0,0
0:4:42.364,550.085,70.0369,0,0.000885,0,0
0:4:42.663,550.201,70.0507,0,0.000885,0,0
0:4:42.965,550.73,70.1197,0,0.000885,0,0
0:4:43.262,550.788,70.1266,0,0.000885,0,0
0:4:43.558,551.491,70.2162,0,0.000885,0,0
0:4:43.863,552.02,70.2852,0,0.000885,0,0
0:4:44.164,552.896,70.3955,0,0.000885,0,0
0:4:44.456,553.252,70.4437,0,0.000885,0,0
0:4:44.766,554.07,70.5472,0,0.000885,0,0
0:4:45.071,554.951,70.6575,0,0.000885,0,0
0:4:45.372,555.538,70.7333,0,0.000885,0,0
0:4:45.675,555.774,70.7609,0,0.000885,0,0
0:4:45.975,556.299,70.8298,0,0.000885,0,0
0:4:46.278,556.944,70.9126,0,0.000885,0,0
0:4:46.578,557.473,70.9815,0,0.000885,0,0
0:4:46.874,557.883,71.0298,0,0.000885,0,0
0:4:47.172,558.176,71.0712,0,0.000885,0,0
0:4:47.466,559.173,71.1953,0,0.000885,0,0
0:4:47.767,559.996,71.2987,0,0.000885,0,0
0:4:48.068,560.756,71.3952,0,0.000885,0,0
0:4:48.367,560.814,71.4021,0,0.000885,0,0
0:4:48.663,561.988,71.5538,0,0.000885,0,0
0:4:48.968,562.811,71.6572,0,0.000885,0,0
0:4:49.266,563.336,71.7262,0,0.000885,0,0
0:4:49.570,563.572,71.7537,0,0.000885,0,0
0:4:49.871,564.159,71.8296,0,0.000885,0,0
0:4:50.175,564.51,71.8778,0,0.000885,0,0
0:4:50.476,565.391,71.9882,0,0.000885,0,0
0:4:50.779,566.272,72.0985,0,0.000885,0,0
0:4:51.079,566.566,72.1398,0,0.000885,0,0
0:4:51.379,566.917,72.1812,0,0.000885,0,0
0:4:51.670,567.735,72.2846,0,0.000885,0,0
0:4:51.968,568.149,72.3398,0,0.000885,0,0
0:4:52.264,568.265,72.3536,0,0.000885,0,0
0:4:52.568,569.088,72.457,0,0.000885,0,0
0:4:52.867,569.319,72.4915,0,0.000885,0,0
0:4:53.171,570.435,72.6294,0,0.000885,0,0
0:4:53.471,570.96,72.6983,0,0.000885,0,0
0:4:53.764,571.316,72.7397,0,0.000885,0,0
0:4:54.072,572.193,72.8569,0,0.000885,0,0
0:4:54.368,572.428,72.8845,0,0.000885,0,0
0:4:54.670,573.193,72.981,0,0.000885,0,0
0:4:54.971,573.776,73.0568,0,0.000885,0,0
0:4:55.274,574.248,73.112,0,0.000885,0,0
0:4:55.575,574.715,73.1741,0,0.000885,0,0
0:4:55.876,575.48,73.2706,0,0.000885,0,0
0:4:56.178,576.125,73.3533,0,0.000885,0,0
0:4:56.479,576.885,73.4498,0,0.000885,0,0
0:4:56.771,577.357,73.5119,0,0.000885,0,0
0:4:57.070,577.944,73.5877,0,0.000885,0,0
0:4:57.366,578.411,73.6429,0,0.000885,0,0
0:4:57.671,578.998,73.7187,0,0.000885,0,0
0:4:57.968,580.23,73.8773,0,0.000885,0,0
0:4:58.272,580.288,73.8842,0,0.000885,0,0
0:4:58.572,580.404,73.898,0,0.000885,0,0
0:4:58.864,581.4,74.029,0,0.000885,0,0
0:4:59.165,582.045,74.1117,0,0.000885,0,0
0:4:59.469,582.753,74.2014,0,0.000885,0,0
0:4:59.766,582.984,74.229,0,0.000885,0,0
0:5:0.064,583.749,74.3255,0,0.000885,0,0
0:5:0.365,584.394,74.4082,0,0.000885,0,0
0:5:0.667,584.923,74.4772,0,0.000885,0,0
0:5:0.967,585.39,74.5323,0,0.000885,0,0
0:5:1.268,586.093,74.622,0,0.000885,0,0
0:5:1.569,587.032,74.7461,0,0.000885,0,0
0:5:1.864,587.445,74.7943,0,0.000885,0,0
0:5:2.165,588.148,74.884,0,0.000885,0,0
0:5:2.466,588.673,74.9529,0,0.000885,0,0
0:5:2.766,589.029,74.9943,0,0.000885,0,0
0:5:3.071,590.141,75.1391,0,0.000885,0,0
0:5:3.367,590.435,75.1735,0,0.000885,0,0
0:5:3.669,590.964,75.2425,0,0.000885,0,0
0:5:3.970,591.725,75.339,0,0.000885,0,0
0:5:4.272,592.548,75.4424,0,0.000885,0,0
0:5:4.567,592.726,75.47,0,0.000885,0,0
0:5:4.870,593.077,75.5114,0,0.000885,0,0
0:5:5.174,593.135,75.5183,0,0.000885,0,0
0:5:5.476,593.019,75.5045,0,0.000885,0,0
0:5:5.779,593.958,75.6217,0,0.000885,0,0
0:5:6.080,594.309,75.67,0,0.000885,0,0
0:5:6.380,595.074,75.7665,0,0.000885,0,0
0:5:6.676,595.661,75.8423,0,0.000885,0,0
0:5:6.973,596.071,75.8906,0,0.000885,0,0
0:5:7.272,594.838,75.7389,0,0.000885,0,0
0:5:7.565,595.368,75.801,0,0.000885,0,0
0:5:7.866,596.186,75.9113,0,0.000885,0,0
0:5:8.160,596.894,76.0009,0,0.000885,0,0
0:5:8.459,597.948,76.1319,0,0.000885,0,0
0:5:8.769,598.655,76.2215,0,0.000885,0,0
0:5:9.065,599.651,76.3525,0,0.000885,0,0
0:5:9.367,600.59,76.4698,0,0.000885,0,0
0:5:9.670,601.293,76.5594,0,0.000885,0,0
0:5:9.973,602,76.649,0,0.000885,0,0
0:5:10.276,602.116,76.6628,0,0.000885,0,0
0:5:10.580,602.116,76.6628,0,0.000885,0,0
0:5:10.882,602.467,76.7111,0,0.000885,0,0
0:5:11.183,602.939,76.7662,0,0.000885,0,0
0:5:11.484,602.819,76.7524,0,0.000885,0,0
0:5:11.779,590.493,75.1873,0,0.000885,0,0
0:5:12.074,583.629,74.3117,0,0.000885,0,0
0:5:12.372,580.11,73.8635,0,0.000885,0,0
0:5:12.673,574.363,73.1327,0,0.000885,0,0
0:5:12.972,566.739,72.1605,0,0.000885,0,0
0:5:13.267,563.456,71.7399,0,0.000885,0,0
0:5:13.571,554.248,70.5678,0,0.000885,0,0
0:5:13.868,540.521,68.8235,0,0.000885,0,0
0:5:14.171,512.662,65.2727,0,0.000885,0,0
0:5:14.471,487.796,62.108,0,0.000885,0,0
0:5:14.772,479.176,61.0117,0,0.000885,0,0
0:5:15.072,460.346,58.6123,0,0.000885,0,0
0:5:15.374,448.265,57.0748,0,0.000885,0,0
0:5:15.674,442.576,56.3509,0,0.000885,0,0
0:5:15.887,440.054,56.0268,0,0.000885,0,0