File: DataFile2021-06-29_062144.csv
Test ID:,Date Tested:,Time:,Test Type:,Diameter Avg. (mm):,Cyl. Corr. Factor:,Height (mm):,Age (days):,Weight (kN):,Break Type:,Ramp Rate (MPa/s):,Load at Break (kN):,Stress at Break (MPa):
12,6/29/2021,06:21,Cylinder,100,1,200,0,3.6,3,0.23,276.77,35.24
Sample Time,Load (kN),Stress (MPa),Long. Strain,Trans. Strain,Chan1 Deflection (mm),Chan2 Deflection (mm)
0:0:19.163,5.45352,0.69637,0,0.000885,0,0
0:0:19.362,10.7914,1.37206,0,0.000885,0,0
0:0:19.558,11.8456,1.50995,0,0.000885,0,0
0:0:19.759,12.2593,1.55822,0,0.000885,0,0
0:0:19.958,11.73,1.49616,0,0.000885,0,0
0:0:20.156,11.552,1.46858,0,0.000885,0,0
0:0:20.356,11.2629,1.43411,0,0.000885,0,0
0:0:20.551,11.085,1.41343,0,0.000885,0,0
0:0:20.752,10.907,1.38585,0,0.000885,0,0
0:0:20.949,10.7336,1.36516,0,0.000885,0,0
0:0:21.146,10.907,1.38585,0,0.000885,0,0
0:0:21.348,10.7914,1.37206,0,0.000885,0,0
0:0:21.543,10.5556,1.34448,0,0.000885,0,0
0:0:21.743,10.7336,1.36516,0,0.000885,0,0
0:0:21.941,10.6757,1.35827,0,0.000885,0,0
0:0:22.137,10.6757,1.35827,0,0.000885,0,0
0:0:22.339,10.3821,1.32379,0,0.000885,0,0
0:0:22.543,10.6757,1.35827,0,0.000885,0,0
0:0:22.742,10.7336,1.36516,0,0.000885,0,0
0:0:22.941,10.907,1.38585,0,0.000885,0,0
0:0:23.138,11.085,1.41343,0,0.000885,0,0
0:0:23.339,11.6143,1.47548,0,0.000885,0,0
0:0:23.544,12.0814,1.53753,0,0.000885,0,0
0:0:23.744,13.1356,1.67543,0,0.000885,0,0
0:0:23.945,13.6071,1.73058,0,0.000885,0,0
0:0:24.141,14.4879,1.84779,0,0.000885,0,0
0:0:24.344,14.6035,1.86158,0,0.000885,0,0
0:0:24.544,15.0127,1.90985,0,0.000885,0,0
0:0:24.748,15.4843,1.9719,0,0.000885,0,0
0:0:24.951,16.0136,2.04085,0,0.000885,0,0
0:0:25.154,16.6586,2.12359,0,0.000885,0,0
0:0:25.355,17.3614,2.21322,0,0.000885,0,0
0:0:25.555,17.01,2.16495,0,0.000885,0,0
0:0:25.757,18.1221,2.30974,0,0.000885,0,0
0:0:25.958,18.7092,2.38559,0,0.000885,0,0
0:0:26.154,19.2964,2.45453,0,0.000885,0,0
0:0:26.353,19.59,2.4959,0,0.000885,0,0
0:0:26.554,20.3506,2.59243,0,0.000885,0,0
0:0:26.750,20.2928,2.58553,0,0.000885,0,0
0:0:26.951,20.6442,2.6269,0,0.000885,0,0
0:0:27.148,21.1157,2.68896,0,0.000885,0,0
0:0:27.348,21.4093,2.72343,0,0.000885,0,0
0:0:27.548,21.5828,2.75101,0,0.000885,0,0
0:0:27.743,22.1699,2.81996,0,0.000885,0,0
0:0:27.945,22.637,2.88201,0,0.000885,0,0
0:0:28.143,22.8149,2.90269,0,0.000885,0,0
0:0:28.342,23.4599,2.98543,0,0.000885,0,0
0:0:28.544,23.8113,3.03369,0,0.000885,0,0
0:0:28.739,24.3407,3.09575,0,0.000885,0,0
0:0:28.941,24.87,3.16469,0,0.000885,0,0
0:0:29.138,24.9278,3.17159,0,0.000885,0,0
0:0:29.345,25.1591,3.20606,0,0.000885,0,0
0:0:29.546,25.2792,3.21985,0,0.000885,0,0
0:0:29.748,25.3949,3.23364,0,0.000885,0,0
0:0:29.952,25.8664,3.29569,0,0.000885,0,0
0:0:30.155,26.0399,3.31638,0,0.000885,0,0
0:0:30.357,26.9785,3.43359,0,0.000885,0,0
0:0:30.560,27.272,3.47496,0,0.000885,0,0
0:0:30.761,27.7436,3.53012,0,0.000885,0,0
0:0:30.963,28.0371,3.57148,0,0.000885,0,0
0:0:31.164,28.562,3.63354,0,0.000885,0,0
0:0:31.360,28.6199,3.64733,0,0.000885,0,0
0:0:31.563,29.852,3.79901,0,0.000885,0,0
0:0:31.761,30.2657,3.85417,0,0.000885,0,0
0:0:31.960,30.7328,3.91622,0,0.000885,0,0
0:0:32.161,30.7906,3.92312,0,0.000885,0,0
0:0:32.355,31.9649,4.06791,0,0.000885,0,0
0:0:32.556,31.9071,4.06101,0,0.000885,0,0
0:0:32.756,32.2585,4.10928,0,0.000885,0,0
0:0:32.952,32.4943,4.13685,0,0.000885,0,0
0:0:33.154,32.7834,4.17133,0,0.000885,0,0
0:0:33.350,33.3706,4.24717,0,0.000885,0,0
0:0:33.551,33.7842,4.30233,0,0.000885,0,0
0:0:33.751,33.8999,4.31612,0,0.000885,0,0
0:0:33.947,34.1357,4.3437,0,0.000885,0,0
0:0:34.150,34.4292,4.38507,0,0.000885,0,0
0:0:34.346,34.7228,4.41954,0,0.000885,0,0
0:0:34.545,34.7806,4.42643,0,0.000885,0,0
0:0:34.747,35.0742,4.4678,0,0.000885,0,0
0:0:34.949,35.4835,4.51607,0,0.000885,0,0
0:0:35.152,36.3064,4.61949,0,0.000885,0,0
0:0:35.355,36.9514,4.70222,0,0.000885,0,0
0:0:35.556,37.067,4.72291,0,0.000885,0,0
0:0:35.759,37.6542,4.79186,0,0.000885,0,0
0:0:35.960,38.0056,4.84012,0,0.000885,0,0
0:0:36.162,38.7084,4.92975,0,0.000885,0,0
0:0:36.362,39.002,4.96423,0,0.000885,0,0
0:0:36.560,40.0562,5.10212,0,0.000885,0,0
0:0:36.761,39.5313,5.03317,0,0.000885,0,0
0:0:36.956,39.9984,5.09523,0,0.000885,0,0
0:0:37.156,40.292,5.1297,0,0.000885,0,0
0:0:37.356,40.8792,5.20554,0,0.000885,0,0
0:0:37.553,41.1727,5.24002,0,0.000885,0,0
0:0:37.754,41.2306,5.24691,0,0.000885,0,0
0:0:37.952,41.8756,5.32965,0,0.000885,0,0
0:0:38.151,42.3471,5.3917,0,0.000885,0,0
0:0:38.352,42.9921,5.47444,0,0.000885,0,0
0:0:38.547,43.1655,5.49512,0,0.000885,0,0
0:0:38.749,43.8684,5.58475,0,0.000885,0,0
0:0:38.947,43.8105,5.57786,0,0.000885,0,0
0:0:39.146,44.3977,5.6537,0,0.000885,0,0
0:0:39.348,44.8069,5.70196,0,0.000885,0,0
0:0:39.552,45.3363,5.77091,0,0.000885,0,0
0:0:39.755,45.6299,5.81228,0,0.000885,0,0
0:0:39.958,46.217,5.88123,0,0.000885,0,0
0:0:40.159,46.1592,5.87433,0,0.000885,0,0
0:0:40.361,46.5106,5.9226,0,0.000885,0,0
0:0:40.563,46.7464,5.95018,0,0.000885,0,0
0:0:40.766,47.8584,6.09497,0,0.000885,0,0
0:0:40.964,48.0363,6.11565,0,0.000885,0,0
0:0:41.161,48.3878,6.16391,0,0.000885,0,0
0:0:41.362,48.3299,6.15012,0,0.000885,0,0
0:0:41.560,48.7392,6.20528,0,0.000885,0,0
0:0:41.758,49.0906,6.25354,0,0.000885,0,0
0:0:41.959,49.6199,6.3156,0,0.000885,0,0
0:0:42.155,49.8512,6.35007,0,0.000885,0,0
0:0:42.356,50.2649,6.39833,0,0.000885,0,0
0:0:42.555,51.1412,6.50865,0,0.000885,0,0
0:0:42.753,51.4971,6.55691,0,0.000885,0,0
0:0:42.954,52.1421,6.63965,0,0.000885,0,0
0:0:43.150,52.3734,6.66723,0,0.000885,0,0
0:0:43.350,52.787,6.72239,0,0.000885,0,0
0:0:43.551,52.8449,6.72928,0,0.000885,0,0
0:0:43.747,53.0806,6.75686,0,0.000885,0,0
0:0:43.950,53.3119,6.79134,0,0.000885,0,0
0:0:44.146,54.4863,6.93613,0,0.000885,0,0
0:0:44.346,54.722,6.9706,0,0.000885,0,0
0:0:44.547,55.3092,7.03955,0,0.000885,0,0
0:0:44.750,55.1891,7.02576,0,0.000885,0,0
0:0:44.953,55.6028,7.08092,0,0.000885,0,0
0:0:45.155,55.9542,7.12228,0,0.000885,0,0
0:0:45.357,56.4212,7.18434,0,0.000885,0,0
0:0:45.559,57.0084,7.26018,0,0.000885,0,0
0:0:45.760,57.4755,7.31534,0,0.000885,0,0
0:0:45.963,57.8313,7.3636,0,0.000885,0,0
0:0:46.160,58.1827,7.40497,0,0.000885,0,0
0:0:46.359,58.6498,7.46702,0,0.000885,0,0
0:0:46.561,59.2948,7.54976,0,0.000885,0,0
0:0:46.755,59.237,7.54286,0,0.000885,0,0
0:0:46.958,59.7663,7.61181,0,0.000885,0,0
0:0:47.157,59.882,7.6256,0,0.000885,0,0
0:0:47.353,60.1755,7.66008,0,0.000885,0,0
0:0:47.555,60.7049,7.72902,0,0.000885,0,0
0:0:47.751,60.9362,7.7566,0,0.000885,0,0
0:0:47.952,61.4655,7.82555,0,0.000885,0,0
0:0:48.152,61.7591,7.86002,0,0.000885,0,0
0:0:48.348,62.7555,7.99102,0,0.000885,0,0
0:0:48.550,62.8133,7.99792,0,0.000885,0,0
0:0:48.749,63.3427,8.06687,0,0.000885,0,0
0:0:48.947,63.5784,8.09445,0,0.000885,0,0
0:0:49.149,64.3391,8.19097,0,0.000885,0,0
0:0:49.343,64.4547,8.20476,0,0.000885,0,0
0:0:49.546,64.6327,8.23234,0,0.000885,0,0
0:0:49.747,64.9841,8.27371,0,0.000885,0,0
0:0:49.952,65.5134,8.34266,0,0.000885,0,0
0:0:50.155,65.8648,8.38402,0,0.000885,0,0
0:0:50.356,66.452,8.45987,0,0.000885,0,0
0:0:50.557,66.6877,8.48745,0,0.000885,0,0
0:0:50.759,67.097,8.5426,0,0.000885,0,0
0:0:50.961,67.564,8.60466,0,0.000885,0,0
0:0:51.164,67.9777,8.65292,0,0.000885,0,0
0:0:51.360,68.4448,8.71497,0,0.000885,0,0
0:0:51.560,68.6227,8.73566,0,0.000885,0,0
0:0:51.760,69.0898,8.79771,0,0.000885,0,0
0:0:51.956,69.2677,8.81839,0,0.000885,0,0
0:0:52.158,69.7348,8.88045,0,0.000885,0,0
0:0:52.354,69.9705,8.90803,0,0.000885,0,0
0:0:52.554,70.7312,9.00455,0,0.000885,0,0
0:0:52.754,71.2027,9.06661,0,0.000885,0,0
0:0:52.951,71.6119,9.11487,0,0.000885,0,0
0:0:53.154,72.0212,9.17003,0,0.000885,0,0
0:0:53.351,72.0834,9.17692,0,0.000885,0,0
0:0:53.550,72.3726,9.21829,0,0.000885,0,0
0:0:53.751,73.0798,9.30792,0,0.000885,0,0
0:0:53.947,73.0798,9.30792,0,0.000885,0,0
0:0:54.151,73.5469,9.36308,0,0.000885,0,0
0:0:54.347,73.667,9.37687,0,0.000885,0,0
0:0:54.546,74.7791,9.52166,0,0.000885,0,0
0:0:54.747,75.0726,9.55613,0,0.000885,0,0
0:0:54.952,75.8333,9.65266,0,0.000885,0,0
0:0:55.154,76.0112,9.68024,0,0.000885,0,0
0:0:55.356,76.5405,9.74229,0,0.000885,0,0
0:0:55.557,76.3048,9.71471,0,0.000885,0,0
0:0:55.758,76.5405,9.74229,0,0.000885,0,0
0:0:55.960,76.7719,9.77677,0,0.000885,0,0
0:0:56.163,77.4791,9.8664,0,0.000885,0,0
0:0:56.363,77.6526,9.88708,0,0.000885,0,0
0:0:56.560,78.5334,9.9974,0,0.000885,0,0
0:0:56.761,78.3554,9.97671,0,0.000885,0,0
0:0:56.956,78.7068,10.025,0,0.000885,0,0
0:0:57.157,79.7077,10.1491,0,0.000885,0,0
0:0:57.358,80.1169,10.1973,0,0.000885,0,0
0:0:57.554,80.8197,10.287,0,0.000885,0,0
0:0:57.756,81.1133,10.3283,0,0.000885,0,0
0:0:57.951,81.1133,10.3283,0,0.000885,0,0
0:0:58.151,81.6427,10.3973,0,0.000885,0,0
0:0:58.353,82.0519,10.4456,0,0.000885,0,0
0:0:58.550,82.2877,10.48,0,0.000885,0,0
0:0:58.752,82.5812,10.5145,0,0.000885,0,0
0:0:58.946,82.9326,10.5559,0,0.000885,0,0
0:0:59.148,83.929,10.6869,0,0.000885,0,0
0:0:59.349,84.1648,10.7145,0,0.000885,0,0
0:0:59.552,84.5162,10.7627,0,0.000885,0,0
0:0:59.755,84.752,10.7903,0,0.000885,0,0
0:0:59.957,85.3347,10.8661,0,0.000885,0,0
0:1:0.159,85.2769,10.8592,0,0.000885,0,0
0:1:0.361,85.864,10.9351,0,0.000885,0,0
0:1:0.562,86.2154,10.9765,0,0.000885,0,0
0:1:0.765,87.2741,11.1143,0,0.000885,0,0
0:1:0.963,87.3898,11.1281,0,0.000885,0,0
0:1:1.164,87.799,11.1764,0,0.000885,0,0
0:1:1.365,88.1504,11.2247,0,0.000885,0,0
0:1:1.560,88.5641,11.2729,0,0.000885,0,0
0:1:1.763,88.6219,11.2867,0,0.000885,0,0
0:1:1.960,89.0312,11.335,0,0.000885,0,0
0:1:2.158,89.3247,11.3763,0,0.000885,0,0
0:1:2.360,89.6761,11.4177,0,0.000885,0,0
0:1:2.555,90.4412,11.5142,0,0.000885,0,0
0:1:2.757,90.6725,11.5418,0,0.000885,0,0
0:1:2.956,90.9661,11.5832,0,0.000885,0,0
0:1:3.153,91.3754,11.6315,0,0.000885,0,0
0:1:3.355,92.0248,11.7142,0,0.000885,0,0
0:1:3.551,92.5497,11.7831,0,0.000885,0,0
0:1:3.753,93.079,11.8521,0,0.000885,0,0
0:1:3.952,93.3726,11.8866,0,0.000885,0,0
0:1:4.149,93.4304,11.8935,0,0.000885,0,0
0:1:4.351,93.8397,11.9486,0,0.000885,0,0
0:1:4.552,93.7819,11.9417,0,0.000885,0,0
0:1:4.755,94.0754,11.9762,0,0.000885,0,0
0:1:4.957,95.1297,12.1141,0,0.000885,0,0
0:1:5.159,95.2498,12.1279,0,0.000885,0,0
0:1:5.362,95.7168,12.1899,0,0.000885,0,0
0:1:5.564,96.0104,12.2244,0,0.000885,0,0
0:1:5.764,96.5976,12.3002,0,0.000885,0,0
0:1:5.966,96.7755,12.3209,0,0.000885,0,0
0:1:6.164,97.4205,12.4037,0,0.000885,0,0
0:1:6.364,97.9454,12.4726,0,0.000885,0,0
0:1:6.560,98.239,12.5071,0,0.000885,0,0
0:1:6.762,98.5326,12.5485,0,0.000885,0,0
0:1:6.962,98.7105,12.5691,0,0.000885,0,0
0:1:7.158,99.0041,12.6036,0,0.000885,0,0
0:1:7.360,99.2932,12.645,0,0.000885,0,0
0:1:7.556,100,12.7346,0,0.000885,0,0
0:1:7.756,100.468,12.7898,0,0.000885,0,0
0:1:7.959,101.464,12.9208,0,0.000885,0,0
0:1:8.153,101.878,12.969,0,0.000885,0,0
0:1:8.355,101.7,12.9484,0,0.000885,0,0
0:1:8.552,102.171,13.0104,0,0.000885,0,0
0:1:8.751,102.403,13.038,0,0.000885,0,0
0:1:8.953,102.638,13.0656,0,0.000885,0,0
0:1:9.148,103.225,13.1414,0,0.000885,0,0
0:1:9.350,103.461,13.1759,0,0.000885,0,0
0:1:9.552,104.458,13.3,0,0.000885,0,0
0:1:9.756,104.515,13.3069,0,0.000885,0,0
0:1:9.957,104.693,13.3276,0,0.000885,0,0
0:1:10.160,105.338,13.4103,0,0.000885,0,0
0:1:10.362,105.396,13.4172,0,0.000885,0,0
0:1:10.563,106.099,13.5068,0,0.000885,0,0
0:1:10.765,106.686,13.5827,0,0.000885,0,0
0:1:10.967,107.273,13.6585,0,0.000885,0,0
0:1:11.163,107.798,13.7275,0,0.000885,0,0
0:1:11.365,108.034,13.755,0,0.000885,0,0
0:1:11.563,107.683,13.7137,0,0.000885,0,0
0:1:11.760,108.563,13.824,0,0.000885,0,0
0:1:11.962,107.976,13.7481,0,0.000885,0,0
0:1:12.158,109.088,13.8929,0,0.000885,0,0
0:1:12.359,109.56,13.9481,0,0.000885,0,0
0:1:12.557,109.444,13.9343,0,0.000885,0,0
0:1:12.754,109.911,13.9964,0,0.000885,0,0
0:1:12.956,110.32,14.0446,0,0.000885,0,0
0:1:13.153,110.734,14.0998,0,0.000885,0,0
0:1:13.354,111.962,14.2584,0,0.000885,0,0
0:1:13.553,111.846,14.2377,0,0.000885,0,0
0:1:13.749,112.611,14.3411,0,0.000885,0,0
0:1:13.951,112.842,14.3687,0,0.000885,0,0
0:1:14.149,113.43,14.4445,0,0.000885,0,0
0:1:14.349,113.839,14.4928,0,0.000885,0,0
0:1:14.551,114.075,14.5273,0,0.000885,0,0
0:1:14.754,114.253,14.5479,0,0.000885,0,0
0:1:14.957,114.72,14.61,0,0.000885,0,0
0:1:15.159,115.249,14.672,0,0.000885,0,0
0:1:15.360,115.774,14.741,0,0.000885,0,0
0:1:15.561,115.836,14.7479,0,0.000885,0,0
0:1:15.763,116.303,14.8099,0,0.000885,0,0
0:1:15.965,116.13,14.7893,0,0.000885,0,0
0:1:16.163,116.539,14.8375,0,0.000885,0,0
0:1:16.361,116.833,14.8789,0,0.000885,0,0
0:1:16.564,117.535,14.9685,0,0.000885,0,0
0:1:16.758,117.945,15.0168,0,0.000885,0,0
0:1:16.961,118.358,15.0719,0,0.000885,0,0
0:1:17.159,118.768,15.1202,0,0.000885,0,0
0:1:17.356,119.003,15.1547,0,0.000885,0,0
0:1:17.559,119.822,15.2581,0,0.000885,0,0
0:1:17.754,120.351,15.3202,0,0.000885,0,0
0:1:17.956,121.463,15.4649,0,0.000885,0,0
0:1:18.153,121.29,15.4443,0,0.000885,0,0
0:1:18.350,121.232,15.4374,0,0.000885,0,0
0:1:18.552,121.819,15.5132,0,0.000885,0,0
0:1:18.749,122.344,15.5753,0,0.000885,0,0
0:1:18.951,122.58,15.6097,0,0.000885,0,0
0:1:19.150,122.695,15.6235,0,0.000885,0,0
0:1:19.346,123.167,15.6787,0,0.000885,0,0
0:1:19.549,123.518,15.7269,0,0.000885,0,0
0:1:19.750,123.692,15.7476,0,0.000885,0,0
0:1:19.954,124.279,15.8235,0,0.000885,0,0
0:1:20.157,124.75,15.8855,0,0.000885,0,0
0:1:20.358,125.511,15.982,0,0.000885,0,0
0:1:20.560,125.569,15.9889,0,0.000885,0,0
0:1:20.761,126.45,16.0993,0,0.000885,0,0
0:1:20.963,126.628,16.1199,0,0.000885,0,0
0:1:21.164,127.095,16.182,0,0.000885,0,0
0:1:21.361,127.215,16.1958,0,0.000885,0,0
0:1:21.561,127.152,16.1889,0,0.000885,0,0
0:1:21.760,128.091,16.3061,0,0.000885,0,0
0:1:21.959,128.211,16.3268,0,0.000885,0,0
0:1:22.160,128.736,16.3888,0,0.000885,0,0
0:1:22.355,129.15,16.444,0,0.000885,0,0
0:1:22.556,129.501,16.4854,0,0.000885,0,0
0:1:22.755,130.32,16.5957,0,0.000885,0,0
0:1:22.955,130.497,16.6164,0,0.000885,0,0
0:1:23.155,130.733,16.6439,0,0.000885,0,0
0:1:23.351,131.2,16.706,0,0.000885,0,0
0:1:23.552,131.61,16.7543,0,0.000885,0,0
0:1:23.752,131.845,16.7887,0,0.000885,0,0
0:1:23.950,132.317,16.8439,0,0.000885,0,0
0:1:24.151,132.375,16.8577,0,0.000885,0,0
0:1:24.347,132.726,16.8991,0,0.000885,0,0
0:1:24.545,133.843,17.0438,0,0.000885,0,0
0:1:24.747,133.487,16.9956,0,0.000885,0,0
0:1:24.950,134.367,17.1059,0,0.000885,0,0
0:1:25.154,134.252,17.0921,0,0.000885,0,0
0:1:25.354,134.897,17.1748,0,0.000885,0,0
0:1:25.556,134.777,17.1611,0,0.000885,0,0
0:1:25.757,135.6,17.2645,0,0.000885,0,0
0:1:25.958,135.835,17.2921,0,0.000885,0,0
0:1:26.160,136.245,17.3472,0,0.000885,0,0
0:1:26.358,137.361,17.492,0,0.000885,0,0
0:1:26.556,137.419,17.4989,0,0.000885,0,0
0:1:26.758,137.77,17.5403,0,0.000885,0,0
0:1:26.953,137.477,17.5058,0,0.000885,0,0
0:1:27.156,138.709,17.6575,0,0.000885,0,0
0:1:27.354,138.945,17.6919,0,0.000885,0,0
0:1:27.551,139.354,17.7402,0,0.000885,0,0
0:1:27.753,140.057,17.8298,0,0.000885,0,0
0:1:27.949,140.115,17.8367,0,0.000885,0,0
0:1:28.149,140.586,17.8988,0,0.000885,0,0
0:1:28.350,141.173,17.9746,0,0.000885,0,0
0:1:28.545,141.347,17.9953,0,0.000885,0,0
0:1:28.747,141.934,18.0712,0,0.000885,0,0
0:1:28.944,141.992,18.0781,0,0.000885,0,0
0:1:29.144,142.405,18.1332,0,0.000885,0,0
0:1:29.346,142.637,18.1608,0,0.000885,0,0
0:1:29.547,142.988,18.2091,0,0.000885,0,0
0:1:29.751,143.402,18.2573,0,0.000885,0,0
0:1:29.954,143.927,18.3263,0,0.000885,0,0
0:1:30.155,144.398,18.3883,0,0.000885,0,0
0:1:30.356,144.34,18.3745,0,0.000885,0,0
0:1:30.558,145.51,18.5262,0,0.000885,0,0
0:1:30.759,145.746,18.5538,0,0.000885,0,0
0:1:30.959,146.333,18.6296,0,0.000885,0,0
0:1:31.157,146.685,18.6779,0,0.000885,0,0
0:1:31.359,146.685,18.6779,0,0.000885,0,0
0:1:31.554,147.214,18.7468,0,0.000885,0,0
0:1:31.753,147.214,18.7468,0,0.000885,0,0
0:1:31.953,147.801,18.8158,0,0.000885,0,0
0:1:32.150,148.21,18.871,0,0.000885,0,0
0:1:32.352,148.62,18.9261,0,0.000885,0,0
0:1:32.549,149.616,19.0502,0,0.000885,0,0
0:1:32.747,149.678,19.0571,0,0.000885,0,0
0:1:32.949,150.261,19.133,0,0.000885,0,0
0:1:33.145,150.145,19.1192,0,0.000885,0,0
0:1:33.347,151.142,19.2433,0,0.000885,0,0
0:1:33.545,151.084,19.2364,0,0.000885,0,0
0:1:33.739,151.377,19.2708,0,0.000885,0,0
0:1:33.943,151.787,19.326,0,0.000885,0,0
0:1:34.148,152.374,19.4018,0,0.000885,0,0
0:1:34.350,152.374,19.4018,0,0.000885,0,0
0:1:34.550,152.783,19.4501,0,0.000885,0,0
0:1:34.754,153.134,19.4984,0,0.000885,0,0
0:1:34.957,153.9,19.5949,0,0.000885,0,0
0:1:35.160,154.015,19.6087,0,0.000885,0,0
0:1:35.361,154.954,19.7328,0,0.000885,0,0
0:1:35.562,154.838,19.7121,0,0.000885,0,0
0:1:35.764,155.305,19.7742,0,0.000885,0,0
0:1:35.966,155.305,19.7742,0,0.000885,0,0
0:1:36.162,156.07,19.8707,0,0.000885,0,0
0:1:36.362,156.244,19.8914,0,0.000885,0,0
0:1:36.563,156.831,19.9672,0,0.000885,0,0
0:1:36.759,157.302,20.0293,0,0.000885,0,0
0:1:36.961,157.596,20.0637,0,0.000885,0,0
0:1:37.159,158.299,20.1534,0,0.000885,0,0
0:1:37.357,158.415,20.1672,0,0.000885,0,0
0:1:37.560,159.18,20.2637,0,0.000885,0,0
0:1:37.754,159.237,20.2775,0,0.000885,0,0
0:1:37.956,160.114,20.3878,0,0.000885,0,0
0:1:38.154,160.527,20.4361,0,0.000885,0,0
0:1:38.351,160.701,20.4636,0,0.000885,0,0
0:1:38.553,160.821,20.4774,0,0.000885,0,0
0:1:38.750,160.937,20.4912,0,0.000885,0,0
0:1:38.951,161.817,20.6015,0,0.000885,0,0
0:1:39.150,161.933,20.6153,0,0.000885,0,0
0:1:39.346,162.992,20.7532,0,0.000885,0,0
0:1:39.548,162.992,20.7532,0,0.000885,0,0
0:1:39.748,163.695,20.8429,0,0.000885,0,0
0:1:39.952,163.517,20.8222,0,0.000885,0,0
0:1:40.155,163.988,20.8773,0,0.000885,0,0
0:1:40.357,164.397,20.9325,0,0.000885,0,0
0:1:40.558,165.042,21.0152,0,0.000885,0,0
0:1:40.759,164.927,21.0014,0,0.000885,0,0
0:1:40.960,165.687,21.098,0,0.000885,0,0
0:1:41.162,166.039,21.1393,0,0.000885,0,0
0:1:41.359,166.626,21.2152,0,0.000885,0,0
0:1:41.559,166.448,21.1945,0,0.000885,0,0
0:1:41.759,166.977,21.2634,0,0.000885,0,0
0:1:41.956,167.329,21.3048,0,0.000885,0,0
0:1:42.159,167.68,21.3531,0,0.000885,0,0
0:1:42.353,168.209,21.4151,0,0.000885,0,0
0:1:42.554,169.032,21.5185,0,0.000885,0,0
0:1:42.755,169.032,21.5185,0,0.000885,0,0
0:1:42.951,169.499,21.5806,0,0.000885,0,0
0:1:43.153,169.909,21.6357,0,0.000885,0,0
0:1:43.349,169.971,21.6426,0,0.000885,0,0
0:1:43.548,170.847,21.753,0,0.000885,0,0
0:1:43.749,171.728,21.8633,0,0.000885,0,0
0:1:43.944,171.492,21.8357,0,0.000885,0,0
0:1:44.146,171.964,21.8977,0,0.000885,0,0
0:1:44.344,172.493,21.9598,0,0.000885,0,0
0:1:44.539,172.551,21.9667,0,0.000885,0,0
0:1:44.744,173.547,22.0977,0,0.000885,0,0
0:1:44.945,173.663,22.1115,0,0.000885,0,0
0:1:45.149,174.135,22.1735,0,0.000885,0,0
0:1:45.352,174.659,22.2356,0,0.000885,0,0
0:1:45.553,174.953,22.277,0,0.000885,0,0
0:1:45.755,175.425,22.339,0,0.000885,0,0
0:1:45.956,175.598,22.3597,0,0.000885,0,0
0:1:46.157,175.892,22.3942,0,0.000885,0,0
0:1:46.359,176.421,22.4631,0,0.000885,0,0
0:1:46.553,176.95,22.5321,0,0.000885,0,0
0:1:46.755,176.83,22.5183,0,0.000885,0,0
0:1:46.952,177.711,22.6286,0,0.000885,0,0
0:1:47.152,178.004,22.6631,0,0.000885,0,0
0:1:47.354,178.414,22.7182,0,0.000885,0,0
0:1:47.547,178.414,22.7182,0,0.000885,0,0
0:1:47.749,179.294,22.8285,0,0.000885,0,0
0:1:47.946,179.117,22.8079,0,0.000885,0,0
0:1:48.146,179.704,22.8837,0,0.000885,0,0
0:1:48.348,180.291,22.9526,0,0.000885,0,0
0:1:48.552,180.291,22.9526,0,0.000885,0,0
0:1:48.753,180.762,23.0147,0,0.000885,0,0
0:1:48.953,181.407,23.0974,0,0.000885,0,0
0:1:49.151,181.701,23.1319,0,0.000885,0,0
0:1:49.353,181.759,23.1388,0,0.000885,0,0
0:1:49.554,182.168,23.194,0,0.000885,0,0
0:1:49.757,182.813,23.2767,0,0.000885,0,0
0:1:49.961,183.049,23.3043,0,0.000885,0,0
0:1:50.163,183.93,23.4215,0,0.000885,0,0
0:1:50.364,184.045,23.4353,0,0.000885,0,0
0:1:50.566,184.806,23.5318,0,0.000885,0,0
0:1:50.766,184.984,23.5525,0,0.000885,0,0
0:1:50.967,185.335,23.6008,0,0.000885,0,0
0:1:51.161,185.571,23.6283,0,0.000885,0,0
0:1:51.362,185.922,23.6697,0,0.000885,0,0
0:1:51.562,186.389,23.7318,0,0.000885,0,0
0:1:51.759,187.034,23.8145,0,0.000885,0,0
0:1:51.961,187.328,23.849,0,0.000885,0,0
0:1:52.157,187.506,23.8765,0,0.000885,0,0
0:1:52.356,187.679,23.8972,0,0.000885,0,0
0:1:52.557,188.738,24.0282,0,0.000885,0,0
0:1:52.753,188.502,24.0007,0,0.000885,0,0
0:1:52.955,189.205,24.0903,0,0.000885,0,0
0:1:53.151,189.325,24.1041,0,0.000885,0,0
0:1:53.351,189.619,24.1454,0,0.000885,0,0
0:1:53.552,190.437,24.2489,0,0.000885,0,0
0:1:53.746,190.322,24.2351,0,0.000885,0,0
0:1:53.950,191.14,24.3385,0,0.000885,0,0
0:1:54.147,191.26,24.3523,0,0.000885,0,0
0:1:54.354,191.785,24.4212,0,0.000885,0,0
0:1:54.555,192.021,24.4488,0,0.000885,0,0
0:1:54.758,192.372,24.4971,0,0.000885,0,0
0:1:54.960,193.08,24.5867,0,0.000885,0,0
0:1:55.161,193.724,24.6625,0,0.000885,0,0
0:1:55.360,193.724,24.6625,0,0.000885,0,0
0:1:55.562,194.485,24.766,0,0.000885,0,0
0:1:55.761,194.663,24.7867,0,0.000885,0,0
0:1:55.959,194.894,24.8142,0,0.000885,0,0
0:1:56.159,195.13,24.8418,0,0.000885,0,0
0:1:56.353,196.127,24.9728,0,0.000885,0,0
0:1:56.554,196.127,24.9728,0,0.000885,0,0
0:1:56.750,196.772,25.0555,0,0.000885,0,0
0:1:56.948,197.065,25.09,0,0.000885,0,0
0:1:57.148,197.594,25.159,0,0.000885,0,0
0:1:57.350,197.71,25.1728,0,0.000885,0,0
0:1:57.551,198.533,25.2762,0,0.000885,0,0
0:1:57.749,199.236,25.3658,0,0.000885,0,0
0:1:57.944,199.058,25.3451,0,0.000885,0,0
0:1:58.145,199.823,25.4417,0,0.000885,0,0
0:1:58.349,199.939,25.4554,0,0.000885,0,0
0:1:58.548,200.29,25.5037,0,0.000885,0,0
0:1:58.745,200.584,25.5382,0,0.000885,0,0
0:1:58.940,200.935,25.5864,0,0.000885,0,0
0:1:59.141,201.229,25.6209,0,0.000885,0,0
0:1:59.347,202.167,25.7381,0,0.000885,0,0
0:1:59.546,202.052,25.7243,0,0.000885,0,0
0:1:59.747,202.812,25.8209,0,0.000885,0,0
0:1:59.948,202.932,25.8347,0,0.000885,0,0
0:2:0.150,203.457,25.9036,0,0.000885,0,0
0:2:0.352,203.929,25.9657,0,0.000885,0,0
0:2:0.551,204.338,26.0139,0,0.000885,0,0
0:2:0.751,204.396,26.0277,0,0.000885,0,0
0:2:0.951,205.512,26.1656,0,0.000885,0,0
0:2:1.151,205.334,26.1449,0,0.000885,0,0
0:2:1.350,205.864,26.2139,0,0.000885,0,0
0:2:1.545,205.806,26.207,0,0.000885,0,0
0:2:1.745,205.806,26.207,0,0.000885,0,0
0:2:1.950,206.744,26.3242,0,0.000885,0,0
0:2:2.149,206.744,26.3242,0,0.000885,0,0
0:2:2.346,207.154,26.3724,0,0.000885,0,0
0:2:2.551,207.389,26.4069,0,0.000885,0,0
0:2:2.751,208.208,26.5103,0,0.000885,0,0
0:2:2.946,208.622,26.5655,0,0.000885,0,0
0:2:3.147,209.089,26.6207,0,0.000885,0,0
0:2:3.342,209.146,26.6276,0,0.000885,0,0
0:2:3.548,209.791,26.7103,0,0.000885,0,0
0:2:3.749,210.027,26.7448,0,0.000885,0,0
0:2:3.955,210.788,26.8413,0,0.000885,0,0
0:2:4.152,210.73,26.8344,0,0.000885,0,0
0:2:4.353,211.611,26.9447,0,0.000885,0,0
0:2:4.555,211.847,26.9723,0,0.000885,0,0
0:2:4.756,212.256,27.0274,0,0.000885,0,0
0:2:4.957,212.727,27.0826,0,0.000885,0,0
0:2:5.158,213.31,27.1584,0,0.000885,0,0
0:2:5.359,213.546,27.1929,0,0.000885,0,0
0:2:5.560,213.724,27.2136,0,0.000885,0,0
0:2:5.759,214.133,27.2619,0,0.000885,0,0
0:2:5.957,214.778,27.3446,0,0.000885,0,0
0:2:6.153,214.894,27.3584,0,0.000885,0,0
0:2:6.353,215.481,27.4342,0,0.000885,0,0
0:2:6.548,216.068,27.5101,0,0.000885,0,0
0:2:6.746,216.068,27.5101,0,0.000885,0,0
0:2:6.943,217.006,27.6273,0,0.000885,0,0
0:2:7.147,217.3,27.6687,0,0.000885,0,0
0:2:7.348,217.767,27.7238,0,0.000885,0,0
0:2:7.543,217.767,27.7238,0,0.000885,0,0
0:2:7.738,218.123,27.7721,0,0.000885,0,0
0:2:7.939,218.706,27.8479,0,0.000885,0,0
0:2:8.133,219.351,27.9307,0,0.000885,0,0
0:2:8.332,219.177,27.9031,0,0.000885,0,0
0:2:8.541,219.764,27.9789,0,0.000885,0,0
0:2:8.747,220,28.0134,0,0.000885,0,0
0:2:8.949,220.761,28.1099,0,0.000885,0,0
0:2:9.151,220.703,28.103,0,0.000885,0,0
0:2:9.351,220.703,28.103,0,0.000885,0,0
0:2:9.550,221.17,28.1582,0,0.000885,0,0
0:2:9.753,222.109,28.2823,0,0.000885,0,0
0:2:9.955,222.518,28.3306,0,0.000885,0,0
0:2:10.155,223.167,28.4133,0,0.000885,0,0
0:2:10.356,223.283,28.4271,0,0.000885,0,0
0:2:10.556,223.75,28.4891,0,0.000885,0,0
0:2:10.755,223.75,28.4891,0,0.000885,0,0
0:2:10.957,224.279,28.5581,0,0.000885,0,0
0:2:11.152,224.573,28.5926,0,0.000885,0,0
0:2:11.350,224.982,28.6477,0,0.000885,0,0
0:2:11.551,225.454,28.7029,0,0.000885,0,0
0:2:11.753,225.627,28.7305,0,0.000885,0,0
0:2:11.954,226.392,28.827,0,0.000885,0,0
0:2:12.150,226.566,28.8477,0,0.000885,0,0
0:2:12.346,227.095,28.9166,0,0.000885,0,0
0:2:12.547,227.562,28.9718,0,0.000885,0,0
0:2:12.741,228.149,29.0476,0,0.000885,0,0
0:2:12.940,228.149,29.0476,0,0.000885,0,0
0:2:13.150,228.852,29.1372,0,0.000885,0,0
0:2:13.343,229.208,29.1855,0,0.000885,0,0
0:2:13.546,229.324,29.1993,0,0.000885,0,0
0:2:13.751,229.853,29.2682,0,0.000885,0,0
0:2:13.948,230.026,29.2889,0,0.000885,0,0
0:2:14.148,230.262,29.3165,0,0.000885,0,0
0:2:14.340,230.965,29.4061,0,0.000885,0,0
0:2:14.540,231.61,29.4889,0,0.000885,0,0
0:2:14.740,231.961,29.5371,0,0.000885,0,0
0:2:14.942,232.197,29.5647,0,0.000885,0,0
0:2:15.143,232.197,29.5647,0,0.000885,0,0
0:2:15.347,233.02,29.6681,0,0.000885,0,0
0:2:15.546,233.251,29.6957,0,0.000885,0,0
0:2:15.747,233.314,29.7095,0,0.000885,0,0
0:2:15.947,233.603,29.744,0,0.000885,0,0
0:2:16.148,234.426,29.8474,0,0.000885,0,0
0:2:16.352,234.719,29.8888,0,0.000885,0,0
0:2:16.552,235.249,29.9508,0,0.000885,0,0
0:2:16.750,235.071,29.9301,0,0.000885,0,0
0:2:16.943,235.894,30.0336,0,0.000885,0,0
0:2:17.144,235.542,29.9922,0,0.000885,0,0
0:2:17.351,236.361,30.0956,0,0.000885,0,0
0:2:17.547,236.89,30.1646,0,0.000885,0,0
0:2:17.747,237.477,30.2335,0,0.000885,0,0
0:2:17.940,237.593,30.2542,0,0.000885,0,0
0:2:18.141,237.944,30.2956,0,0.000885,0,0
0:2:18.349,238.238,30.33,0,0.000885,0,0
0:2:18.547,238.883,30.4128,0,0.000885,0,0
0:2:18.744,239.176,30.4541,0,0.000885,0,0
0:2:18.951,239.292,30.4679,0,0.000885,0,0
0:2:19.151,239.706,30.5231,0,0.000885,0,0
0:2:19.347,239.879,30.5438,0,0.000885,0,0
0:2:19.552,240.115,30.5714,0,0.000885,0,0
0:2:19.753,240.466,30.6196,0,0.000885,0,0
0:2:19.954,240.876,30.6679,0,0.000885,0,0
0:2:20.155,241.463,30.7437,0,0.000885,0,0
0:2:20.357,241.521,30.7506,0,0.000885,0,0
0:2:20.557,241.992,30.8127,0,0.000885,0,0
0:2:20.759,242.401,30.8609,0,0.000885,0,0
0:2:20.959,242.579,30.8885,0,0.000885,0,0
0:2:21.159,243.166,30.9575,0,0.000885,0,0
0:2:21.359,242.989,30.9368,0,0.000885,0,0
0:2:21.553,243.576,31.0126,0,0.000885,0,0
0:2:21.754,243.634,31.0195,0,0.000885,0,0
0:2:21.950,244.336,31.1091,0,0.000885,0,0
0:2:22.148,244.279,31.1023,0,0.000885,0,0
0:2:22.349,244.456,31.1229,0,0.000885,0,0
0:2:22.551,244.981,31.1919,0,0.000885,0,0
0:2:22.750,245.217,31.2195,0,0.000885,0,0
0:2:22.956,245.453,31.2539,0,0.000885,0,0
0:2:23.152,245.453,31.2539,0,0.000885,0,0
0:2:23.353,245.92,31.3091,0,0.000885,0,0
0:2:23.556,246.449,31.378,0,0.000885,0,0
0:2:23.754,246.334,31.3643,0,0.000885,0,0
0:2:23.953,246.449,31.378,0,0.000885,0,0
0:2:24.147,246.979,31.447,0,0.000885,0,0
0:2:24.347,247.272,31.4815,0,0.000885,0,0
0:2:24.547,247.624,31.5297,0,0.000885,0,0
0:2:24.749,247.624,31.5297,0,0.000885,0,0
0:2:24.952,248.033,31.578,0,0.000885,0,0
0:2:25.153,248.442,31.6331,0,0.000885,0,0
0:2:25.353,248.914,31.6952,0,0.000885,0,0
0:2:25.553,249.501,31.7641,0,0.000885,0,0
0:2:25.753,250.204,31.8538,0,0.000885,0,0
0:2:25.954,250.439,31.8883,0,0.000885,0,0
0:2:26.149,251.2,31.9848,0,0.000885,0,0
0:2:26.348,251.2,31.9848,0,0.000885,0,0
0:2:26.544,252.081,32.0951,0,0.000885,0,0
0:2:26.738,252.49,32.1503,0,0.000885,0,0
0:2:26.940,253.371,32.2606,0,0.000885,0,0
0:2:27.144,254.016,32.3433,0,0.000885,0,0
0:2:27.343,254.719,32.4329,0,0.000885,0,0
0:2:27.542,254.954,32.4605,0,0.000885,0,0
0:2:27.737,255.835,32.5708,0,0.000885,0,0
0:2:27.936,256.36,32.6398,0,0.000885,0,0
0:2:28.142,257.356,32.7708,0,0.000885,0,0
0:2:28.338,258.237,32.8811,0,0.000885,0,0
0:2:28.551,258.588,32.9225,0,0.000885,0,0
0:2:28.755,259.354,33.019,0,0.000885,0,0
0:2:28.955,260.114,33.1155,0,0.000885,0,0
0:2:29.151,260.114,33.1155,0,0.000885,0,0
0:2:29.347,260.644,33.1845,0,0.000885,0,0
0:2:29.549,261.346,33.2741,0,0.000885,0,0
0:2:29.748,262.107,33.3706,0,0.000885,0,0
0:2:29.951,262.463,33.4189,0,0.000885,0,0
0:2:30.152,262.93,33.474,0,0.000885,0,0
0:2:30.352,263.811,33.5913,0,0.000885,0,0
0:2:30.553,263.984,33.6119,0,0.000885,0,0
0:2:30.753,264.571,33.6878,0,0.000885,0,0
0:2:30.955,265.216,33.7705,0,0.000885,0,0
0:2:31.154,265.861,33.8533,0,0.000885,0,0
0:2:31.349,266.275,33.9015,0,0.000885,0,0
0:2:31.550,266.684,33.9567,0,0.000885,0,0
0:2:31.754,267.036,33.998,0,0.000885,0,0
0:2:31.954,267.796,34.0946,0,0.000885,0,0
0:2:32.153,268.152,34.1428,0,0.000885,0,0
0:2:32.344,268.504,34.1842,0,0.000885,0,0
0:2:32.545,268.735,34.2187,0,0.000885,0,0
0:2:32.740,268.383,34.1704,0,0.000885,0,0
0:2:32.950,268.677,34.2118,0,0.000885,0,0
0:2:33.150,269.206,34.2738,0,0.000885,0,0
0:2:33.353,269.264,34.2807,0,0.000885,0,0
0:2:33.552,269.206,34.2738,0,0.000885,0,0
0:2:33.749,269.558,34.3221,0,0.000885,0,0
0:2:33.944,269.673,34.3359,0,0.000885,0,0
0:2:34.145,270.261,34.4117,0,0.000885,0,0
0:2:34.351,270.381,34.4255,0,0.000885,0,0
0:2:34.550,270.612,34.4531,0,0.000885,0,0
0:2:34.749,271.084,34.5152,0,0.000885,0,0
0:2:34.952,271.608,34.5841,0,0.000885,0,0
0:2:35.154,271.786,34.6048,0,0.000885,0,0
0:2:35.354,272.374,34.6806,0,0.000885,0,0
0:2:35.555,272.667,34.7151,0,0.000885,0,0
0:2:35.754,272.667,34.7151,0,0.000885,0,0
0:2:35.954,272.489,34.6944,0,0.000885,0,0
0:2:36.155,272.783,34.7289,0,0.000885,0,0
0:2:36.352,273.192,34.7841,0,0.000885,0,0
0:2:36.557,273.721,34.853,0,0.000885,0,0
0:2:36.757,274.073,34.8944,0,0.000885,0,0
0:2:36.951,274.424,34.9426,0,0.000885,0,0
0:2:37.152,274.424,34.9426,0,0.000885,0,0
0:2:37.350,274.776,34.984,0,0.000885,0,0
0:2:37.554,274.896,34.9978,0,0.000885,0,0
0:2:37.755,275.541,35.0805,0,0.000885,0,0
0:2:37.957,275.483,35.0736,0,0.000885,0,0
0:2:38.158,276.128,35.1564,0,0.000885,0,0
0:2:38.356,276.07,35.1495,0,0.000885,0,0
0:2:38.550,276.653,35.2253,0,0.000885,0,0
0:2:38.751,277.066,35.2736,0,0.000885,0,0
0:2:38.956,277.066,35.2736,0,0.000885,0,0
0:2:39.153,276.773,35.2391,0,0.000885,0,0
0:2:39.354,277.24,35.3012,0,0.000885,0,0
0:2:39.556,276.946,35.2598,0,0.000885,0,0
0:2:39.756,276.831,35.246,0,0.000885,0,0
0:2:39.956,276.595,35.2184,0,0.000885,0,0
0:2:40.156,276.479,35.2046,0,0.000885,0,0
0:2:40.355,276.243,35.1702,0,0.000885,0,0
0:2:40.556,275.95,35.1357,0,0.000885,0,0
0:2:40.755,275.598,35.0874,0,0.000885,0,0
0:2:40.952,275.305,35.0529,0,0.000885,0,0
0:2:41.156,274.953,35.0116,0,0.000885,0,0
0:2:41.356,274.131,34.9013,0,0.000885,0,0
0:2:41.552,273.486,34.8185,0,0.000885,0,0
0:2:41.749,273.134,34.7772,0,0.000885,0,0
0:2:41.945,272.547,34.7013,0,0.000885,0,0
0:2:42.151,272.08,34.6393,0,0.000885,0,0
0:2:42.351,271.786,34.6048,0,0.000885,0,0
0:2:42.545,271.786,34.6048,0,0.000885,0,0
0:2:42.742,271.844,34.6117,0,0.000885,0,0
0:2:42.941,271.257,34.5358,0,0.000885,0,0
0:2:43.144,271.257,34.5358,0,0.000885,0,0
0:2:43.345,268.619,34.2049,0,0.000885,0,0
0:2:43.551,266.275,33.9015,0,0.000885,0,0
0:2:43.758,264.691,33.7016,0,0.000885,0,0
0:2:43.958,264.278,33.6464,0,0.000885,0,0
0:2:44.151,264.398,33.6671,0,0.000885,0,0
0:2:44.351,263.984,33.6119,0,0.000885,0,0
0:2:44.551,263.401,33.5361,0,0.000885,0,0
0:2:44.752,263.633,33.5637,0,0.000885,0,0
0:2:44.954,263.281,33.5223,0,0.000885,0,0
0:2:45.153,263.401,33.5361,0,0.000885,0,0
0:2:45.354,263.339,33.5292,0,0.000885,0,0
0:2:45.554,262.814,33.4603,0,0.000885,0,0
0:2:45.753,262.401,33.412,0,0.000885,0,0
0:2:45.954,262.107,33.3706,0,0.000885,0,0
0:2:46.157,261.404,33.281,0,0.000885,0,0
0:2:46.355,261.168,33.2534,0,0.000885,0,0
0:2:46.555,260.586,33.1776,0,0.000885,0,0
0:2:46.758,260.644,33.1845,0,0.000885,0,0
0:2:46.959,260.172,33.1293,0,0.000885,0,0
0:2:47.154,260.523,33.1707,0,0.000885,0,0
0:2:47.351,259.999,33.1017,0,0.000885,0,0
0:2:47.550,257.886,32.8328,0,0.000885,0,0
0:2:47.742,257.125,32.7363,0,0.000885,0,0
0:2:47.941,256.418,32.6467,0,0.000885,0,0
0:2:48.150,256.008,32.5984,0,0.000885,0,0
0:2:48.355,255.541,32.5364,0,0.000885,0,0
0:2:48.554,255.306,32.5088,0,0.000885,0,0
0:2:48.747,255.012,32.4674,0,0.000885,0,0
0:2:48.946,254.776,32.4398,0,0.000885,0,0
0:2:49.144,254.074,32.3502,0,0.000885,0,0
0:2:49.347,253.486,32.2744,0,0.000885,0,0
0:2:49.547,252.254,32.1158,0,0.000885,0,0
0:2:49.746,251.609,32.033,0,0.000885,0,0
0:2:49.947,251.2,31.9848,0,0.000885,0,0
0:2:50.151,251.084,31.971,0,0.000885,0,0
0:2:50.350,250.791,31.9296,0,0.000885,0,0
0:2:50.550,250.377,31.8814,0,0.000885,0,0
0:2:50.750,250.261,31.8676,0,0.000885,0,0
0:2:50.947,250.261,31.8676,0,0.000885,0,0
0:2:51.150,250.146,31.8469,0,0.000885,0,0
0:2:51.353,250.083,31.84,0,0.000885,0,0
0:2:51.551,249.91,31.8193,0,0.000885,0,0
0:2:51.758,249.852,31.8124,0,0.000885,0,0
0:2:51.955,249.732,31.7986,0,0.000885,0,0
0:2:52.154,249.674,31.7917,0,0.000885,0,0
0:2:52.346,249.732,31.7986,0,0.000885,0,0
0:2:52.544,249.852,31.8124,0,0.000885,0,0
0:2:52.742,249.732,31.7986,0,0.000885,0,0
0:2:52.947,249.732,31.7986,0,0.000885,0,0
0:2:53.147,249.381,31.7504,0,0.000885,0,0
0:2:53.353,249.265,31.7366,0,0.000885,0,0
0:2:53.551,249.149,31.7228,0,0.000885,0,0
0:2:53.748,249.029,31.709,0,0.000885,0,0
0:2:53.953,249.149,31.7228,0,0.000885,0,0
0:2:54.153,248.793,31.6745,0,0.000885,0,0
0:2:54.350,248.562,31.6469,0,0.000885,0,0
0:2:54.555,248.384,31.6263,0,0.000885,0,0
0:2:54.755,248.326,31.6194,0,0.000885,0,0
0:2:54.956,247.446,31.509,0,0.000885,0,0
0:2:55.157,247.21,31.4746,0,0.000885,0,0
0:2:55.358,246.449,31.378,0,0.000885,0,0
0:2:55.558,245.511,31.2608,0,0.000885,0,0
0:2:55.757,243.46,30.9988,0,0.000885,0,0
0:2:55.957,242.873,30.923,0,0.000885,0,0
0:2:56.156,241.756,30.7782,0,0.000885,0,0
0:2:56.354,241.699,30.7713,0,0.000885,0,0
0:2:56.547,240.818,30.661,0,0.000885,0,0
0:2:56.748,240.351,30.5989,0,0.000885,0,0
0:2:56.954,239.528,30.4955,0,0.000885,0,0
0:2:57.152,239.412,30.4817,0,0.000885,0,0
0:2:57.352,238.767,30.399,0,0.000885,0,0
0:2:57.554,237.771,30.2749,0,0.000885,0,0
0:2:57.754,237.357,30.2197,0,0.000885,0,0
0:2:57.948,236.654,30.1301,0,0.000885,0,0
0:2:58.156,236.245,30.0818,0,0.000885,0,0
0:2:58.356,235.836,30.0267,0,0.000885,0,0
0:2:58.548,235.6,29.9991,0,0.000885,0,0
0:2:58.747,235.658,30.006,0,0.000885,0,0
0:2:58.955,235.306,29.9577,0,0.000885,0,0
0:2:59.151,234.835,29.9026,0,0.000885,0,0
0:2:59.348,234.719,29.8888,0,0.000885,0,0
0:2:59.548,234.368,29.8405,0,0.000885,0,0
0:2:59.753,234.426,29.8474,0,0.000885,0,0
0:2:59.953,234.132,29.8129,0,0.000885,0,0
0:3:0.154,233.429,29.7233,0,0.000885,0,0
0:3:0.354,233.251,29.6957,0,0.000885,0,0
0:3:0.552,233.371,29.7164,0,0.000885,0,0
0:3:0.753,232.842,29.6475,0,0.000885,0,0
0:3:0.952,232.082,29.5509,0,0.000885,0,0
0:3:1.155,231.494,29.4751,0,0.000885,0,0
0:3:1.356,231.023,29.413,0,0.000885,0,0
0:3:1.552,230.849,29.3924,0,0.000885,0,0
0:3:1.758,229.853,29.2682,0,0.000885,0,0
0:3:1.959,229.559,29.2269,0,0.000885,0,0
0:3:2.083,229.266,29.1924,0,0.000885,0,0