File: DataFile2021-06-07_055257.csv
Test ID:,Date Tested:,Time:,Test Type:,Diameter Avg. (mm):,Cyl. Corr. Factor:,Height (mm):,Age (days):,Weight (kN):,Break Type:,Ramp Rate (MPa/s):,Load at Break (kN):,Stress at Break (MPa):
12,6/7/2021,05:52,Cylinder,100,1,200,0,3.6,3,0.25,1027.86,130.87
Sample Time,Load (kN),Stress (MPa),Long. Strain,Trans. Strain,Chan1 Deflection (mm),Chan2 Deflection (mm)
0:0:9.687,5.10211,0.648107,0,0.000885,0,0
0:0:10.195,7.03709,0.896318,0,0.000885,0,0
0:0:10.690,8.09576,1.02732,0,0.000885,0,0
0:0:11.200,8.26924,1.0549,0,0.000885,0,0
0:0:11.696,9.20782,1.17211,0,0.000885,0,0
0:0:12.203,9.61706,1.22727,0,0.000885,0,0
0:0:12.699,10.2042,1.29621,0,0.000885,0,0
0:0:13.196,11.085,1.41343,0,0.000885,0,0
0:0:13.689,12.4906,1.59269,0,0.000885,0,0
0:0:14.189,14.0163,1.78574,0,0.000885,0,0
0:0:14.696,14.6035,1.86158,0,0.000885,0,0
0:0:15.202,15.5421,1.9788,0,0.000885,0,0
0:0:15.710,16.7164,2.13048,0,0.000885,0,0
0:0:16.215,17.4192,2.22011,0,0.000885,0,0
0:0:16.720,18.2422,2.32353,0,0.000885,0,0
0:0:17.218,19.8836,2.53038,0,0.000885,0,0
0:0:17.715,20.88,2.66138,0,0.000885,0,0
0:0:18.211,21.8764,2.78548,0,0.000885,0,0
0:0:18.710,23.1085,2.94406,0,0.000885,0,0
0:0:19.205,23.9893,3.05438,0,0.000885,0,0
0:0:19.703,24.8077,3.1578,0,0.000885,0,0
0:0:20.201,26.5692,3.38533,0,0.000885,0,0
0:0:20.707,27.2142,3.46806,0,0.000885,0,0
0:0:21.214,28.6821,3.65422,0,0.000885,0,0
0:0:21.719,29.5584,3.76454,0,0.000885,0,0
0:0:22.215,30.4392,3.87485,0,0.000885,0,0
0:0:22.713,30.8484,3.93001,0,0.000885,0,0
0:0:23.210,32.0806,4.0817,0,0.000885,0,0
0:0:23.707,32.6677,4.15754,0,0.000885,0,0
0:0:24.204,33.1971,4.22649,0,0.000885,0,0
0:0:24.702,34.6605,4.41264,0,0.000885,0,0
0:0:25.208,35.5991,4.52986,0,0.000885,0,0
0:0:25.715,36.422,4.64017,0,0.000885,0,0
0:0:26.219,37.6542,4.79186,0,0.000885,0,0
0:0:26.716,38.4148,4.88838,0,0.000885,0,0
0:0:27.214,39.5892,5.04007,0,0.000885,0,0
0:0:27.712,40.5277,5.15728,0,0.000885,0,0
0:0:28.211,41.9957,5.34344,0,0.000885,0,0
0:0:28.708,42.8141,5.45375,0,0.000885,0,0
0:0:29.206,43.7527,5.57096,0,0.000885,0,0
0:0:29.703,44.0463,5.60544,0,0.000885,0,0
0:0:30.206,45.572,5.80539,0,0.000885,0,0
0:0:30.713,46.9198,5.97086,0,0.000885,0,0
0:0:31.216,47.3291,6.02602,0,0.000885,0,0
0:0:31.721,48.6813,6.19839,0,0.000885,0,0
0:0:32.218,49.6777,6.32249,0,0.000885,0,0
0:0:32.714,50.3227,6.40523,0,0.000885,0,0
0:0:33.211,51.3191,6.53623,0,0.000885,0,0
0:0:33.709,52.2577,6.65344,0,0.000885,0,0
0:0:34.205,53.0184,6.74997,0,0.000885,0,0
0:0:34.703,54.4284,6.92923,0,0.000885,0,0
0:0:35.199,55.7184,7.09471,0,0.000885,0,0
0:0:35.705,55.9542,7.12228,0,0.000885,0,0
0:0:36.212,57.4176,7.30844,0,0.000885,0,0
0:0:36.717,58.5341,7.45323,0,0.000885,0,0
0:0:37.215,59.1791,7.53597,0,0.000885,0,0
0:0:37.711,59.9398,7.6325,0,0.000885,0,0
0:0:38.207,60.8205,7.74281,0,0.000885,0,0
0:0:38.703,62.2262,7.92208,0,0.000885,0,0
0:0:39.200,63.0491,8.0255,0,0.000885,0,0
0:0:39.697,63.9298,8.14271,0,0.000885,0,0
0:0:40.205,65.3933,8.32887,0,0.000885,0,0
0:0:40.709,65.9226,8.39092,0,0.000885,0,0
0:0:41.214,67.2705,8.56329,0,0.000885,0,0
0:0:41.712,68.6805,8.74255,0,0.000885,0,0
0:0:42.208,69.0898,8.79771,0,0.000885,0,0
0:0:42.706,69.5613,8.85976,0,0.000885,0,0
0:0:43.203,71.2605,9.0735,0,0.000885,0,0
0:0:43.701,71.9055,9.15624,0,0.000885,0,0
0:0:44.199,72.3726,9.21829,0,0.000885,0,0
0:0:44.697,74.0762,9.43203,0,0.000885,0,0
0:0:45.200,74.7212,9.51477,0,0.000885,0,0
0:0:45.708,75.4819,9.61129,0,0.000885,0,0
0:0:46.213,76.9498,9.79745,0,0.000885,0,0
0:0:46.713,78.2398,9.96292,0,0.000885,0,0
0:0:47.212,79.0627,10.0663,0,0.000885,0,0
0:0:47.710,80.0591,10.1905,0,0.000885,0,0
0:0:48.208,81.2912,10.349,0,0.000885,0,0
0:0:48.704,81.4069,10.3628,0,0.000885,0,0
0:0:49.203,82.5234,10.5076,0,0.000885,0,0
0:0:49.701,83.8712,10.68,0,0.000885,0,0
0:0:50.206,85.0411,10.8248,0,0.000885,0,0
0:0:50.713,86.3934,10.9971,0,0.000885,0,0
0:0:51.218,87.2118,11.1075,0,0.000885,0,0
0:0:51.722,87.5632,11.1488,0,0.000885,0,0
0:0:52.220,88.6219,11.2867,0,0.000885,0,0
0:0:52.720,89.8541,11.4384,0,0.000885,0,0
0:0:53.216,90.9083,11.5763,0,0.000885,0,0
0:0:53.713,91.7312,11.6797,0,0.000885,0,0
0:0:54.209,92.6698,11.7969,0,0.000885,0,0
0:0:54.708,93.3726,11.8866,0,0.000885,0,0
0:0:55.205,94.6048,12.0451,0,0.000885,0,0
0:0:55.711,95.2498,12.1279,0,0.000885,0,0
0:0:56.216,96.4819,12.2865,0,0.000885,0,0
0:0:56.721,97.5362,12.4175,0,0.000885,0,0
0:0:57.219,98.6482,12.5622,0,0.000885,0,0
0:0:57.716,99.7069,12.6932,0,0.000885,0,0
0:0:58.212,100.645,12.8174,0,0.000885,0,0
0:0:58.709,101.29,12.8932,0,0.000885,0,0
0:0:59.206,102.46,13.0449,0,0.000885,0,0
0:0:59.702,103.577,13.1897,0,0.000885,0,0
0:1:0.208,104.106,13.2517,0,0.000885,0,0
0:1:0.715,105.748,13.4655,0,0.000885,0,0
0:1:1.217,106.277,13.5344,0,0.000885,0,0
0:1:1.718,107.038,13.6309,0,0.000885,0,0
0:1:2.216,108.505,13.8171,0,0.000885,0,0
0:1:2.711,109.15,13.8998,0,0.000885,0,0
0:1:3.208,110.027,14.0101,0,0.000885,0,0
0:1:3.704,111.085,14.1411,0,0.000885,0,0
0:1:4.201,112.549,14.3273,0,0.000885,0,0
0:1:4.700,113.959,14.5066,0,0.000885,0,0
0:1:5.207,114.484,14.5755,0,0.000885,0,0
0:1:5.712,115.071,14.6514,0,0.000885,0,0
0:1:6.216,116.539,14.8375,0,0.000885,0,0
0:1:6.714,117.42,14.9478,0,0.000885,0,0
0:1:7.210,118.007,15.0237,0,0.000885,0,0
0:1:7.706,118.71,15.1133,0,0.000885,0,0
0:1:8.204,120.115,15.2926,0,0.000885,0,0
0:1:8.701,121.347,15.4512,0,0.000885,0,0
0:1:9.196,122.286,15.5684,0,0.000885,0,0
0:1:9.706,123.34,15.7063,0,0.000885,0,0
0:1:10.211,123.46,15.72,0,0.000885,0,0
0:1:10.716,124.572,15.8579,0,0.000885,0,0
0:1:11.221,126.098,16.0579,0,0.000885,0,0
0:1:11.720,126.743,16.1406,0,0.000885,0,0
0:1:12.218,128.269,16.3337,0,0.000885,0,0
0:1:12.716,128.678,16.3819,0,0.000885,0,0
0:1:13.213,130.146,16.5681,0,0.000885,0,0
0:1:13.709,130.675,16.637,0,0.000885,0,0
0:1:14.207,131.61,16.7543,0,0.000885,0,0
0:1:14.704,133.077,16.9473,0,0.000885,0,0
0:1:15.207,133.722,17.0232,0,0.000885,0,0
0:1:15.713,134.719,17.1542,0,0.000885,0,0
0:1:16.218,136.302,17.3541,0,0.000885,0,0
0:1:16.719,137.01,17.4437,0,0.000885,0,0
0:1:17.215,137.77,17.5403,0,0.000885,0,0
0:1:17.713,138.3,17.6092,0,0.000885,0,0
0:1:18.211,139.59,17.7747,0,0.000885,0,0
0:1:18.708,140.586,17.8988,0,0.000885,0,0
0:1:19.205,141.289,17.9884,0,0.000885,0,0
0:1:19.704,142.579,18.1539,0,0.000885,0,0
0:1:20.205,143.811,18.3125,0,0.000885,0,0
0:1:20.713,144.75,18.4297,0,0.000885,0,0
0:1:21.216,145.688,18.5469,0,0.000885,0,0
0:1:21.719,146.511,18.6572,0,0.000885,0,0
0:1:22.216,147.565,18.7882,0,0.000885,0,0
0:1:22.714,149.029,18.9744,0,0.000885,0,0
0:1:23.210,149.322,19.0157,0,0.000885,0,0
0:1:23.709,150.203,19.1261,0,0.000885,0,0
0:1:24.204,151.613,19.3053,0,0.000885,0,0
0:1:24.703,152.961,19.4777,0,0.000885,0,0
0:1:25.209,153.49,19.5397,0,0.000885,0,0
0:1:25.716,154.309,19.6501,0,0.000885,0,0
0:1:26.222,155.305,19.7742,0,0.000885,0,0
0:1:26.725,156.422,19.919,0,0.000885,0,0
0:1:27.223,157.24,20.0224,0,0.000885,0,0
0:1:27.721,158.472,20.1741,0,0.000885,0,0
0:1:28.216,158.944,20.2361,0,0.000885,0,0
0:1:28.714,160.234,20.4016,0,0.000885,0,0
0:1:29.212,161.466,20.5602,0,0.000885,0,0
0:1:29.710,162.52,20.6912,0,0.000885,0,0
0:1:30.217,163.517,20.8222,0,0.000885,0,0
0:1:30.723,164.046,20.8842,0,0.000885,0,0
0:1:31.227,165.745,21.1049,0,0.000885,0,0
0:1:31.724,166.039,21.1393,0,0.000885,0,0
0:1:32.219,166.684,21.2221,0,0.000885,0,0
0:1:32.719,168.561,21.4634,0,0.000885,0,0
0:1:33.216,169.09,21.5323,0,0.000885,0,0
0:1:33.716,170.202,21.6702,0,0.000885,0,0
0:1:34.213,171.377,21.8219,0,0.000885,0,0
0:1:34.711,172.2,21.9253,0,0.000885,0,0
0:1:35.215,172.551,21.9667,0,0.000885,0,0
0:1:35.723,173.663,22.1115,0,0.000885,0,0
0:1:36.227,174.544,22.2218,0,0.000885,0,0
0:1:36.727,175.892,22.3942,0,0.000885,0,0
0:1:37.227,176.95,22.5321,0,0.000885,0,0
0:1:37.724,178.356,22.7113,0,0.000885,0,0
0:1:38.221,178.885,22.7734,0,0.000885,0,0
0:1:38.719,180.233,22.9458,0,0.000885,0,0
0:1:39.215,180.82,23.0216,0,0.000885,0,0
0:1:39.714,182.168,23.194,0,0.000885,0,0
0:1:40.211,183.107,23.3112,0,0.000885,0,0
0:1:40.719,184.103,23.4422,0,0.000885,0,0
0:1:41.224,184.926,23.5456,0,0.000885,0,0
0:1:41.727,185.98,23.6766,0,0.000885,0,0
0:1:42.224,187.212,23.8352,0,0.000885,0,0
0:1:42.723,187.742,23.9041,0,0.000885,0,0
0:1:43.220,188.267,23.9731,0,0.000885,0,0
0:1:43.719,189.85,24.173,0,0.000885,0,0
0:1:44.214,190.202,24.2144,0,0.000885,0,0
0:1:44.712,191.318,24.3592,0,0.000885,0,0
0:1:45.209,192.492,24.5109,0,0.000885,0,0
0:1:45.710,193.956,24.697,0,0.000885,0,0
0:1:46.213,195.072,24.8349,0,0.000885,0,0
0:1:46.712,195.717,24.9177,0,0.000885,0,0
0:1:47.208,197.185,25.1038,0,0.000885,0,0
0:1:47.704,198.062,25.221,0,0.000885,0,0
0:1:48.207,198.591,25.2831,0,0.000885,0,0
0:1:48.710,199.414,25.3865,0,0.000885,0,0
0:1:49.205,200.704,25.552,0,0.000885,0,0
0:1:49.697,201.349,25.6347,0,0.000885,0,0
0:1:50.200,202.87,25.8278,0,0.000885,0,0
0:1:50.706,203.751,25.945,0,0.000885,0,0
0:1:51.205,204.396,26.0277,0,0.000885,0,0
0:1:51.710,205.161,26.1242,0,0.000885,0,0
0:1:52.205,206.393,26.2759,0,0.000885,0,0
0:1:52.697,207.332,26.4,0,0.000885,0,0
0:1:53.204,208.622,26.5655,0,0.000885,0,0
0:1:53.708,209.44,26.6689,0,0.000885,0,0
0:1:54.200,210.263,26.7723,0,0.000885,0,0
0:1:54.706,211.259,26.8964,0,0.000885,0,0
0:1:55.200,212.314,27.0343,0,0.000885,0,0
0:1:55.707,213.488,27.1791,0,0.000885,0,0
0:1:56.205,214.484,27.3101,0,0.000885,0,0
0:1:56.707,215.481,27.4342,0,0.000885,0,0
0:1:57.199,216.655,27.5859,0,0.000885,0,0
0:1:57.705,217.416,27.6825,0,0.000885,0,0
0:1:58.195,218.061,27.7652,0,0.000885,0,0
0:1:58.690,219.062,27.8893,0,0.000885,0,0
0:1:59.183,220,28.0134,0,0.000885,0,0
0:1:59.677,220.997,28.1375,0,0.000885,0,0
0:2:0.171,221.993,28.2616,0,0.000885,0,0
0:2:0.674,222.46,28.3237,0,0.000885,0,0
0:2:1.174,223.634,28.4753,0,0.000885,0,0
0:2:1.675,225.276,28.6822,0,0.000885,0,0
0:2:2.168,225.921,28.7649,0,0.000885,0,0
0:2:2.663,227.095,28.9166,0,0.000885,0,0
0:2:3.156,228.327,29.0683,0,0.000885,0,0
0:2:3.651,229.146,29.1786,0,0.000885,0,0
0:2:4.143,229.969,29.282,0,0.000885,0,0
0:2:4.638,230.729,29.3786,0,0.000885,0,0
0:2:5.141,231.61,29.4889,0,0.000885,0,0
0:2:5.645,232.549,29.6061,0,0.000885,0,0
0:2:6.144,234.074,29.806,0,0.000885,0,0
0:2:6.639,235.013,29.9232,0,0.000885,0,0
0:2:7.134,235.422,29.9784,0,0.000885,0,0
0:2:7.627,236.712,30.137,0,0.000885,0,0
0:2:8.122,237.593,30.2542,0,0.000885,0,0
0:2:8.615,238.941,30.4197,0,0.000885,0,0
0:2:9.110,239.47,30.4886,0,0.000885,0,0
0:2:9.601,240.466,30.6196,0,0.000885,0,0
0:2:10.109,241.814,30.792,0,0.000885,0,0
0:2:10.612,242.286,30.8471,0,0.000885,0,0
0:2:11.116,243.398,30.9919,0,0.000885,0,0
0:2:11.616,244.163,31.0885,0,0.000885,0,0
0:2:12.111,245.275,31.2264,0,0.000885,0,0
0:2:12.606,246.507,31.3849,0,0.000885,0,0
0:2:13.097,247.681,31.5366,0,0.000885,0,0
0:2:13.603,248.793,31.6745,0,0.000885,0,0
0:2:14.106,249.732,31.7986,0,0.000885,0,0
0:2:14.600,250.497,31.8951,0,0.000885,0,0
0:2:15.093,251.142,31.9779,0,0.000885,0,0
0:2:15.595,252.254,32.1158,0,0.000885,0,0
0:2:16.097,253.193,32.2399,0,0.000885,0,0
0:2:16.598,254.251,32.3709,0,0.000885,0,0
0:2:17.115,255.421,32.5226,0,0.000885,0,0
0:2:17.609,256.244,32.626,0,0.000885,0,0
0:2:18.102,257.298,32.757,0,0.000885,0,0
0:2:18.608,258.473,32.9087,0,0.000885,0,0
0:2:19.110,259.176,32.9983,0,0.000885,0,0
0:2:19.606,260.234,33.1362,0,0.000885,0,0
0:2:20.109,261.289,33.2672,0,0.000885,0,0
0:2:20.613,262.521,33.4258,0,0.000885,0,0
0:2:21.113,262.636,33.4396,0,0.000885,0,0
0:2:21.607,264.162,33.6326,0,0.000885,0,0
0:2:22.111,265.216,33.7705,0,0.000885,0,0
0:2:22.615,266.275,33.9015,0,0.000885,0,0
0:2:23.110,266.92,33.9843,0,0.000885,0,0
0:2:23.602,267.974,34.1222,0,0.000885,0,0
0:2:24.097,269.5,34.3152,0,0.000885,0,0
0:2:24.599,270.087,34.391,0,0.000885,0,0
0:2:25.110,270.963,34.5014,0,0.000885,0,0
0:2:25.615,272.022,34.6324,0,0.000885,0,0
0:2:26.115,272.667,34.7151,0,0.000885,0,0
0:2:26.615,274.073,34.8944,0,0.000885,0,0
0:2:27.109,275.189,35.0392,0,0.000885,0,0
0:2:27.613,276.186,35.1633,0,0.000885,0,0
0:2:28.107,277.004,35.2667,0,0.000885,0,0
0:2:28.611,277.827,35.377,0,0.000885,0,0
0:2:29.103,279.059,35.5287,0,0.000885,0,0
0:2:29.597,279.237,35.5563,0,0.000885,0,0
0:2:30.093,280.465,35.7079,0,0.000885,0,0
0:2:30.597,282.168,35.9286,0,0.000885,0,0
0:2:31.098,282.987,36.032,0,0.000885,0,0
0:2:31.598,283.516,36.1009,0,0.000885,0,0
0:2:32.103,284.633,36.2388,0,0.000885,0,0
0:2:32.610,285.451,36.3423,0,0.000885,0,0
0:2:33.102,287.271,36.5767,0,0.000885,0,0
0:2:33.605,287.973,36.6663,0,0.000885,0,0
0:2:34.110,288.739,36.7628,0,0.000885,0,0
0:2:34.613,289.735,36.887,0,0.000885,0,0
0:2:35.110,290.967,37.0455,0,0.000885,0,0
0:2:35.615,292.315,37.2179,0,0.000885,0,0
0:2:36.116,293.133,37.3213,0,0.000885,0,0
0:2:36.616,293.427,37.3627,0,0.000885,0,0
0:2:37.111,295.011,37.5626,0,0.000885,0,0
0:2:37.601,294.953,37.5557,0,0.000885,0,0
0:2:38.098,296.478,37.7488,0,0.000885,0,0
0:2:38.601,297.533,37.8798,0,0.000885,0,0
0:2:39.104,298.062,37.9487,0,0.000885,0,0
0:2:39.597,299.468,38.128,0,0.000885,0,0
0:2:40.102,300.406,38.2521,0,0.000885,0,0
0:2:40.604,301.407,38.3762,0,0.000885,0,0
0:2:41.103,302.052,38.459,0,0.000885,0,0
0:2:41.599,303.28,38.6175,0,0.000885,0,0
0:2:42.094,305.041,38.8382,0,0.000885,0,0
0:2:42.588,305.335,38.8795,0,0.000885,0,0
0:2:43.093,306.158,38.983,0,0.000885,0,0
0:2:43.586,307.212,39.114,0,0.000885,0,0
0:2:44.080,308.386,39.2656,0,0.000885,0,0
0:2:44.574,309.263,39.376,0,0.000885,0,0
0:2:45.078,310.321,39.5139,0,0.000885,0,0
0:2:45.580,311.318,39.638,0,0.000885,0,0
0:2:46.082,312.314,39.7621,0,0.000885,0,0
0:2:46.578,313.195,39.8793,0,0.000885,0,0
0:2:47.073,314.076,39.9896,0,0.000885,0,0
0:2:47.569,315.539,40.1758,0,0.000885,0,0
0:2:48.061,316.068,40.2447,0,0.000885,0,0
0:2:48.557,316.771,40.3343,0,0.000885,0,0
0:2:49.051,317.768,40.4584,0,0.000885,0,0
0:2:49.546,319.293,40.6515,0,0.000885,0,0
0:2:50.044,319.881,40.7273,0,0.000885,0,0
0:2:50.551,321.286,40.9066,0,0.000885,0,0
0:2:51.053,321.873,40.9824,0,0.000885,0,0
0:2:51.552,323.457,41.1824,0,0.000885,0,0
0:2:52.045,323.635,41.2031,0,0.000885,0,0
0:2:52.540,325.334,41.4237,0,0.000885,0,0
0:2:53.034,325.45,41.4375,0,0.000885,0,0
0:2:53.528,326.33,41.5478,0,0.000885,0,0
0:2:54.023,327.505,41.6995,0,0.000885,0,0
0:2:54.517,327.856,41.7409,0,0.000885,0,0
0:2:55.015,329.733,41.9822,0,0.000885,0,0
0:2:55.519,331.139,42.1614,0,0.000885,0,0
0:2:56.020,331.962,42.2649,0,0.000885,0,0
0:2:56.522,332.371,42.32,0,0.000885,0,0
0:2:57.015,333.723,42.4924,0,0.000885,0,0
0:2:57.510,335.071,42.6648,0,0.000885,0,0
0:2:58.001,335.716,42.7475,0,0.000885,0,0
0:2:58.504,336.713,42.8716,0,0.000885,0,0
0:2:59.007,337.593,42.9819,0,0.000885,0,0
0:2:59.514,338.705,43.1267,0,0.000885,0,0
0:3:0.004,339.119,43.175,0,0.000885,0,0
0:3:0.507,340.409,43.3404,0,0.000885,0,0
0:3:1.011,341.463,43.4783,0,0.000885,0,0
0:3:1.512,342.224,43.5749,0,0.000885,0,0
0:3:2.004,343.87,43.7817,0,0.000885,0,0
0:3:2.499,344.279,43.8369,0,0.000885,0,0
0:3:2.991,345.333,43.9679,0,0.000885,0,0
0:3:3.488,346.214,44.0782,0,0.000885,0,0
0:3:3.981,347.037,44.1885,0,0.000885,0,0
0:3:4.475,348.678,44.3953,0,0.000885,0,0
0:3:4.978,349.203,44.4643,0,0.000885,0,0
0:3:5.481,350.907,44.678,0,0.000885,0,0
0:3:5.982,351.374,44.7401,0,0.000885,0,0
0:3:6.478,352.019,44.8228,0,0.000885,0,0
0:3:6.973,352.9,44.9331,0,0.000885,0,0
0:3:7.466,353.838,45.0503,0,0.000885,0,0
0:3:7.961,355.244,45.2296,0,0.000885,0,0
0:3:8.455,355.715,45.2917,0,0.000885,0,0
0:3:8.951,357.121,45.4709,0,0.000885,0,0
0:3:9.443,358.18,45.6019,0,0.000885,0,0
0:3:9.940,359.234,45.7398,0,0.000885,0,0
0:3:10.445,360.057,45.8432,0,0.000885,0,0
0:3:10.945,361.053,45.9673,0,0.000885,0,0
0:3:11.445,362.285,46.1259,0,0.000885,0,0
0:3:11.938,363.104,46.2293,0,0.000885,0,0
0:3:12.432,363.985,46.3466,0,0.000885,0,0
0:3:12.926,364.745,46.4431,0,0.000885,0,0
0:3:13.421,365.746,46.5672,0,0.000885,0,0
0:3:13.914,366.622,46.6775,0,0.000885,0,0
0:3:14.405,367.503,46.7947,0,0.000885,0,0
0:3:14.899,368.5,46.9188,0,0.000885,0,0
0:3:15.402,369.38,47.0291,0,0.000885,0,0
0:3:15.904,371.435,47.2911,0,0.000885,0,0
0:3:16.403,371.902,47.3532,0,0.000885,0,0
0:3:16.897,372.49,47.429,0,0.000885,0,0
0:3:17.393,373.664,47.5738,0,0.000885,0,0
0:3:17.886,374.834,47.7255,0,0.000885,0,0
0:3:18.382,375.715,47.8358,0,0.000885,0,0
0:3:18.876,377.062,48.0082,0,0.000885,0,0
0:3:19.370,377.827,48.1047,0,0.000885,0,0
0:3:19.871,378.646,48.2081,0,0.000885,0,0
0:3:20.375,379.06,48.2633,0,0.000885,0,0
0:3:20.874,380.35,48.4288,0,0.000885,0,0
0:3:21.371,381.755,48.608,0,0.000885,0,0
0:3:21.865,382.636,48.7184,0,0.000885,0,0
0:3:22.358,382.93,48.7528,0,0.000885,0,0
0:3:22.853,384.513,48.9597,0,0.000885,0,0
0:3:23.346,385.567,49.0907,0,0.000885,0,0
0:3:23.842,386.39,49.1941,0,0.000885,0,0
0:3:24.335,387.445,49.332,0,0.000885,0,0
0:3:24.832,388.267,49.4354,0,0.000885,0,0
0:3:25.335,388.619,49.4837,0,0.000885,0,0
0:3:25.836,390.67,49.7388,0,0.000885,0,0
0:3:26.335,391.141,49.8008,0,0.000885,0,0
0:3:26.829,392.315,49.9525,0,0.000885,0,0
0:3:27.324,393.192,50.0628,0,0.000885,0,0
0:3:27.816,394.544,50.2352,0,0.000885,0,0
0:3:28.309,395.482,50.3524,0,0.000885,0,0
0:3:28.804,396.065,50.4283,0,0.000885,0,0
0:3:29.319,396.946,50.5386,0,0.000885,0,0
0:3:29.813,397.827,50.6558,0,0.000885,0,0
0:3:30.316,398.823,50.7799,0,0.000885,0,0
0:3:30.819,400.171,50.9523,0,0.000885,0,0
0:3:31.318,400.758,51.0281,0,0.000885,0,0
0:3:31.811,402.168,51.2074,0,0.000885,0,0
0:3:32.317,403.28,51.3453,0,0.000885,0,0
0:3:32.819,403.81,51.4142,0,0.000885,0,0
0:3:33.311,404.922,51.559,0,0.000885,0,0
0:3:33.805,406.096,51.7038,0,0.000885,0,0
0:3:34.299,407.328,51.8624,0,0.000885,0,0
0:3:34.804,407.68,51.9106,0,0.000885,0,0
0:3:35.304,408.56,52.0209,0,0.000885,0,0
0:3:35.806,409.966,52.2002,0,0.000885,0,0
0:3:36.301,410.731,52.2967,0,0.000885,0,0
0:3:36.796,411.843,52.4346,0,0.000885,0,0
0:3:37.300,412.43,52.5105,0,0.000885,0,0
0:3:37.814,414.014,52.7173,0,0.000885,0,0
0:3:38.317,414.601,52.7863,0,0.000885,0,0
0:3:38.811,415.949,52.9586,0,0.000885,0,0
0:3:39.317,416.945,53.0896,0,0.000885,0,0
0:3:39.817,417.942,53.2137,0,0.000885,0,0
0:3:40.320,418.822,53.3241,0,0.000885,0,0
0:3:40.821,419.761,53.4482,0,0.000885,0,0
0:3:41.317,420.815,53.5792,0,0.000885,0,0
0:3:41.811,422.11,53.7446,0,0.000885,0,0
0:3:42.306,422.634,53.8136,0,0.000885,0,0
0:3:42.801,423.164,53.8756,0,0.000885,0,0
0:3:43.296,424.569,54.0549,0,0.000885,0,0
0:3:43.790,425.566,54.1859,0,0.000885,0,0
0:3:44.285,426.567,54.31,0,0.000885,0,0
0:3:44.778,427.149,54.3858,0,0.000885,0,0
0:3:45.281,428.617,54.572,0,0.000885,0,0
0:3:45.785,429.204,54.6478,0,0.000885,0,0
0:3:46.285,430.672,54.834,0,0.000885,0,0
0:3:46.778,431.669,54.965,0,0.000885,0,0
0:3:47.273,432.02,55.0064,0,0.000885,0,0
0:3:47.766,433.426,55.1856,0,0.000885,0,0
0:3:48.260,434.484,55.3166,0,0.000885,0,0
0:3:48.754,434.716,55.3511,0,0.000885,0,0
0:3:49.248,436.362,55.558,0,0.000885,0,0
0:3:49.754,437.652,55.7234,0,0.000885,0,0
0:3:50.255,438.47,55.8268,0,0.000885,0,0
0:3:50.756,439.293,55.9303,0,0.000885,0,0
0:3:51.250,439.996,56.0199,0,0.000885,0,0
0:3:51.743,440.992,56.1509,0,0.000885,0,0
0:3:52.237,442.051,56.2819,0,0.000885,0,0
0:3:52.731,442.634,56.3577,0,0.000885,0,0
0:3:53.225,444.044,56.537,0,0.000885,0,0
0:3:53.719,444.862,56.6404,0,0.000885,0,0
0:3:54.210,445.921,56.7783,0,0.000885,0,0
0:3:54.712,446.624,56.868,0,0.000885,0,0
0:3:55.217,447.798,57.0127,0,0.000885,0,0
0:3:55.717,448.674,57.13,0,0.000885,0,0
0:3:56.223,450.142,57.3161,0,0.000885,0,0
0:3:56.719,451.081,57.4333,0,0.000885,0,0
0:3:57.222,451.962,57.5436,0,0.000885,0,0
0:3:57.717,453.309,57.716,0,0.000885,0,0
0:3:58.221,453.661,57.7643,0,0.000885,0,0
0:3:58.716,454.657,57.8884,0,0.000885,0,0
0:3:59.208,456.009,58.0608,0,0.000885,0,0
0:3:59.704,456.534,58.1297,0,0.000885,0,0
0:4:0.207,457.237,58.2193,0,0.000885,0,0
0:4:0.709,458.647,58.3986,0,0.000885,0,0
0:4:1.210,459.234,58.4744,0,0.000885,0,0
0:4:1.704,461.112,58.7089,0,0.000885,0,0
0:4:2.198,461.757,58.7916,0,0.000885,0,0
0:4:2.703,462.811,58.9295,0,0.000885,0,0
0:4:3.206,463.162,58.9709,0,0.000885,0,0
0:4:3.700,464.221,59.1088,0,0.000885,0,0
0:4:4.204,465.511,59.2673,0,0.000885,0,0
0:4:4.696,466.681,59.419,0,0.000885,0,0
0:4:5.199,467.619,59.5362,0,0.000885,0,0
0:4:5.702,468.558,59.6603,0,0.000885,0,0
0:4:6.201,469.145,59.7362,0,0.000885,0,0
0:4:6.698,470.435,59.8948,0,0.000885,0,0
0:4:7.202,471.431,60.0258,0,0.000885,0,0
0:4:7.713,472.784,60.1981,0,0.000885,0,0
0:4:8.207,473.135,60.2395,0,0.000885,0,0
0:4:8.703,474.247,60.3843,0,0.000885,0,0
0:4:9.206,475.128,60.4946,0,0.000885,0,0
0:4:9.708,476.769,60.7014,0,0.000885,0,0
0:4:10.210,477.356,60.7773,0,0.000885,0,0
0:4:10.709,478.531,60.929,0,0.000885,0,0
0:4:11.203,479.118,61.0048,0,0.000885,0,0
0:4:11.698,480.408,61.1703,0,0.000885,0,0
0:4:12.201,481.578,61.3151,0,0.000885,0,0
0:4:12.714,482.459,61.4254,0,0.000885,0,0
0:4:13.218,483.281,61.5357,0,0.000885,0,0
0:4:13.711,484.042,61.6322,0,0.000885,0,0
0:4:14.215,484.923,61.7426,0,0.000885,0,0
0:4:14.715,486.449,61.9356,0,0.000885,0,0
0:4:15.219,487.445,62.0666,0,0.000885,0,0
0:4:15.720,488.206,62.1631,0,0.000885,0,0
0:4:16.226,489.086,62.2734,0,0.000885,0,0
0:4:16.722,490.319,62.432,0,0.000885,0,0
0:4:17.215,491.315,62.5561,0,0.000885,0,0
0:4:17.710,491.96,62.6389,0,0.000885,0,0
0:4:18.223,492.783,62.7423,0,0.000885,0,0
0:4:18.719,493.837,62.8802,0,0.000885,0,0
0:4:19.212,495.185,63.0457,0,0.000885,0,0
0:4:19.706,495.714,63.1146,0,0.000885,0,0
0:4:20.211,497.12,63.2939,0,0.000885,0,0
0:4:20.712,498.121,63.4249,0,0.000885,0,0
0:4:21.214,498.881,63.5214,0,0.000885,0,0
0:4:21.706,500.056,63.6662,0,0.000885,0,0
0:4:22.201,501.11,63.8041,0,0.000885,0,0
0:4:22.694,501.639,63.873,0,0.000885,0,0
0:4:23.188,502.694,64.004,0,0.000885,0,0
0:4:23.683,504.393,64.2247,0,0.000885,0,0
0:4:24.175,504.571,64.2453,0,0.000885,0,0
0:4:24.668,505.509,64.3626,0,0.000885,0,0
0:4:25.172,506.563,64.5005,0,0.000885,0,0
0:4:25.676,507.974,64.6797,0,0.000885,0,0
0:4:26.175,509.206,64.8314,0,0.000885,0,0
0:4:26.669,509.851,64.9141,0,0.000885,0,0
0:4:27.163,510.611,65.0107,0,0.000885,0,0
0:4:27.657,511.434,65.121,0,0.000885,0,0
0:4:28.148,512.956,65.314,0,0.000885,0,0
0:4:28.654,513.485,65.3761,0,0.000885,0,0
0:4:29.147,514.659,65.5278,0,0.000885,0,0
0:4:29.648,515.54,65.6381,0,0.000885,0,0
0:4:30.152,516.301,65.7346,0,0.000885,0,0
0:4:30.654,517.826,65.9346,0,0.000885,0,0
0:4:31.151,518.823,66.0587,0,0.000885,0,0
0:4:31.647,519.174,66.1,0,0.000885,0,0
0:4:32.141,520.291,66.2448,0,0.000885,0,0
0:4:32.636,521.461,66.3965,0,0.000885,0,0
0:4:33.128,522.226,66.493,0,0.000885,0,0
0:4:33.623,523.102,66.6034,0,0.000885,0,0
0:4:34.126,524.512,66.7826,0,0.000885,0,0
0:4:34.630,525.041,66.8516,0,0.000885,0,0
0:4:35.134,525.624,66.9274,0,0.000885,0,0
0:4:35.636,527.15,67.1205,0,0.000885,0,0
0:4:36.136,528.676,67.3135,0,0.000885,0,0
0:4:36.631,529.321,67.3963,0,0.000885,0,0
0:4:37.126,530.437,67.5341,0,0.000885,0,0
0:4:37.629,531.082,67.6169,0,0.000885,0,0
0:4:38.125,532.078,67.7479,0,0.000885,0,0
0:4:38.615,533.542,67.934,0,0.000885,0,0
0:4:39.122,534.543,68.0581,0,0.000885,0,0
0:4:39.624,535.068,68.1271,0,0.000885,0,0
0:4:40.128,536.242,68.2788,0,0.000885,0,0
0:4:40.631,537.296,68.4098,0,0.000885,0,0
0:4:41.132,538.119,68.5132,0,0.000885,0,0
0:4:41.625,538.706,68.589,0,0.000885,0,0
0:4:42.118,540.29,68.789,0,0.000885,0,0
0:4:42.622,540.877,68.8648,0,0.000885,0,0
0:4:43.114,541.638,68.9614,0,0.000885,0,0
0:4:43.607,542.634,69.0924,0,0.000885,0,0
0:4:44.101,544.747,69.3613,0,0.000885,0,0
0:4:44.605,545.156,69.4095,0,0.000885,0,0
0:4:45.106,545.801,69.4923,0,0.000885,0,0
0:4:45.606,546.682,69.6026,0,0.000885,0,0
0:4:46.100,547.914,69.7612,0,0.000885,0,0
0:4:46.595,548.733,69.8646,0,0.000885,0,0
0:4:47.089,550.085,70.0369,0,0.000885,0,0
0:4:47.583,550.436,70.0852,0,0.000885,0,0
0:4:48.076,551.375,70.2024,0,0.000885,0,0
0:4:48.572,553.016,70.4093,0,0.000885,0,0
0:4:49.066,554.07,70.5472,0,0.000885,0,0
0:4:49.561,554.542,70.6092,0,0.000885,0,0
0:4:50.066,555.654,70.7471,0,0.000885,0,0
0:4:50.567,556.593,70.8643,0,0.000885,0,0
0:4:51.068,557.883,71.0298,0,0.000885,0,0
0:4:51.561,558.648,71.1263,0,0.000885,0,0
0:4:52.055,559.408,71.2228,0,0.000885,0,0
0:4:52.548,560.289,71.3401,0,0.000885,0,0
0:4:53.042,561.463,71.4848,0,0.000885,0,0
0:4:53.535,562.282,71.5952,0,0.000885,0,0
0:4:54.030,563.456,71.7399,0,0.000885,0,0
0:4:54.524,564.453,71.8709,0,0.000885,0,0
0:4:55.027,565.276,71.9744,0,0.000885,0,0
0:4:55.531,566.036,72.0709,0,0.000885,0,0
0:4:56.031,567.384,72.2433,0,0.000885,0,0
0:4:56.524,568.149,72.3398,0,0.000885,0,0
0:4:57.027,569.377,72.4984,0,0.000885,0,0
0:4:57.518,570.315,72.6156,0,0.000885,0,0
0:4:58.013,571.196,72.7259,0,0.000885,0,0
0:4:58.516,572.428,72.8845,0,0.000885,0,0
0:4:59.011,573.954,73.0775,0,0.000885,0,0
0:4:59.513,574.421,73.1396,0,0.000885,0,0
0:5:0.016,574.95,73.2016,0,0.000885,0,0
0:5:0.516,575.947,73.3326,0,0.000885,0,0
0:5:1.010,576.885,73.4498,0,0.000885,0,0
0:5:1.505,577.708,73.5533,0,0.000885,0,0
0:5:1.998,579.701,73.8084,0,0.000885,0,0
0:5:2.492,580.11,73.8635,0,0.000885,0,0
0:5:2.986,581.049,73.9807,0,0.000885,0,0
0:5:3.482,582.401,74.1531,0,0.000885,0,0
0:5:3.974,582.633,74.1807,0,0.000885,0,0
0:5:4.471,583.691,74.3186,0,0.000885,0,0
0:5:4.976,585.212,74.5116,0,0.000885,0,0
0:5:5.476,586.271,74.6495,0,0.000885,0,0
0:5:5.977,586.738,74.7047,0,0.000885,0,0
0:5:6.472,587.797,74.8426,0,0.000885,0,0
0:5:6.965,588.909,74.9805,0,0.000885,0,0
0:5:7.458,589.79,75.0977,0,0.000885,0,0
0:5:7.952,590.025,75.1253,0,0.000885,0,0
0:5:8.448,591.195,75.277,0,0.000885,0,0
0:5:8.944,592.432,75.4286,0,0.000885,0,0
0:5:9.440,593.664,75.5872,0,0.000885,0,0
0:5:9.945,595.07,75.7665,0,0.000885,0,0
0:5:10.449,595.657,75.8423,0,0.000885,0,0
0:5:10.954,597.009,76.0147,0,0.000885,0,0
0:5:11.451,597.832,76.1181,0,0.000885,0,0
0:5:11.948,598.828,76.2422,0,0.000885,0,0
0:5:12.443,599.416,76.3181,0,0.000885,0,0
0:5:12.939,600.648,76.4766,0,0.000885,0,0
0:5:13.435,601.413,76.5732,0,0.000885,0,0
0:5:13.932,602.587,76.7249,0,0.000885,0,0
0:5:14.438,603.757,76.8696,0,0.000885,0,0
0:5:14.943,604.931,77.0213,0,0.000885,0,0
0:5:15.446,605.519,77.0972,0,0.000885,0,0
0:5:15.943,605.99,77.1592,0,0.000885,0,0
0:5:16.440,607.28,77.3247,0,0.000885,0,0
0:5:16.935,608.103,77.4281,0,0.000885,0,0
0:5:17.432,608.926,77.5315,0,0.000885,0,0
0:5:17.926,610.332,77.7108,0,0.000885,0,0
0:5:18.421,611.684,77.8832,0,0.000885,0,0
0:5:18.927,613.094,78.0624,0,0.000885,0,0
0:5:19.432,614.09,78.1865,0,0.000885,0,0
0:5:19.936,614.442,78.2348,0,0.000885,0,0
0:5:20.437,615.438,78.3589,0,0.000885,0,0
0:5:20.935,616.439,78.4899,0,0.000885,0,0
0:5:21.432,617.32,78.6002,0,0.000885,0,0
0:5:21.928,618.258,78.7174,0,0.000885,0,0
0:5:22.422,619.255,78.8484,0,0.000885,0,0
0:5:22.919,620.02,78.945,0,0.000885,0,0
0:5:23.416,621.016,79.0691,0,0.000885,0,0
0:5:23.913,622.542,79.2621,0,0.000885,0,0
0:5:24.411,623.013,79.3242,0,0.000885,0,0
0:5:24.917,624.246,79.4828,0,0.000885,0,0
0:5:25.419,624.713,79.5379,0,0.000885,0,0
0:5:25.922,626.007,79.7034,0,0.000885,0,0
0:5:26.417,626.301,79.7448,0,0.000885,0,0
0:5:26.914,627.239,79.862,0,0.000885,0,0
0:5:27.410,628.707,80.0481,0,0.000885,0,0
0:5:27.915,629.588,80.1584,0,0.000885,0,0
0:5:28.421,630.469,80.2757,0,0.000885,0,0
0:5:28.917,632.052,80.4756,0,0.000885,0,0
0:5:29.414,633.111,80.6066,0,0.000885,0,0
0:5:29.920,634.343,80.7652,0,0.000885,0,0
0:5:30.423,634.93,80.841,0,0.000885,0,0
0:5:30.927,636.456,81.0341,0,0.000885,0,0
0:5:31.433,637.688,81.1927,0,0.000885,0,0
0:5:31.927,638.097,81.2478,0,0.000885,0,0
0:5:32.421,638.627,81.3099,0,0.000885,0,0
0:5:32.916,639.743,81.4547,0,0.000885,0,0
0:5:33.412,640.446,81.5443,0,0.000885,0,0
0:5:33.907,641.914,81.7305,0,0.000885,0,0
0:5:34.404,642.559,81.8132,0,0.000885,0,0
0:5:34.911,643.969,81.9925,0,0.000885,0,0
0:5:35.414,644.85,82.1028,0,0.000885,0,0
0:5:35.917,645.61,82.1993,0,0.000885,0,0
0:5:36.411,646.433,82.3096,0,0.000885,0,0
0:5:36.906,647.492,82.4406,0,0.000885,0,0
0:5:37.404,648.955,82.6268,0,0.000885,0,0
0:5:37.899,649.018,82.6337,0,0.000885,0,0
0:5:38.395,650.895,82.875,0,0.000885,0,0
0:5:38.891,651.424,82.9439,0,0.000885,0,0
0:5:39.393,652.185,83.0405,0,0.000885,0,0
0:5:39.900,653.711,83.2335,0,0.000885,0,0
0:5:40.403,655.121,83.4128,0,0.000885,0,0
0:5:40.900,655.356,83.4404,0,0.000885,0,0
0:5:41.396,656.295,83.5645,0,0.000885,0,0
0:5:41.894,657.234,83.6817,0,0.000885,0,0
0:5:42.390,657.879,83.7644,0,0.000885,0,0
0:5:42.888,659.347,83.9506,0,0.000885,0,0
0:5:43.384,660.463,84.0954,0,0.000885,0,0
0:5:43.882,661.873,84.2746,0,0.000885,0,0
0:5:44.379,662.047,84.2953,0,0.000885,0,0
0:5:44.887,663.866,84.5228,0,0.000885,0,0
0:5:45.388,664.395,84.5918,0,0.000885,0,0
0:5:45.891,664.982,84.6676,0,0.000885,0,0
0:5:46.387,666.215,84.8262,0,0.000885,0,0
0:5:46.883,667.273,84.9572,0,0.000885,0,0
0:5:47.380,668.328,85.0951,0,0.000885,0,0
0:5:47.875,668.799,85.1571,0,0.000885,0,0
0:5:48.371,670.383,85.3571,0,0.000885,0,0
0:5:48.868,671.148,85.4536,0,0.000885,0,0
0:5:49.363,672.028,85.5639,0,0.000885,0,0
0:5:49.869,673.318,85.7294,0,0.000885,0,0
0:5:50.374,674.199,85.8397,0,0.000885,0,0
0:5:50.878,675.08,85.9569,0,0.000885,0,0
0:5:51.373,675.898,86.0604,0,0.000885,0,0
0:5:51.868,676.721,86.1638,0,0.000885,0,0
0:5:52.365,678.131,86.343,0,0.000885,0,0
0:5:52.860,678.954,86.4465,0,0.000885,0,0
0:5:53.356,680.422,86.6326,0,0.000885,0,0
0:5:53.852,681.067,86.7154,0,0.000885,0,0
0:5:54.357,682.064,86.8464,0,0.000885,0,0
0:5:54.861,683.06,86.9705,0,0.000885,0,0
0:5:55.364,683.709,87.0532,0,0.000885,0,0
0:5:55.862,685.057,87.2256,0,0.000885,0,0
0:5:56.359,685.822,87.3221,0,0.000885,0,0
0:5:56.854,686.525,87.4117,0,0.000885,0,0
0:5:57.351,687.522,87.5358,0,0.000885,0,0
0:5:57.846,688.989,87.722,0,0.000885,0,0
0:5:58.341,689.928,87.8461,0,0.000885,0,0
0:5:58.838,690.222,87.8806,0,0.000885,0,0
0:5:59.339,691.574,88.0529,0,0.000885,0,0
0:5:59.844,692.161,88.1288,0,0.000885,0,0
0:6:0.346,693.687,88.3218,0,0.000885,0,0
0:6:0.847,694.919,88.4804,0,0.000885,0,0
0:6:1.344,695.684,88.5769,0,0.000885,0,0
0:6:1.842,696.565,88.6873,0,0.000885,0,0
0:6:2.336,696.916,88.7355,0,0.000885,0,0
0:6:2.833,698.678,88.9562,0,0.000885,0,0
0:6:3.338,698.971,88.9975,0,0.000885,0,0
0:6:3.835,700.497,89.1906,0,0.000885,0,0
0:6:4.329,701.671,89.3423,0,0.000885,0,0
0:6:4.836,702.432,89.4388,0,0.000885,0,0
0:6:5.339,703.428,89.5629,0,0.000885,0,0
0:6:5.842,704.603,89.7146,0,0.000885,0,0
0:6:6.339,705.426,89.818,0,0.000885,0,0
0:6:6.836,706.306,89.9283,0,0.000885,0,0
0:6:7.334,707.423,90.0731,0,0.000885,0,0
0:6:7.838,708.949,90.2662,0,0.000885,0,0
0:6:8.334,709.242,90.3006,0,0.000885,0,0
0:6:8.838,710.181,90.4247,0,0.000885,0,0
0:6:9.335,710.768,90.5006,0,0.000885,0,0
0:6:9.840,712.409,90.7074,0,0.000885,0,0
0:6:10.346,713.352,90.8246,0,0.000885,0,0
0:6:10.848,714.936,91.0315,0,0.000885,0,0
0:6:11.346,715.052,91.0453,0,0.000885,0,0
0:6:11.841,716.284,91.197,0,0.000885,0,0
0:6:12.336,717.285,91.328,0,0.000885,0,0
0:6:12.833,717.752,91.39,0,0.000885,0,0
0:6:13.337,718.984,91.5417,0,0.000885,0,0
0:6:13.833,719.865,91.6589,0,0.000885,0,0
0:6:14.340,720.803,91.7761,0,0.000885,0,0
0:6:14.844,721.746,91.8933,0,0.000885,0,0
0:6:15.346,723.152,92.0726,0,0.000885,0,0
0:6:15.844,723.797,92.1553,0,0.000885,0,0
0:6:16.338,724.268,92.2174,0,0.000885,0,0
0:6:16.836,726.208,92.4656,0,0.000885,0,0
0:6:17.331,727.146,92.5828,0,0.000885,0,0
0:6:17.828,728.552,92.7621,0,0.000885,0,0
0:6:18.335,729.201,92.8448,0,0.000885,0,0
0:6:18.833,729.962,92.9413,0,0.000885,0,0
0:6:19.336,730.313,92.9896,0,0.000885,0,0
0:6:19.842,731.839,93.1826,0,0.000885,0,0
0:6:20.343,733.191,93.355,0,0.000885,0,0
0:6:20.840,734.072,93.4653,0,0.000885,0,0
0:6:21.336,734.602,93.5343,0,0.000885,0,0
0:6:21.833,735.656,93.6653,0,0.000885,0,0
0:6:22.338,737.595,93.9135,0,0.000885,0,0
0:6:22.833,737.769,93.9342,0,0.000885,0,0
0:6:23.338,738.592,94.0376,0,0.000885,0,0
0:6:23.835,739.294,94.1272,0,0.000885,0,0
0:6:24.340,740.82,94.3272,0,0.000885,0,0
0:6:24.845,741.407,94.3961,0,0.000885,0,0
0:6:25.350,742.582,94.5478,0,0.000885,0,0
0:6:25.849,743.934,94.7202,0,0.000885,0,0
0:6:26.345,744.637,94.8098,0,0.000885,0,0
0:6:26.841,745.46,94.9132,0,0.000885,0,0
0:6:27.337,746.87,95.0925,0,0.000885,0,0
0:6:27.833,747.221,95.1408,0,0.000885,0,0
0:6:28.339,747.982,95.2373,0,0.000885,0,0
0:6:28.835,750.451,95.5475,0,0.000885,0,0
0:6:29.334,750.215,95.52,0,0.000885,0,0
0:6:29.842,751.389,95.6717,0,0.000885,0,0
0:6:30.345,752.563,95.8164,0,0.000885,0,0
0:6:30.845,753.733,95.9681,0,0.000885,0,0
0:6:31.341,754.614,96.0784,0,0.000885,0,0
0:6:31.837,755.731,96.2232,0,0.000885,0,0
0:6:32.342,756.024,96.2577,0,0.000885,0,0
0:6:32.840,757.67,96.4714,0,0.000885,0,0
0:6:33.335,758.195,96.5335,0,0.000885,0,0
0:6:33.834,759.547,96.7059,0,0.000885,0,0
0:6:34.328,759.841,96.7472,0,0.000885,0,0
0:6:34.838,761.718,96.9817,0,0.000885,0,0
0:6:35.340,762.425,97.0713,0,0.000885,0,0
0:6:35.843,763.364,97.1954,0,0.000885,0,0
0:6:36.340,764.124,97.2919,0,0.000885,0,0
0:6:36.835,764.947,97.3953,0,0.000885,0,0
0:6:37.333,766.589,97.6022,0,0.000885,0,0
0:6:37.826,766.882,97.6436,0,0.000885,0,0
0:6:38.333,767.705,97.747,0,0.000885,0,0
0:6:38.840,769.645,97.9952,0,0.000885,0,0
0:6:39.336,769.876,98.0228,0,0.000885,0,0
0:6:39.842,771.58,98.2434,0,0.000885,0,0
0:6:40.347,772.345,98.3399,0,0.000885,0,0
0:6:40.849,772.754,98.3882,0,0.000885,0,0
0:6:41.345,774.164,98.5675,0,0.000885,0,0
0:6:41.841,775.338,98.7191,0,0.000885,0,0
0:6:42.336,776.513,98.8708,0,0.000885,0,0
0:6:42.841,777.216,98.9605,0,0.000885,0,0
0:6:43.338,778.038,99.0639,0,0.000885,0,0
0:6:43.833,778.683,99.1466,0,0.000885,0,0
0:6:44.338,780.031,99.319,0,0.000885,0,0
0:6:44.844,780.97,99.4362,0,0.000885,0,0
0:6:45.348,781.913,99.5534,0,0.000885,0,0
0:6:45.845,783.318,99.7327,0,0.000885,0,0
0:6:46.341,783.848,99.8016,0,0.000885,0,0
0:6:46.838,785.431,100.002,0,0.000885,0,0
0:6:47.343,785.316,99.9878,0,0.000885,0,0
0:6:47.841,786.664,100.16,0,0.000885,0,0
0:6:48.336,788.016,100.333,0,0.000885,0,0
0:6:48.834,788.545,100.401,0,0.000885,0,0
0:6:49.343,790.187,100.608,0,0.000885,0,0
0:6:49.852,790.894,100.698,0,0.000885,0,0
0:6:50.355,791.361,100.76,0,0.000885,0,0
0:6:50.857,793.065,100.974,0,0.000885,0,0
0:6:51.354,793.652,101.05,0,0.000885,0,0
0:6:51.852,794.706,101.187,0,0.000885,0,0
0:6:52.347,795.707,101.312,0,0.000885,0,0
0:6:52.842,796.881,101.463,0,0.000885,0,0
0:6:53.340,798.407,101.656,0,0.000885,0,0
0:6:53.844,798.7,101.691,0,0.000885,0,0
0:6:54.341,799.697,101.822,0,0.000885,0,0
0:6:54.847,800.578,101.932,0,0.000885,0,0
0:6:55.353,801.636,102.07,0,0.000885,0,0
0:6:55.856,801.988,102.111,0,0.000885,0,0
0:6:56.350,803.22,102.27,0,0.000885,0,0
0:6:56.846,805.039,102.497,0,0.000885,0,0
0:6:57.343,805.626,102.573,0,0.000885,0,0
0:6:57.839,806.858,102.732,0,0.000885,0,0
0:6:58.335,807.446,102.808,0,0.000885,0,0
0:6:58.838,807.913,102.87,0,0.000885,0,0
0:6:59.344,809.674,103.09,0,0.000885,0,0
0:6:59.849,810.969,103.256,0,0.000885,0,0
0:7:0.353,811.142,103.277,0,0.000885,0,0
0:7:0.849,811.729,103.352,0,0.000885,0,0
0:7:1.346,813.549,103.587,0,0.000885,0,0
0:7:1.842,814.665,103.725,0,0.000885,0,0
0:7:2.339,815.724,103.863,0,0.000885,0,0
0:7:2.844,816.605,103.973,0,0.000885,0,0
0:7:3.340,817.187,104.049,0,0.000885,0,0
0:7:3.837,818.362,104.2,0,0.000885,0,0
0:7:4.341,819.305,104.318,0,0.000885,0,0
0:7:4.846,819.95,104.4,0,0.000885,0,0
0:7:5.349,820.595,104.483,0,0.000885,0,0
0:7:5.848,822.414,104.711,0,0.000885,0,0
0:7:6.343,823.295,104.828,0,0.000885,0,0
0:7:6.842,824.349,104.959,0,0.000885,0,0
0:7:7.339,825.643,105.124,0,0.000885,0,0
0:7:7.845,826.698,105.255,0,0.000885,0,0
0:7:8.341,826.875,105.283,0,0.000885,0,0
0:7:8.847,827.756,105.393,0,0.000885,0,0
0:7:9.343,829.224,105.579,0,0.000885,0,0
0:7:9.849,829.455,105.607,0,0.000885,0,0
0:7:10.353,830.808,105.779,0,0.000885,0,0
0:7:10.857,831.511,105.869,0,0.000885,0,0
0:7:11.354,833.036,106.069,0,0.000885,0,0
0:7:11.849,834.153,106.207,0,0.000885,0,0
0:7:12.346,835.149,106.338,0,0.000885,0,0
0:7:12.842,836.559,106.517,0,0.000885,0,0
0:7:13.338,837.089,106.579,0,0.000885,0,0
0:7:13.844,837.44,106.627,0,0.000885,0,0
0:7:14.340,838.966,106.82,0,0.000885,0,0
0:7:14.847,839.967,106.945,0,0.000885,0,0
0:7:15.350,840.669,107.034,0,0.000885,0,0
0:7:15.854,841.902,107.193,0,0.000885,0,0
0:7:16.350,842.782,107.303,0,0.000885,0,0
0:7:16.846,843.957,107.455,0,0.000885,0,0
0:7:17.343,845.011,107.593,0,0.000885,0,0
0:7:17.840,846.421,107.772,0,0.000885,0,0
0:7:18.346,846.541,107.786,0,0.000885,0,0
0:7:18.841,847.537,107.91,0,0.000885,0,0
0:7:19.347,848.712,108.062,0,0.000885,0,0
0:7:19.852,849.65,108.179,0,0.000885,0,0
0:7:20.355,850.473,108.282,0,0.000885,0,0
0:7:20.852,851.585,108.427,0,0.000885,0,0
0:7:21.347,853.231,108.634,0,0.000885,0,0
0:7:21.844,854.17,108.758,0,0.000885,0,0
0:7:22.339,854.285,108.772,0,0.000885,0,0
0:7:22.838,855.695,108.951,0,0.000885,0,0
0:7:23.344,856.461,109.047,0,0.000885,0,0
0:7:23.841,857.221,109.144,0,0.000885,0,0
0:7:24.339,858.925,109.365,0,0.000885,0,0
0:7:24.846,860.393,109.551,0,0.000885,0,0
0:7:25.348,860.451,109.558,0,0.000885,0,0
0:7:25.852,861.625,109.702,0,0.000885,0,0
0:7:26.347,862.034,109.758,0,0.000885,0,0
0:7:26.845,863.502,109.944,0,0.000885,0,0
0:7:27.341,864.503,110.075,0,0.000885,0,0
0:7:27.846,864.97,110.13,0,0.000885,0,0
0:7:28.344,866.38,110.309,0,0.000885,0,0
0:7:28.848,867.203,110.413,0,0.000885,0,0
0:7:29.346,868.609,110.592,0,0.000885,0,0
0:7:29.853,870.255,110.806,0,0.000885,0,0
0:7:30.355,870.49,110.833,0,0.000885,0,0
0:7:30.858,871.896,111.012,0,0.000885,0,0
0:7:31.353,871.896,111.012,0,0.000885,0,0
0:7:31.848,873.484,111.212,0,0.000885,0,0
0:7:32.344,873.6,111.233,0,0.000885,0,0
0:7:32.840,875.241,111.44,0,0.000885,0,0
0:7:33.347,876.709,111.626,0,0.000885,0,0
0:7:33.840,876.945,111.654,0,0.000885,0,0
0:7:34.346,878.47,111.854,0,0.000885,0,0
0:7:34.850,878.764,111.888,0,0.000885,0,0
0:7:35.353,879.996,112.047,0,0.000885,0,0
0:7:35.850,881.464,112.233,0,0.000885,0,0
0:7:36.346,881.406,112.226,0,0.000885,0,0
0:7:36.840,883.168,112.447,0,0.000885,0,0
0:7:37.336,884.284,112.591,0,0.000885,0,0
0:7:37.845,885.516,112.75,0,0.000885,0,0
0:7:38.342,885.926,112.798,0,0.000885,0,0
0:7:38.847,886.922,112.929,0,0.000885,0,0
0:7:39.354,888.51,113.129,0,0.000885,0,0
0:7:39.858,888.746,113.157,0,0.000885,0,0
0:7:40.358,889.8,113.295,0,0.000885,0,0
0:7:40.859,891.152,113.467,0,0.000885,0,0
0:7:41.355,892.033,113.577,0,0.000885,0,0
0:7:41.850,892.909,113.688,0,0.000885,0,0
0:7:42.346,894.262,113.86,0,0.000885,0,0
0:7:42.843,895.022,113.957,0,0.000885,0,0
0:7:43.348,896.317,114.122,0,0.000885,0,0
0:7:43.846,896.081,114.094,0,0.000885,0,0
0:7:44.347,897.958,114.329,0,0.000885,0,0
0:7:44.855,899.31,114.501,0,0.000885,0,0
0:7:45.356,899.604,114.543,0,0.000885,0,0
0:7:45.857,901.245,114.749,0,0.000885,0,0
0:7:46.352,901.539,114.791,0,0.000885,0,0
0:7:46.848,903.007,114.977,0,0.000885,0,0
0:7:47.345,902.891,114.956,0,0.000885,0,0
0:7:47.842,904.297,115.136,0,0.000885,0,0
0:7:48.337,905.298,115.267,0,0.000885,0,0
0:7:48.845,907.059,115.487,0,0.000885,0,0
0:7:49.342,908.171,115.632,0,0.000885,0,0
0:7:49.849,908.465,115.666,0,0.000885,0,0
0:7:50.352,909.523,115.804,0,0.000885,0,0
0:7:50.856,911.343,116.039,0,0.000885,0,0
0:7:51.351,911.343,116.039,0,0.000885,0,0
0:7:51.846,912.575,116.19,0,0.000885,0,0
0:7:52.343,913.865,116.356,0,0.000885,0,0
0:7:52.847,914.394,116.425,0,0.000885,0,0
0:7:53.343,915.804,116.604,0,0.000885,0,0
0:7:53.848,915.804,116.604,0,0.000885,0,0
0:7:54.344,917.036,116.763,0,0.000885,0,0
0:7:54.850,919.092,117.025,0,0.000885,0,0
0:7:55.355,919.327,117.052,0,0.000885,0,0
0:7:55.857,920.146,117.156,0,0.000885,0,0
0:7:56.354,921.965,117.39,0,0.000885,0,0
0:7:56.849,921.614,117.342,0,0.000885,0,0
0:7:57.345,923.26,117.556,0,0.000885,0,0
0:7:57.842,925.021,117.776,0,0.000885,0,0
0:7:58.345,924.963,117.769,0,0.000885,0,0
0:7:58.842,925.666,117.859,0,0.000885,0,0
0:7:59.348,926.956,118.024,0,0.000885,0,0
0:7:59.853,928.246,118.19,0,0.000885,0,0
0:8:0.356,929.189,118.307,0,0.000885,0,0
0:8:0.854,930.301,118.452,0,0.000885,0,0
0:8:1.349,931.653,118.624,0,0.000885,0,0
0:8:1.847,932.414,118.721,0,0.000885,0,0
0:8:2.344,933.824,118.9,0,0.000885,0,0
0:8:2.839,933.882,118.907,0,0.000885,0,0
0:8:3.334,934.705,119.01,0,0.000885,0,0
0:8:3.831,936.288,119.21,0,0.000885,0,0
0:8:4.330,936.818,119.279,0,0.000885,0,0
0:8:4.836,937.876,119.417,0,0.000885,0,0
0:8:5.342,939.051,119.562,0,0.000885,0,0
0:8:5.843,940.576,119.755,0,0.000885,0,0
0:8:6.349,940.75,119.783,0,0.000885,0,0
0:8:6.844,942.102,119.955,0,0.000885,0,0
0:8:7.342,943.392,120.114,0,0.000885,0,0
0:8:7.847,943.744,120.162,0,0.000885,0,0
0:8:8.344,944.86,120.307,0,0.000885,0,0
0:8:8.849,945.741,120.417,0,0.000885,0,0
0:8:9.344,946.386,120.5,0,0.000885,0,0
0:8:9.850,947.676,120.665,0,0.000885,0,0
0:8:10.354,948.912,120.817,0,0.000885,0,0
0:8:10.859,949.673,120.913,0,0.000885,0,0
0:8:11.355,951.199,121.113,0,0.000885,0,0
0:8:11.851,952.195,121.237,0,0.000885,0,0
0:8:12.347,953.841,121.444,0,0.000885,0,0
0:8:12.852,953.957,121.465,0,0.000885,0,0
0:8:13.345,954.9,121.582,0,0.000885,0,0
0:8:13.850,955.015,121.596,0,0.000885,0,0
0:8:14.346,956.599,121.796,0,0.000885,0,0
0:8:14.852,957.831,121.954,0,0.000885,0,0
0:8:15.357,958.89,122.092,0,0.000885,0,0
0:8:15.858,959.241,122.134,0,0.000885,0,0
0:8:16.355,960.238,122.265,0,0.000885,0,0
0:8:16.851,961.296,122.396,0,0.000885,0,0
0:8:17.347,962.764,122.582,0,0.000885,0,0
0:8:17.844,963.939,122.734,0,0.000885,0,0
0:8:18.350,964.935,122.858,0,0.000885,0,0
0:8:18.846,965.758,122.961,0,0.000885,0,0
0:8:19.350,967.693,123.209,0,0.000885,0,0
0:8:19.856,966.812,123.099,0,0.000885,0,0
0:8:20.360,968.631,123.333,0,0.000885,0,0
0:8:20.857,969.339,123.423,0,0.000885,0,0
0:8:21.354,970.277,123.54,0,0.000885,0,0
0:8:21.849,970.98,123.63,0,0.000885,0,0
0:8:22.346,972.332,123.802,0,0.000885,0,0
0:8:22.852,973.564,123.961,0,0.000885,0,0
0:8:23.349,974.561,124.085,0,0.000885,0,0
0:8:23.845,975.499,124.202,0,0.000885,0,0
0:8:24.356,976.852,124.375,0,0.000885,0,0
0:8:24.862,977.79,124.499,0,0.000885,0,0
0:8:25.364,978.435,124.581,0,0.000885,0,0
0:8:25.867,979.725,124.74,0,0.000885,0,0
0:8:26.363,979.903,124.768,0,0.000885,0,0
0:8:26.860,980.668,124.864,0,0.000885,0,0
0:8:27.356,982.074,125.043,0,0.000885,0,0
0:8:27.853,983.542,125.229,0,0.000885,0,0
0:8:28.346,984.774,125.388,0,0.000885,0,0
0:8:28.853,984.836,125.395,0,0.000885,0,0
0:8:29.348,985.597,125.491,0,0.000885,0,0
0:8:29.853,987.007,125.671,0,0.000885,0,0
0:8:30.358,988.475,125.857,0,0.000885,0,0
0:8:30.861,989.471,125.981,0,0.000885,0,0
0:8:31.356,990.294,126.091,0,0.000885,0,0
0:8:31.854,991.348,126.222,0,0.000885,0,0
0:8:32.350,992.523,126.374,0,0.000885,0,0
0:8:32.846,992.701,126.395,0,0.000885,0,0
0:8:33.350,994.226,126.588,0,0.000885,0,0
0:8:33.846,994.814,126.664,0,0.000885,0,0
0:8:34.354,996.517,126.877,0,0.000885,0,0
0:8:34.857,996.691,126.905,0,0.000885,0,0
0:8:35.360,997.456,127.001,0,0.000885,0,0
0:8:35.857,999.039,127.201,0,0.000885,0,0
0:8:36.353,999.627,127.277,0,0.000885,0,0
0:8:36.849,1001.5,127.519,0,0.000885,0,0
0:8:37.346,1001.98,127.574,0,0.000885,0,0
0:8:37.853,1003.15,127.725,0,0.000885,0,0
0:8:38.348,1003.79,127.808,0,0.000885,0,0
0:8:38.855,1005.26,127.994,0,0.000885,0,0
0:8:39.358,1006.26,128.118,0,0.000885,0,0
0:8:39.864,1006.09,128.098,0,0.000885,0,0
0:8:40.366,1006.9,128.201,0,0.000885,0,0
0:8:40.866,1008.61,128.422,0,0.000885,0,0
0:8:41.364,1009.78,128.567,0,0.000885,0,0
0:8:41.861,1010.78,128.698,0,0.000885,0,0
0:8:42.358,1011.89,128.835,0,0.000885,0,0
0:8:42.854,1012.48,128.911,0,0.000885,0,0
0:8:43.350,1013.48,129.042,0,0.000885,0,0
0:8:43.856,1014.83,129.215,0,0.000885,0,0
0:8:44.353,1016.18,129.387,0,0.000885,0,0
0:8:44.861,1016.24,129.394,0,0.000885,0,0
0:8:45.363,1017.77,129.587,0,0.000885,0,0
0:8:45.867,1018.71,129.704,0,0.000885,0,0
0:8:46.361,1018.18,129.635,0,0.000885,0,0
0:8:46.858,1020.17,129.89,0,0.000885,0,0
0:8:47.353,1021.05,130.008,0,0.000885,0,0
0:8:47.848,1021.87,130.111,0,0.000885,0,0
0:8:48.354,1023.81,130.352,0,0.000885,0,0
0:8:48.849,1024.99,130.504,0,0.000885,0,0
0:8:49.355,1025.51,130.573,0,0.000885,0,0
0:8:49.859,1026.75,130.731,0,0.000885,0,0
0:8:50.364,1028.45,130.945,0,0.000885,0,0
0:8:50.832,1012.01,128.856,0,0.000885,0,0