File: DataFile2021-06-07_050159.csv
Test ID:,Date Tested:,Time:,Test Type:,Diameter Avg. (mm):,Cyl. Corr. Factor:,Height (mm):,Age (days):,Weight (kN):,Break Type:,Ramp Rate (MPa/s):,Load at Break (kN):,Stress at Break (MPa):
12,6/7/2021,05:01,Cylinder,100,1,200,0,3.6,3,0.25,683.12,86.98
Sample Time,Load (kN),Stress (MPa),Long. Strain,Trans. Strain,Chan1 Deflection (mm),Chan2 Deflection (mm)
0:0:13.259,5.21776,0.661897,0,0.000885,0,0
0:0:13.559,6.86361,0.875634,0,0.000885,0,0
0:0:13.857,8.62065,1.09627,0,0.000885,0,0
0:0:14.155,8.79858,1.11695,0,0.000885,0,0
0:0:14.462,8.62065,1.09627,0,0.000885,0,0
0:0:14.779,9.03434,1.15142,0,0.000885,0,0
0:0:15.081,8.79858,1.11695,0,0.000885,0,0
0:0:15.376,9.38575,1.19279,0,0.000885,0,0
0:0:15.674,9.38575,1.19279,0,0.000885,0,0
0:0:15.973,9.79498,1.24795,0,0.000885,0,0
0:0:16.280,10.3243,1.3169,0,0.000885,0,0
0:0:16.581,11.6721,1.48927,0,0.000885,0,0
0:0:16.875,12.0235,1.53064,0,0.000885,0,0
0:0:17.177,12.8465,1.63406,0,0.000885,0,0
0:0:17.474,12.8465,1.63406,0,0.000885,0,0
0:0:17.771,12.9621,1.64785,0,0.000885,0,0
0:0:18.072,14.6613,1.86848,0,0.000885,0,0
0:0:18.364,15.1328,1.92364,0,0.000885,0,0
0:0:18.668,15.8357,2.01327,0,0.000885,0,0
0:0:18.974,16.2449,2.06843,0,0.000885,0,0
0:0:19.277,17.0678,2.17185,0,0.000885,0,0
0:0:19.581,17.4771,2.22701,0,0.000885,0,0
0:0:19.881,18.1799,2.31664,0,0.000885,0,0
0:0:20.183,19.1185,2.43385,0,0.000885,0,0
0:0:20.483,19.9414,2.53727,0,0.000885,0,0
0:0:20.780,20.3506,2.59243,0,0.000885,0,0
0:0:21.081,20.6442,2.6269,0,0.000885,0,0
0:0:21.376,21.4671,2.73032,0,0.000885,0,0
0:0:21.679,22.1699,2.81996,0,0.000885,0,0
0:0:21.975,22.1699,2.81996,0,0.000885,0,0
0:0:22.273,23.1663,2.95096,0,0.000885,0,0
0:0:22.574,23.6378,3.00611,0,0.000885,0,0
0:0:22.868,24.3985,3.10954,0,0.000885,0,0
0:0:23.172,25.2792,3.21985,0,0.000885,0,0
0:0:23.465,25.3949,3.23364,0,0.000885,0,0
0:0:23.768,26.2178,3.33706,0,0.000885,0,0
0:0:24.076,26.9206,3.42669,0,0.000885,0,0
0:0:24.380,26.805,3.4129,0,0.000885,0,0
0:0:24.682,27.3299,3.48185,0,0.000885,0,0
0:0:24.983,27.8592,3.54391,0,0.000885,0,0
0:0:25.284,28.5042,3.62664,0,0.000885,0,0
0:0:25.581,28.9134,3.6818,0,0.000885,0,0
0:0:25.880,29.5584,3.76454,0,0.000885,0,0
0:0:26.181,30.6171,3.89554,0,0.000885,0,0
0:0:26.475,31.4356,4.00585,0,0.000885,0,0
0:0:26.778,32.0806,4.0817,0,0.000885,0,0
0:0:27.074,32.3742,4.12306,0,0.000885,0,0
0:0:27.372,32.9613,4.19891,0,0.000885,0,0
0:0:27.669,33.722,4.29543,0,0.000885,0,0
0:0:27.966,33.8999,4.31612,0,0.000885,0,0
0:0:28.267,34.8385,4.43333,0,0.000885,0,0
0:0:28.563,35.4256,4.50917,0,0.000885,0,0
0:0:28.865,36.1285,4.5988,0,0.000885,0,0
0:0:29.169,36.0706,4.59191,0,0.000885,0,0
0:0:29.476,36.7156,4.67465,0,0.000885,0,0
0:0:29.781,37.89,4.82633,0,0.000885,0,0
0:0:30.081,38.357,4.88149,0,0.000885,0,0
0:0:30.383,39.1799,4.9918,0,0.000885,0,0
0:0:30.681,39.7671,5.06075,0,0.000885,0,0
0:0:30.978,39.9406,5.08833,0,0.000885,0,0
0:0:31.281,40.7012,5.18486,0,0.000885,0,0
0:0:31.575,41.2884,5.25381,0,0.000885,0,0
0:0:31.876,41.7599,5.31586,0,0.000885,0,0
0:0:32.176,42.4049,5.39859,0,0.000885,0,0
0:0:32.481,43.3435,5.51581,0,0.000885,0,0
0:0:32.782,43.3435,5.51581,0,0.000885,0,0
0:0:33.077,43.7527,5.57096,0,0.000885,0,0
0:0:33.379,44.282,5.63991,0,0.000885,0,0
0:0:33.676,45.3941,5.77781,0,0.000885,0,0
0:0:33.979,45.4519,5.7847,0,0.000885,0,0
0:0:34.284,46.2748,5.89502,0,0.000885,0,0
0:0:34.588,47.3914,6.03291,0,0.000885,0,0
0:0:34.889,47.6227,6.06049,0,0.000885,0,0
0:0:35.190,48.3299,6.15012,0,0.000885,0,0
0:0:35.490,49.1484,6.26044,0,0.000885,0,0
0:0:35.790,49.442,6.29491,0,0.000885,0,0
0:0:36.086,50.0291,6.37076,0,0.000885,0,0
0:0:36.389,50.6741,6.45349,0,0.000885,0,0
0:0:36.684,51.4348,6.55002,0,0.000885,0,0
0:0:36.984,51.9063,6.61207,0,0.000885,0,0
0:0:37.282,52.3734,6.66723,0,0.000885,0,0
0:0:37.580,53.1385,6.76376,0,0.000885,0,0
0:0:37.880,53.432,6.80513,0,0.000885,0,0
0:0:38.177,53.7256,6.8396,0,0.000885,0,0
0:0:38.479,54.2505,6.90855,0,0.000885,0,0
0:0:38.776,55.0156,7.00507,0,0.000885,0,0
0:0:39.078,55.6028,7.08092,0,0.000885,0,0
0:0:39.383,56.3634,7.17744,0,0.000885,0,0
0:0:39.687,57.1863,7.28086,0,0.000885,0,0
0:0:39.990,57.8313,7.3636,0,0.000885,0,0
0:0:40.292,58.2406,7.41876,0,0.000885,0,0
0:0:40.593,59.1213,7.52907,0,0.000885,0,0
0:0:40.890,59.5305,7.57734,0,0.000885,0,0
0:0:41.185,60.1755,7.66008,0,0.000885,0,0
0:0:41.488,60.527,7.70834,0,0.000885,0,0
0:0:41.784,61.2298,7.79797,0,0.000885,0,0
0:0:42.083,61.7591,7.86002,0,0.000885,0,0
0:0:42.381,62.4041,7.94276,0,0.000885,0,0
0:0:42.679,63.1069,8.03239,0,0.000885,0,0
0:0:42.981,63.9298,8.14271,0,0.000885,0,0
0:0:43.274,64.2234,8.17718,0,0.000885,0,0
0:0:43.578,65.1042,8.2875,0,0.000885,0,0
0:0:43.883,65.4556,8.33576,0,0.000885,0,0
0:0:44.186,65.7492,8.37024,0,0.000885,0,0
0:0:44.489,66.452,8.45987,0,0.000885,0,0
0:0:44.789,66.7456,8.50124,0,0.000885,0,0
0:0:45.094,67.1548,8.5495,0,0.000885,0,0
0:0:45.389,68.5026,8.72187,0,0.000885,0,0
0:0:45.689,68.854,8.77013,0,0.000885,0,0
0:0:45.988,69.3255,8.82529,0,0.000885,0,0
0:0:46.284,70.144,8.92871,0,0.000885,0,0
0:0:46.585,70.9091,9.02524,0,0.000885,0,0
0:0:46.881,70.7312,9.00455,0,0.000885,0,0
0:0:47.183,71.6697,9.12866,0,0.000885,0,0
0:0:47.479,72.4927,9.23208,0,0.000885,0,0
0:0:47.778,72.8441,9.27345,0,0.000885,0,0
0:0:48.078,73.3734,9.3424,0,0.000885,0,0
0:0:48.383,74.5433,9.49408,0,0.000885,0,0
0:0:48.685,75.1883,9.57682,0,0.000885,0,0
0:0:48.990,75.5397,9.61819,0,0.000885,0,0
0:0:49.294,75.7176,9.63887,0,0.000885,0,0
0:0:49.598,77.0076,9.80434,0,0.000885,0,0
0:0:49.899,76.8341,9.78366,0,0.000885,0,0
0:0:50.202,77.1233,9.81813,0,0.000885,0,0
0:0:50.497,77.9462,9.92156,0,0.000885,0,0
0:0:50.799,78.7068,10.025,0,0.000885,0,0
0:0:51.096,79.4719,10.1215,0,0.000885,0,0
0:0:51.395,79.939,10.1767,0,0.000885,0,0
0:0:51.694,80.6463,10.2663,0,0.000885,0,0
0:0:51.988,81.229,10.3421,0,0.000885,0,0
0:0:52.291,82.2877,10.48,0,0.000885,0,0
0:0:52.585,82.5812,10.5145,0,0.000885,0,0
0:0:52.886,83.0483,10.5766,0,0.000885,0,0
0:0:53.185,83.7511,10.6662,0,0.000885,0,0
0:0:53.481,83.6355,10.6455,0,0.000885,0,0
0:0:53.782,85.219,10.8523,0,0.000885,0,0
0:0:54.088,85.7484,10.9144,0,0.000885,0,0
0:0:54.391,86.0998,10.9627,0,0.000885,0,0
0:0:54.695,86.6869,11.0385,0,0.000885,0,0
0:0:54.998,87.3319,11.1212,0,0.000885,0,0
0:0:55.300,87.7412,11.1695,0,0.000885,0,0
0:0:55.597,88.0926,11.2178,0,0.000885,0,0
0:0:55.899,88.7954,11.3074,0,0.000885,0,0
0:0:56.192,89.2091,11.3557,0,0.000885,0,0
0:0:56.495,90.4991,11.5211,0,0.000885,0,0
0:0:56.791,90.9083,11.5763,0,0.000885,0,0
0:0:57.087,90.9083,11.5763,0,0.000885,0,0
0:0:57.388,91.5533,11.659,0,0.000885,0,0
0:0:57.684,91.9625,11.7073,0,0.000885,0,0
0:0:57.987,93.4304,11.8935,0,0.000885,0,0
0:0:58.282,93.724,11.9348,0,0.000885,0,0
0:0:58.583,94.5425,12.0382,0,0.000885,0,0
0:0:58.889,94.6626,12.052,0,0.000885,0,0
0:0:59.192,95.0718,12.1072,0,0.000885,0,0
0:0:59.497,95.8369,12.2037,0,0.000885,0,0
0:0:59.799,96.7755,12.3209,0,0.000885,0,0
0:1:0.100,97.1269,12.3692,0,0.000885,0,0
0:1:0.398,98.1811,12.5002,0,0.000885,0,0
0:1:0.697,98.9418,12.5967,0,0.000885,0,0
0:1:0.996,98.7105,12.5691,0,0.000885,0,0
0:1:1.290,99.1197,12.6174,0,0.000885,0,0
0:1:1.594,99.6491,12.6864,0,0.000885,0,0
0:1:1.890,100.525,12.7967,0,0.000885,0,0
0:1:2.188,101.406,12.9139,0,0.000885,0,0
0:1:2.487,101.993,12.9828,0,0.000885,0,0
0:1:2.784,102.171,13.0104,0,0.000885,0,0
0:1:3.086,102.638,13.0656,0,0.000885,0,0
0:1:3.381,103.87,13.2241,0,0.000885,0,0
0:1:3.684,104.164,13.2655,0,0.000885,0,0
0:1:3.988,104.337,13.2862,0,0.000885,0,0
0:1:4.291,105.338,13.4103,0,0.000885,0,0
0:1:4.595,106.157,13.5137,0,0.000885,0,0
0:1:4.898,106.744,13.5896,0,0.000885,0,0
0:1:5.201,107.211,13.6516,0,0.000885,0,0
0:1:5.497,107.625,13.6999,0,0.000885,0,0
0:1:5.797,108.443,13.8102,0,0.000885,0,0
0:1:6.097,109.324,13.9205,0,0.000885,0,0
0:1:6.394,110.027,14.0101,0,0.000885,0,0
0:1:6.694,110.32,14.0446,0,0.000885,0,0
0:1:6.989,110.792,14.1067,0,0.000885,0,0
0:1:7.290,111.201,14.1618,0,0.000885,0,0
0:1:7.588,111.73,14.2239,0,0.000885,0,0
0:1:7.884,111.962,14.2584,0,0.000885,0,0
0:1:8.186,112.842,14.3687,0,0.000885,0,0
0:1:8.481,113.487,14.4514,0,0.000885,0,0
0:1:8.784,114.017,14.5204,0,0.000885,0,0
0:1:9.087,114.546,14.5824,0,0.000885,0,0
0:1:9.392,115.543,14.7134,0,0.000885,0,0
0:1:9.695,116.245,14.803,0,0.000885,0,0
0:1:9.998,116.775,14.8651,0,0.000885,0,0
0:1:10.301,117.184,14.9203,0,0.000885,0,0
0:1:10.597,118.007,15.0237,0,0.000885,0,0
0:1:10.897,118.238,15.0581,0,0.000885,0,0
0:1:11.194,118.825,15.1271,0,0.000885,0,0
0:1:11.491,119.528,15.2167,0,0.000885,0,0
0:1:11.792,119.942,15.2719,0,0.000885,0,0
0:1:12.088,120.409,15.3339,0,0.000885,0,0
0:1:12.390,120.818,15.3822,0,0.000885,0,0
0:1:12.687,121.405,15.458,0,0.000885,0,0
0:1:12.985,122.58,15.6097,0,0.000885,0,0
0:1:13.284,123.46,15.72,0,0.000885,0,0
0:1:13.582,123.812,15.7614,0,0.000885,0,0
0:1:13.884,124.279,15.8235,0,0.000885,0,0
0:1:14.191,125.217,15.9407,0,0.000885,0,0
0:1:14.495,125.631,15.9958,0,0.000885,0,0
0:1:14.797,126.685,16.1268,0,0.000885,0,0
0:1:15.099,126.45,16.0993,0,0.000885,0,0
0:1:15.402,127.037,16.1751,0,0.000885,0,0
0:1:15.698,127.566,16.244,0,0.000885,0,0
0:1:15.998,128.091,16.3061,0,0.000885,0,0
0:1:16.296,129.03,16.4302,0,0.000885,0,0
0:1:16.592,129.675,16.5129,0,0.000885,0,0
0:1:16.895,130.146,16.5681,0,0.000885,0,0
0:1:17.188,130.613,16.6302,0,0.000885,0,0
0:1:17.490,131.32,16.7198,0,0.000885,0,0
0:1:17.788,131.672,16.768,0,0.000885,0,0
0:1:18.084,132.668,16.8922,0,0.000885,0,0
0:1:18.385,132.962,16.9266,0,0.000885,0,0
0:1:18.691,133.843,17.0438,0,0.000885,0,0
0:1:18.995,134.425,17.1128,0,0.000885,0,0
0:1:19.298,134.897,17.1748,0,0.000885,0,0
0:1:19.600,135.484,17.2507,0,0.000885,0,0
0:1:19.903,136.423,17.3679,0,0.000885,0,0
0:1:20.199,136.596,17.3955,0,0.000885,0,0
0:1:20.501,137.241,17.4713,0,0.000885,0,0
0:1:20.798,138.122,17.5885,0,0.000885,0,0
0:1:21.098,138.415,17.623,0,0.000885,0,0
0:1:21.396,139.002,17.6988,0,0.000885,0,0
0:1:21.691,139.296,17.7333,0,0.000885,0,0
0:1:21.993,139.883,17.8092,0,0.000885,0,0
0:1:22.287,140.466,17.885,0,0.000885,0,0
0:1:22.589,140.995,17.9539,0,0.000885,0,0
0:1:22.887,142.05,18.0849,0,0.000885,0,0
0:1:23.186,142.93,18.1953,0,0.000885,0,0
0:1:23.484,143.402,18.2573,0,0.000885,0,0
0:1:23.789,144.047,18.3401,0,0.000885,0,0
0:1:24.094,144.75,18.4297,0,0.000885,0,0
0:1:24.396,144.278,18.3676,0,0.000885,0,0
0:1:24.698,145.452,18.5193,0,0.000885,0,0
0:1:25.002,145.51,18.5262,0,0.000885,0,0
0:1:25.300,146.155,18.6089,0,0.000885,0,0
0:1:25.601,147.272,18.7537,0,0.000885,0,0
0:1:25.895,147.507,18.7813,0,0.000885,0,0
0:1:26.197,147.859,18.8227,0,0.000885,0,0
0:1:26.492,148.913,18.9606,0,0.000885,0,0
0:1:26.791,149.852,19.0778,0,0.000885,0,0
0:1:27.090,150.323,19.1398,0,0.000885,0,0
0:1:27.386,151.142,19.2433,0,0.000885,0,0
0:1:27.688,151.613,19.3053,0,0.000885,0,0
0:1:27.983,151.965,19.3467,0,0.000885,0,0
0:1:28.285,152.725,19.4432,0,0.000885,0,0
0:1:28.582,153.664,19.5673,0,0.000885,0,0
0:1:28.886,153.779,19.5811,0,0.000885,0,0
0:1:29.191,154.367,19.657,0,0.000885,0,0
0:1:29.492,154.429,19.6638,0,0.000885,0,0
0:1:29.795,155.777,19.8362,0,0.000885,0,0
0:1:30.099,155.892,19.85,0,0.000885,0,0
0:1:30.398,156.422,19.919,0,0.000885,0,0
0:1:30.699,157.534,20.0568,0,0.000885,0,0
0:1:30.991,157.36,20.0362,0,0.000885,0,0
0:1:31.295,158.415,20.1672,0,0.000885,0,0
0:1:31.592,158.65,20.2016,0,0.000885,0,0
0:1:31.890,159.647,20.3257,0,0.000885,0,0
0:1:32.190,160.292,20.4085,0,0.000885,0,0
0:1:32.486,160.994,20.4981,0,0.000885,0,0
0:1:32.788,161.582,20.574,0,0.000885,0,0
0:1:33.084,161.817,20.6015,0,0.000885,0,0
0:1:33.384,162.756,20.7256,0,0.000885,0,0
0:1:33.684,163.343,20.7946,0,0.000885,0,0
0:1:33.987,163.637,20.836,0,0.000885,0,0
0:1:34.293,163.868,20.8635,0,0.000885,0,0
0:1:34.595,164.219,20.9118,0,0.000885,0,0
0:1:34.898,164.985,21.0083,0,0.000885,0,0
0:1:35.201,165.687,21.098,0,0.000885,0,0
0:1:35.498,166.51,21.2014,0,0.000885,0,0
0:1:35.800,166.862,21.2427,0,0.000885,0,0
0:1:36.095,168.152,21.4082,0,0.000885,0,0
0:1:36.397,168.912,21.5047,0,0.000885,0,0
0:1:36.694,169.793,21.622,0,0.000885,0,0
0:1:36.991,169.851,21.6289,0,0.000885,0,0
0:1:37.291,169.971,21.6426,0,0.000885,0,0
0:1:37.585,170.674,21.7323,0,0.000885,0,0
0:1:37.889,171.555,21.8426,0,0.000885,0,0
0:1:38.185,171.964,21.8977,0,0.000885,0,0
0:1:38.485,172.845,22.0081,0,0.000885,0,0
0:1:38.782,173.018,22.0287,0,0.000885,0,0
0:1:39.084,173.721,22.1184,0,0.000885,0,0
0:1:39.390,173.841,22.1322,0,0.000885,0,0
0:1:39.692,175.073,22.2908,0,0.000885,0,0
0:1:39.995,175.367,22.3252,0,0.000885,0,0
0:1:40.298,176.305,22.4493,0,0.000885,0,0
0:1:40.597,176.714,22.4976,0,0.000885,0,0
0:1:40.897,177.124,22.5528,0,0.000885,0,0
0:1:41.191,177.889,22.6493,0,0.000885,0,0
0:1:41.494,178.182,22.6838,0,0.000885,0,0
0:1:41.790,178.472,22.7251,0,0.000885,0,0
0:1:42.089,179.704,22.8837,0,0.000885,0,0
0:1:42.389,179.939,22.9113,0,0.000885,0,0
0:1:42.683,180.762,23.0147,0,0.000885,0,0
0:1:42.987,180.994,23.0423,0,0.000885,0,0
0:1:43.282,181.874,23.1595,0,0.000885,0,0
0:1:43.586,182.755,23.2698,0,0.000885,0,0
0:1:43.890,183.107,23.3112,0,0.000885,0,0
0:1:44.193,183.809,23.4008,0,0.000885,0,0
0:1:44.498,184.748,23.5249,0,0.000885,0,0
0:1:44.800,184.926,23.5456,0,0.000885,0,0
0:1:45.101,185.513,23.6214,0,0.000885,0,0
0:1:45.399,185.807,23.6559,0,0.000885,0,0
0:1:45.697,186.625,23.7593,0,0.000885,0,0
0:1:45.997,187.212,23.8352,0,0.000885,0,0
0:1:46.292,188.093,23.9455,0,0.000885,0,0
0:1:46.595,188.502,24.0007,0,0.000885,0,0
0:1:46.889,189.032,24.0696,0,0.000885,0,0
0:1:47.188,189.792,24.1661,0,0.000885,0,0
0:1:47.487,190.028,24.1937,0,0.000885,0,0
0:1:47.784,190.322,24.2351,0,0.000885,0,0
0:1:48.085,191.376,24.3661,0,0.000885,0,0
0:1:48.381,191.554,24.3868,0,0.000885,0,0
0:1:48.684,192.079,24.4557,0,0.000885,0,0
0:1:48.989,193.195,24.6005,0,0.000885,0,0
0:1:49.288,193.489,24.635,0,0.000885,0,0
0:1:49.590,194.192,24.7246,0,0.000885,0,0
0:1:49.888,194.543,24.7729,0,0.000885,0,0
0:1:50.190,195.539,24.897,0,0.000885,0,0
0:1:50.485,196.42,25.0073,0,0.000885,0,0
0:1:50.782,196.598,25.0349,0,0.000885,0,0
0:1:51.088,197.537,25.1521,0,0.000885,0,0
0:1:51.383,197.83,25.1865,0,0.000885,0,0
0:1:51.680,198.827,25.3175,0,0.000885,0,0
0:1:51.984,199.529,25.4072,0,0.000885,0,0
0:1:52.283,199.645,25.421,0,0.000885,0,0
0:1:52.587,200.41,25.5175,0,0.000885,0,0
0:1:52.885,201.286,25.6278,0,0.000885,0,0
0:1:53.182,201.58,25.6692,0,0.000885,0,0
0:1:53.486,202.287,25.7588,0,0.000885,0,0
0:1:53.785,202.87,25.8278,0,0.000885,0,0
0:1:54.087,202.87,25.8278,0,0.000885,0,0
0:1:54.389,204.338,26.0139,0,0.000885,0,0
0:1:54.689,204.396,26.0277,0,0.000885,0,0
0:1:54.989,205.099,26.1173,0,0.000885,0,0
0:1:55.291,205.099,26.1173,0,0.000885,0,0
0:1:55.584,205.628,26.1794,0,0.000885,0,0
0:1:55.883,206.393,26.2759,0,0.000885,0,0
0:1:56.187,206.802,26.3311,0,0.000885,0,0
0:1:56.483,207.741,26.4483,0,0.000885,0,0
0:1:56.790,208.15,26.5034,0,0.000885,0,0
0:1:57.084,208.973,26.6069,0,0.000885,0,0
0:1:57.385,209.56,26.6827,0,0.000885,0,0
0:1:57.686,210.379,26.7861,0,0.000885,0,0
0:1:57.985,211.144,26.8827,0,0.000885,0,0
0:1:58.291,211.726,26.9585,0,0.000885,0,0
0:1:58.585,212.198,27.0206,0,0.000885,0,0
0:1:58.883,212.492,27.055,0,0.000885,0,0
0:1:59.186,213.194,27.1447,0,0.000885,0,0
0:1:59.488,213.488,27.1791,0,0.000885,0,0
0:1:59.789,213.839,27.2274,0,0.000885,0,0
0:2:0.088,214.662,27.3308,0,0.000885,0,0
0:2:0.390,215.659,27.4618,0,0.000885,0,0
0:2:0.684,215.894,27.4894,0,0.000885,0,0
0:2:0.983,216.539,27.5721,0,0.000885,0,0
0:2:1.286,217.3,27.6687,0,0.000885,0,0
0:2:1.586,218.061,27.7652,0,0.000885,0,0
0:2:1.890,218.59,27.8341,0,0.000885,0,0
0:2:2.186,218.706,27.8479,0,0.000885,0,0
0:2:2.485,219.822,27.9858,0,0.000885,0,0
0:2:2.777,220.352,28.0548,0,0.000885,0,0
0:2:3.076,220.876,28.1237,0,0.000885,0,0
0:2:3.372,221.054,28.1444,0,0.000885,0,0
0:2:3.671,221.935,28.2547,0,0.000885,0,0
0:2:3.976,222.932,28.3857,0,0.000885,0,0
0:2:4.276,223.283,28.4271,0,0.000885,0,0
0:2:4.576,223.928,28.5098,0,0.000885,0,0
0:2:4.877,224.809,28.6201,0,0.000885,0,0
0:2:5.185,224.866,28.6339,0,0.000885,0,0
0:2:5.483,225.863,28.758,0,0.000885,0,0
0:2:5.787,226.686,28.8615,0,0.000885,0,0
0:2:6.086,226.744,28.8683,0,0.000885,0,0
0:2:6.389,227.331,28.9442,0,0.000885,0,0
0:2:6.689,227.562,28.9718,0,0.000885,0,0
0:2:6.983,228.501,29.0959,0,0.000885,0,0
0:2:7.289,228.736,29.1235,0,0.000885,0,0
0:2:7.586,229.502,29.22,0,0.000885,0,0
0:2:7.890,230.147,29.3027,0,0.000885,0,0
0:2:8.190,230.907,29.3992,0,0.000885,0,0
0:2:8.484,231.61,29.4889,0,0.000885,0,0
0:2:8.786,232.082,29.5509,0,0.000885,0,0
0:2:9.088,232.313,29.5785,0,0.000885,0,0
0:2:9.390,233.194,29.6888,0,0.000885,0,0
0:2:9.690,234.368,29.8405,0,0.000885,0,0
0:2:9.990,234.132,29.8129,0,0.000885,0,0
0:2:10.289,234.955,29.9164,0,0.000885,0,0
0:2:10.583,235.422,29.9784,0,0.000885,0,0
0:2:10.890,236.245,30.0818,0,0.000885,0,0
0:2:11.187,237.064,30.1852,0,0.000885,0,0
0:2:11.490,237.709,30.268,0,0.000885,0,0
0:2:11.789,237.593,30.2542,0,0.000885,0,0
0:2:12.092,238.18,30.3231,0,0.000885,0,0
0:2:12.391,238.825,30.4059,0,0.000885,0,0
0:2:12.686,239.586,30.5024,0,0.000885,0,0
0:2:12.983,239.879,30.5438,0,0.000885,0,0
0:2:13.290,241.232,30.7161,0,0.000885,0,0
0:2:13.592,241.756,30.7782,0,0.000885,0,0
0:2:13.891,242.228,30.8402,0,0.000885,0,0
0:2:14.195,242.873,30.923,0,0.000885,0,0
0:2:14.497,243.224,30.9712,0,0.000885,0,0
0:2:14.799,243.398,30.9919,0,0.000885,0,0
0:2:15.098,244.514,31.1298,0,0.000885,0,0
0:2:15.401,245.217,31.2195,0,0.000885,0,0
0:2:15.692,245.101,31.2057,0,0.000885,0,0
0:2:15.991,245.92,31.3091,0,0.000885,0,0
0:2:16.286,246.449,31.378,0,0.000885,0,0
0:2:16.590,247.21,31.4746,0,0.000885,0,0
0:2:16.888,247.917,31.5642,0,0.000885,0,0
0:2:17.191,248.148,31.5987,0,0.000885,0,0
0:2:17.492,248.914,31.6952,0,0.000885,0,0
0:2:17.786,249.852,31.8124,0,0.000885,0,0
0:2:18.085,250.026,31.8331,0,0.000885,0,0
0:2:18.392,251.258,31.9917,0,0.000885,0,0
0:2:18.691,251.609,32.033,0,0.000885,0,0
0:2:18.996,252.139,32.102,0,0.000885,0,0
0:2:19.298,253.019,32.2123,0,0.000885,0,0
0:2:19.597,253.255,32.2468,0,0.000885,0,0
0:2:19.898,253.9,32.3295,0,0.000885,0,0
0:2:20.192,254.834,32.4467,0,0.000885,0,0
0:2:20.491,255.248,32.5019,0,0.000885,0,0
0:2:20.792,255.541,32.5364,0,0.000885,0,0
0:2:21.092,255.951,32.5915,0,0.000885,0,0
0:2:21.385,256.711,32.688,0,0.000885,0,0
0:2:21.684,256.889,32.7087,0,0.000885,0,0
0:2:21.988,257.476,32.7846,0,0.000885,0,0
0:2:22.285,258.473,32.9087,0,0.000885,0,0
0:2:22.592,259.176,32.9983,0,0.000885,0,0
0:2:22.886,259.527,33.0466,0,0.000885,0,0
0:2:23.184,260.408,33.1569,0,0.000885,0,0
0:2:23.478,261.173,33.2534,0,0.000885,0,0
0:2:23.779,261.053,33.2396,0,0.000885,0,0
0:2:24.084,262.343,33.4051,0,0.000885,0,0
0:2:24.385,262.752,33.4534,0,0.000885,0,0
0:2:24.686,263.575,33.5568,0,0.000885,0,0
0:2:24.986,263.281,33.5223,0,0.000885,0,0
0:2:25.292,264.162,33.6326,0,0.000885,0,0
0:2:25.590,264.807,33.7154,0,0.000885,0,0
0:2:25.884,265.274,33.7774,0,0.000885,0,0
0:2:26.184,266.448,33.9222,0,0.000885,0,0
0:2:26.486,266.684,33.9567,0,0.000885,0,0
0:2:26.786,266.858,33.9774,0,0.000885,0,0
0:2:27.090,268.21,34.1497,0,0.000885,0,0
0:2:27.385,268.504,34.1842,0,0.000885,0,0
0:2:27.692,268.797,34.2256,0,0.000885,0,0
0:2:27.985,269.909,34.3635,0,0.000885,0,0
0:2:28.286,269.794,34.3497,0,0.000885,0,0
0:2:28.588,270.848,34.4876,0,0.000885,0,0
0:2:28.889,271.786,34.6048,0,0.000885,0,0
0:2:29.193,271.729,34.5979,0,0.000885,0,0
0:2:29.495,272.903,34.7496,0,0.000885,0,0
0:2:29.795,272.903,34.7496,0,0.000885,0,0
0:2:30.096,273.486,34.8185,0,0.000885,0,0
0:2:30.395,274.424,34.9426,0,0.000885,0,0
0:2:30.690,274.66,34.9702,0,0.000885,0,0
0:2:30.986,275.598,35.0874,0,0.000885,0,0
0:2:31.293,276.243,35.1702,0,0.000885,0,0
0:2:31.586,276.946,35.2598,0,0.000885,0,0
0:2:31.888,277.654,35.3494,0,0.000885,0,0
0:2:32.191,278.178,35.4184,0,0.000885,0,0
0:2:32.488,278.299,35.4322,0,0.000885,0,0
0:2:32.782,279.237,35.5563,0,0.000885,0,0
0:2:33.090,280.234,35.6804,0,0.000885,0,0
0:2:33.390,280.234,35.6804,0,0.000885,0,0
0:2:33.690,281.288,35.8114,0,0.000885,0,0
0:2:33.990,281.346,35.8252,0,0.000885,0,0
0:2:34.293,281.817,35.8803,0,0.000885,0,0
0:2:34.596,282.284,35.9424,0,0.000885,0,0
0:2:34.896,283.223,36.0596,0,0.000885,0,0
0:2:35.197,283.458,36.0941,0,0.000885,0,0
0:2:35.497,284.455,36.2182,0,0.000885,0,0
0:2:35.789,285.1,36.3009,0,0.000885,0,0
0:2:36.088,285.451,36.3423,0,0.000885,0,0
0:2:36.382,286.506,36.4802,0,0.000885,0,0
0:2:36.687,286.626,36.494,0,0.000885,0,0
0:2:36.987,287.271,36.5767,0,0.000885,0,0
0:2:37.290,287.858,36.6525,0,0.000885,0,0
0:2:37.589,288.325,36.7077,0,0.000885,0,0
0:2:37.882,288.503,36.7353,0,0.000885,0,0
0:2:38.179,289.384,36.8456,0,0.000885,0,0
0:2:38.489,290.496,36.9904,0,0.000885,0,0
0:2:38.793,290.673,37.0111,0,0.000885,0,0
0:2:39.093,291.612,37.1283,0,0.000885,0,0
0:2:39.395,292.021,37.1834,0,0.000885,0,0
0:2:39.693,292.724,37.2731,0,0.000885,0,0
0:2:39.995,293.196,37.3282,0,0.000885,0,0
0:2:40.289,294.072,37.4454,0,0.000885,0,0
0:2:40.590,294.659,37.5144,0,0.000885,0,0
0:2:40.891,294.953,37.5557,0,0.000885,0,0
0:2:41.190,296.363,37.735,0,0.000885,0,0
0:2:41.496,296.3,37.7281,0,0.000885,0,0
0:2:41.790,296.945,37.8108,0,0.000885,0,0
0:2:42.088,297.359,37.8591,0,0.000885,0,0
0:2:42.391,297.475,37.8729,0,0.000885,0,0
0:2:42.691,298.591,38.0177,0,0.000885,0,0
0:2:42.995,299.236,38.1004,0,0.000885,0,0
0:2:43.290,299.468,38.128,0,0.000885,0,0
0:2:43.588,300.291,38.2314,0,0.000885,0,0
0:2:43.887,300.175,38.2176,0,0.000885,0,0
0:2:44.190,301.345,38.3693,0,0.000885,0,0
0:2:44.492,302.226,38.4796,0,0.000885,0,0
0:2:44.791,302.341,38.4934,0,0.000885,0,0
0:2:45.092,303.636,38.6589,0,0.000885,0,0
0:2:45.388,304.281,38.7416,0,0.000885,0,0
0:2:45.697,304.69,38.7968,0,0.000885,0,0
0:2:45.989,305.219,38.8589,0,0.000885,0,0
0:2:46.287,305.508,38.9002,0,0.000885,0,0
0:2:46.592,305.864,38.9416,0,0.000885,0,0
0:2:46.888,307.034,39.0933,0,0.000885,0,0
0:2:47.187,307.328,39.1277,0,0.000885,0,0
0:2:47.489,308.093,39.2243,0,0.000885,0,0
0:2:47.789,307.857,39.1967,0,0.000885,0,0
0:2:48.097,309.676,39.4311,0,0.000885,0,0
0:2:48.390,309.556,39.4173,0,0.000885,0,0
0:2:48.697,310.143,39.4863,0,0.000885,0,0
0:2:48.998,310.379,39.5207,0,0.000885,0,0
0:2:49.301,311.491,39.6586,0,0.000885,0,0
0:2:49.601,312.43,39.7827,0,0.000885,0,0
0:2:49.902,312.723,39.8172,0,0.000885,0,0
0:2:50.202,313.426,39.9069,0,0.000885,0,0
0:2:50.497,314.076,39.9896,0,0.000885,0,0
0:2:50.797,315.072,40.1137,0,0.000885,0,0
0:2:51.089,314.894,40.093,0,0.000885,0,0
0:2:51.388,315.775,40.2033,0,0.000885,0,0
0:2:51.695,315.948,40.2309,0,0.000885,0,0
0:2:51.989,317.358,40.4102,0,0.000885,0,0
0:2:52.289,317.594,40.4378,0,0.000885,0,0
0:2:52.590,317.474,40.424,0,0.000885,0,0
0:2:52.888,319,40.617,0,0.000885,0,0
0:2:53.193,318.942,40.6101,0,0.000885,0,0
0:2:53.488,319.587,40.6929,0,0.000885,0,0
0:2:53.797,320.583,40.817,0,0.000885,0,0
0:2:54.099,320.41,40.7963,0,0.000885,0,0
0:2:54.400,321.113,40.8859,0,0.000885,0,0
0:2:54.701,321.522,40.9342,0,0.000885,0,0
0:2:55.000,322.518,41.0652,0,0.000885,0,0
0:2:55.302,323.283,41.1617,0,0.000885,0,0
0:2:55.596,323.635,41.2031,0,0.000885,0,0
0:2:55.896,324.16,41.272,0,0.000885,0,0
0:2:56.189,324.805,41.3548,0,0.000885,0,0
0:2:56.496,325.863,41.4926,0,0.000885,0,0
0:2:56.793,326.388,41.5547,0,0.000885,0,0
0:2:57.096,326.802,41.6099,0,0.000885,0,0
0:2:57.397,327.505,41.6995,0,0.000885,0,0
0:2:57.690,328.323,41.8029,0,0.000885,0,0
0:2:57.998,328.208,41.7891,0,0.000885,0,0
0:2:58.293,328.853,41.8719,0,0.000885,0,0
0:2:58.588,329.498,41.9546,0,0.000885,0,0
0:2:58.888,330.2,42.0442,0,0.000885,0,0
0:2:59.191,331.201,42.1683,0,0.000885,0,0
0:2:59.495,331.49,42.2097,0,0.000885,0,0
0:2:59.793,332.198,42.2993,0,0.000885,0,0
0:3:0.096,332.549,42.3407,0,0.000885,0,0
0:3:0.397,333.723,42.4924,0,0.000885,0,0
0:3:0.691,334.484,42.5889,0,0.000885,0,0
0:3:0.989,334.542,42.5958,0,0.000885,0,0
0:3:1.293,335.245,42.6854,0,0.000885,0,0
0:3:1.590,335.423,42.7061,0,0.000885,0,0
0:3:1.889,336.361,42.8233,0,0.000885,0,0
0:3:2.190,336.241,42.8095,0,0.000885,0,0
0:3:2.491,337.536,42.975,0,0.000885,0,0
0:3:2.783,337.593,42.9819,0,0.000885,0,0
0:3:3.092,338.59,43.1129,0,0.000885,0,0
0:3:3.390,339.235,43.1957,0,0.000885,0,0
0:3:3.693,339.995,43.2922,0,0.000885,0,0
0:3:3.995,340.173,43.3129,0,0.000885,0,0
0:3:4.296,340.703,43.3818,0,0.000885,0,0
0:3:4.597,341.993,43.5404,0,0.000885,0,0
0:3:4.898,342.05,43.5542,0,0.000885,0,0
0:3:5.192,342.989,43.6714,0,0.000885,0,0
0:3:5.490,342.869,43.6576,0,0.000885,0,0
0:3:5.794,343.985,43.7955,0,0.000885,0,0
0:3:6.092,344.452,43.8576,0,0.000885,0,0
0:3:6.389,345.275,43.961,0,0.000885,0,0
0:3:6.692,345.742,44.023,0,0.000885,0,0
0:3:6.991,346.392,44.1058,0,0.000885,0,0
0:3:7.296,346.45,44.1127,0,0.000885,0,0
0:3:7.594,347.74,44.2781,0,0.000885,0,0
0:3:7.898,347.975,44.3057,0,0.000885,0,0
0:3:8.195,348.443,44.3678,0,0.000885,0,0
0:3:8.492,349.265,44.4712,0,0.000885,0,0
0:3:8.795,349.733,44.5263,0,0.000885,0,0
0:3:9.097,350.613,44.6436,0,0.000885,0,0
0:3:9.398,350.907,44.678,0,0.000885,0,0
0:3:9.697,351.668,44.7746,0,0.000885,0,0
0:3:9.997,351.552,44.7608,0,0.000885,0,0
0:3:10.292,352.957,44.94,0,0.000885,0,0
0:3:10.592,353.487,45.009,0,0.000885,0,0
0:3:10.896,353.78,45.0434,0,0.000885,0,0
0:3:11.193,354.483,45.1331,0,0.000885,0,0
0:3:11.492,355.128,45.2158,0,0.000885,0,0
0:3:11.795,356.009,45.3261,0,0.000885,0,0
0:3:12.093,355.893,45.3123,0,0.000885,0,0
0:3:12.397,356.827,45.4296,0,0.000885,0,0
0:3:12.695,357.121,45.4709,0,0.000885,0,0
0:3:12.990,357.766,45.5537,0,0.000885,0,0
0:3:13.284,358.998,45.7122,0,0.000885,0,0
0:3:13.595,359.585,45.7812,0,0.000885,0,0
0:3:13.898,359.821,45.8157,0,0.000885,0,0
0:3:14.199,360.644,45.9191,0,0.000885,0,0
0:3:14.500,361.053,45.9673,0,0.000885,0,0
0:3:14.799,360.995,45.9605,0,0.000885,0,0
0:3:15.100,362.343,46.1328,0,0.000885,0,0
0:3:15.394,363.104,46.2293,0,0.000885,0,0
0:3:15.695,363.749,46.3121,0,0.000885,0,0
0:3:15.997,363.869,46.3259,0,0.000885,0,0
0:3:16.296,364.514,46.4086,0,0.000885,0,0
0:3:16.592,364.865,46.4569,0,0.000885,0,0
0:3:16.897,365.804,46.5741,0,0.000885,0,0
0:3:17.193,365.977,46.5948,0,0.000885,0,0
0:3:17.498,366.916,46.7189,0,0.000885,0,0
0:3:17.797,367.33,46.7671,0,0.000885,0,0
0:3:18.092,368.206,46.8843,0,0.000885,0,0
0:3:18.398,368.971,46.9809,0,0.000885,0,0
0:3:18.696,369.616,47.0636,0,0.000885,0,0
0:3:18.997,370.083,47.1188,0,0.000885,0,0
0:3:19.300,370.377,47.1601,0,0.000885,0,0
0:3:19.601,371.022,47.2429,0,0.000885,0,0
0:3:19.900,371.845,47.3463,0,0.000885,0,0
0:3:20.200,371.902,47.3532,0,0.000885,0,0
0:3:20.495,373.077,47.5049,0,0.000885,0,0
0:3:20.793,372.899,47.4773,0,0.000885,0,0
0:3:21.097,373.37,47.5394,0,0.000885,0,0
0:3:21.398,374.54,47.691,0,0.000885,0,0
0:3:21.691,375.185,47.7669,0,0.000885,0,0
0:3:21.999,375.541,47.8151,0,0.000885,0,0
0:3:22.305,375.772,47.8427,0,0.000885,0,0
0:3:22.598,376.595,47.9461,0,0.000885,0,0
0:3:22.899,377.65,48.084,0,0.000885,0,0
0:3:23.191,378.295,48.1668,0,0.000885,0,0
0:3:23.490,378.882,48.2426,0,0.000885,0,0
0:3:23.795,379.117,48.2702,0,0.000885,0,0
0:3:24.096,379.469,48.3185,0,0.000885,0,0
0:3:24.399,380.643,48.4632,0,0.000885,0,0
0:3:24.700,381.052,48.5184,0,0.000885,0,0
0:3:25.001,381.933,48.6287,0,0.000885,0,0
0:3:25.300,382.752,48.7321,0,0.000885,0,0
0:3:25.598,382.752,48.7321,0,0.000885,0,0
0:3:25.893,383.397,48.8149,0,0.000885,0,0
0:3:26.187,383.984,48.8907,0,0.000885,0,0
0:3:26.487,384.335,48.9321,0,0.000885,0,0
0:3:26.792,385.1,49.0355,0,0.000885,0,0
0:3:27.099,385.51,49.0838,0,0.000885,0,0
0:3:27.397,386.564,49.2217,0,0.000885,0,0
0:3:27.700,387.035,49.2768,0,0.000885,0,0
0:3:27.998,387.329,49.3182,0,0.000885,0,0
0:3:28.292,388.147,49.4216,0,0.000885,0,0
0:3:28.593,388.677,49.4906,0,0.000885,0,0
0:3:28.897,389.322,49.5733,0,0.000885,0,0
0:3:29.199,389.673,49.6147,0,0.000885,0,0
0:3:29.501,390.496,49.7181,0,0.000885,0,0
0:3:29.800,391.199,49.8077,0,0.000885,0,0
0:3:30.100,391.435,49.8422,0,0.000885,0,0
0:3:30.395,391.959,49.9043,0,0.000885,0,0
0:3:30.692,393.018,50.0421,0,0.000885,0,0
0:3:30.998,393.312,50.0766,0,0.000885,0,0
0:3:31.292,393.899,50.1525,0,0.000885,0,0
0:3:31.592,394.424,50.2214,0,0.000885,0,0
0:3:31.896,395.247,50.3248,0,0.000885,0,0
0:3:32.196,395.772,50.3938,0,0.000885,0,0
0:3:32.491,396.595,50.4972,0,0.000885,0,0
0:3:32.797,397.124,50.5661,0,0.000885,0,0
0:3:33.094,397.417,50.6006,0,0.000885,0,0
0:3:33.397,398.062,50.6834,0,0.000885,0,0
0:3:33.699,398.65,50.7592,0,0.000885,0,0
0:3:34.002,399.117,50.8144,0,0.000885,0,0
0:3:34.303,399.82,50.904,0,0.000885,0,0
0:3:34.604,400.291,50.966,0,0.000885,0,0
0:3:34.905,401.052,51.0626,0,0.000885,0,0
0:3:35.204,401.287,51.0902,0,0.000885,0,0
0:3:35.498,402.106,51.2005,0,0.000885,0,0
0:3:35.797,402.462,51.2418,0,0.000885,0,0
0:3:36.101,403.28,51.3453,0,0.000885,0,0
0:3:36.397,404.397,51.49,0,0.000885,0,0
0:3:36.694,405.042,51.5728,0,0.000885,0,0
0:3:36.999,405.215,51.5935,0,0.000885,0,0
0:3:37.298,406.096,51.7038,0,0.000885,0,0
0:3:37.589,406.447,51.752,0,0.000885,0,0
0:3:37.888,406.563,51.7658,0,0.000885,0,0
0:3:38.196,407.328,51.8624,0,0.000885,0,0
0:3:38.500,407.915,51.9382,0,0.000885,0,0
0:3:38.799,408.56,52.0209,0,0.000885,0,0
0:3:39.100,409.027,52.0761,0,0.000885,0,0
0:3:39.403,409.672,52.1588,0,0.000885,0,0
0:3:39.703,409.908,52.1933,0,0.000885,0,0
0:3:40.003,410.437,52.2554,0,0.000885,0,0
0:3:40.304,411.434,52.3864,0,0.000885,0,0
0:3:40.598,412.488,52.5174,0,0.000885,0,0
0:3:40.898,412.96,52.5794,0,0.000885,0,0
0:3:41.189,413.72,52.6759,0,0.000885,0,0
0:3:41.488,414.014,52.7173,0,0.000885,0,0
0:3:41.792,414.423,52.7656,0,0.000885,0,0
0:3:42.089,415.891,52.9517,0,0.000885,0,0
0:3:42.399,416.064,52.9724,0,0.000885,0,0
0:3:42.701,416.714,53.0552,0,0.000885,0,0
0:3:43.000,416.772,53.0621,0,0.000885,0,0
0:3:43.294,417.532,53.1586,0,0.000885,0,0
0:3:43.596,418.297,53.262,0,0.000885,0,0
0:3:43.900,419.058,53.3585,0,0.000885,0,0
0:3:44.201,419.352,53.393,0,0.000885,0,0
0:3:44.501,419.645,53.4275,0,0.000885,0,0
0:3:44.800,420.232,53.5033,0,0.000885,0,0
0:3:45.100,420.642,53.5585,0,0.000885,0,0
0:3:45.396,421.287,53.6412,0,0.000885,0,0
0:3:45.701,421.58,53.6757,0,0.000885,0,0
0:3:45.999,422.986,53.8549,0,0.000885,0,0
0:3:46.302,423.457,53.917,0,0.000885,0,0
0:3:46.601,424.102,53.9997,0,0.000885,0,0
0:3:46.896,424.69,54.0756,0,0.000885,0,0
0:3:47.201,425.099,54.1238,0,0.000885,0,0
0:3:47.501,425.922,54.2273,0,0.000885,0,0
0:3:47.793,426.389,54.2893,0,0.000885,0,0
0:3:48.093,426.976,54.3652,0,0.000885,0,0
0:3:48.397,427.563,54.441,0,0.000885,0,0
0:3:48.698,428.444,54.5513,0,0.000885,0,0
0:3:49.002,428.502,54.5582,0,0.000885,0,0
0:3:49.303,429.32,54.6616,0,0.000885,0,0
0:3:49.604,429.965,54.7444,0,0.000885,0,0
0:3:49.905,430.61,54.8271,0,0.000885,0,0
0:3:50.204,431.082,54.8892,0,0.000885,0,0
0:3:50.498,432.078,55.0133,0,0.000885,0,0
0:3:50.796,432.314,55.0408,0,0.000885,0,0
0:3:51.102,432.781,55.1029,0,0.000885,0,0
0:3:51.394,433.368,55.1787,0,0.000885,0,0
0:3:51.696,433.897,55.2477,0,0.000885,0,0
0:3:51.998,434.484,55.3166,0,0.000885,0,0
0:3:52.297,435.009,55.3856,0,0.000885,0,0
0:3:52.590,435.832,55.489,0,0.000885,0,0
0:3:52.886,436.477,55.5717,0,0.000885,0,0
0:3:53.197,436.593,55.5855,0,0.000885,0,0
0:3:53.498,437.358,55.689,0,0.000885,0,0
0:3:53.799,438.003,55.7648,0,0.000885,0,0
0:3:54.101,438.528,55.8337,0,0.000885,0,0
0:3:54.404,439.351,55.9372,0,0.000885,0,0
0:3:54.704,439.996,56.0199,0,0.000885,0,0
0:3:55.003,440.174,56.0475,0,0.000885,0,0
0:3:55.303,440.934,56.144,0,0.000885,0,0
0:3:55.596,441.873,56.2612,0,0.000885,0,0
0:3:55.896,442.402,56.3302,0,0.000885,0,0
0:3:56.201,443.163,56.4267,0,0.000885,0,0
0:3:56.494,443.341,56.4474,0,0.000885,0,0
0:3:56.791,444.337,56.5715,0,0.000885,0,0
0:3:57.097,444.453,56.5922,0,0.000885,0,0
0:3:57.395,445.449,56.7163,0,0.000885,0,0
0:3:57.701,445.921,56.7783,0,0.000885,0,0
0:3:57.997,446.214,56.8128,0,0.000885,0,0
0:3:58.296,447.153,56.93,0,0.000885,0,0
0:3:58.598,447.447,56.9714,0,0.000885,0,0
0:3:58.900,448.092,57.0541,0,0.000885,0,0
0:3:59.201,448.737,57.1369,0,0.000885,0,0
0:3:59.503,449.319,57.2127,0,0.000885,0,0
0:3:59.804,450.787,57.3989,0,0.000885,0,0
0:4:0.103,450.965,57.4195,0,0.000885,0,0
0:4:0.405,451.259,57.454,0,0.000885,0,0
0:4:0.699,452.077,57.5574,0,0.000885,0,0
0:4:1.004,452.371,57.5988,0,0.000885,0,0
0:4:1.301,452.549,57.6195,0,0.000885,0,0
0:4:1.594,453.194,57.7022,0,0.000885,0,0
0:4:1.896,454.012,57.8056,0,0.000885,0,0
0:4:2.198,454.248,57.8332,0,0.000885,0,0
0:4:2.496,455.302,57.9711,0,0.000885,0,0
0:4:2.802,455.889,58.047,0,0.000885,0,0
0:4:3.096,456.534,58.1297,0,0.000885,0,0
0:4:3.397,457.237,58.2193,0,0.000885,0,0
0:4:3.699,457.299,58.2262,0,0.000885,0,0
0:4:4.000,458.06,58.3228,0,0.000885,0,0
0:4:4.305,458.763,58.4124,0,0.000885,0,0
0:4:4.605,459.114,58.4538,0,0.000885,0,0
0:4:4.905,459.701,58.5296,0,0.000885,0,0
0:4:5.205,460.934,58.6882,0,0.000885,0,0
0:4:5.503,460.934,58.6882,0,0.000885,0,0
0:4:5.800,461.579,58.7709,0,0.000885,0,0
0:4:6.104,462.224,58.8536,0,0.000885,0,0
0:4:6.404,462.695,58.9088,0,0.000885,0,0
0:4:6.697,463.398,58.9984,0,0.000885,0,0
0:4:6.997,464.159,59.1019,0,0.000885,0,0
0:4:7.299,464.688,59.1639,0,0.000885,0,0
0:4:7.597,465.155,59.226,0,0.000885,0,0
0:4:7.904,465.684,59.2949,0,0.000885,0,0
0:4:8.198,466.507,59.3983,0,0.000885,0,0
0:4:8.499,466.916,59.4466,0,0.000885,0,0
0:4:8.801,467.561,59.5293,0,0.000885,0,0
0:4:9.101,468.322,59.6259,0,0.000885,0,0
0:4:9.403,468.616,59.6672,0,0.000885,0,0
0:4:9.702,469.087,59.7293,0,0.000885,0,0
0:4:10.004,469.848,59.8258,0,0.000885,0,0
0:4:10.297,470.377,59.8879,0,0.000885,0,0
0:4:10.603,470.964,59.9637,0,0.000885,0,0
0:4:10.902,471.903,60.0878,0,0.000885,0,0
0:4:11.196,472.37,60.143,0,0.000885,0,0
0:4:11.496,472.784,60.1981,0,0.000885,0,0
0:4:11.797,473.366,60.274,0,0.000885,0,0
0:4:12.097,473.602,60.3015,0,0.000885,0,0
0:4:12.402,474.95,60.4739,0,0.000885,0,0
0:4:12.697,475.657,60.5635,0,0.000885,0,0
0:4:13.004,475.831,60.5842,0,0.000885,0,0
0:4:13.299,476.36,60.6532,0,0.000885,0,0
0:4:13.599,477.121,60.7497,0,0.000885,0,0
0:4:13.904,477.944,60.8531,0,0.000885,0,0
0:4:14.204,478.824,60.9634,0,0.000885,0,0
0:4:14.503,478.94,60.9772,0,0.000885,0,0
0:4:14.804,479.176,61.0117,0,0.000885,0,0
0:4:15.104,479.994,61.1151,0,0.000885,0,0
0:4:15.399,480.524,61.1841,0,0.000885,0,0
0:4:15.704,480.991,61.2392,0,0.000885,0,0
0:4:16.002,481.698,61.3289,0,0.000885,0,0
0:4:16.297,482.049,61.3771,0,0.000885,0,0
0:4:16.597,482.81,61.4737,0,0.000885,0,0
0:4:16.900,483.513,61.5633,0,0.000885,0,0
0:4:17.200,484.158,61.646,0,0.000885,0,0
0:4:17.504,484.571,61.6943,0,0.000885,0,0
0:4:17.799,485.51,61.8184,0,0.000885,0,0
0:4:18.098,485.977,61.8736,0,0.000885,0,0
0:4:18.401,486.035,61.8873,0,0.000885,0,0
0:4:18.703,487.325,62.0459,0,0.000885,0,0
0:4:19.005,487.796,62.108,0,0.000885,0,0
0:4:19.307,488.09,62.1424,0,0.000885,0,0
0:4:19.607,488.908,62.2528,0,0.000885,0,0
0:4:19.907,489.202,62.2872,0,0.000885,0,0
0:4:20.206,489.553,62.3355,0,0.000885,0,0
0:4:20.500,490.67,62.4734,0,0.000885,0,0
0:4:20.799,490.848,62.4941,0,0.000885,0,0
0:4:21.091,491.431,62.5699,0,0.000885,0,0
0:4:21.400,491.902,62.632,0,0.000885,0,0
0:4:21.699,492.783,62.7423,0,0.000885,0,0
0:4:22.001,493.601,62.8457,0,0.000885,0,0
0:4:22.299,494.54,62.9698,0,0.000885,0,0
0:4:22.605,495.127,63.0388,0,0.000885,0,0
0:4:22.902,495.011,63.025,0,0.000885,0,0
0:4:23.198,495.772,63.1215,0,0.000885,0,0
0:4:23.490,496.595,63.2249,0,0.000885,0,0
0:4:23.791,497.12,63.2939,0,0.000885,0,0
0:4:24.093,497.765,63.3766,0,0.000885,0,0
0:4:24.394,498.294,63.4456,0,0.000885,0,0
0:4:24.698,499.175,63.5559,0,0.000885,0,0
0:4:24.998,499.82,63.6386,0,0.000885,0,0
0:4:25.308,500.056,63.6662,0,0.000885,0,0
0:4:25.600,499.993,63.6593,0,0.000885,0,0
0:4:25.901,500.932,63.7834,0,0.000885,0,0
0:4:26.204,501.404,63.8386,0,0.000885,0,0
0:4:26.501,501.991,63.9144,0,0.000885,0,0
0:4:26.793,502.578,63.9902,0,0.000885,0,0
0:4:27.089,503.574,64.1143,0,0.000885,0,0
0:4:27.389,504.513,64.2385,0,0.000885,0,0
0:4:27.681,504.922,64.2867,0,0.000885,0,0
0:4:27.982,505.567,64.3695,0,0.000885,0,0
0:4:28.298,506.27,64.4591,0,0.000885,0,0
0:4:28.603,506.563,64.5005,0,0.000885,0,0
0:4:28.901,507.329,64.597,0,0.000885,0,0
0:4:29.203,507.386,64.6039,0,0.000885,0,0
0:4:29.504,507.974,64.6797,0,0.000885,0,0
0:4:29.805,508.676,64.7693,0,0.000885,0,0
0:4:30.105,509.264,64.8383,0,0.000885,0,0
0:4:30.406,509.673,64.8935,0,0.000885,0,0
0:4:30.700,510.554,65.0038,0,0.000885,0,0
0:4:30.999,510.669,65.0176,0,0.000885,0,0
0:4:31.302,511.608,65.1417,0,0.000885,0,0
0:4:31.601,512.956,65.314,0,0.000885,0,0
0:4:31.906,513.249,65.3485,0,0.000885,0,0
0:4:32.202,513.663,65.4037,0,0.000885,0,0
0:4:32.501,514.246,65.4726,0,0.000885,0,0
0:4:32.802,515.011,65.576,0,0.000885,0,0
0:4:33.103,515.598,65.645,0,0.000885,0,0
0:4:33.406,516.007,65.7001,0,0.000885,0,0
0:4:33.708,516.358,65.7415,0,0.000885,0,0
0:4:34.009,516.83,65.8036,0,0.000885,0,0
0:4:34.312,517.533,65.8932,0,0.000885,0,0
0:4:34.611,518.12,65.969,0,0.000885,0,0
0:4:34.911,518.996,66.0794,0,0.000885,0,0
0:4:35.209,519.352,66.1276,0,0.000885,0,0
0:4:35.506,519.935,66.2035,0,0.000885,0,0
0:4:35.800,520.055,66.2172,0,0.000885,0,0
0:4:36.099,520.642,66.2931,0,0.000885,0,0
0:4:36.402,521.225,66.362,0,0.000885,0,0
0:4:36.701,522.399,66.5137,0,0.000885,0,0
0:4:37.004,522.693,66.5482,0,0.000885,0,0
0:4:37.301,523.631,66.6723,0,0.000885,0,0
0:4:37.600,524.276,66.755,0,0.000885,0,0
0:4:37.902,524.628,66.7964,0,0.000885,0,0
0:4:38.203,525.331,66.886,0,0.000885,0,0
0:4:38.506,525.86,66.955,0,0.000885,0,0
0:4:38.806,526.741,67.0653,0,0.000885,0,0
0:4:39.109,527.208,67.1274,0,0.000885,0,0
0:4:39.411,527.679,67.1894,0,0.000885,0,0
0:4:39.713,528.56,67.2997,0,0.000885,0,0
0:4:40.011,528.791,67.3273,0,0.000885,0,0
0:4:40.310,529.085,67.3687,0,0.000885,0,0
0:4:40.606,529.908,67.4721,0,0.000885,0,0
0:4:40.903,530.259,67.5135,0,0.000885,0,0
0:4:41.201,531.313,67.6514,0,0.000885,0,0
0:4:41.503,531.901,67.7272,0,0.000885,0,0
0:4:41.804,532.666,67.8237,0,0.000885,0,0
0:4:42.107,532.897,67.8513,0,0.000885,0,0
0:4:42.406,533.133,67.8789,0,0.000885,0,0
0:4:42.703,534.481,68.0513,0,0.000885,0,0
0:4:42.999,534.774,68.0926,0,0.000885,0,0
0:4:43.306,535.068,68.1271,0,0.000885,0,0
0:4:43.599,535.891,68.2305,0,0.000885,0,0
0:4:43.899,536.478,68.3064,0,0.000885,0,0
0:4:44.202,537.181,68.396,0,0.000885,0,0
0:4:44.503,537.768,68.4718,0,0.000885,0,0
0:4:44.805,538.119,68.5132,0,0.000885,0,0
0:4:45.105,538.586,68.5753,0,0.000885,0,0
0:4:45.406,539.293,68.6649,0,0.000885,0,0
0:4:45.699,539.996,68.7545,0,0.000885,0,0
0:4:45.996,540.641,68.8373,0,0.000885,0,0
0:4:46.304,541.166,68.9062,0,0.000885,0,0
0:4:46.600,541.402,68.9338,0,0.000885,0,0
0:4:46.906,542.576,69.0855,0,0.000885,0,0
0:4:47.200,543.279,69.1751,0,0.000885,0,0
0:4:47.499,543.515,69.2027,0,0.000885,0,0
0:4:47.789,544.511,69.3268,0,0.000885,0,0
0:4:48.088,544.689,69.3544,0,0.000885,0,0
0:4:48.384,544.747,69.3613,0,0.000885,0,0
0:4:48.686,545.565,69.4647,0,0.000885,0,0
0:4:48.989,546.504,69.5819,0,0.000885,0,0
0:4:49.288,546.855,69.6302,0,0.000885,0,0
0:4:49.590,547.794,69.7474,0,0.000885,0,0
0:4:49.888,548.501,69.837,0,0.000885,0,0
0:4:50.194,548.559,69.8439,0,0.000885,0,0
0:4:50.493,549.378,69.9473,0,0.000885,0,0
0:4:50.786,549.849,70.0094,0,0.000885,0,0
0:4:51.085,550.552,70.099,0,0.000885,0,0
0:4:51.390,551.606,70.23,0,0.000885,0,0
0:4:51.697,551.726,70.2507,0,0.000885,0,0
0:4:52.006,552.487,70.3472,0,0.000885,0,0
0:4:52.300,553.719,70.4989,0,0.000885,0,0
0:4:52.600,553.897,70.5265,0,0.000885,0,0
0:4:52.901,553.777,70.5058,0,0.000885,0,0
0:4:53.200,554.773,70.6368,0,0.000885,0,0
0:4:53.505,555.36,70.7126,0,0.000885,0,0
0:4:53.805,555.712,70.754,0,0.000885,0,0
0:4:54.109,556.535,70.8574,0,0.000885,0,0
0:4:54.409,556.828,70.8988,0,0.000885,0,0
0:4:54.710,557.709,71.0091,0,0.000885,0,0
0:4:55.010,558.176,71.0712,0,0.000885,0,0
0:4:55.307,558.821,71.1539,0,0.000885,0,0
0:4:55.605,559.466,71.2366,0,0.000885,0,0
0:4:55.900,560.053,71.3056,0,0.000885,0,0
0:4:56.200,560.111,71.3125,0,0.000885,0,0
0:4:56.504,561.753,71.5262,0,0.000885,0,0
0:4:56.802,561.873,71.54,0,0.000885,0,0
0:4:57.106,562.811,71.6572,0,0.000885,0,0
0:4:57.401,563.278,71.7193,0,0.000885,0,0
0:4:57.701,563.981,71.8089,0,0.000885,0,0
0:4:58.004,564.51,71.8778,0,0.000885,0,0
0:4:58.304,564.982,71.933,0,0.000885,0,0
0:4:58.595,565.391,71.9882,0,0.000885,0,0
0:4:58.896,565.743,72.0295,0,0.000885,0,0
0:4:59.202,566.33,72.1054,0,0.000885,0,0
0:4:59.503,567.148,72.2088,0,0.000885,0,0
0:4:59.804,567.504,72.2571,0,0.000885,0,0
0:5:0.104,568.443,72.3743,0,0.000885,0,0
0:5:0.403,569.088,72.457,0,0.000885,0,0
0:5:0.707,569.906,72.5604,0,0.000885,0,0
0:5:1.004,569.733,72.5397,0,0.000885,0,0
0:5:1.301,571.196,72.7259,0,0.000885,0,0
0:5:1.604,571.254,72.7328,0,0.000885,0,0
0:5:1.904,571.899,72.8155,0,0.000885,0,0
0:5:2.197,572.313,72.8707,0,0.000885,0,0
0:5:2.504,573.251,72.9879,0,0.000885,0,0
0:5:2.802,573.367,73.0017,0,0.000885,0,0
0:5:3.106,574.363,73.1327,0,0.000885,0,0
0:5:3.406,574.248,73.112,0,0.000885,0,0
0:5:3.706,575.302,73.2499,0,0.000885,0,0
0:5:4.008,575.653,73.2913,0,0.000885,0,0
0:5:4.309,576.183,73.3602,0,0.000885,0,0
0:5:4.612,577.766,73.5602,0,0.000885,0,0
0:5:4.912,577.53,73.5326,0,0.000885,0,0
0:5:5.213,578.705,73.6843,0,0.000885,0,0
0:5:5.513,579.056,73.7256,0,0.000885,0,0
0:5:5.806,579.408,73.7739,0,0.000885,0,0
0:5:6.105,580.698,73.9394,0,0.000885,0,0
0:5:6.398,580.875,73.9601,0,0.000885,0,0
0:5:6.704,581.285,74.0083,0,0.000885,0,0
0:5:7.003,581.636,74.0566,0,0.000885,0,0
0:5:7.306,582.575,74.1738,0,0.000885,0,0
0:5:7.606,582.633,74.1807,0,0.000885,0,0
0:5:7.898,583.513,74.2979,0,0.000885,0,0
0:5:8.207,584.216,74.3875,0,0.000885,0,0
0:5:8.505,584.452,74.4151,0,0.000885,0,0
0:5:8.806,585.506,74.5461,0,0.000885,0,0
0:5:9.110,585.92,74.6013,0,0.000885,0,0
0:5:9.409,585.92,74.6013,0,0.000885,0,0
0:5:9.710,586.623,74.6909,0,0.000885,0,0
0:5:10.010,587.677,74.8288,0,0.000885,0,0
0:5:10.305,588.442,74.9253,0,0.000885,0,0
0:5:10.606,588.967,74.9874,0,0.000885,0,0
0:5:10.906,589.145,75.015,0,0.000885,0,0
0:5:11.206,589.79,75.0977,0,0.000885,0,0
0:5:11.503,590.906,75.2356,0,0.000885,0,0
0:5:11.799,591.551,75.3183,0,0.000885,0,0
0:5:12.110,592.138,75.3942,0,0.000885,0,0
0:5:12.405,592.783,75.4769,0,0.000885,0,0
0:5:12.707,593.428,75.5596,0,0.000885,0,0
0:5:12.999,593.838,75.6079,0,0.000885,0,0
0:5:13.310,594.073,75.6424,0,0.000885,0,0
0:5:13.608,595.132,75.7734,0,0.000885,0,0
0:5:13.911,595.835,75.863,0,0.000885,0,0
0:5:14.216,596.48,75.9458,0,0.000885,0,0
0:5:14.518,596.831,75.994,0,0.000885,0,0
0:5:14.819,597.125,76.0285,0,0.000885,0,0
0:5:15.121,597.539,76.0836,0,0.000885,0,0
0:5:15.417,598.419,76.194,0,0.000885,0,0
0:5:15.718,599.18,76.2905,0,0.000885,0,0
0:5:16.013,599.651,76.3525,0,0.000885,0,0
0:5:16.315,600.003,76.3939,0,0.000885,0,0
0:5:16.608,600.648,76.4766,0,0.000885,0,0
0:5:16.907,601.293,76.5594,0,0.000885,0,0
0:5:17.204,601.822,76.6283,0,0.000885,0,0
0:5:17.498,602.351,76.6904,0,0.000885,0,0
0:5:17.798,602.645,76.7318,0,0.000885,0,0
0:5:18.104,603.348,76.8214,0,0.000885,0,0
0:5:18.406,604.171,76.9248,0,0.000885,0,0
0:5:18.703,605.109,77.042,0,0.000885,0,0
0:5:19.004,605.461,77.0903,0,0.000885,0,0
0:5:19.308,605.874,77.1454,0,0.000885,0,0
0:5:19.611,607.049,77.2902,0,0.000885,0,0
0:5:19.912,607.809,77.3868,0,0.000885,0,0
0:5:20.214,608.161,77.435,0,0.000885,0,0
0:5:20.514,608.454,77.4695,0,0.000885,0,0
0:5:20.810,608.632,77.4902,0,0.000885,0,0
0:5:21.107,609.629,77.6212,0,0.000885,0,0
0:5:21.409,610.042,77.6694,0,0.000885,0,0
0:5:21.699,610.745,77.7591,0,0.000885,0,0
0:5:22.003,611.506,77.8625,0,0.000885,0,0
0:5:22.308,612.213,77.9521,0,0.000885,0,0
0:5:22.607,612.565,77.9935,0,0.000885,0,0
0:5:22.904,613.33,78.09,0,0.000885,0,0
0:5:23.209,613.503,78.1107,0,0.000885,0,0
0:5:23.512,614.09,78.1865,0,0.000885,0,0
0:5:23.817,615.149,78.3244,0,0.000885,0,0
0:5:24.121,616.03,78.4348,0,0.000885,0,0
0:5:24.422,615.967,78.4279,0,0.000885,0,0
0:5:24.723,616.79,78.5313,0,0.000885,0,0
0:5:25.024,617.026,78.5589,0,0.000885,0,0
0:5:25.321,617.907,78.6761,0,0.000885,0,0
0:5:25.621,618.61,78.7657,0,0.000885,0,0
0:5:25.917,618.961,78.8071,0,0.000885,0,0
0:5:26.214,619.375,78.8622,0,0.000885,0,0
0:5:26.515,620.843,79.0484,0,0.000885,0,0
0:5:26.809,621.136,79.0829,0,0.000885,0,0
0:5:27.111,621.194,79.0898,0,0.000885,0,0
0:5:27.406,621.723,79.1587,0,0.000885,0,0
0:5:27.705,621.897,79.1794,0,0.000885,0,0
0:5:28.003,623.365,79.3724,0,0.000885,0,0
0:5:28.297,623.894,79.4345,0,0.000885,0,0
0:5:28.599,624.13,79.469,0,0.000885,0,0
0:5:28.905,624.597,79.5241,0,0.000885,0,0
0:5:29.208,625.478,79.6413,0,0.000885,0,0
0:5:29.511,626.359,79.7517,0,0.000885,0,0
0:5:29.812,626.768,79.7999,0,0.000885,0,0
0:5:30.114,627.533,79.9033,0,0.000885,0,0
0:5:30.408,627.711,79.924,0,0.000885,0,0
0:5:30.711,628.765,80.055,0,0.000885,0,0
0:5:31.004,629.352,80.1309,0,0.000885,0,0
0:5:31.313,629.588,80.1584,0,0.000885,0,0
0:5:31.609,629.646,80.1722,0,0.000885,0,0
0:5:31.907,630.469,80.2757,0,0.000885,0,0
0:5:32.207,631.407,80.3929,0,0.000885,0,0
0:5:32.509,631.701,80.4273,0,0.000885,0,0
0:5:32.812,632.168,80.4894,0,0.000885,0,0
0:5:33.107,633.111,80.6066,0,0.000885,0,0
0:5:33.406,633.636,80.6756,0,0.000885,0,0
0:5:33.714,634.285,80.7583,0,0.000885,0,0
0:5:34.016,634.752,80.8203,0,0.000885,0,0
0:5:34.320,635.691,80.9376,0,0.000885,0,0
0:5:34.623,636.162,80.9996,0,0.000885,0,0
0:5:34.923,636.692,81.0686,0,0.000885,0,0
0:5:35.226,637.043,81.1099,0,0.000885,0,0
0:5:35.522,637.63,81.1858,0,0.000885,0,0
0:5:35.823,638.333,81.2754,0,0.000885,0,0
0:5:36.117,638.569,81.303,0,0.000885,0,0
0:5:36.419,639.507,81.4271,0,0.000885,0,0
0:5:36.714,640.388,81.5374,0,0.000885,0,0
0:5:37.013,640.86,81.5995,0,0.000885,0,0
0:5:37.312,641.678,81.7029,0,0.000885,0,0
0:5:37.606,642.208,81.7718,0,0.000885,0,0
0:5:37.908,642.853,81.8477,0,0.000885,0,0
0:5:38.204,643.382,81.9166,0,0.000885,0,0
0:5:38.501,643.733,81.9649,0,0.000885,0,0
0:5:38.798,644.556,82.0683,0,0.000885,0,0
0:5:39.099,645.201,82.151,0,0.000885,0,0
0:5:39.407,646.082,82.2613,0,0.000885,0,0
0:5:39.709,646.376,82.2958,0,0.000885,0,0
0:5:40.010,646.553,82.3234,0,0.000885,0,0
0:5:40.312,647.021,82.3786,0,0.000885,0,0
0:5:40.610,647.901,82.4958,0,0.000885,0,0
0:5:40.911,648.017,82.5096,0,0.000885,0,0
0:5:41.205,648.84,82.613,0,0.000885,0,0
0:5:41.507,649.369,82.6819,0,0.000885,0,0
0:5:41.802,650.601,82.8405,0,0.000885,0,0
0:5:42.098,651.011,82.8888,0,0.000885,0,0
0:5:42.398,651.131,82.9026,0,0.000885,0,0
0:5:42.715,651.66,82.9715,0,0.000885,0,0
0:5:43.014,652.069,83.0267,0,0.000885,0,0
0:5:43.312,652.834,83.1232,0,0.000885,0,0
0:5:43.610,653.537,83.2128,0,0.000885,0,0
0:5:43.910,653.946,83.2611,0,0.000885,0,0
0:5:44.214,654.769,83.3645,0,0.000885,0,0
0:5:44.518,656.001,83.5231,0,0.000885,0,0
0:5:44.820,656.353,83.5714,0,0.000885,0,0
0:5:45.122,656.589,83.5989,0,0.000885,0,0
0:5:45.423,657.176,83.6748,0,0.000885,0,0
0:5:45.720,657.879,83.7644,0,0.000885,0,0
0:5:46.020,656.589,83.5989,0,0.000885,0,0
0:5:46.313,656.122,83.5369,0,0.000885,0,0
0:5:46.612,656.179,83.5438,0,0.000885,0,0
0:5:46.910,656.882,83.6403,0,0.000885,0,0
0:5:47.205,658.35,83.8265,0,0.000885,0,0
0:5:47.506,659.524,83.9712,0,0.000885,0,0
0:5:47.812,660.463,84.0954,0,0.000885,0,0
0:5:48.111,661.522,84.2264,0,0.000885,0,0
0:5:48.409,662.518,84.3574,0,0.000885,0,0
0:5:48.711,664.044,84.5504,0,0.000885,0,0
0:5:49.017,664.573,84.6194,0,0.000885,0,0
0:5:49.318,665.57,84.7435,0,0.000885,0,0
0:5:49.621,666.041,84.8055,0,0.000885,0,0
0:5:49.922,667.038,84.9296,0,0.000885,0,0
0:5:50.219,667.625,85.0055,0,0.000885,0,0
0:5:50.520,668.092,85.0675,0,0.000885,0,0
0:5:50.815,668.27,85.0882,0,0.000885,0,0
0:5:51.117,668.621,85.1296,0,0.000885,0,0
0:5:51.411,668.799,85.1571,0,0.000885,0,0
0:5:51.709,669.15,85.1985,0,0.000885,0,0
0:5:52.008,669.266,85.2123,0,0.000885,0,0
0:5:52.301,670.089,85.3157,0,0.000885,0,0
0:5:52.603,670.97,85.4329,0,0.000885,0,0
0:5:52.908,672.028,85.5639,0,0.000885,0,0
0:5:53.209,672.909,85.6743,0,0.000885,0,0
0:5:53.501,673.025,85.6949,0,0.000885,0,0
0:5:53.806,674.199,85.8397,0,0.000885,0,0
0:5:54.110,674.728,85.9087,0,0.000885,0,0
0:5:54.413,675.373,85.9914,0,0.000885,0,0
0:5:54.714,675.841,86.0535,0,0.000885,0,0
0:5:55.016,676.49,86.1362,0,0.000885,0,0
0:5:55.316,676.663,86.1569,0,0.000885,0,0
0:5:55.614,677.544,86.2672,0,0.000885,0,0
0:5:55.909,675.489,86.0052,0,0.000885,0,0
0:5:56.208,675.08,85.9569,0,0.000885,0,0
0:5:56.499,675.783,86.0466,0,0.000885,0,0
0:5:56.800,677.077,86.2052,0,0.000885,0,0
0:5:57.095,678.425,86.3775,0,0.000885,0,0
0:5:57.394,678.954,86.4465,0,0.000885,0,0
0:5:57.703,679.248,86.4809,0,0.000885,0,0
0:5:57.997,680.129,86.5982,0,0.000885,0,0
0:5:58.300,680.947,86.7016,0,0.000885,0,0
0:5:58.604,681.597,86.7843,0,0.000885,0,0
0:5:58.909,682.415,86.8877,0,0.000885,0,0
0:5:59.213,683.883,87.0739,0,0.000885,0,0
0:5:59.515,643.969,81.9925,0,0.000885,0,0
0:5:59.815,621.368,79.1173,0,0.000885,0,0
0:6:0.115,616.733,78.5244,0,0.000885,0,0
0:6:0.417,615.794,78.4072,0,0.000885,0,0
0:6:0.712,599.825,76.3732,0,0.000885,0,0
0:6:1.008,595.248,75.7872,0,0.000885,0,0
0:6:1.304,582.517,74.1669,0,0.000885,0,0
0:6:1.609,576.77,73.4361,0,0.000885,0,0
0:6:1.909,574.835,73.1878,0,0.000885,0,0
0:6:2.209,574.07,73.0913,0,0.000885,0,0
0:6:2.508,573.896,73.0706,0,0.000885,0,0
0:6:2.801,572.544,72.8983,0,0.000885,0,0
0:6:3.107,571.49,72.7673,0,0.000885,0,0
0:6:3.403,556.886,70.9057,0,0.000885,0,0
0:6:3.708,552.487,70.3472,0,0.000885,0,0
0:6:4.007,547.563,69.7198,0,0.000885,0,0
0:6:4.309,538.293,68.5408,0,0.000885,0,0
0:6:4.612,523.102,66.6034,0,0.000885,0,0
0:6:4.910,499.411,63.5835,0,0.000885,0,0
0:6:4.921,499.411,63.5835,0,0.000885,0,0