File: DataFile2021-06-06_061300.csv
Test ID:,Date Tested:,Time:,Test Type:,Diameter Avg. (mm):,Cyl. Corr. Factor:,Height (mm):,Age (days):,Weight (kN):,Break Type:,Ramp Rate (MPa/s):,Load at Break (kN):,Stress at Break (MPa):
12,6/6/2021,06:13,Cylinder,150,1,300,0,13.39,3,0.24,611.45,34.6
Sample Time,Load (kN),Stress (MPa),Long. Strain,Trans. Strain,Chan1 Deflection (mm),Chan2 Deflection (mm)
0:0:21.002,5.15994,0.28958,0,0.000885,0,0
0:0:21.202,12.5529,0.71016,0,0.000885,0,0
0:0:21.398,13.6649,0.772213,0,0.000885,0,0
0:0:21.599,13.3135,0.751529,0,0.000885,0,0
0:0:21.795,12.9043,0.730844,0,0.000885,0,0
0:0:21.994,12.8465,0.72395,0,0.000885,0,0
0:0:22.195,12.2593,0.69637,0,0.000885,0,0
0:0:22.389,12.2593,0.69637,0,0.000885,0,0
0:0:22.591,12.4906,0.71016,0,0.000885,0,0
0:0:22.788,13.0778,0.737739,0,0.000885,0,0
0:0:22.985,12.4328,0.703265,0,0.000885,0,0
0:0:23.187,13.0199,0.737739,0,0.000885,0,0
0:0:23.380,13.4915,0.765318,0,0.000885,0,0
0:0:23.582,14.3099,0.806687,0,0.000885,0,0
0:0:23.782,16.5385,0.937687,0,0.000885,0,0
0:0:23.977,16.7164,0.944582,0,0.000885,0,0
0:0:24.179,17.8863,1.01353,0,0.000885,0,0
0:0:24.376,18.767,1.06179,0,0.000885,0,0
0:0:24.575,19.7056,1.11695,0,0.000885,0,0
0:0:24.776,20.9956,1.1859,0,0.000885,0,0
0:0:24.972,21.5828,1.22037,0,0.000885,0,0
0:0:25.174,22.8728,1.29621,0,0.000885,0,0
0:0:25.372,23.6378,1.33758,0,0.000885,0,0
0:0:25.571,25.0435,1.42032,0,0.000885,0,0
0:0:25.772,25.3371,1.43411,0,0.000885,0,0
0:0:25.968,26.3913,1.49616,0,0.000885,0,0
0:0:26.168,26.8628,1.51685,0,0.000885,0,0
0:0:26.370,28.1528,1.59269,0,0.000885,0,0
0:0:26.574,28.6821,1.62027,0,0.000885,0,0
0:0:26.777,29.852,1.68922,0,0.000885,0,0
0:0:26.979,30.6749,1.73748,0,0.000885,0,0
0:0:27.181,32.3163,1.82711,0,0.000885,0,0
0:0:27.383,33.4328,1.88916,0,0.000885,0,0
0:0:27.585,34.6605,1.95811,0,0.000885,0,0
0:0:27.786,35.5413,2.01327,0,0.000885,0,0
0:0:27.986,37.1249,2.1029,0,0.000885,0,0
0:0:28.185,38.0056,2.15116,0,0.000885,0,0
0:0:28.386,39.5313,2.2339,0,0.000885,0,0
0:0:28.581,40.3498,2.28216,0,0.000885,0,0
0:0:28.783,41.8177,2.3649,0,0.000885,0,0
0:0:28.981,42.3471,2.39938,0,0.000885,0,0
0:0:29.179,42.872,2.42695,0,0.000885,0,0
0:0:29.382,43.7527,2.47522,0,0.000885,0,0
0:0:29.575,44.3977,2.50969,0,0.000885,0,0
0:0:29.777,44.8692,2.53727,0,0.000885,0,0
0:0:29.976,45.5142,2.57864,0,0.000885,0,0
0:0:30.174,46.217,2.61311,0,0.000885,0,0
0:0:30.376,46.5106,2.6338,0,0.000885,0,0
0:0:30.573,48.2098,2.73032,0,0.000885,0,0
0:0:30.773,48.8548,2.7648,0,0.000885,0,0
0:0:30.974,49.7934,2.81996,0,0.000885,0,0
0:0:31.171,49.8512,2.81996,0,0.000885,0,0
0:0:31.372,51.0834,2.8889,0,0.000885,0,0
0:0:31.574,51.9063,2.93717,0,0.000885,0,0
0:0:31.779,53.3698,3.0199,0,0.000885,0,0
0:0:31.981,54.0192,3.05438,0,0.000885,0,0
0:0:32.183,55.0156,3.11643,0,0.000885,0,0
0:0:32.385,55.367,3.13022,0,0.000885,0,0
0:0:32.587,57.0084,3.22675,0,0.000885,0,0
0:0:32.787,57.0084,3.22675,0,0.000885,0,0
0:0:32.989,58.4763,3.30948,0,0.000885,0,0
0:0:33.184,58.7699,3.32327,0,0.000885,0,0
0:0:33.386,59.882,3.38533,0,0.000885,0,0
0:0:33.584,60.7627,3.44048,0,0.000885,0,0
0:0:33.780,61.7013,3.48875,0,0.000885,0,0
0:0:33.983,62.3463,3.53012,0,0.000885,0,0
0:0:34.181,63.3427,3.58527,0,0.000885,0,0
0:0:34.382,64.6905,3.66112,0,0.000885,0,0
0:0:34.581,64.9841,3.67491,0,0.000885,0,0
0:0:34.777,66.2741,3.75075,0,0.000885,0,0
0:0:34.979,67.2126,3.80591,0,0.000885,0,0
0:0:35.177,68.3291,3.86796,0,0.000885,0,0
0:0:35.377,69.0898,3.90933,0,0.000885,0,0
0:0:35.579,69.7926,3.9507,0,0.000885,0,0
0:0:35.773,70.4376,3.98517,0,0.000885,0,0
0:0:35.975,71.3762,4.04033,0,0.000885,0,0
0:0:36.173,71.8477,4.06791,0,0.000885,0,0
0:0:36.373,73.3734,4.15064,0,0.000885,0,0
0:0:36.574,73.667,4.17133,0,0.000885,0,0
0:0:36.777,74.7791,4.23338,0,0.000885,0,0
0:0:36.981,75.1883,4.25407,0,0.000885,0,0
0:0:37.184,76.8341,4.35059,0,0.000885,0,0
0:0:37.385,77.6526,4.39196,0,0.000885,0,0
0:0:37.586,79.0627,4.4747,0,0.000885,0,0
0:0:37.788,79.5298,4.50228,0,0.000885,0,0
0:0:37.991,80.8776,4.57812,0,0.000885,0,0
0:0:38.190,81.229,4.5988,0,0.000885,0,0
0:0:38.387,82.1675,4.64707,0,0.000885,0,0
0:0:38.588,82.8125,4.68843,0,0.000885,0,0
0:0:38.786,83.4575,4.72291,0,0.000885,0,0
0:0:38.985,84.6319,4.79186,0,0.000885,0,0
0:0:39.187,84.9254,4.80565,0,0.000885,0,0
0:0:39.381,86.509,4.89528,0,0.000885,0,0
0:0:39.583,87.2118,4.93665,0,0.000885,0,0
0:0:39.783,88.3283,4.9987,0,0.000885,0,0
0:0:39.980,88.8577,5.02628,0,0.000885,0,0
0:0:40.182,90.1477,5.10212,0,0.000885,0,0
0:0:40.378,90.4991,5.1228,0,0.000885,0,0
0:0:40.578,91.9047,5.19865,0,0.000885,0,0
0:0:40.779,92.7855,5.25381,0,0.000885,0,0
0:0:40.975,94.3112,5.33654,0,0.000885,0,0
0:0:41.176,94.6626,5.35723,0,0.000885,0,0
0:0:41.379,95.3076,5.3917,0,0.000885,0,0
0:0:41.583,95.7168,5.41928,0,0.000885,0,0
0:0:41.786,97.1847,5.50202,0,0.000885,0,0
0:0:41.988,97.594,5.5227,0,0.000885,0,0
0:0:42.190,99.4133,5.62612,0,0.000885,0,0
0:0:42.391,99.4711,5.62612,0,0.000885,0,0
0:0:42.594,100.703,5.70196,0,0.000885,0,0
0:0:42.795,101.406,5.73644,0,0.000885,0,0
0:0:42.990,102.874,5.81918,0,0.000885,0,0
0:0:43.192,103.283,5.84675,0,0.000885,0,0
0:0:43.390,103.461,5.85365,0,0.000885,0,0
0:0:43.587,105.103,5.95018,0,0.000885,0,0
0:0:43.790,105.276,5.95707,0,0.000885,0,0
0:0:43.985,106.802,6.0467,0,0.000885,0,0
0:0:44.186,107.505,6.08118,0,0.000885,0,0
0:0:44.385,108.857,6.15702,0,0.000885,0,0
0:0:44.581,109.15,6.1777,0,0.000885,0,0
0:0:44.784,110.32,6.23976,0,0.000885,0,0
0:0:44.981,110.672,6.26044,0,0.000885,0,0
0:0:45.182,111.904,6.32939,0,0.000885,0,0
0:0:45.382,112.491,6.36386,0,0.000885,0,0
0:0:45.579,113.959,6.4466,0,0.000885,0,0
0:0:45.780,114.31,6.46728,0,0.000885,0,0
0:0:45.978,115.778,6.55002,0,0.000885,0,0
0:0:46.178,116.067,6.5707,0,0.000885,0,0
0:0:46.379,117.887,6.67413,0,0.000885,0,0
0:0:46.582,118.296,6.69481,0,0.000885,0,0
0:0:46.786,119.528,6.76376,0,0.000885,0,0
0:0:46.988,120.115,6.79823,0,0.000885,0,0
0:0:47.189,121.347,6.86718,0,0.000885,0,0
0:0:47.391,121.992,6.90165,0,0.000885,0,0
0:0:47.593,123.167,6.9706,0,0.000885,0,0
0:0:47.794,123.985,7.01886,0,0.000885,0,0
0:0:47.993,124.163,7.02576,0,0.000885,0,0
0:0:48.192,125.102,7.08092,0,0.000885,0,0
0:0:48.393,125.689,7.11539,0,0.000885,0,0
0:0:48.589,126.979,7.18434,0,0.000885,0,0
0:0:48.790,127.682,7.22571,0,0.000885,0,0
0:0:48.988,128.62,7.28086,0,0.000885,0,0
0:0:49.186,129.381,7.32223,0,0.000885,0,0
0:0:49.389,130.613,7.39118,0,0.000885,0,0
0:0:49.585,131.61,7.44634,0,0.000885,0,0
0:0:49.785,132.317,7.48771,0,0.000885,0,0
0:0:49.985,133.313,7.54286,0,0.000885,0,0
0:0:50.182,134.252,7.59802,0,0.000885,0,0
0:0:50.384,134.545,7.61181,0,0.000885,0,0
0:0:50.582,136.071,7.70144,0,0.000885,0,0
0:0:50.779,137.068,7.7566,0,0.000885,0,0
0:0:50.982,137.944,7.80487,0,0.000885,0,0
0:0:51.177,138.825,7.85313,0,0.000885,0,0
0:0:51.378,139.527,7.8945,0,0.000885,0,0
0:0:51.580,140.235,7.93587,0,0.000885,0,0
0:0:51.784,141.467,8.00481,0,0.000885,0,0
0:0:51.987,141.818,8.0255,0,0.000885,0,0
0:0:52.189,142.815,8.08066,0,0.000885,0,0
0:0:52.390,143.46,8.11513,0,0.000885,0,0
0:0:52.593,144.634,8.18408,0,0.000885,0,0
0:0:52.795,145.746,8.24613,0,0.000885,0,0
0:0:52.997,146.627,8.29439,0,0.000885,0,0
0:0:53.194,147.975,8.37713,0,0.000885,0,0
0:0:53.393,148.21,8.38402,0,0.000885,0,0
0:0:53.595,149.558,8.45987,0,0.000885,0,0
0:0:53.791,150.323,8.50813,0,0.000885,0,0
0:0:53.993,151.262,8.55639,0,0.000885,0,0
0:0:54.189,151.844,8.59087,0,0.000885,0,0
0:0:54.388,153.134,8.66671,0,0.000885,0,0
0:0:54.590,153.722,8.70118,0,0.000885,0,0
0:0:54.785,154.954,8.77013,0,0.000885,0,0
0:0:54.986,155.599,8.80461,0,0.000885,0,0
0:0:55.185,156.422,8.85287,0,0.000885,0,0
0:0:55.382,156.595,8.85976,0,0.000885,0,0
0:0:55.584,158.063,8.9425,0,0.000885,0,0
0:0:55.780,158.53,8.97008,0,0.000885,0,0
0:0:55.982,159.705,9.03903,0,0.000885,0,0
0:0:56.181,160.47,9.0804,0,0.000885,0,0
0:0:56.379,162.284,9.18382,0,0.000885,0,0
0:0:56.580,162.992,9.22519,0,0.000885,0,0
0:0:56.783,163.401,9.24587,0,0.000885,0,0
0:0:56.986,163.868,9.27345,0,0.000885,0,0
0:0:57.190,165.63,9.36998,0,0.000885,0,0
0:0:57.391,166.039,9.39755,0,0.000885,0,0
0:0:57.594,166.568,9.42513,0,0.000885,0,0
0:0:57.795,167.507,9.48029,0,0.000885,0,0
0:0:57.997,168.681,9.54234,0,0.000885,0,0
0:0:58.197,169.615,9.5975,0,0.000885,0,0
0:0:58.395,170.087,9.62508,0,0.000885,0,0
0:0:58.597,171.434,9.70092,0,0.000885,0,0
0:0:58.793,172.2,9.74229,0,0.000885,0,0
0:0:58.994,173.018,9.79056,0,0.000885,0,0
0:0:59.194,173.605,9.82503,0,0.000885,0,0
0:0:59.390,174.953,9.90087,0,0.000885,0,0
0:0:59.592,175.54,9.93535,0,0.000885,0,0
0:0:59.789,176.657,9.9974,0,0.000885,0,0
0:0:59.990,177.244,10.0319,0,0.000885,0,0
0:1:0.191,178.707,10.1146,0,0.000885,0,0
0:1:0.386,179.352,10.1491,0,0.000885,0,0
0:1:0.588,179.766,10.1698,0,0.000885,0,0
0:1:0.784,180.411,10.2111,0,0.000885,0,0
0:1:0.985,182.052,10.3008,0,0.000885,0,0
0:1:1.187,182.404,10.3215,0,0.000885,0,0
0:1:1.390,184.517,10.4387,0,0.000885,0,0
0:1:1.593,184.984,10.4662,0,0.000885,0,0
0:1:1.795,185.629,10.5076,0,0.000885,0,0
0:1:1.997,186.216,10.5352,0,0.000885,0,0
0:1:2.198,187.212,10.5972,0,0.000885,0,0
0:1:2.400,187.799,10.6248,0,0.000885,0,0
0:1:2.602,189.147,10.7007,0,0.000885,0,0
0:1:2.800,189.557,10.7282,0,0.000885,0,0
0:1:2.999,190.557,10.7834,0,0.000885,0,0
0:1:3.200,191.318,10.8248,0,0.000885,0,0
0:1:3.396,192.021,10.8661,0,0.000885,0,0
0:1:3.597,194.014,10.9765,0,0.000885,0,0
0:1:3.793,194.543,11.0109,0,0.000885,0,0
0:1:3.990,195.659,11.073,0,0.000885,0,0
0:1:4.190,195.953,11.0868,0,0.000885,0,0
0:1:4.385,197.123,11.1557,0,0.000885,0,0
0:1:4.584,197.474,11.1764,0,0.000885,0,0
0:1:4.783,198.942,11.2591,0,0.000885,0,0
0:1:4.977,199.587,11.2936,0,0.000885,0,0
0:1:5.178,200.526,11.3488,0,0.000885,0,0
0:1:5.374,201.464,11.4039,0,0.000885,0,0
0:1:5.573,202.225,11.4453,0,0.000885,0,0
0:1:5.771,202.932,11.4867,0,0.000885,0,0
0:1:5.964,203.399,11.5073,0,0.000885,0,0
0:1:6.166,204.516,11.5763,0,0.000885,0,0
0:1:6.366,204.925,11.597,0,0.000885,0,0
0:1:6.569,206.037,11.659,0,0.000885,0,0
0:1:6.770,206.509,11.6866,0,0.000885,0,0
0:1:6.971,207.799,11.7556,0,0.000885,0,0
0:1:7.171,208.679,11.8107,0,0.000885,0,0
0:1:7.372,209.969,11.8797,0,0.000885,0,0
0:1:7.570,210.73,11.9279,0,0.000885,0,0
0:1:7.772,211.726,11.9831,0,0.000885,0,0
0:1:7.967,212.14,12.0038,0,0.000885,0,0
0:1:8.166,213.839,12.1003,0,0.000885,0,0
0:1:8.364,214.427,12.1348,0,0.000885,0,0
0:1:8.562,215.481,12.1968,0,0.000885,0,0
0:1:8.763,216.419,12.2451,0,0.000885,0,0
0:1:8.957,217.594,12.314,0,0.000885,0,0
0:1:9.157,217.887,12.3278,0,0.000885,0,0
0:1:9.354,218.59,12.3692,0,0.000885,0,0
0:1:9.550,220.116,12.4588,0,0.000885,0,0
0:1:9.750,220.467,12.4726,0,0.000885,0,0
0:1:9.955,221.935,12.5622,0,0.000885,0,0
0:1:10.156,222.46,12.5898,0,0.000885,0,0
0:1:10.351,223.634,12.6519,0,0.000885,0,0
0:1:10.548,224.279,12.6932,0,0.000885,0,0
0:1:10.748,224.924,12.7277,0,0.000885,0,0
0:1:10.943,225.627,12.7691,0,0.000885,0,0
0:1:11.142,226.686,12.8311,0,0.000885,0,0
0:1:11.342,227.504,12.8725,0,0.000885,0,0
0:1:11.545,228.852,12.9484,0,0.000885,0,0
0:1:11.746,229.381,12.9828,0,0.000885,0,0
0:1:11.947,230.32,13.0311,0,0.000885,0,0
0:1:12.148,230.671,13.0518,0,0.000885,0,0
0:1:12.347,231.904,13.1207,0,0.000885,0,0
0:1:12.548,232.491,13.1552,0,0.000885,0,0
0:1:12.748,233.959,13.2379,0,0.000885,0,0
0:1:12.945,234.484,13.2724,0,0.000885,0,0
0:1:13.154,235.774,13.3414,0,0.000885,0,0
0:1:13.351,236.361,13.3758,0,0.000885,0,0
0:1:13.556,237.829,13.4586,0,0.000885,0,0
0:1:13.757,238.296,13.4861,0,0.000885,0,0
0:1:13.955,239.528,13.5551,0,0.000885,0,0
0:1:14.150,239.999,13.5827,0,0.000885,0,0
0:1:14.350,240.876,13.6309,0,0.000885,0,0
0:1:14.556,241.289,13.6516,0,0.000885,0,0
0:1:14.756,242.108,13.6999,0,0.000885,0,0
0:1:14.952,243.224,13.7619,0,0.000885,0,0
0:1:15.160,243.927,13.8033,0,0.000885,0,0
0:1:15.360,245.044,13.8654,0,0.000885,0,0
0:1:15.551,245.511,13.8929,0,0.000885,0,0
0:1:15.752,247.152,13.9826,0,0.000885,0,0
0:1:15.950,247.975,14.0308,0,0.000885,0,0
0:1:16.157,249.029,14.0929,0,0.000885,0,0
0:1:16.358,249.674,14.1274,0,0.000885,0,0
0:1:16.560,251.2,14.217,0,0.000885,0,0
0:1:16.762,251.729,14.2446,0,0.000885,0,0
0:1:16.963,252.726,14.2997,0,0.000885,0,0
0:1:17.164,253.255,14.3342,0,0.000885,0,0
0:1:17.365,254.425,14.3963,0,0.000885,0,0
0:1:17.564,255.128,14.4376,0,0.000885,0,0
0:1:17.765,256.418,14.5135,0,0.000885,0,0
0:1:17.963,257.067,14.5479,0,0.000885,0,0
0:1:18.160,258.006,14.6031,0,0.000885,0,0
0:1:18.361,258.531,14.6307,0,0.000885,0,0
0:1:18.556,259.878,14.7065,0,0.000885,0,0
0:1:18.752,260.056,14.7134,0,0.000885,0,0
0:1:18.952,260.292,14.7272,0,0.000885,0,0
0:1:19.147,261.698,14.8099,0,0.000885,0,0
0:1:19.346,262.343,14.8444,0,0.000885,0,0
0:1:19.544,263.753,14.9271,0,0.000885,0,0
0:1:19.748,264.571,14.9685,0,0.000885,0,0
0:1:19.949,265.746,15.0375,0,0.000885,0,0
0:1:20.145,266.333,15.0719,0,0.000885,0,0
0:1:20.344,267.738,15.1478,0,0.000885,0,0
0:1:20.542,268.268,15.1823,0,0.000885,0,0
0:1:20.746,269.086,15.2305,0,0.000885,0,0
0:1:20.946,269.851,15.2719,0,0.000885,0,0
0:1:21.142,270.963,15.3339,0,0.000885,0,0
0:1:21.340,271.551,15.3684,0,0.000885,0,0
0:1:21.541,272.725,15.4305,0,0.000885,0,0
0:1:21.742,273.548,15.4787,0,0.000885,0,0
0:1:21.945,274.896,15.5546,0,0.000885,0,0
0:1:22.146,275.598,15.5959,0,0.000885,0,0
0:1:22.347,276.537,15.6511,0,0.000885,0,0
0:1:22.546,277.004,15.6787,0,0.000885,0,0
0:1:22.747,278.236,15.7476,0,0.000885,0,0
0:1:22.946,278.65,15.7683,0,0.000885,0,0
0:1:23.144,279.468,15.8166,0,0.000885,0,0
0:1:23.341,280.585,15.8786,0,0.000885,0,0
0:1:23.541,281.346,15.92,0,0.000885,0,0
0:1:23.745,282.871,16.0096,0,0.000885,0,0
0:1:23.945,283.281,16.0303,0,0.000885,0,0
0:1:24.143,284.277,16.0855,0,0.000885,0,0
0:1:24.359,284.748,16.113,0,0.000885,0,0
0:1:24.559,285.923,16.182,0,0.000885,0,0
0:1:24.764,286.506,16.2096,0,0.000885,0,0
0:1:24.964,287.564,16.2716,0,0.000885,0,0
0:1:25.162,288.267,16.313,0,0.000885,0,0
0:1:25.356,289.499,16.3819,0,0.000885,0,0
0:1:25.557,289.966,16.4095,0,0.000885,0,0
0:1:25.753,291.434,16.4923,0,0.000885,0,0
0:1:25.961,292.021,16.5267,0,0.000885,0,0
0:1:26.162,293.721,16.6233,0,0.000885,0,0
0:1:26.364,294.25,16.6508,0,0.000885,0,0
0:1:26.566,295.246,16.706,0,0.000885,0,0
0:1:26.766,295.482,16.7198,0,0.000885,0,0
0:1:26.967,296.421,16.7749,0,0.000885,0,0
0:1:27.166,297.239,16.8232,0,0.000885,0,0
0:1:27.367,298.062,16.8646,0,0.000885,0,0
0:1:27.568,298.885,16.9128,0,0.000885,0,0
0:1:27.766,300.113,16.9818,0,0.000885,0,0
0:1:27.962,300.878,17.0232,0,0.000885,0,0
0:1:28.163,302.283,17.1059,0,0.000885,0,0
0:1:28.357,303.048,17.1473,0,0.000885,0,0
0:1:28.557,303.342,17.1679,0,0.000885,0,0
0:1:28.757,304.69,17.2438,0,0.000885,0,0
0:1:28.948,305.219,17.2714,0,0.000885,0,0
0:1:29.149,306.216,17.3265,0,0.000885,0,0
0:1:29.353,306.976,17.3679,0,0.000885,0,0
0:1:29.562,308.386,17.4506,0,0.000885,0,0
0:1:29.763,308.738,17.4713,0,0.000885,0,0
0:1:29.957,310.201,17.5541,0,0.000885,0,0
0:1:30.158,310.673,17.5816,0,0.000885,0,0
0:1:30.352,311.376,17.623,0,0.000885,0,0
0:1:30.559,312.021,17.6575,0,0.000885,0,0
0:1:30.760,313.253,17.7264,0,0.000885,0,0
0:1:30.952,313.955,17.7678,0,0.000885,0,0
0:1:31.153,315.13,17.8298,0,0.000885,0,0
0:1:31.353,315.481,17.8505,0,0.000885,0,0
0:1:31.557,316.949,17.9333,0,0.000885,0,0
0:1:31.758,317.825,17.9884,0,0.000885,0,0
0:1:31.960,319.351,18.0712,0,0.000885,0,0
0:1:32.159,319.703,18.0918,0,0.000885,0,0
0:1:32.360,320.877,18.1608,0,0.000885,0,0
0:1:32.560,321.113,18.1746,0,0.000885,0,0
0:1:32.760,322.403,18.2435,0,0.000885,0,0
0:1:32.954,323.221,18.2918,0,0.000885,0,0
0:1:33.153,323.515,18.3056,0,0.000885,0,0
0:1:33.354,324.747,18.3745,0,0.000885,0,0
0:1:33.558,325.334,18.409,0,0.000885,0,0
0:1:33.758,326.157,18.4573,0,0.000885,0,0
0:1:33.953,327.096,18.5124,0,0.000885,0,0
0:1:34.161,328.092,18.5676,0,0.000885,0,0
0:1:34.362,328.617,18.5952,0,0.000885,0,0
0:1:34.557,329.907,18.671,0,0.000885,0,0
0:1:34.753,330.436,18.6986,0,0.000885,0,0
0:1:34.952,331.846,18.7813,0,0.000885,0,0
0:1:35.159,332.723,18.8296,0,0.000885,0,0
0:1:35.360,333.897,18.8916,0,0.000885,0,0
0:1:35.552,334.306,18.9192,0,0.000885,0,0
0:1:35.750,335.89,19.0088,0,0.000885,0,0
0:1:35.949,336.713,19.0571,0,0.000885,0,0
0:1:36.143,338.06,19.133,0,0.000885,0,0
0:1:36.344,338.532,19.1536,0,0.000885,0,0
0:1:36.544,338.532,19.1536,0,0.000885,0,0
0:1:36.747,339.408,19.2088,0,0.000885,0,0
0:1:36.949,340.173,19.2502,0,0.000885,0,0
0:1:37.149,340.934,19.2915,0,0.000885,0,0
0:1:37.350,341.93,19.3467,0,0.000885,0,0
0:1:37.551,343.105,19.4156,0,0.000885,0,0
0:1:37.750,344.221,19.4777,0,0.000885,0,0
0:1:37.952,345.511,19.5535,0,0.000885,0,0
0:1:38.146,346.214,19.5949,0,0.000885,0,0
0:1:38.345,347.153,19.6432,0,0.000885,0,0
0:1:38.545,347.562,19.6707,0,0.000885,0,0
0:1:38.740,348.972,19.7466,0,0.000885,0,0
0:1:38.940,349.439,19.7742,0,0.000885,0,0
0:1:39.157,350.671,19.8431,0,0.000885,0,0
0:1:39.354,351.494,19.8914,0,0.000885,0,0
0:1:39.553,352.842,19.9672,0,0.000885,0,0
0:1:39.757,353.371,19.9948,0,0.000885,0,0
0:1:39.958,353.954,20.0293,0,0.000885,0,0
0:1:40.153,354.541,20.0637,0,0.000885,0,0
0:1:40.350,355.422,20.112,0,0.000885,0,0
0:1:40.550,356.303,20.1603,0,0.000885,0,0
0:1:40.745,357.828,20.2499,0,0.000885,0,0
0:1:40.945,358.353,20.2775,0,0.000885,0,0
0:1:41.143,358.767,20.3051,0,0.000885,0,0
0:1:41.348,359.995,20.374,0,0.000885,0,0
0:1:41.548,360.23,20.3878,0,0.000885,0,0
0:1:41.748,361.405,20.4499,0,0.000885,0,0
0:1:41.952,362.05,20.4912,0,0.000885,0,0
0:1:42.154,363.455,20.5671,0,0.000885,0,0
0:1:42.353,364.336,20.6153,0,0.000885,0,0
0:1:42.557,365.626,20.6912,0,0.000885,0,0
0:1:42.754,366.391,20.7325,0,0.000885,0,0
0:1:42.954,367.739,20.8084,0,0.000885,0,0
0:1:43.154,368.326,20.8429,0,0.000885,0,0
0:1:43.349,369.616,20.9187,0,0.000885,0,0
0:1:43.548,369.967,20.9325,0,0.000885,0,0
0:1:43.747,370.906,20.9876,0,0.000885,0,0
0:1:43.944,371.493,21.0221,0,0.000885,0,0
0:1:44.144,372.432,21.0773,0,0.000885,0,0
0:1:44.347,373.135,21.1117,0,0.000885,0,0
0:1:44.547,374.367,21.1876,0,0.000885,0,0
0:1:44.746,375.185,21.229,0,0.000885,0,0
0:1:44.941,376.244,21.291,0,0.000885,0,0
0:1:45.142,377.24,21.3462,0,0.000885,0,0
0:1:45.346,377.356,21.3531,0,0.000885,0,0
0:1:45.545,378.063,21.3944,0,0.000885,0,0
0:1:45.743,378.824,21.4358,0,0.000885,0,0
0:1:45.939,380.292,21.5185,0,0.000885,0,0
0:1:46.140,380.875,21.553,0,0.000885,0,0
0:1:46.340,382.049,21.622,0,0.000885,0,0
0:1:46.542,382.578,21.6495,0,0.000885,0,0
0:1:46.744,383.984,21.7323,0,0.000885,0,0
0:1:46.945,384.571,21.7599,0,0.000885,0,0
0:1:47.147,385.274,21.8012,0,0.000885,0,0
0:1:47.347,386.155,21.8495,0,0.000885,0,0
0:1:47.548,387.445,21.9253,0,0.000885,0,0
0:1:47.746,388.619,21.9943,0,0.000885,0,0
0:1:47.950,389.673,22.0494,0,0.000885,0,0
0:1:48.151,390.438,22.0908,0,0.000885,0,0
0:1:48.358,391.021,22.1253,0,0.000885,0,0
0:1:48.564,391.844,22.1735,0,0.000885,0,0
0:1:48.765,392.373,22.2011,0,0.000885,0,0
0:1:48.960,392.898,22.2356,0,0.000885,0,0
0:1:49.160,394.188,22.3045,0,0.000885,0,0
0:1:49.355,394.953,22.3528,0,0.000885,0,0
0:1:49.551,396.301,22.4286,0,0.000885,0,0
0:1:49.750,397.066,22.47,0,0.000885,0,0
0:1:49.947,398.414,22.5459,0,0.000885,0,0
0:1:50.145,399.175,22.5872,0,0.000885,0,0
0:1:50.345,399.997,22.6355,0,0.000885,0,0
0:1:50.538,401.167,22.7044,0,0.000885,0,0
0:1:50.738,401.403,22.7182,0,0.000885,0,0
0:1:50.945,402.52,22.7803,0,0.000885,0,0
0:1:51.151,403.222,22.8148,0,0.000885,0,0
0:1:51.352,404.161,22.8699,0,0.000885,0,0
0:1:51.553,404.69,22.8975,0,0.000885,0,0
0:1:51.755,405.745,22.9595,0,0.000885,0,0
0:1:51.958,406.799,23.0216,0,0.000885,0,0
0:1:52.160,408.209,23.0974,0,0.000885,0,0
0:1:52.359,408.912,23.1388,0,0.000885,0,0
0:1:52.560,410.144,23.2078,0,0.000885,0,0
0:1:52.758,410.731,23.2422,0,0.000885,0,0
0:1:52.956,411.14,23.2629,0,0.000885,0,0
0:1:53.150,411.901,23.3112,0,0.000885,0,0
0:1:53.351,413.017,23.3732,0,0.000885,0,0
0:1:53.548,414.072,23.4284,0,0.000885,0,0
0:1:53.754,415.068,23.4904,0,0.000885,0,0
0:1:53.954,415.713,23.5249,0,0.000885,0,0
0:1:54.148,416.714,23.5801,0,0.000885,0,0
0:1:54.348,417.474,23.6214,0,0.000885,0,0
0:1:54.546,418.649,23.6904,0,0.000885,0,0
0:1:54.742,419.525,23.7386,0,0.000885,0,0
0:1:54.942,419.761,23.7524,0,0.000885,0,0
0:1:55.155,421.344,23.8421,0,0.000885,0,0
0:1:55.356,422.225,23.8903,0,0.000885,0,0
0:1:55.554,423.048,23.9386,0,0.000885,0,0
0:1:55.760,423.457,23.9662,0,0.000885,0,0
0:1:55.961,424.396,24.0144,0,0.000885,0,0
0:1:56.153,424.921,24.0489,0,0.000885,0,0
0:1:56.353,426.389,24.1317,0,0.000885,0,0
0:1:56.553,427.327,24.1799,0,0.000885,0,0
0:1:56.756,428.559,24.2489,0,0.000885,0,0
0:1:56.956,429.262,24.2902,0,0.000885,0,0
0:1:57.160,430.085,24.3385,0,0.000885,0,0
0:1:57.360,430.379,24.3523,0,0.000885,0,0
0:1:57.560,431.549,24.4212,0,0.000885,0,0
0:1:57.760,432.55,24.4764,0,0.000885,0,0
0:1:57.961,433.546,24.5315,0,0.000885,0,0
0:1:58.167,434.133,24.566,0,0.000885,0,0
0:1:58.363,434.894,24.6074,0,0.000885,0,0
0:1:58.564,435.303,24.635,0,0.000885,0,0
0:1:58.759,437.007,24.7315,0,0.000885,0,0
0:1:58.956,437.883,24.7798,0,0.000885,0,0
0:1:59.154,438.706,24.828,0,0.000885,0,0
0:1:59.349,439.409,24.8625,0,0.000885,0,0
0:1:59.549,440.174,24.9108,0,0.000885,0,0
0:1:59.745,441.579,24.9866,0,0.000885,0,0
0:1:59.943,442.224,25.028,0,0.000885,0,0
0:2:0.142,443.457,25.0969,0,0.000885,0,0
0:2:0.337,443.866,25.1176,0,0.000885,0,0
0:2:0.538,445.276,25.2003,0,0.000885,0,0
0:2:0.735,445.921,25.2348,0,0.000885,0,0
0:2:0.932,446.917,25.29,0,0.000885,0,0
0:2:1.132,447.384,25.3175,0,0.000885,0,0
0:2:1.335,448.559,25.3865,0,0.000885,0,0
0:2:1.538,449.088,25.4141,0,0.000885,0,0
0:2:1.740,450.436,25.4899,0,0.000885,0,0
0:2:1.939,451.023,25.5244,0,0.000885,0,0
0:2:2.140,452.371,25.6002,0,0.000885,0,0
0:2:2.339,453.136,25.6416,0,0.000885,0,0
0:2:2.540,453.781,25.6761,0,0.000885,0,0
0:2:2.747,454.484,25.7174,0,0.000885,0,0
0:2:2.944,455.071,25.7519,0,0.000885,0,0
0:2:3.145,455.716,25.7864,0,0.000885,0,0
0:2:3.340,457.064,25.8622,0,0.000885,0,0
0:2:3.548,457.882,25.9105,0,0.000885,0,0
0:2:3.746,459.234,25.9863,0,0.000885,0,0
0:2:3.949,460.115,26.0346,0,0.000885,0,0
0:2:4.150,461.112,26.0967,0,0.000885,0,0
0:2:4.346,461.636,26.1242,0,0.000885,0,0
0:2:4.552,462.281,26.1587,0,0.000885,0,0
0:2:4.753,463.865,26.2483,0,0.000885,0,0
0:2:4.956,464.394,26.2759,0,0.000885,0,0
0:2:5.155,465.391,26.338,0,0.000885,0,0
0:2:5.353,465.804,26.3587,0,0.000885,0,0
0:2:5.549,466.565,26.4,0,0.000885,0,0
0:2:5.750,467.152,26.4345,0,0.000885,0,0
0:2:5.943,467.971,26.4828,0,0.000885,0,0
0:2:6.143,468.972,26.5379,0,0.000885,0,0
0:2:6.344,470.084,26.6,0,0.000885,0,0
0:2:6.546,470.786,26.6413,0,0.000885,0,0
0:2:6.747,471.903,26.7034,0,0.000885,0,0
0:2:6.948,472.899,26.7586,0,0.000885,0,0
0:2:7.150,473.66,26.8068,0,0.000885,0,0
0:2:7.350,474.247,26.8344,0,0.000885,0,0
0:2:7.549,475.595,26.9102,0,0.000885,0,0
0:2:7.751,476.476,26.9654,0,0.000885,0,0
0:2:7.947,478.179,27.0619,0,0.000885,0,0
0:2:8.154,478.179,27.0619,0,0.000885,0,0
0:2:8.355,479.407,27.1309,0,0.000885,0,0
0:2:8.557,480.114,27.1722,0,0.000885,0,0
0:2:8.757,481.698,27.2619,0,0.000885,0,0
0:2:8.954,482.459,27.3032,0,0.000885,0,0
0:2:9.149,483.397,27.3515,0,0.000885,0,0
0:2:9.350,484.042,27.3929,0,0.000885,0,0
0:2:9.556,485.274,27.4618,0,0.000885,0,0
0:2:9.755,485.861,27.4963,0,0.000885,0,0
0:2:9.952,486.386,27.5239,0,0.000885,0,0
0:2:10.148,487.912,27.6135,0,0.000885,0,0
0:2:10.349,488.735,27.6549,0,0.000885,0,0
0:2:10.554,489.731,27.71,0,0.000885,0,0
0:2:10.752,490.141,27.7376,0,0.000885,0,0
0:2:10.950,491.079,27.7928,0,0.000885,0,0
0:2:11.154,491.609,27.8203,0,0.000885,0,0
0:2:11.355,492.721,27.8824,0,0.000885,0,0
0:2:11.556,493.308,27.9169,0,0.000885,0,0
0:2:11.761,494.131,27.9651,0,0.000885,0,0
0:2:11.963,494.718,27.9927,0,0.000885,0,0
0:2:12.162,496.359,28.0892,0,0.000885,0,0
0:2:12.363,497.004,28.1237,0,0.000885,0,0
0:2:12.563,497.827,28.172,0,0.000885,0,0
0:2:12.763,498.472,28.2065,0,0.000885,0,0
0:2:12.964,500.171,28.303,0,0.000885,0,0
0:2:13.168,500.465,28.3237,0,0.000885,0,0
0:2:13.368,501.639,28.3857,0,0.000885,0,0
0:2:13.566,502.284,28.4202,0,0.000885,0,0
0:2:13.762,503.984,28.5167,0,0.000885,0,0
0:2:13.962,503.984,28.5167,0,0.000885,0,0
0:2:14.154,504.513,28.5512,0,0.000885,0,0
0:2:14.354,505.683,28.6132,0,0.000885,0,0
0:2:14.552,506.096,28.6408,0,0.000885,0,0
0:2:14.747,507.502,28.7167,0,0.000885,0,0
0:2:14.948,508.089,28.7511,0,0.000885,0,0
0:2:15.143,509.379,28.827,0,0.000885,0,0
0:2:15.350,509.909,28.8546,0,0.000885,0,0
0:2:15.550,511.078,28.9235,0,0.000885,0,0
0:2:15.755,511.666,28.9511,0,0.000885,0,0
0:2:15.955,513.249,29.0407,0,0.000885,0,0
0:2:16.152,513.427,29.0545,0,0.000885,0,0
0:2:16.347,515.184,29.151,0,0.000885,0,0
0:2:16.548,515.362,29.1648,0,0.000885,0,0
0:2:16.749,516.474,29.2269,0,0.000885,0,0
0:2:16.952,517.061,29.2613,0,0.000885,0,0
0:2:17.154,517.942,29.3096,0,0.000885,0,0
0:2:17.354,519.29,29.3855,0,0.000885,0,0
0:2:17.555,520.406,29.4475,0,0.000885,0,0
0:2:17.756,521.461,29.5096,0,0.000885,0,0
0:2:17.956,522.283,29.5578,0,0.000885,0,0
0:2:18.155,522.751,29.5785,0,0.000885,0,0
0:2:18.350,523.222,29.6061,0,0.000885,0,0
0:2:18.550,524.628,29.6888,0,0.000885,0,0
0:2:18.754,525.508,29.7371,0,0.000885,0,0
0:2:18.954,526.038,29.7647,0,0.000885,0,0
0:2:19.154,527.034,29.8267,0,0.000885,0,0
0:2:19.369,528.266,29.8957,0,0.000885,0,0
0:2:19.569,528.854,29.9301,0,0.000885,0,0
0:2:19.765,529.614,29.9715,0,0.000885,0,0
0:2:19.962,530.201,30.006,0,0.000885,0,0
0:2:20.164,531.958,30.1025,0,0.000885,0,0
0:2:20.356,532.603,30.137,0,0.000885,0,0
0:2:20.556,533.542,30.1921,0,0.000885,0,0
0:2:20.764,534.365,30.2404,0,0.000885,0,0
0:2:20.962,535.068,30.2818,0,0.000885,0,0
0:2:21.161,535.833,30.3231,0,0.000885,0,0
0:2:21.362,537.123,30.3921,0,0.000885,0,0
0:2:21.564,537.181,30.399,0,0.000885,0,0
0:2:21.766,538.528,30.4748,0,0.000885,0,0
0:2:21.965,538.706,30.4817,0,0.000885,0,0
0:2:22.167,539.996,30.5576,0,0.000885,0,0
0:2:22.367,540.054,30.5576,0,0.000885,0,0
0:2:22.568,541.344,30.6334,0,0.000885,0,0
0:2:22.768,542.341,30.6886,0,0.000885,0,0
0:2:22.963,543.395,30.7506,0,0.000885,0,0
0:2:23.164,544.218,30.7989,0,0.000885,0,0
0:2:23.359,545.392,30.8609,0,0.000885,0,0
0:2:23.556,545.917,30.8954,0,0.000885,0,0
0:2:23.755,546.562,30.9299,0,0.000885,0,0
0:2:23.958,548.208,31.0195,0,0.000885,0,0
0:2:24.158,548.733,31.054,0,0.000885,0,0
0:2:24.354,550.143,31.1298,0,0.000885,0,0
0:2:24.551,550.846,31.1712,0,0.000885,0,0
0:2:24.752,551.9,31.2333,0,0.000885,0,0
0:2:24.956,552.958,31.2884,0,0.000885,0,0
0:2:25.157,553.541,31.3229,0,0.000885,0,0
0:2:25.365,554.013,31.3505,0,0.000885,0,0
0:2:25.562,555.538,31.4401,0,0.000885,0,0
0:2:25.763,556.299,31.4815,0,0.000885,0,0
0:2:25.954,557.416,31.5435,0,0.000885,0,0
0:2:26.156,558.412,31.5987,0,0.000885,0,0
0:2:26.357,559.057,31.6331,0,0.000885,0,0
0:2:26.559,559.76,31.6745,0,0.000885,0,0
0:2:26.759,560.934,31.7435,0,0.000885,0,0
0:2:26.963,561.459,31.771,0,0.000885,0,0
0:2:27.164,562.575,31.8331,0,0.000885,0,0
0:2:27.363,563.398,31.8814,0,0.000885,0,0
0:2:27.564,564.453,31.9434,0,0.000885,0,0
0:2:27.765,565.098,31.9779,0,0.000885,0,0
0:2:27.957,566.272,32.0468,0,0.000885,0,0
0:2:28.158,566.975,32.0813,0,0.000885,0,0
0:2:28.355,567.504,32.1158,0,0.000885,0,0
0:2:28.551,568.443,32.164,0,0.000885,0,0
0:2:28.752,569.439,32.2261,0,0.000885,0,0
0:2:28.957,570.493,32.2813,0,0.000885,0,0
0:2:29.155,571.023,32.3157,0,0.000885,0,0
0:2:29.354,572.313,32.3847,0,0.000885,0,0
0:2:29.548,572.838,32.4191,0,0.000885,0,0
0:2:29.750,574.012,32.4812,0,0.000885,0,0
0:2:29.955,574.363,32.5019,0,0.000885,0,0
0:2:30.154,575.773,32.5846,0,0.000885,0,0
0:2:30.353,576.712,32.6329,0,0.000885,0,0
0:2:30.557,577.708,32.6949,0,0.000885,0,0
0:2:30.757,577.882,32.7018,0,0.000885,0,0
0:2:30.955,579.35,32.7846,0,0.000885,0,0
0:2:31.150,579.879,32.8121,0,0.000885,0,0
0:2:31.352,580.755,32.8673,0,0.000885,0,0
0:2:31.554,581.4,32.9018,0,0.000885,0,0
0:2:31.755,582.575,32.9638,0,0.000885,0,0
0:2:31.956,583.278,33.0052,0,0.000885,0,0
0:2:32.157,584.63,33.081,0,0.000885,0,0
0:2:32.358,584.861,33.0948,0,0.000885,0,0
0:2:32.557,586.271,33.1776,0,0.000885,0,0
0:2:32.757,587.152,33.2258,0,0.000885,0,0
0:2:32.956,587.503,33.2465,0,0.000885,0,0
0:2:33.163,589.029,33.3293,0,0.000885,0,0
0:2:33.365,589.38,33.3499,0,0.000885,0,0
0:2:33.559,590.377,33.4051,0,0.000885,0,0
0:2:33.758,591.493,33.474,0,0.000885,0,0
0:2:33.957,592.254,33.5154,0,0.000885,0,0
0:2:34.154,592.432,33.5223,0,0.000885,0,0
0:2:34.356,593.428,33.5844,0,0.000885,0,0
0:2:34.551,594.136,33.6188,0,0.000885,0,0
0:2:34.752,595.541,33.7016,0,0.000885,0,0
0:2:34.952,595.719,33.7085,0,0.000885,0,0
0:2:35.148,597.245,33.7981,0,0.000885,0,0
0:2:35.349,597.361,33.805,0,0.000885,0,0
0:2:35.553,598.771,33.8808,0,0.000885,0,0
0:2:35.753,599.18,33.9084,0,0.000885,0,0
0:2:35.954,599.945,33.9498,0,0.000885,0,0
0:2:36.158,600.59,33.9843,0,0.000885,0,0
0:2:36.359,601.649,34.0463,0,0.000885,0,0
0:2:36.563,602,34.067,0,0.000885,0,0
0:2:36.767,602.996,34.1222,0,0.000885,0,0
0:2:36.969,603.704,34.1635,0,0.000885,0,0
0:2:37.171,605.403,34.26,0,0.000885,0,0
0:2:37.372,605.932,34.2876,0,0.000885,0,0
0:2:37.573,606.519,34.3221,0,0.000885,0,0
0:2:37.775,606.929,34.3428,0,0.000885,0,0
0:2:37.975,607.93,34.4048,0,0.000885,0,0
0:2:38.172,607.867,34.3979,0,0.000885,0,0
0:2:38.375,608.69,34.4462,0,0.000885,0,0
0:2:38.571,609.22,34.4738,0,0.000885,0,0
0:2:38.768,609.104,34.4669,0,0.000885,0,0
0:2:38.968,609.22,34.4738,0,0.000885,0,0
0:2:39.164,609.691,34.5014,0,0.000885,0,0
0:2:39.366,610.216,34.5289,0,0.000885,0,0
0:2:39.563,610.042,34.522,0,0.000885,0,0
0:2:39.771,610.63,34.5565,0,0.000885,0,0
0:2:39.971,611.097,34.5841,0,0.000885,0,0
0:2:40.168,611.332,34.591,0,0.000885,0,0
0:2:40.368,611.332,34.591,0,0.000885,0,0
0:2:40.566,611.568,34.6048,0,0.000885,0,0
0:2:40.760,611.39,34.5979,0,0.000885,0,0
0:2:40.964,610.803,34.5634,0,0.000885,0,0
0:2:41.157,610.63,34.5565,0,0.000885,0,0
0:2:41.357,609.22,34.4738,0,0.000885,0,0
0:2:41.557,608.339,34.4255,0,0.000885,0,0
0:2:41.759,605.754,34.2807,0,0.000885,0,0
0:2:41.960,604.291,34.198,0,0.000885,0,0
0:2:42.165,599.536,33.9291,0,0.000885,0,0
0:2:42.365,596.306,33.7429,0,0.000885,0,0
0:2:42.565,591.022,33.4465,0,0.000885,0,0
0:2:42.765,569.555,32.233,0,0.000885,0,0
0:2:42.966,548.733,31.054,0,0.000885,0,0
0:2:43.170,495.95,28.0617,0,0.000885,0,0
0:2:43.368,474.541,26.8551,0,0.000885,0,0
0:2:43.568,444.395,25.1452,0,0.000885,0,0
0:2:43.760,432.901,24.4971,0,0.000885,0,0
0:2:43.783,432.901,24.4971,0,0.000885,0,0