File: DataFile2021-07-18_075101.csv
Test ID:,Date Tested:,Time:,Test Type:,Diameter Avg. (mm):,Cyl. Corr. Factor:,Height (mm):,Age (days):,Weight (kN):,Break Type:,Ramp Rate (MPa/s):,Load at Break (kN):,Stress at Break (MPa):
12,7/18/2021,07:51,Cylinder,100,1,200,0,3.89,3,0.35,1150.9,146.53
Sample Time,Load (kN),Stress (MPa),Long. Strain,Trans. Strain,Chan1 Deflection (mm),Chan2 Deflection (mm)
0:0:13.690,5.8672,0.744634,0,0.000885,0,0
0:0:14.095,8.505,1.08248,0,0.000885,0,0
0:0:14.513,9.44357,1.19969,0,0.000885,0,0
0:0:14.910,9.55923,1.22037,0,0.000885,0,0
0:0:15.310,9.96846,1.26864,0,0.000885,0,0
0:0:15.717,10.7914,1.37206,0,0.000885,0,0
0:0:16.114,11.9657,1.52374,0,0.000885,0,0
0:0:16.509,13.0199,1.65474,0,0.000885,0,0
0:0:16.903,13.7228,1.74437,0,0.000885,0,0
0:0:17.315,14.2521,1.81332,0,0.000885,0,0
0:0:17.712,15.0127,1.90985,0,0.000885,0,0
0:0:18.109,17.1257,2.17874,0,0.000885,0,0
0:0:18.503,18.3578,2.33732,0,0.000885,0,0
0:0:18.901,19.0028,2.42006,0,0.000885,0,0
0:0:19.300,19.9414,2.53727,0,0.000885,0,0
0:0:19.705,21.1157,2.68896,0,0.000885,0,0
0:0:20.113,21.9342,2.79238,0,0.000885,0,0
0:0:20.517,23.3443,2.97164,0,0.000885,0,0
0:0:20.920,24.1049,3.06817,0,0.000885,0,0
0:0:21.320,24.87,3.16469,0,0.000885,0,0
0:0:21.716,26.5692,3.38533,0,0.000885,0,0
0:0:22.112,27.917,3.55769,0,0.000885,0,0
0:0:22.513,28.7978,3.66801,0,0.000885,0,0
0:0:22.913,30.0299,3.82659,0,0.000885,0,0
0:0:23.310,31.3199,3.98517,0,0.000885,0,0
0:0:23.716,32.7256,4.16443,0,0.000885,0,0
0:0:24.120,34.1357,4.3437,0,0.000885,0,0
0:0:24.525,34.9541,4.45401,0,0.000885,0,0
0:0:24.930,36.5377,4.65396,0,0.000885,0,0
0:0:25.333,37.712,4.79875,0,0.000885,0,0
0:0:25.730,39.0598,4.97112,0,0.000885,0,0
0:0:26.129,39.8249,5.06765,0,0.000885,0,0
0:0:26.530,40.9948,5.21933,0,0.000885,0,0
0:0:26.928,42.5206,5.41238,0,0.000885,0,0
0:0:27.323,43.517,5.54338,0,0.000885,0,0
0:0:27.722,44.2242,5.63302,0,0.000885,0,0
0:0:28.121,44.8692,5.71575,0,0.000885,0,0
0:0:28.520,46.217,5.88123,0,0.000885,0,0
0:0:28.916,47.2134,6.01223,0,0.000885,0,0
0:0:29.322,48.0363,6.11565,0,0.000885,0,0
0:0:29.728,49.2062,6.26733,0,0.000885,0,0
0:0:30.131,50.4384,6.41902,0,0.000885,0,0
0:0:30.534,51.5549,6.56381,0,0.000885,0,0
0:0:30.930,51.9063,6.61207,0,0.000885,0,0
0:0:31.328,53.2541,6.77755,0,0.000885,0,0
0:0:31.728,54.5441,6.94302,0,0.000885,0,0
0:0:32.127,55.8341,7.10849,0,0.000885,0,0
0:0:32.524,57.0084,7.26018,0,0.000885,0,0
0:0:32.922,58.4763,7.44634,0,0.000885,0,0
0:0:33.321,59.2948,7.54976,0,0.000885,0,0
0:0:33.721,60.4113,7.69455,0,0.000885,0,0
0:0:34.119,61.6435,7.84623,0,0.000885,0,0
0:0:34.525,62.8712,8.00481,0,0.000885,0,0
0:0:34.929,63.9298,8.14271,0,0.000885,0,0
0:0:35.333,64.9841,8.27371,0,0.000885,0,0
0:0:35.738,66.452,8.45987,0,0.000885,0,0
0:0:36.135,67.1548,8.5495,0,0.000885,0,0
0:0:36.531,68.2713,8.69429,0,0.000885,0,0
0:0:36.929,69.3834,8.83218,0,0.000885,0,0
0:0:37.330,70.9091,9.02524,0,0.000885,0,0
0:0:37.727,71.2605,9.0735,0,0.000885,0,0
0:0:38.122,72.9597,9.28724,0,0.000885,0,0
0:0:38.522,73.9561,9.41824,0,0.000885,0,0
0:0:38.921,74.957,9.54234,0,0.000885,0,0
0:0:39.319,75.2506,9.58371,0,0.000885,0,0
0:0:39.722,76.4783,9.7354,0,0.000885,0,0
0:0:40.127,78.0618,9.94224,0,0.000885,0,0
0:0:40.530,78.649,10.0112,0,0.000885,0,0
0:0:40.934,80.0013,10.1836,0,0.000885,0,0
0:0:41.332,81.4647,10.3697,0,0.000885,0,0
0:0:41.728,82.7547,10.5352,0,0.000885,0,0
0:0:42.126,83.8134,10.6731,0,0.000885,0,0
0:0:42.526,85.3347,10.8661,0,0.000885,0,0
0:0:42.924,85.864,10.9351,0,0.000885,0,0
0:0:43.319,87.2118,11.1075,0,0.000885,0,0
0:0:43.718,87.9191,11.1971,0,0.000885,0,0
0:0:44.121,88.7954,11.3074,0,0.000885,0,0
0:0:44.528,89.9697,11.4522,0,0.000885,0,0
0:0:44.932,91.669,11.6728,0,0.000885,0,0
0:0:45.335,92.6698,11.7969,0,0.000885,0,0
0:0:45.732,93.079,11.8521,0,0.000885,0,0
0:0:46.131,95.1297,12.1141,0,0.000885,0,0
0:0:46.530,95.4811,12.1555,0,0.000885,0,0
0:0:46.928,97.0068,12.3485,0,0.000885,0,0
0:0:47.322,97.7719,12.4519,0,0.000885,0,0
0:0:47.721,98.4169,12.5278,0,0.000885,0,0
0:0:48.122,99.8225,12.707,0,0.000885,0,0
0:0:48.517,101.055,12.8656,0,0.000885,0,0
0:0:48.912,101.406,12.9139,0,0.000885,0,0
0:0:49.318,102.99,13.1138,0,0.000885,0,0
0:0:49.723,104.106,13.2517,0,0.000885,0,0
0:0:50.127,104.982,13.3689,0,0.000885,0,0
0:0:50.529,106.508,13.562,0,0.000885,0,0
0:0:50.927,107.683,13.7137,0,0.000885,0,0
0:0:51.326,109.088,13.8929,0,0.000885,0,0
0:0:51.724,109.853,13.9895,0,0.000885,0,0
0:0:52.120,110.498,14.0722,0,0.000885,0,0
0:0:52.518,112.255,14.2928,0,0.000885,0,0
0:0:52.915,113.194,14.41,0,0.000885,0,0
0:0:53.315,113.901,14.4997,0,0.000885,0,0
0:0:53.722,115.129,14.6583,0,0.000885,0,0
0:0:54.117,116.481,14.8306,0,0.000885,0,0
0:0:54.522,117.887,15.0099,0,0.000885,0,0
0:0:54.929,118.71,15.1133,0,0.000885,0,0
0:0:55.331,119.355,15.196,0,0.000885,0,0
0:0:55.735,120.409,15.3339,0,0.000885,0,0
0:0:56.131,122.108,15.5477,0,0.000885,0,0
0:0:56.530,123.109,15.6718,0,0.000885,0,0
0:0:56.930,124.279,15.8235,0,0.000885,0,0
0:0:57.328,125.805,16.0165,0,0.000885,0,0
0:0:57.724,126.334,16.0855,0,0.000885,0,0
0:0:58.119,127.273,16.2027,0,0.000885,0,0
0:0:58.521,128.327,16.3406,0,0.000885,0,0
0:0:58.921,129.795,16.5267,0,0.000885,0,0
0:0:59.328,130.791,16.6508,0,0.000885,0,0
0:0:59.731,131.552,16.7474,0,0.000885,0,0
0:1:0.134,132.668,16.8922,0,0.000885,0,0
0:1:0.534,133.9,17.0507,0,0.000885,0,0
0:1:0.934,134.839,17.1679,0,0.000885,0,0
0:1:1.330,136.009,17.3196,0,0.000885,0,0
0:1:1.727,137.241,17.4713,0,0.000885,0,0
0:1:2.127,138.945,17.6919,0,0.000885,0,0
0:1:2.525,139.941,17.8161,0,0.000885,0,0
0:1:2.924,140.995,17.9539,0,0.000885,0,0
0:1:3.318,141.467,18.0091,0,0.000885,0,0
0:1:3.716,142.757,18.1746,0,0.000885,0,0
0:1:4.119,143.927,18.3263,0,0.000885,0,0
0:1:4.526,145.043,18.4642,0,0.000885,0,0
0:1:4.930,145.804,18.5676,0,0.000885,0,0
0:1:5.334,146.627,18.671,0,0.000885,0,0
0:1:5.731,147.681,18.802,0,0.000885,0,0
0:1:6.133,149.385,19.0226,0,0.000885,0,0
0:1:6.532,151.142,19.2433,0,0.000885,0,0
0:1:6.928,151.844,19.3329,0,0.000885,0,0
0:1:7.324,152.961,19.4777,0,0.000885,0,0
0:1:7.722,153.779,19.5811,0,0.000885,0,0
0:1:8.123,155.132,19.7535,0,0.000885,0,0
0:1:8.523,156.012,19.8638,0,0.000885,0,0
0:1:8.919,156.831,19.9672,0,0.000885,0,0
0:1:9.325,157.827,20.0982,0,0.000885,0,0
0:1:9.730,159.411,20.2982,0,0.000885,0,0
0:1:10.132,160.763,20.4705,0,0.000885,0,0
0:1:10.536,161.639,20.5809,0,0.000885,0,0
0:1:10.934,162.405,20.6774,0,0.000885,0,0
0:1:11.330,163.459,20.8153,0,0.000885,0,0
0:1:11.729,164.282,20.9187,0,0.000885,0,0
0:1:12.128,165.803,21.1117,0,0.000885,0,0
0:1:12.526,166.92,21.2496,0,0.000885,0,0
0:1:12.923,167.742,21.36,0,0.000885,0,0
0:1:13.320,168.97,21.5116,0,0.000885,0,0
0:1:13.721,170.674,21.7323,0,0.000885,0,0
0:1:14.119,171.848,21.8771,0,0.000885,0,0
0:1:14.526,173.076,22.0356,0,0.000885,0,0
0:1:14.931,173.783,22.1253,0,0.000885,0,0
0:1:15.335,174.78,22.2563,0,0.000885,0,0
0:1:15.738,176.537,22.4769,0,0.000885,0,0
0:1:16.136,177.475,22.5941,0,0.000885,0,0
0:1:16.534,177.769,22.6355,0,0.000885,0,0
0:1:16.930,178.827,22.7665,0,0.000885,0,0
0:1:17.329,180.055,22.9251,0,0.000885,0,0
0:1:17.729,181.172,23.0699,0,0.000885,0,0
0:1:18.127,182.168,23.194,0,0.000885,0,0
0:1:18.522,183.164,23.3181,0,0.000885,0,0
0:1:18.921,184.806,23.5318,0,0.000885,0,0
0:1:19.323,185.451,23.6145,0,0.000885,0,0
0:1:19.731,186.919,23.8007,0,0.000885,0,0
0:1:20.135,187.915,23.9248,0,0.000885,0,0
0:1:20.538,188.854,24.0489,0,0.000885,0,0
0:1:20.939,189.85,24.173,0,0.000885,0,0
0:1:21.339,191.434,24.373,0,0.000885,0,0
0:1:21.737,192.55,24.5178,0,0.000885,0,0
0:1:22.131,193.253,24.6074,0,0.000885,0,0
0:1:22.524,194.192,24.7246,0,0.000885,0,0
0:1:22.922,195.246,24.8625,0,0.000885,0,0
0:1:23.320,196.772,25.0555,0,0.000885,0,0
0:1:23.722,197.594,25.159,0,0.000885,0,0
0:1:24.117,199,25.3382,0,0.000885,0,0
0:1:24.518,199.881,25.4485,0,0.000885,0,0
0:1:24.922,201.171,25.614,0,0.000885,0,0
0:1:25.324,202.812,25.8209,0,0.000885,0,0
0:1:25.724,203.929,25.9657,0,0.000885,0,0
0:1:26.119,204.454,26.0346,0,0.000885,0,0
0:1:26.514,204.983,26.0967,0,0.000885,0,0
0:1:26.909,206.509,26.2966,0,0.000885,0,0
0:1:27.304,207.856,26.4621,0,0.000885,0,0
0:1:27.698,208.737,26.5793,0,0.000885,0,0
0:1:28.100,209.849,26.7172,0,0.000885,0,0
0:1:28.508,210.788,26.8413,0,0.000885,0,0
0:1:28.905,211.847,26.9723,0,0.000885,0,0
0:1:29.309,213.016,27.124,0,0.000885,0,0
0:1:29.711,214.484,27.3101,0,0.000885,0,0
0:1:30.111,215.365,27.4204,0,0.000885,0,0
0:1:30.510,216.246,27.5308,0,0.000885,0,0
0:1:30.906,217.478,27.6893,0,0.000885,0,0
0:1:31.299,219.177,27.9031,0,0.000885,0,0
0:1:31.702,219.88,27.9927,0,0.000885,0,0
0:1:32.098,220.819,28.1168,0,0.000885,0,0
0:1:32.506,221.642,28.2202,0,0.000885,0,0
0:1:32.909,223.047,28.3995,0,0.000885,0,0
0:1:33.312,224.573,28.5926,0,0.000885,0,0
0:1:33.708,225.276,28.6822,0,0.000885,0,0
0:1:34.108,226.041,28.7787,0,0.000885,0,0
0:1:34.511,227.331,28.9442,0,0.000885,0,0
0:1:34.915,228.091,29.0407,0,0.000885,0,0
0:1:35.312,229.617,29.2338,0,0.000885,0,0
0:1:35.709,230.965,29.4061,0,0.000885,0,0
0:1:36.105,231.961,29.5371,0,0.000885,0,0
0:1:36.511,233.136,29.6819,0,0.000885,0,0
0:1:36.904,233.603,29.744,0,0.000885,0,0
0:1:37.299,235.542,29.9922,0,0.000885,0,0
0:1:37.696,236.009,30.0474,0,0.000885,0,0
0:1:38.093,236.948,30.1715,0,0.000885,0,0
0:1:38.484,238.354,30.3507,0,0.000885,0,0
0:1:38.880,239.47,30.4886,0,0.000885,0,0
0:1:39.281,240.057,30.5645,0,0.000885,0,0
0:1:39.685,241.583,30.7575,0,0.000885,0,0
0:1:40.087,242.873,30.923,0,0.000885,0,0
0:1:40.489,243.869,31.0471,0,0.000885,0,0
0:1:40.884,245.337,31.2401,0,0.000885,0,0
0:1:41.282,245.689,31.2815,0,0.000885,0,0
0:1:41.676,246.565,31.3918,0,0.000885,0,0
0:1:42.070,248.211,31.6056,0,0.000885,0,0
0:1:42.465,249.616,31.7848,0,0.000885,0,0
0:1:42.862,250.319,31.8745,0,0.000885,0,0
0:1:43.257,250.733,31.9227,0,0.000885,0,0
0:1:43.652,252.432,32.1434,0,0.000885,0,0
0:1:44.056,254.016,32.3433,0,0.000885,0,0
0:1:44.458,255.541,32.5364,0,0.000885,0,0
0:1:44.857,255.657,32.5501,0,0.000885,0,0
0:1:45.259,257.712,32.8121,0,0.000885,0,0
0:1:45.652,257.943,32.8397,0,0.000885,0,0
0:1:46.046,259.411,33.0259,0,0.000885,0,0
0:1:46.445,259.705,33.0673,0,0.000885,0,0
0:1:46.840,261.168,33.2534,0,0.000885,0,0
0:1:47.233,262.227,33.3844,0,0.000885,0,0
0:1:47.627,262.343,33.4051,0,0.000885,0,0
0:1:48.024,264.278,33.6464,0,0.000885,0,0
0:1:48.422,265.919,33.8602,0,0.000885,0,0
0:1:48.814,266.275,33.9015,0,0.000885,0,0
0:1:49.218,267.565,34.067,0,0.000885,0,0
0:1:49.620,269.206,34.2738,0,0.000885,0,0
0:1:50.021,269.909,34.3635,0,0.000885,0,0
0:1:50.421,270.496,34.4393,0,0.000885,0,0
0:1:50.813,272.316,34.6737,0,0.000885,0,0
0:1:51.207,273.663,34.8461,0,0.000885,0,0
0:1:51.603,274.073,34.8944,0,0.000885,0,0
0:1:52.001,275.776,35.115,0,0.000885,0,0
0:1:52.394,276.359,35.1839,0,0.000885,0,0
0:1:52.787,277.124,35.2874,0,0.000885,0,0
0:1:53.185,279.117,35.5356,0,0.000885,0,0
0:1:53.581,279.882,35.6321,0,0.000885,0,0
0:1:53.975,280.291,35.6873,0,0.000885,0,0
0:1:54.378,282.168,35.9286,0,0.000885,0,0
0:1:54.783,283.223,36.0596,0,0.000885,0,0
0:1:55.183,284.277,36.1975,0,0.000885,0,0
0:1:55.582,285.216,36.3147,0,0.000885,0,0
0:1:55.973,287.093,36.556,0,0.000885,0,0
0:1:56.368,286.919,36.5284,0,0.000885,0,0
0:1:56.765,288.796,36.7697,0,0.000885,0,0
0:1:57.161,288.912,36.7835,0,0.000885,0,0
0:1:57.556,290.611,37.0042,0,0.000885,0,0
0:1:57.948,291.141,37.0662,0,0.000885,0,0
0:1:58.346,293.076,37.3144,0,0.000885,0,0
0:1:58.743,293.663,37.3903,0,0.000885,0,0
0:1:59.147,294.486,37.4937,0,0.000885,0,0
0:1:59.548,296.363,37.735,0,0.000885,0,0
0:1:59.949,297.359,37.8591,0,0.000885,0,0
0:2:0.347,298.356,37.9901,0,0.000885,0,0
0:2:0.743,299.001,38.0728,0,0.000885,0,0
0:2:1.136,300.878,38.3073,0,0.000885,0,0
0:2:1.531,301.696,38.4107,0,0.000885,0,0
0:2:1.927,303.222,38.6106,0,0.000885,0,0
0:2:2.323,303.458,38.6382,0,0.000885,0,0
0:2:2.718,304.69,38.7968,0,0.000885,0,0
0:2:3.120,305.571,38.9071,0,0.000885,0,0
0:2:3.527,307.034,39.0933,0,0.000885,0,0
0:2:3.925,307.857,39.1967,0,0.000885,0,0
0:2:4.328,309.85,39.4518,0,0.000885,0,0
0:2:4.730,310.731,39.5621,0,0.000885,0,0
0:2:5.129,311.727,39.6931,0,0.000885,0,0
0:2:5.528,312.959,39.8448,0,0.000885,0,0
0:2:5.925,314.013,39.9827,0,0.000885,0,0
0:2:6.315,314.778,40.0792,0,0.000885,0,0
0:2:6.707,315.01,40.1068,0,0.000885,0,0
0:2:7.106,316.771,40.3343,0,0.000885,0,0
0:2:7.512,317.825,40.4653,0,0.000885,0,0
0:2:7.907,318.942,40.6101,0,0.000885,0,0
0:2:8.310,320.348,40.7894,0,0.000885,0,0
0:2:8.715,321.7,40.9618,0,0.000885,0,0
0:2:9.115,322.283,41.0376,0,0.000885,0,0
0:2:9.521,323.75,41.2238,0,0.000885,0,0
0:2:9.923,324.28,41.2858,0,0.000885,0,0
0:2:10.322,325.863,41.4926,0,0.000885,0,0
0:2:10.727,327.033,41.6374,0,0.000885,0,0
0:2:11.125,327.798,41.734,0,0.000885,0,0
0:2:11.529,328.795,41.865,0,0.000885,0,0
0:2:11.923,330.143,42.0373,0,0.000885,0,0
0:2:12.316,331.317,42.1821,0,0.000885,0,0
0:2:12.713,332.371,42.32,0,0.000885,0,0
0:2:13.108,333.31,42.4372,0,0.000885,0,0
0:2:13.512,334.951,42.651,0,0.000885,0,0
0:2:13.914,335.245,42.6854,0,0.000885,0,0
0:2:14.316,337.006,42.9061,0,0.000885,0,0
0:2:14.715,337.651,42.9888,0,0.000885,0,0
0:2:15.115,339.057,43.1681,0,0.000885,0,0
0:2:15.508,339.764,43.2577,0,0.000885,0,0
0:2:15.912,341.641,43.499,0,0.000885,0,0
0:2:16.310,342.344,43.5887,0,0.000885,0,0
0:2:16.715,343.634,43.7541,0,0.000885,0,0
0:2:17.117,344.395,43.8507,0,0.000885,0,0
0:2:17.511,345.627,44.0092,0,0.000885,0,0
0:2:17.908,346.45,44.1127,0,0.000885,0,0
0:2:18.306,347.975,44.3057,0,0.000885,0,0
0:2:18.700,348.327,44.3471,0,0.000885,0,0
0:2:19.103,350.204,44.5884,0,0.000885,0,0
0:2:19.504,350.204,44.5884,0,0.000885,0,0
0:2:19.906,352.255,44.8504,0,0.000885,0,0
0:2:20.305,352.726,44.9124,0,0.000885,0,0
0:2:20.700,354.541,45.14,0,0.000885,0,0
0:2:21.111,355.244,45.2296,0,0.000885,0,0
0:2:21.509,356.77,45.4227,0,0.000885,0,0
0:2:21.915,357.183,45.4778,0,0.000885,0,0
0:2:22.309,358.998,45.7122,0,0.000885,0,0
0:2:22.702,359.234,45.7398,0,0.000885,0,0
0:2:23.107,361.347,46.0087,0,0.000885,0,0
0:2:23.503,361.872,46.0777,0,0.000885,0,0
0:2:23.910,363.927,46.3397,0,0.000885,0,0
0:2:24.314,364.394,46.3948,0,0.000885,0,0
0:2:24.716,366.155,46.6223,0,0.000885,0,0
0:2:25.115,366.329,46.643,0,0.000885,0,0
0:2:25.515,367.912,46.843,0,0.000885,0,0
0:2:25.909,367.855,46.8361,0,0.000885,0,0
0:2:26.302,369.91,47.0981,0,0.000885,0,0
0:2:26.699,370.377,47.1601,0,0.000885,0,0
0:2:27.097,371.845,47.3463,0,0.000885,0,0
0:2:27.492,372.374,47.4152,0,0.000885,0,0
0:2:27.884,374.54,47.691,0,0.000885,0,0
0:2:28.280,374.954,47.7393,0,0.000885,0,0
0:2:28.675,376.066,47.8841,0,0.000885,0,0
0:2:29.072,377.062,48.0082,0,0.000885,0,0
0:2:29.474,378.237,48.1599,0,0.000885,0,0
0:2:29.876,379.705,48.346,0,0.000885,0,0
0:2:30.277,380.759,48.477,0,0.000885,0,0
0:2:30.678,381.582,48.5874,0,0.000885,0,0
0:2:31.072,383.281,48.8011,0,0.000885,0,0
0:2:31.465,383.632,48.8425,0,0.000885,0,0
0:2:31.859,384.749,48.9873,0,0.000885,0,0
0:2:32.259,386.27,49.1803,0,0.000885,0,0
0:2:32.654,386.977,49.2699,0,0.000885,0,0
0:2:33.047,388.735,49.4975,0,0.000885,0,0
0:2:33.442,389.793,49.6285,0,0.000885,0,0
0:2:33.841,390.732,49.7526,0,0.000885,0,0
0:2:34.246,391.55,49.856,0,0.000885,0,0
0:2:34.646,392.898,50.0284,0,0.000885,0,0
0:2:35.045,393.249,50.0697,0,0.000885,0,0
0:2:35.442,395.189,50.3179,0,0.000885,0,0
0:2:35.840,395.95,50.4145,0,0.000885,0,0
0:2:36.234,397.417,50.6006,0,0.000885,0,0
0:2:36.629,398,50.6765,0,0.000885,0,0
0:2:37.022,399.295,50.8419,0,0.000885,0,0
0:2:37.428,399.94,50.9247,0,0.000885,0,0
0:2:37.826,401.523,51.1246,0,0.000885,0,0
0:2:38.216,401.99,51.1798,0,0.000885,0,0
0:2:38.610,403.165,51.3315,0,0.000885,0,0
0:2:39.012,404.922,51.559,0,0.000885,0,0
0:2:39.415,405.451,51.621,0,0.000885,0,0
0:2:39.814,406.741,51.7865,0,0.000885,0,0
0:2:40.215,408.382,52.0003,0,0.000885,0,0
0:2:40.629,409.085,52.0899,0,0.000885,0,0
0:2:41.029,409.966,52.2002,0,0.000885,0,0
0:2:41.425,411.376,52.3795,0,0.000885,0,0
0:2:41.826,412.137,52.476,0,0.000885,0,0
0:2:42.219,413.484,52.6484,0,0.000885,0,0
0:2:42.615,414.659,52.7932,0,0.000885,0,0
0:2:43.025,415.54,52.9104,0,0.000885,0,0
0:2:43.429,416.42,53.0207,0,0.000885,0,0
0:2:43.819,417.359,53.1379,0,0.000885,0,0
0:2:44.224,419.294,53.3861,0,0.000885,0,0
0:2:44.627,420.17,53.4964,0,0.000885,0,0
0:2:45.027,421.051,53.6067,0,0.000885,0,0
0:2:45.428,422.341,53.7722,0,0.000885,0,0
0:2:45.818,423.924,53.9791,0,0.000885,0,0
0:2:46.217,424.632,54.0687,0,0.000885,0,0
0:2:46.614,425.686,54.1997,0,0.000885,0,0
0:2:47.016,427.034,54.3721,0,0.000885,0,0
0:2:47.410,427.443,54.4272,0,0.000885,0,0
0:2:47.815,428.795,54.5927,0,0.000885,0,0
0:2:48.213,430.201,54.772,0,0.000885,0,0
0:2:48.609,430.904,54.8616,0,0.000885,0,0
0:2:49.014,432.078,55.0133,0,0.000885,0,0
0:2:49.414,433.31,55.1718,0,0.000885,0,0
0:2:49.815,433.955,55.2546,0,0.000885,0,0
0:2:50.214,435.481,55.4476,0,0.000885,0,0
0:2:50.609,435.948,55.5097,0,0.000885,0,0
0:2:51.012,437.652,55.7234,0,0.000885,0,0
0:2:51.407,438.706,55.8544,0,0.000885,0,0
0:2:51.806,439.76,55.9923,0,0.000885,0,0
0:2:52.211,440.934,56.144,0,0.000885,0,0
0:2:52.616,442.109,56.2888,0,0.000885,0,0
0:2:53.017,443.572,56.475,0,0.000885,0,0
0:2:53.414,444.337,56.5715,0,0.000885,0,0
0:2:53.813,445.863,56.7714,0,0.000885,0,0
0:2:54.215,446.094,56.799,0,0.000885,0,0
0:2:54.616,448.092,57.0541,0,0.000885,0,0
0:2:55.016,448.501,57.1024,0,0.000885,0,0
0:2:55.414,449.613,57.2472,0,0.000885,0,0
0:2:55.817,450.436,57.3506,0,0.000885,0,0
0:2:56.213,451.962,57.5436,0,0.000885,0,0
0:2:56.615,452.9,57.6677,0,0.000885,0,0
0:2:57.024,454.132,57.8194,0,0.000885,0,0
0:2:57.429,454.835,57.9091,0,0.000885,0,0
0:2:57.823,456.183,58.0814,0,0.000885,0,0
0:2:58.226,457.651,58.2676,0,0.000885,0,0
0:2:58.630,458.176,58.3365,0,0.000885,0,0
0:2:59.030,459.234,58.4744,0,0.000885,0,0
0:2:59.435,460.582,58.6399,0,0.000885,0,0
0:2:59.837,461.814,58.7985,0,0.000885,0,0
0:3:0.237,462.575,58.895,0,0.000885,0,0
0:3:0.633,463.865,59.0605,0,0.000885,0,0
0:3:1.032,464.982,59.2053,0,0.000885,0,0
0:3:1.427,466.214,59.357,0,0.000885,0,0
0:3:1.827,467.21,59.488,0,0.000885,0,0
0:3:2.232,468.909,59.7017,0,0.000885,0,0
0:3:2.629,470.555,59.9154,0,0.000885,0,0
0:3:3.026,470.671,59.9292,0,0.000885,0,0
0:3:3.418,471.903,60.0878,0,0.000885,0,0
0:3:3.820,473.193,60.2464,0,0.000885,0,0
0:3:4.226,474.074,60.3636,0,0.000885,0,0
0:3:4.626,474.95,60.4739,0,0.000885,0,0
0:3:5.026,476.36,60.6532,0,0.000885,0,0
0:3:5.428,476.711,60.6945,0,0.000885,0,0
0:3:5.821,478.353,60.9083,0,0.000885,0,0
0:3:6.217,479.527,61.0531,0,0.000885,0,0
0:3:6.615,479.879,61.1013,0,0.000885,0,0
0:3:7.015,480.817,61.2185,0,0.000885,0,0
0:3:7.419,482.285,61.4047,0,0.000885,0,0
0:3:7.817,483.806,61.5978,0,0.000885,0,0
0:3:8.214,484.745,61.7219,0,0.000885,0,0
0:3:8.609,485.977,61.8736,0,0.000885,0,0
0:3:9.012,487.387,62.0528,0,0.000885,0,0
0:3:9.415,488.384,62.1838,0,0.000885,0,0
0:3:9.815,489.553,62.3355,0,0.000885,0,0
0:3:10.217,490.67,62.4734,0,0.000885,0,0
0:3:10.609,491.373,62.563,0,0.000885,0,0
0:3:11.004,492.311,62.6802,0,0.000885,0,0
0:3:11.410,493.37,62.8181,0,0.000885,0,0
0:3:11.815,494.776,62.9974,0,0.000885,0,0
0:3:12.220,495.599,63.1008,0,0.000885,0,0
0:3:12.633,497.182,63.3008,0,0.000885,0,0
0:3:13.030,497.765,63.3766,0,0.000885,0,0
0:3:13.426,499.469,63.5972,0,0.000885,0,0
0:3:13.819,500.229,63.6938,0,0.000885,0,0
0:3:14.222,501.755,63.8868,0,0.000885,0,0
0:3:14.626,502.636,63.9971,0,0.000885,0,0
0:3:15.026,503.806,64.1488,0,0.000885,0,0
0:3:15.427,504.864,64.2798,0,0.000885,0,0
0:3:15.829,505.683,64.3832,0,0.000885,0,0
0:3:16.221,506.684,64.5142,0,0.000885,0,0
0:3:16.628,507.911,64.6728,0,0.000885,0,0
0:3:17.026,509.495,64.8728,0,0.000885,0,0
0:3:17.432,510.669,65.0176,0,0.000885,0,0
0:3:17.822,511.492,65.1279,0,0.000885,0,0
0:3:18.228,512.662,65.2727,0,0.000885,0,0
0:3:18.633,513.191,65.3416,0,0.000885,0,0
0:3:19.032,514.481,65.5071,0,0.000885,0,0
0:3:19.436,515.362,65.6174,0,0.000885,0,0
0:3:19.837,516.474,65.7622,0,0.000885,0,0
0:3:20.238,517.706,65.9139,0,0.000885,0,0
0:3:20.636,518.707,66.0449,0,0.000885,0,0
0:3:21.032,519.877,66.1897,0,0.000885,0,0
0:3:21.426,521.109,66.3482,0,0.000885,0,0
0:3:21.829,522.519,66.5275,0,0.000885,0,0
0:3:22.223,523.573,66.6654,0,0.000885,0,0
0:3:22.621,524.334,66.7619,0,0.000885,0,0
0:3:23.035,525.451,66.8998,0,0.000885,0,0
0:3:23.429,526.741,67.0653,0,0.000885,0,0
0:3:23.830,527.443,67.1549,0,0.000885,0,0
0:3:24.234,529.263,67.3894,0,0.000885,0,0
0:3:24.635,530.375,67.5273,0,0.000885,0,0
0:3:25.035,531.607,67.6858,0,0.000885,0,0
0:3:25.429,532.31,67.7755,0,0.000885,0,0
0:3:25.827,533.778,67.9616,0,0.000885,0,0
0:3:26.233,534.601,68.065,0,0.000885,0,0
0:3:26.624,535.303,68.1547,0,0.000885,0,0
0:3:27.018,536.536,68.3133,0,0.000885,0,0
0:3:27.423,537.416,68.4236,0,0.000885,0,0
0:3:27.822,538.177,68.5201,0,0.000885,0,0
0:3:28.228,539.703,68.72,0,0.000885,0,0
0:3:28.618,540.993,68.8786,0,0.000885,0,0
0:3:29.020,541.811,68.9889,0,0.000885,0,0
0:3:29.423,543.395,69.1889,0,0.000885,0,0
0:3:29.827,543.982,69.2647,0,0.000885,0,0
0:3:30.227,545.272,69.4233,0,0.000885,0,0
0:3:30.618,546.855,69.6302,0,0.000885,0,0
0:3:31.015,547.385,69.6922,0,0.000885,0,0
0:3:31.413,548.795,69.8715,0,0.000885,0,0
0:3:31.817,549.965,70.0232,0,0.000885,0,0
0:3:32.231,550.961,70.1542,0,0.000885,0,0
0:3:32.623,552.136,70.2989,0,0.000885,0,0
0:3:33.021,553.31,70.4506,0,0.000885,0,0
0:3:33.430,554.191,70.5609,0,0.000885,0,0
0:3:33.833,555.303,70.7057,0,0.000885,0,0
0:3:34.235,556.477,70.8505,0,0.000885,0,0
0:3:34.637,557.767,71.016,0,0.000885,0,0
0:3:35.038,558.821,71.1539,0,0.000885,0,0
0:3:35.440,559.996,71.2987,0,0.000885,0,0
0:3:35.831,560.405,71.3538,0,0.000885,0,0
0:3:36.224,561.753,71.5262,0,0.000885,0,0
0:3:36.632,562.985,71.6848,0,0.000885,0,0
0:3:37.029,563.398,71.7331,0,0.000885,0,0
0:3:37.421,565.213,71.9675,0,0.000885,0,0
0:3:37.823,566.152,72.0847,0,0.000885,0,0
0:3:38.230,567.326,72.2364,0,0.000885,0,0
0:3:38.628,568.558,72.3881,0,0.000885,0,0
0:3:39.022,569.67,72.5328,0,0.000885,0,0
0:3:39.428,570.671,72.657,0,0.000885,0,0
0:3:39.830,572.193,72.8569,0,0.000885,0,0
0:3:40.231,573.073,72.9672,0,0.000885,0,0
0:3:40.630,573.954,73.0775,0,0.000885,0,0
0:3:41.023,575.128,73.2292,0,0.000885,0,0
0:3:41.436,576.005,73.3395,0,0.000885,0,0
0:3:41.830,577.121,73.4843,0,0.000885,0,0
0:3:42.236,578.527,73.6636,0,0.000885,0,0
0:3:42.634,579.528,73.7877,0,0.000885,0,0
0:3:43.031,580.582,73.9187,0,0.000885,0,0
0:3:43.433,581.578,74.0497,0,0.000885,0,0
0:3:43.834,582.926,74.2221,0,0.000885,0,0
0:3:44.237,584.043,74.36,0,0.000885,0,0
0:3:44.639,585.448,74.5392,0,0.000885,0,0
0:3:45.039,586.329,74.6564,0,0.000885,0,0
0:3:45.434,587.268,74.7736,0,0.000885,0,0
0:3:45.833,588.326,74.9046,0,0.000885,0,0
0:3:46.231,589.501,75.0563,0,0.000885,0,0
0:3:46.638,590.381,75.1666,0,0.000885,0,0
0:3:47.035,591.32,75.2907,0,0.000885,0,0
0:3:47.430,592.552,75.4493,0,0.000885,0,0
0:3:47.826,593.313,75.5459,0,0.000885,0,0
0:3:48.229,594.487,75.6906,0,0.000885,0,0
0:3:48.624,595.839,75.863,0,0.000885,0,0
0:3:49.031,596.6,75.9595,0,0.000885,0,0
0:3:49.435,598.246,76.1733,0,0.000885,0,0
0:3:49.838,599.478,76.325,0,0.000885,0,0
0:3:50.240,600.594,76.4698,0,0.000885,0,0
0:3:50.637,601.297,76.5594,0,0.000885,0,0
0:3:51.032,602.529,76.718,0,0.000885,0,0
0:3:51.427,603.819,76.8834,0,0.000885,0,0
0:3:51.825,604.82,77.0075,0,0.000885,0,0
0:3:52.224,606.052,77.1661,0,0.000885,0,0
0:3:52.620,607.285,77.3247,0,0.000885,0,0
0:3:53.024,608.107,77.4281,0,0.000885,0,0
0:3:53.423,609.513,77.6074,0,0.000885,0,0
0:3:53.823,610.336,77.7108,0,0.000885,0,0
0:3:54.232,611.63,77.8763,0,0.000885,0,0
0:3:54.635,612.04,77.9245,0,0.000885,0,0
0:3:55.038,613.388,78.0969,0,0.000885,0,0
0:3:55.436,614.153,78.1934,0,0.000885,0,0
0:3:55.837,615.678,78.3934,0,0.000885,0,0
0:3:56.234,617.031,78.5658,0,0.000885,0,0
0:3:56.630,617.911,78.6761,0,0.000885,0,0
0:3:57.024,618.788,78.7864,0,0.000885,0,0
0:3:57.423,620.14,78.9588,0,0.000885,0,0
0:3:57.823,621.136,79.0829,0,0.000885,0,0
0:3:58.219,622.368,79.2414,0,0.000885,0,0
0:3:58.613,623.605,79.4,0,0.000885,0,0
0:3:59.016,624.601,79.5241,0,0.000885,0,0
0:3:59.422,626.012,79.7034,0,0.000885,0,0
0:3:59.826,626.95,79.8275,0,0.000885,0,0
0:4:0.227,627.653,79.9171,0,0.000885,0,0
0:4:0.636,628.649,80.0412,0,0.000885,0,0
0:4:1.034,630.002,80.2136,0,0.000885,0,0
0:4:1.433,631.412,80.3929,0,0.000885,0,0
0:4:1.828,632.115,80.4825,0,0.000885,0,0
0:4:2.224,633.462,80.6549,0,0.000885,0,0
0:4:2.618,634.699,80.8135,0,0.000885,0,0
0:4:3.018,635.108,80.8617,0,0.000885,0,0
0:4:3.417,636.398,81.0272,0,0.000885,0,0
0:4:3.813,637.337,81.1513,0,0.000885,0,0
0:4:4.217,638.689,81.3237,0,0.000885,0,0
0:4:4.621,639.57,81.434,0,0.000885,0,0
0:4:5.023,641.038,81.6201,0,0.000885,0,0
0:4:5.427,642.034,81.7442,0,0.000885,0,0
0:4:5.823,643.618,81.9511,0,0.000885,0,0
0:4:6.226,643.973,81.9925,0,0.000885,0,0
0:4:6.625,645.499,82.1855,0,0.000885,0,0
0:4:7.024,646.38,82.3027,0,0.000885,0,0
0:4:7.424,647.906,82.4958,0,0.000885,0,0
0:4:7.818,648.373,82.5509,0,0.000885,0,0
0:4:8.225,650.312,82.7991,0,0.000885,0,0
0:4:8.624,651.429,82.9439,0,0.000885,0,0
0:4:9.021,652.189,83.0405,0,0.000885,0,0
0:4:9.426,653.07,83.1508,0,0.000885,0,0
0:4:9.832,654.129,83.2887,0,0.000885,0,0
0:4:10.235,654.889,83.3852,0,0.000885,0,0
0:4:10.638,655.828,83.5024,0,0.000885,0,0
0:4:11.034,657.238,83.6817,0,0.000885,0,0
0:4:11.428,658.648,83.8609,0,0.000885,0,0
0:4:11.823,659.293,83.9437,0,0.000885,0,0
0:4:12.232,660.935,84.1505,0,0.000885,0,0
0:4:12.633,662.287,84.3229,0,0.000885,0,0
0:4:13.026,663.341,84.4608,0,0.000885,0,0
0:4:13.421,664.28,84.578,0,0.000885,0,0
0:4:13.825,665.103,84.6814,0,0.000885,0,0
0:4:14.233,666.219,84.8262,0,0.000885,0,0
0:4:14.635,667.1,84.9365,0,0.000885,0,0
0:4:15.038,668.216,85.0813,0,0.000885,0,0
0:4:15.433,669.448,85.2399,0,0.000885,0,0
0:4:15.832,670.916,85.426,0,0.000885,0,0
0:4:16.240,672.206,85.5846,0,0.000885,0,0
0:4:16.635,673.496,85.7501,0,0.000885,0,0
0:4:17.032,674.319,85.8604,0,0.000885,0,0
0:4:17.427,675.609,86.019,0,0.000885,0,0
0:4:17.827,676.139,86.0879,0,0.000885,0,0
0:4:18.235,677.664,86.281,0,0.000885,0,0
0:4:18.638,678.603,86.4051,0,0.000885,0,0
0:4:19.042,679.132,86.4672,0,0.000885,0,0
0:4:19.447,680.836,86.6878,0,0.000885,0,0
0:4:19.851,681.365,86.7567,0,0.000885,0,0
0:4:20.253,683.185,86.9843,0,0.000885,0,0
0:4:20.648,683.887,87.0739,0,0.000885,0,0
0:4:21.047,684.532,87.1566,0,0.000885,0,0
0:4:21.446,685.885,87.329,0,0.000885,0,0
0:4:21.842,687.41,87.522,0,0.000885,0,0
0:4:22.238,688.878,87.7082,0,0.000885,0,0
0:4:22.634,689.345,87.7703,0,0.000885,0,0
0:4:23.033,690.346,87.8944,0,0.000885,0,0
0:4:23.433,691.4,88.0323,0,0.000885,0,0
0:4:23.826,692.633,88.1908,0,0.000885,0,0
0:4:24.233,693.865,88.3425,0,0.000885,0,0
0:4:24.636,694.803,88.4666,0,0.000885,0,0
0:4:25.039,696.098,88.6321,0,0.000885,0,0
0:4:25.442,697.036,88.7493,0,0.000885,0,0
0:4:25.838,698.033,88.8734,0,0.000885,0,0
0:4:26.234,699.327,89.0389,0,0.000885,0,0
0:4:26.642,700.497,89.1906,0,0.000885,0,0
0:4:27.040,701.556,89.3216,0,0.000885,0,0
0:4:27.436,702.379,89.4319,0,0.000885,0,0
0:4:27.828,703.726,89.6043,0,0.000885,0,0
0:4:28.227,704.843,89.7422,0,0.000885,0,0
0:4:28.628,705.897,89.8801,0,0.000885,0,0
0:4:29.035,707.543,90.0869,0,0.000885,0,0
0:4:29.437,708.833,90.2524,0,0.000885,0,0
0:4:29.839,709.362,90.3213,0,0.000885,0,0
0:4:30.238,710.83,90.5075,0,0.000885,0,0
0:4:30.637,711.884,90.6385,0,0.000885,0,0
0:4:31.033,712.472,90.7143,0,0.000885,0,0
0:4:31.425,713.824,90.8867,0,0.000885,0,0
0:4:31.835,714.647,90.9901,0,0.000885,0,0
0:4:32.233,715.759,91.1349,0,0.000885,0,0
0:4:32.628,716.64,91.2452,0,0.000885,0,0
0:4:33.024,717.756,91.39,0,0.000885,0,0
0:4:33.428,719.046,91.5486,0,0.000885,0,0
0:4:33.830,719.927,91.6658,0,0.000885,0,0
0:4:34.239,721.221,91.8313,0,0.000885,0,0
0:4:34.643,722.627,92.0105,0,0.000885,0,0
0:4:35.044,723.801,92.1553,0,0.000885,0,0
0:4:35.441,724.74,92.2794,0,0.000885,0,0
0:4:35.841,725.741,92.4035,0,0.000885,0,0
0:4:36.238,726.915,92.5552,0,0.000885,0,0
0:4:36.631,728.263,92.7276,0,0.000885,0,0
0:4:37.027,729.201,92.8448,0,0.000885,0,0
0:4:37.425,730.318,92.9896,0,0.000885,0,0
0:4:37.835,731.256,93.1068,0,0.000885,0,0
0:4:38.228,732.257,93.2309,0,0.000885,0,0
0:4:38.623,733.427,93.3826,0,0.000885,0,0
0:4:39.026,734.192,93.4791,0,0.000885,0,0
0:4:39.435,735.718,93.6722,0,0.000885,0,0
0:4:39.838,737.008,93.8376,0,0.000885,0,0
0:4:40.240,737.831,93.9411,0,0.000885,0,0
0:4:40.636,739.357,94.141,0,0.000885,0,0
0:4:41.036,740.002,94.2169,0,0.000885,0,0
0:4:41.435,740.767,94.3203,0,0.000885,0,0
0:4:41.828,741.941,94.4651,0,0.000885,0,0
0:4:42.225,743.231,94.6305,0,0.000885,0,0
0:4:42.623,744.112,94.7409,0,0.000885,0,0
0:4:43.021,745.522,94.9201,0,0.000885,0,0
0:4:43.428,746.87,95.0925,0,0.000885,0,0
0:4:43.843,747.986,95.2373,0,0.000885,0,0
0:4:44.247,748.689,95.3269,0,0.000885,0,0
0:4:44.653,750.041,95.4993,0,0.000885,0,0
0:4:45.056,750.922,95.6096,0,0.000885,0,0
0:4:45.458,752.096,95.7613,0,0.000885,0,0
0:4:45.853,753.271,95.9061,0,0.000885,0,0
0:4:46.251,754.445,96.0578,0,0.000885,0,0
0:4:46.651,755.264,96.1612,0,0.000885,0,0
0:4:47.048,756.38,96.306,0,0.000885,0,0
0:4:47.444,757.67,96.4714,0,0.000885,0,0
0:4:47.840,758.844,96.6162,0,0.000885,0,0
0:4:48.238,760.312,96.8093,0,0.000885,0,0
0:4:48.638,760.784,96.8644,0,0.000885,0,0
0:4:49.043,762.31,97.0575,0,0.000885,0,0
0:4:49.447,763.248,97.1816,0,0.000885,0,0
0:4:49.850,764.422,97.3264,0,0.000885,0,0
0:4:50.252,765.712,97.4919,0,0.000885,0,0
0:4:50.648,766.357,97.5746,0,0.000885,0,0
0:4:51.042,767.652,97.7401,0,0.000885,0,0
0:4:51.439,768.706,97.878,0,0.000885,0,0
0:4:51.838,769.413,97.9676,0,0.000885,0,0
0:4:52.238,770.525,98.1055,0,0.000885,0,0
0:4:52.630,771.762,98.2641,0,0.000885,0,0
0:4:53.027,772.816,98.3951,0,0.000885,0,0
0:4:53.424,773.639,98.5054,0,0.000885,0,0
0:4:53.823,775.223,98.7053,0,0.000885,0,0
0:4:54.229,776.455,98.8639,0,0.000885,0,0
0:4:54.632,777.393,98.9811,0,0.000885,0,0
0:4:55.036,778.101,99.0708,0,0.000885,0,0
0:4:55.437,779.626,99.2638,0,0.000885,0,0
0:4:55.845,780.916,99.4293,0,0.000885,0,0
0:4:56.241,781.739,99.5327,0,0.000885,0,0
0:4:56.636,782.794,99.6706,0,0.000885,0,0
0:4:57.033,783.968,99.8154,0,0.000885,0,0
0:4:57.432,785.32,99.9878,0,0.000885,0,0
0:4:57.828,786.552,100.146,0,0.000885,0,0
0:4:58.223,787.024,100.208,0,0.000885,0,0
0:4:58.620,788.429,100.388,0,0.000885,0,0
0:4:59.021,789.546,100.526,0,0.000885,0,0
0:4:59.427,790.894,100.698,0,0.000885,0,0
0:4:59.829,791.659,100.794,0,0.000885,0,0
0:5:0.231,792.13,100.857,0,0.000885,0,0
0:5:0.632,793.478,101.029,0,0.000885,0,0
0:5:1.030,795.418,101.277,0,0.000885,0,0
0:5:1.427,795.827,101.325,0,0.000885,0,0
0:5:1.830,797.237,101.505,0,0.000885,0,0
0:5:2.228,798.763,101.705,0,0.000885,0,0
0:5:2.626,799.581,101.808,0,0.000885,0,0
0:5:3.023,800.346,101.905,0,0.000885,0,0
0:5:3.421,801.636,102.07,0,0.000885,0,0
0:5:3.824,802.517,102.18,0,0.000885,0,0
0:5:4.228,803.927,102.36,0,0.000885,0,0
0:5:4.630,804.75,102.463,0,0.000885,0,0
0:5:5.034,805.982,102.622,0,0.000885,0,0
0:5:5.442,807.214,102.78,0,0.000885,0,0
0:5:5.838,808.331,102.918,0,0.000885,0,0
0:5:6.234,809.443,103.063,0,0.000885,0,0
0:5:6.631,810.15,103.152,0,0.000885,0,0
0:5:7.027,811.556,103.332,0,0.000885,0,0
0:5:7.423,812.263,103.421,0,0.000885,0,0
0:5:7.822,813.789,103.614,0,0.000885,0,0
0:5:8.218,814.67,103.725,0,0.000885,0,0
0:5:8.624,815.786,103.87,0,0.000885,0,0
0:5:9.028,816.667,103.98,0,0.000885,0,0
0:5:9.432,818.13,104.166,0,0.000885,0,0
0:5:9.835,819.073,104.29,0,0.000885,0,0
0:5:10.240,820.128,104.421,0,0.000885,0,0
0:5:10.646,821.595,104.607,0,0.000885,0,0
0:5:11.041,822.298,104.697,0,0.000885,0,0
0:5:11.441,823.237,104.821,0,0.000885,0,0
0:5:11.839,824.353,104.959,0,0.000885,0,0
0:5:12.233,825.176,105.062,0,0.000885,0,0
0:5:12.639,826.996,105.297,0,0.000885,0,0
0:5:13.046,828.463,105.483,0,0.000885,0,0
0:5:13.446,828.873,105.538,0,0.000885,0,0
0:5:13.843,829.989,105.676,0,0.000885,0,0
0:5:14.248,830.928,105.8,0,0.000885,0,0
0:5:14.652,832.28,105.972,0,0.000885,0,0
0:5:15.055,833.276,106.097,0,0.000885,0,0
0:5:15.458,834.86,106.296,0,0.000885,0,0
0:5:15.855,835.977,106.441,0,0.000885,0,0
0:5:16.249,836.742,106.538,0,0.000885,0,0
0:5:16.648,837.796,106.669,0,0.000885,0,0
0:5:17.046,839.442,106.883,0,0.000885,0,0
0:5:17.445,840.26,106.986,0,0.000885,0,0
0:5:17.839,841.612,107.158,0,0.000885,0,0
0:5:18.232,842.435,107.262,0,0.000885,0,0
0:5:18.643,843.961,107.455,0,0.000885,0,0
0:5:19.042,844.78,107.558,0,0.000885,0,0
0:5:19.446,845.545,107.655,0,0.000885,0,0
0:5:19.850,846.603,107.793,0,0.000885,0,0
0:5:20.253,847.715,107.937,0,0.000885,0,0
0:5:20.654,848.538,108.041,0,0.000885,0,0
0:5:21.052,850.006,108.227,0,0.000885,0,0
0:5:21.448,851.003,108.351,0,0.000885,0,0
0:5:21.843,852.235,108.51,0,0.000885,0,0
0:5:22.242,852.942,108.599,0,0.000885,0,0
0:5:22.641,854.526,108.799,0,0.000885,0,0
0:5:23.034,855.349,108.91,0,0.000885,0,0
0:5:23.431,856.816,109.096,0,0.000885,0,0
0:5:23.833,857.697,109.206,0,0.000885,0,0
0:5:24.241,858.751,109.337,0,0.000885,0,0
0:5:24.644,859.69,109.461,0,0.000885,0,0
0:5:25.047,861.042,109.634,0,0.000885,0,0
0:5:25.442,861.745,109.723,0,0.000885,0,0
0:5:25.841,863.507,109.944,0,0.000885,0,0
0:5:26.249,863.978,110.006,0,0.000885,0,0
0:5:26.644,865.384,110.185,0,0.000885,0,0
0:5:27.041,866.558,110.337,0,0.000885,0,0
0:5:27.435,867.675,110.475,0,0.000885,0,0
0:5:27.835,869.085,110.654,0,0.000885,0,0
0:5:28.231,869.552,110.716,0,0.000885,0,0
0:5:28.635,870.49,110.833,0,0.000885,0,0
0:5:29.040,871.843,111.006,0,0.000885,0,0
0:5:29.445,872.723,111.116,0,0.000885,0,0
0:5:29.849,874.365,111.33,0,0.000885,0,0
0:5:30.250,875.072,111.419,0,0.000885,0,0
0:5:30.646,876.54,111.605,0,0.000885,0,0
0:5:31.044,877.888,111.778,0,0.000885,0,0
0:5:31.444,878.711,111.881,0,0.000885,0,0
0:5:31.840,879.591,111.992,0,0.000885,0,0
0:5:32.234,880.472,112.102,0,0.000885,0,0
0:5:32.630,881.82,112.274,0,0.000885,0,0
0:5:33.029,882.701,112.391,0,0.000885,0,0
0:5:33.429,884.284,112.591,0,0.000885,0,0
0:5:33.832,885.227,112.709,0,0.000885,0,0
0:5:34.236,886.459,112.867,0,0.000885,0,0
0:5:34.642,887.22,112.964,0,0.000885,0,0
0:5:35.044,888.514,113.129,0,0.000885,0,0
0:5:35.448,889.862,113.302,0,0.000885,0,0
0:5:35.844,890.627,113.398,0,0.000885,0,0
0:5:36.240,892.153,113.591,0,0.000885,0,0
0:5:36.638,892.856,113.681,0,0.000885,0,0
0:5:37.036,894.502,113.894,0,0.000885,0,0
0:5:37.431,894.675,113.915,0,0.000885,0,0
0:5:37.827,896.201,114.108,0,0.000885,0,0
0:5:38.223,897.082,114.219,0,0.000885,0,0
0:5:38.626,898.256,114.37,0,0.000885,0,0
0:5:39.030,899.373,114.515,0,0.000885,0,0
0:5:39.434,900.253,114.625,0,0.000885,0,0
0:5:39.836,901.895,114.832,0,0.000885,0,0
0:5:40.236,902.366,114.894,0,0.000885,0,0
0:5:40.632,903.42,115.025,0,0.000885,0,0
0:5:41.029,905.066,115.239,0,0.000885,0,0
0:5:41.425,906.592,115.432,0,0.000885,0,0
0:5:41.823,907.121,115.501,0,0.000885,0,0
0:5:42.222,908.411,115.66,0,0.000885,0,0
0:5:42.627,909.644,115.818,0,0.000885,0,0
0:5:43.022,910.346,115.908,0,0.000885,0,0
0:5:43.420,911.405,116.046,0,0.000885,0,0
0:5:43.820,912.815,116.225,0,0.000885,0,0
0:5:44.225,913.518,116.315,0,0.000885,0,0
0:5:44.629,914.87,116.487,0,0.000885,0,0
0:5:45.031,916.045,116.632,0,0.000885,0,0
0:5:45.431,917.508,116.818,0,0.000885,0,0
0:5:45.829,918.682,116.97,0,0.000885,0,0
0:5:46.225,919.269,117.045,0,0.000885,0,0
0:5:46.620,919.914,117.128,0,0.000885,0,0
0:5:47.027,920.915,117.252,0,0.000885,0,0
0:5:47.427,922.032,117.397,0,0.000885,0,0
0:5:47.824,923.264,117.556,0,0.000885,0,0
0:5:48.219,924.848,117.756,0,0.000885,0,0
0:5:48.615,926.138,117.921,0,0.000885,0,0
0:5:49.018,927.076,118.038,0,0.000885,0,0
0:5:49.423,927.783,118.128,0,0.000885,0,0
0:5:49.825,928.895,118.273,0,0.000885,0,0
0:5:50.228,930.19,118.438,0,0.000885,0,0
0:5:50.633,931.6,118.617,0,0.000885,0,0
0:5:51.032,932.712,118.755,0,0.000885,0,0
0:5:51.431,933.944,118.914,0,0.000885,0,0
0:5:51.825,935.118,119.066,0,0.000885,0,0
0:5:52.223,935.826,119.155,0,0.000885,0,0
0:5:52.622,936.938,119.293,0,0.000885,0,0
0:5:53.021,938.054,119.438,0,0.000885,0,0
0:5:53.426,938.757,119.528,0,0.000885,0,0
0:5:53.830,939.994,119.686,0,0.000885,0,0
0:5:54.234,940.754,119.783,0,0.000885,0,0
0:5:54.638,942.4,119.989,0,0.000885,0,0
0:5:55.043,943.575,120.141,0,0.000885,0,0
0:5:55.446,944.807,120.3,0,0.000885,0,0
0:5:55.842,946.275,120.486,0,0.000885,0,0
0:5:56.237,947.093,120.589,0,0.000885,0,0
0:5:56.637,947.738,120.672,0,0.000885,0,0
0:5:57.033,948.681,120.789,0,0.000885,0,0
0:5:57.429,949.971,120.955,0,0.000885,0,0
0:5:57.835,950.852,121.065,0,0.000885,0,0
0:5:58.235,952.262,121.244,0,0.000885,0,0
0:5:58.632,953.201,121.368,0,0.000885,0,0
0:5:59.037,954.606,121.548,0,0.000885,0,0
0:5:59.444,955.313,121.637,0,0.000885,0,0
0:5:59.846,956.252,121.755,0,0.000885,0,0
0:6:0.249,957.836,121.954,0,0.000885,0,0
0:6:0.647,958.894,122.092,0,0.000885,0,0
0:6:1.039,960.069,122.237,0,0.000885,0,0
0:6:1.447,960.771,122.327,0,0.000885,0,0
0:6:1.847,961.768,122.458,0,0.000885,0,0
0:6:2.244,963.12,122.63,0,0.000885,0,0
0:6:2.638,964.001,122.74,0,0.000885,0,0
0:6:3.033,965.469,122.927,0,0.000885,0,0
0:6:3.432,966.759,123.092,0,0.000885,0,0
0:6:3.831,967.991,123.251,0,0.000885,0,0
0:6:4.234,968.756,123.347,0,0.000885,0,0
0:6:4.639,969.988,123.506,0,0.000885,0,0
0:6:5.040,971.572,123.706,0,0.000885,0,0
0:6:5.445,972.217,123.788,0,0.000885,0,0
0:6:5.852,973.04,123.892,0,0.000885,0,0
0:6:6.248,973.862,123.995,0,0.000885,0,0
0:6:6.643,975.33,124.181,0,0.000885,0,0
0:6:7.039,976.149,124.285,0,0.000885,0,0
0:6:7.439,977.795,124.499,0,0.000885,0,0
0:6:7.846,978.675,124.609,0,0.000885,0,0
0:6:8.240,980.143,124.795,0,0.000885,0,0
0:6:8.637,980.962,124.899,0,0.000885,0,0
0:6:9.038,982.136,125.05,0,0.000885,0,0
0:6:9.446,983.253,125.195,0,0.000885,0,0
0:6:9.849,983.898,125.271,0,0.000885,0,0
0:6:10.253,985.308,125.45,0,0.000885,0,0
0:6:10.652,986.189,125.567,0,0.000885,0,0
0:6:11.051,987.243,125.698,0,0.000885,0,0
0:6:11.447,988.008,125.795,0,0.000885,0,0
0:6:11.852,989.885,126.036,0,0.000885,0,0
0:6:12.248,991.295,126.215,0,0.000885,0,0
0:6:12.647,992.291,126.34,0,0.000885,0,0
0:6:13.045,993.35,126.477,0,0.000885,0,0
0:6:13.437,994.524,126.629,0,0.000885,0,0
0:6:13.833,995.814,126.788,0,0.000885,0,0
0:6:14.237,996.58,126.891,0,0.000885,0,0
0:6:14.645,997.692,127.029,0,0.000885,0,0
0:6:15.048,998.924,127.188,0,0.000885,0,0
0:6:15.451,999.867,127.305,0,0.000885,0,0
0:6:15.848,1000.51,127.388,0,0.000885,0,0
0:6:16.245,1001.45,127.512,0,0.000885,0,0
0:6:16.645,1002.21,127.608,0,0.000885,0,0
0:6:17.038,1003.39,127.753,0,0.000885,0,0
0:6:17.433,1004.62,127.912,0,0.000885,0,0
0:6:17.830,1005.97,128.084,0,0.000885,0,0
0:6:18.229,1007.14,128.236,0,0.000885,0,0
0:6:18.627,1008.2,128.367,0,0.000885,0,0
0:6:19.033,1009.72,128.56,0,0.000885,0,0
0:6:19.436,1010.67,128.684,0,0.000885,0,0
0:6:19.837,1011.43,128.78,0,0.000885,0,0
0:6:20.236,1012.72,128.946,0,0.000885,0,0
0:6:20.636,1014.01,129.111,0,0.000885,0,0
0:6:21.032,1014.95,129.228,0,0.000885,0,0
0:6:21.427,1016.48,129.421,0,0.000885,0,0
0:6:21.824,1017.54,129.559,0,0.000885,0,0
0:6:22.225,1018.35,129.663,0,0.000885,0,0
0:6:22.622,1019.82,129.849,0,0.000885,0,0
0:6:23.017,1020.29,129.911,0,0.000885,0,0
0:6:23.413,1021.12,130.014,0,0.000885,0,0
0:6:23.817,1021.93,130.118,0,0.000885,0,0
0:6:24.223,1023.34,130.297,0,0.000885,0,0
0:6:24.627,1024.81,130.483,0,0.000885,0,0
0:6:25.028,1025.52,130.573,0,0.000885,0,0
0:6:25.426,1027.22,130.787,0,0.000885,0,0
0:6:25.824,1027.86,130.869,0,0.000885,0,0
0:6:26.234,1029.04,131.021,0,0.000885,0,0
0:6:26.639,1029.92,131.131,0,0.000885,0,0
0:6:27.034,1031.5,131.338,0,0.000885,0,0
0:6:27.433,1032.73,131.49,0,0.000885,0,0
0:6:27.831,1033.91,131.642,0,0.000885,0,0
0:6:28.228,1034.85,131.759,0,0.000885,0,0
0:6:28.624,1036.02,131.91,0,0.000885,0,0
0:6:29.029,1036.79,132.007,0,0.000885,0,0
0:6:29.433,1038.08,132.172,0,0.000885,0,0
0:6:29.836,1039.43,132.345,0,0.000885,0,0
0:6:30.237,1040.13,132.434,0,0.000885,0,0
0:6:30.643,1041.36,132.593,0,0.000885,0,0
0:6:31.050,1042.6,132.745,0,0.000885,0,0
0:6:31.449,1043.66,132.883,0,0.000885,0,0
0:6:31.849,1044.77,133.027,0,0.000885,0,0
0:6:32.243,1045.77,133.152,0,0.000885,0,0
0:6:32.651,1047,133.31,0,0.000885,0,0
0:6:33.054,1047.82,133.414,0,0.000885,0,0
0:6:33.453,1049.41,133.614,0,0.000885,0,0
0:6:33.854,1050.58,133.765,0,0.000885,0,0
0:6:34.259,1051.58,133.889,0,0.000885,0,0
0:6:34.663,1051.99,133.944,0,0.000885,0,0
0:6:35.066,1053.22,134.103,0,0.000885,0,0
0:6:35.465,1054.16,134.22,0,0.000885,0,0
0:6:35.864,1055.1,134.337,0,0.000885,0,0
0:6:36.259,1056.8,134.558,0,0.000885,0,0
0:6:36.653,1057.8,134.682,0,0.000885,0,0
0:6:37.052,1058.5,134.772,0,0.000885,0,0
0:6:37.450,1059.97,134.958,0,0.000885,0,0
0:6:37.847,1061.2,135.117,0,0.000885,0,0
0:6:38.241,1062.2,135.241,0,0.000885,0,0
0:6:38.648,1063.26,135.379,0,0.000885,0,0
0:6:39.051,1064.78,135.572,0,0.000885,0,0
0:6:39.456,1066.02,135.73,0,0.000885,0,0
0:6:39.860,1066.72,135.82,0,0.000885,0,0
0:6:40.263,1067.9,135.972,0,0.000885,0,0
0:6:40.660,1069.13,136.123,0,0.000885,0,0
0:6:41.060,1070.36,136.282,0,0.000885,0,0
0:6:41.458,1071.13,136.378,0,0.000885,0,0
0:6:41.853,1072.18,136.516,0,0.000885,0,0
0:6:42.247,1073.59,136.695,0,0.000885,0,0
0:6:42.643,1074.88,136.861,0,0.000885,0,0
0:6:43.042,1074.94,136.868,0,0.000885,0,0
0:6:43.438,1076.29,137.04,0,0.000885,0,0
0:6:43.832,1077.58,137.199,0,0.000885,0,0
0:6:44.236,1078.76,137.35,0,0.000885,0,0
0:6:44.642,1079.69,137.475,0,0.000885,0,0
0:6:45.044,1080.63,137.592,0,0.000885,0,0
0:6:45.449,1081.99,137.764,0,0.000885,0,0
0:6:45.843,1083.16,137.909,0,0.000885,0,0
0:6:46.242,1084.45,138.074,0,0.000885,0,0
0:6:46.641,1085.09,138.157,0,0.000885,0,0
0:6:47.036,1086.1,138.288,0,0.000885,0,0
0:6:47.433,1087.39,138.454,0,0.000885,0,0
0:6:47.829,1088.91,138.647,0,0.000885,0,0
0:6:48.227,1089.26,138.688,0,0.000885,0,0
0:6:48.626,1090.85,138.888,0,0.000885,0,0
0:6:49.030,1091.67,138.998,0,0.000885,0,0
0:6:49.434,1090.09,138.791,0,0.000885,0,0
0:6:49.835,1092.2,139.06,0,0.000885,0,0
0:6:50.237,1093.78,139.267,0,0.000885,0,0
0:6:50.633,1095.78,139.522,0,0.000885,0,0
0:6:51.029,1097.66,139.757,0,0.000885,0,0
0:6:51.426,1098.36,139.846,0,0.000885,0,0
0:6:51.826,1099.83,140.033,0,0.000885,0,0
0:6:52.232,1101.53,140.253,0,0.000885,0,0
0:6:52.627,1102.12,140.329,0,0.000885,0,0
0:6:53.024,1103.18,140.46,0,0.000885,0,0
0:6:53.423,1104.12,140.577,0,0.000885,0,0
0:6:53.822,1105.17,140.715,0,0.000885,0,0
0:6:54.227,1106.99,140.95,0,0.000885,0,0
0:6:54.630,1108.05,141.081,0,0.000885,0,0
0:6:55.033,1108.87,141.184,0,0.000885,0,0
0:6:55.434,1109.63,141.28,0,0.000885,0,0
0:6:55.840,1110.86,141.439,0,0.000885,0,0
0:6:56.249,1111.57,141.529,0,0.000885,0,0
0:6:56.643,1112.98,141.708,0,0.000885,0,0
0:6:57.041,1113.45,141.77,0,0.000885,0,0
0:6:57.439,1114.39,141.887,0,0.000885,0,0
0:6:57.834,1115.85,142.073,0,0.000885,0,0
0:6:58.239,1116.5,142.156,0,0.000885,0,0
0:6:58.636,1115.32,142.004,0,0.000885,0,0
0:6:59.037,1116.68,142.177,0,0.000885,0,0
0:6:59.442,1118.67,142.432,0,0.000885,0,0
0:6:59.845,1121.08,142.742,0,0.000885,0,0
0:7:0.250,1122.96,142.977,0,0.000885,0,0
0:7:0.650,1123.13,143.004,0,0.000885,0,0
0:7:1.045,1123.72,143.073,0,0.000885,0,0
0:7:1.440,1122.49,142.921,0,0.000885,0,0
0:7:1.833,1120.96,142.728,0,0.000885,0,0
0:7:2.230,1123.43,143.039,0,0.000885,0,0
0:7:2.630,1127.01,143.494,0,0.000885,0,0
0:7:3.026,1130.18,143.9,0,0.000885,0,0
0:7:3.422,1132.94,144.252,0,0.000885,0,0
0:7:3.827,1135.52,144.576,0,0.000885,0,0
0:7:4.231,1136.99,144.762,0,0.000885,0,0
0:7:4.634,1137.93,144.886,0,0.000885,0,0
0:7:5.036,1136.28,144.673,0,0.000885,0,0
0:7:5.431,1137.51,144.831,0,0.000885,0,0
0:7:5.829,1138.69,144.983,0,0.000885,0,0
0:7:6.227,1140.27,145.183,0,0.000885,0,0
0:7:6.623,1141.45,145.335,0,0.000885,0,0
0:7:7.018,1141.74,145.369,0,0.000885,0,0
0:7:7.413,1143.09,145.541,0,0.000885,0,0
0:7:7.813,1144.56,145.728,0,0.000885,0,0
0:7:8.211,1146.61,145.99,0,0.000885,0,0
0:7:8.606,1147.37,146.086,0,0.000885,0,0
0:7:9.010,1148.14,146.183,0,0.000885,0,0
0:7:9.413,1148.78,146.265,0,0.000885,0,0
0:7:9.816,1149.84,146.403,0,0.000885,0,0
0:7:10.219,1149.61,146.376,0,0.000885,0,0
0:7:10.612,1149.9,146.41,0,0.000885,0,0
0:7:11.010,1150.25,146.452,0,0.000885,0,0
0:7:11.408,1146.03,145.914,0,0.000885,0,0
0:7:11.574,886.397,112.86,0,0.000885,0,0