File: DataFile2021-06-30_054557.csv
Test ID:,Date Tested:,Time:,Test Type:,Diameter Avg. (mm):,Cyl. Corr. Factor:,Height (mm):,Age (days):,Weight (kN):,Break Type:,Ramp Rate (MPa/s):,Load at Break (kN):,Stress at Break (MPa):
12,6/30/2021,05:45,Cylinder,150,1,300,0,3.6,3,0.25,1410.99,79.85
Sample Time,Load (kN),Stress (MPa),Long. Strain,Trans. Strain,Chan1 Deflection (mm),Chan2 Deflection (mm)
0:0:23.413,5.7471,0.324054,0,0.000885,0,0
0:0:23.711,8.79858,0.496423,0,0.000885,0,0
0:0:24.007,10.0307,0.56537,0,0.000885,0,0
0:0:24.308,11.1428,0.627423,0,0.000885,0,0
0:0:24.605,11.0271,0.620528,0,0.000885,0,0
0:0:24.904,12.3171,0.69637,0,0.000885,0,0
0:0:25.201,12.6685,0.717055,0,0.000885,0,0
0:0:25.498,13.4915,0.765318,0,0.000885,0,0
0:0:25.800,14.7814,0.834266,0,0.000885,0,0
0:0:26.092,16.5963,0.937687,0,0.000885,0,0
0:0:26.394,17.0678,0.965266,0,0.000885,0,0
0:0:26.691,18.2422,1.03421,0,0.000885,0,0
0:0:26.990,20.2928,1.15142,0,0.000885,0,0
0:0:27.290,21.992,1.24795,0,0.000885,0,0
0:0:27.586,22.7571,1.28932,0,0.000885,0,0
0:0:27.888,24.1627,1.36516,0,0.000885,0,0
0:0:28.182,25.8041,1.46169,0,0.000885,0,0
0:0:28.484,28.3263,1.60648,0,0.000885,0,0
0:0:28.783,30.0878,1.70301,0,0.000885,0,0
0:0:29.086,31.7292,1.79264,0,0.000885,0,0
0:0:29.391,33.3127,1.88227,0,0.000885,0,0
0:0:29.697,34.8385,1.9719,0,0.000885,0,0
0:0:30.000,36.1285,2.04774,0,0.000885,0,0
0:0:30.302,37.0092,2.09601,0,0.000885,0,0
0:0:30.601,37.6542,2.13048,0,0.000885,0,0
0:0:30.902,38.2414,2.16495,0,0.000885,0,0
0:0:31.197,40.1185,2.26838,0,0.000885,0,0
0:0:31.500,41.0571,2.32353,0,0.000885,0,0
0:0:31.794,41.9957,2.37869,0,0.000885,0,0
0:0:32.096,43.517,2.46143,0,0.000885,0,0
0:0:32.395,44.282,2.5028,0,0.000885,0,0
0:0:32.691,45.9813,2.59932,0,0.000885,0,0
0:0:32.992,47.4492,2.68206,0,0.000885,0,0
0:0:33.288,48.9749,2.77169,0,0.000885,0,0
0:0:33.590,50.2026,2.84064,0,0.000885,0,0
0:0:33.896,51.4348,2.90959,0,0.000885,0,0
0:0:34.199,53.1385,3.00611,0,0.000885,0,0
0:0:34.502,54.1927,3.06817,0,0.000885,0,0
0:0:34.805,55.367,3.13022,0,0.000885,0,0
0:0:35.109,57.4176,3.24743,0,0.000885,0,0
0:0:35.404,58.2984,3.29569,0,0.000885,0,0
0:0:35.704,60.0599,3.39912,0,0.000885,0,0
0:0:36.004,61.2298,3.46806,0,0.000885,0,0
0:0:36.301,62.6977,3.5508,0,0.000885,0,0
0:0:36.602,64.2234,3.63354,0,0.000885,0,0
0:0:36.897,65.3933,3.70248,0,0.000885,0,0
0:0:37.198,66.1584,3.74385,0,0.000885,0,0
0:0:37.497,67.2705,3.80591,0,0.000885,0,0
0:0:37.795,68.5604,3.88175,0,0.000885,0,0
0:0:38.094,69.9127,3.95759,0,0.000885,0,0
0:0:38.390,71.6697,4.05412,0,0.000885,0,0
0:0:38.694,72.4927,4.10238,0,0.000885,0,0
0:0:39.000,74.0184,4.18512,0,0.000885,0,0
0:0:39.305,76.1891,4.30922,0,0.000885,0,0
0:0:39.608,77.359,4.37817,0,0.000885,0,0
0:0:39.909,79.1783,4.48159,0,0.000885,0,0
0:0:40.211,80.0013,4.52986,0,0.000885,0,0
0:0:40.507,80.9977,4.58501,0,0.000885,0,0
0:0:40.808,81.7005,4.62638,0,0.000885,0,0
0:0:41.107,83.1061,4.70222,0,0.000885,0,0
0:0:41.402,84.752,4.79875,0,0.000885,0,0
0:0:41.705,86.042,4.8677,0,0.000885,0,0
0:0:42.001,87.0962,4.92975,0,0.000885,0,0
0:0:42.300,88.9155,5.03317,0,0.000885,0,0
0:0:42.598,90.2633,5.10902,0,0.000885,0,0
0:0:42.897,91.4955,5.17796,0,0.000885,0,0
0:0:43.198,92.6075,5.24002,0,0.000885,0,0
0:0:43.492,93.8975,5.31586,0,0.000885,0,0
0:0:43.797,95.4811,5.40549,0,0.000885,0,0
0:0:44.102,96.8912,5.48133,0,0.000885,0,0
0:0:44.406,97.7096,5.5296,0,0.000885,0,0
0:0:44.710,99.3555,5.61923,0,0.000885,0,0
0:0:45.012,101.29,5.72954,0,0.000885,0,0
0:0:45.313,102.287,5.7916,0,0.000885,0,0
0:0:45.611,103.225,5.83986,0,0.000885,0,0
0:0:45.912,104.106,5.88812,0,0.000885,0,0
0:0:46.212,106.099,6.00533,0,0.000885,0,0
0:0:46.508,107.153,6.06049,0,0.000885,0,0
0:0:46.810,108.385,6.13633,0,0.000885,0,0
0:0:47.107,109.618,6.20528,0,0.000885,0,0
0:0:47.406,110.734,6.26733,0,0.000885,0,0
0:0:47.706,112.611,6.37076,0,0.000885,0,0
0:0:48.004,114.075,6.45349,0,0.000885,0,0
0:0:48.305,115.543,6.53623,0,0.000885,0,0
0:0:48.601,116.833,6.61207,0,0.000885,0,0
0:0:48.902,118.296,6.69481,0,0.000885,0,0
0:0:49.208,119.942,6.78444,0,0.000885,0,0
0:0:49.511,120.88,6.8396,0,0.000885,0,0
0:0:49.812,121.29,6.86028,0,0.000885,0,0
0:0:50.115,122.58,6.93613,0,0.000885,0,0
0:0:50.419,124.399,7.03955,0,0.000885,0,0
0:0:50.717,125.689,7.11539,0,0.000885,0,0
0:0:51.015,126.801,7.17744,0,0.000885,0,0
0:0:51.317,128.033,7.24639,0,0.000885,0,0
0:0:51.612,129.265,7.31534,0,0.000885,0,0
0:0:51.913,131.258,7.42565,0,0.000885,0,0
0:0:52.212,132.842,7.51529,0,0.000885,0,0
0:0:52.509,133.371,7.54976,0,0.000885,0,0
0:0:52.810,134.719,7.6256,0,0.000885,0,0
0:0:53.105,136.716,7.73592,0,0.000885,0,0
0:0:53.408,137.944,7.80487,0,0.000885,0,0
0:0:53.704,139.47,7.8945,0,0.000885,0,0
0:0:54.007,140.586,7.95655,0,0.000885,0,0
0:0:54.312,141.992,8.03239,0,0.000885,0,0
0:0:54.617,143.166,8.10134,0,0.000885,0,0
0:0:54.919,144.456,8.17718,0,0.000885,0,0
0:0:55.221,145.862,8.25302,0,0.000885,0,0
0:0:55.524,147.036,8.32197,0,0.000885,0,0
0:0:55.822,149.149,8.43918,0,0.000885,0,0
0:0:56.119,149.852,8.48055,0,0.000885,0,0
0:0:56.420,151.026,8.5495,0,0.000885,0,0
0:0:56.717,151.907,8.59776,0,0.000885,0,0
0:0:57.017,153.312,8.6736,0,0.000885,0,0
0:0:57.317,155.132,8.77703,0,0.000885,0,0
0:0:57.614,156.186,8.83908,0,0.000885,0,0
0:0:57.915,157.125,8.89424,0,0.000885,0,0
0:0:58.211,158.708,8.98387,0,0.000885,0,0
0:0:58.512,160.643,9.08729,0,0.000885,0,0
0:0:58.811,161.875,9.16313,0,0.000885,0,0
0:0:59.112,163.05,9.22519,0,0.000885,0,0
0:0:59.419,163.926,9.27345,0,0.000885,0,0
0:0:59.720,165.042,9.3424,0,0.000885,0,0
0:1:0.024,166.862,9.44582,0,0.000885,0,0
0:1:0.327,167.68,9.48719,0,0.000885,0,0
0:1:0.626,168.739,9.54924,0,0.000885,0,0
0:1:0.929,169.971,9.61819,0,0.000885,0,0
0:1:1.224,172.022,9.7354,0,0.000885,0,0
0:1:1.525,173.018,9.79056,0,0.000885,0,0
0:1:1.822,174.077,9.85261,0,0.000885,0,0
0:1:2.120,175.776,9.94913,0,0.000885,0,0
0:1:2.420,176.243,9.97671,0,0.000885,0,0
0:1:2.715,179.001,10.1284,0,0.000885,0,0
0:1:3.019,180.411,10.2111,0,0.000885,0,0
0:1:3.314,181.229,10.2525,0,0.000885,0,0
0:1:3.614,182.813,10.3421,0,0.000885,0,0
0:1:3.910,183.578,10.3904,0,0.000885,0,0
0:1:4.213,185.744,10.5145,0,0.000885,0,0
0:1:4.518,186.803,10.5697,0,0.000885,0,0
0:1:4.821,188.912,10.6869,0,0.000885,0,0
0:1:5.125,190.379,10.7765,0,0.000885,0,0
0:1:5.428,192.786,10.9075,0,0.000885,0,0
0:1:5.726,193.84,10.9696,0,0.000885,0,0
0:1:6.023,195.13,11.0454,0,0.000885,0,0
0:1:6.318,196.478,11.1212,0,0.000885,0,0
0:1:6.618,197.537,11.1764,0,0.000885,0,0
0:1:6.913,198.764,11.2453,0,0.000885,0,0
0:1:7.209,199.587,11.2936,0,0.000885,0,0
0:1:7.507,200.704,11.3557,0,0.000885,0,0
0:1:7.801,201.642,11.4108,0,0.000885,0,0
0:1:8.100,202.87,11.4798,0,0.000885,0,0
0:1:8.394,204.396,11.5694,0,0.000885,0,0
0:1:8.696,205.686,11.6384,0,0.000885,0,0
0:1:8.998,207.096,11.7211,0,0.000885,0,0
0:1:9.300,207.977,11.7694,0,0.000885,0,0
0:1:9.600,209.031,11.8314,0,0.000885,0,0
0:1:9.901,210.966,11.9348,0,0.000885,0,0
0:1:10.201,212.314,12.0176,0,0.000885,0,0
0:1:10.495,213.372,12.0727,0,0.000885,0,0
0:1:10.793,214.249,12.121,0,0.000885,0,0
0:1:11.088,215.832,12.2106,0,0.000885,0,0
0:1:11.385,218.003,12.3347,0,0.000885,0,0
0:1:11.684,218.884,12.383,0,0.000885,0,0
0:1:11.975,219.764,12.4381,0,0.000885,0,0
0:1:12.276,221.29,12.5209,0,0.000885,0,0
0:1:12.571,221.873,12.5554,0,0.000885,0,0
0:1:12.868,224.101,12.6795,0,0.000885,0,0
0:1:13.164,225.276,12.7484,0,0.000885,0,0
0:1:13.459,226.859,12.838,0,0.000885,0,0
0:1:13.758,227.682,12.8863,0,0.000885,0,0
0:1:14.061,228.736,12.9415,0,0.000885,0,0
0:1:14.362,230.849,13.0656,0,0.000885,0,0
0:1:14.664,232.255,13.1414,0,0.000885,0,0
0:1:14.964,233.314,13.2035,0,0.000885,0,0
0:1:15.265,234.484,13.2724,0,0.000885,0,0
0:1:15.559,235.186,13.3069,0,0.000885,0,0
0:1:15.860,236.654,13.3896,0,0.000885,0,0
0:1:16.151,238.709,13.5068,0,0.000885,0,0
0:1:16.461,239.648,13.562,0,0.000885,0,0
0:1:16.756,240.702,13.624,0,0.000885,0,0
0:1:17.063,243.046,13.755,0,0.000885,0,0
0:1:17.360,243.576,13.7826,0,0.000885,0,0
0:1:17.656,244.808,13.8516,0,0.000885,0,0
0:1:17.956,246.214,13.9343,0,0.000885,0,0
0:1:18.259,247.624,14.0101,0,0.000885,0,0
0:1:18.556,249.323,14.1067,0,0.000885,0,0
0:1:18.862,250.261,14.1618,0,0.000885,0,0
0:1:19.165,251.729,14.2446,0,0.000885,0,0
0:1:19.467,253.077,14.3204,0,0.000885,0,0
0:1:19.768,254.776,14.4169,0,0.000885,0,0
0:1:20.069,255.599,14.4652,0,0.000885,0,0
0:1:20.371,256.831,14.5341,0,0.000885,0,0
0:1:20.665,258.588,14.6307,0,0.000885,0,0
0:1:20.963,259.647,14.6927,0,0.000885,0,0
0:1:21.259,260.523,14.741,0,0.000885,0,0
0:1:21.558,262.169,14.8375,0,0.000885,0,0
0:1:21.850,263.691,14.9203,0,0.000885,0,0
0:1:22.147,264.571,14.9685,0,0.000885,0,0
0:1:22.442,266.097,15.0581,0,0.000885,0,0
0:1:22.738,268.326,15.1823,0,0.000885,0,0
0:1:23.037,268.971,15.2236,0,0.000885,0,0
0:1:23.340,270.261,15.2926,0,0.000885,0,0
0:1:23.639,271.319,15.3546,0,0.000885,0,0
0:1:23.943,272.547,15.4236,0,0.000885,0,0
0:1:24.245,274.193,15.5132,0,0.000885,0,0
0:1:24.547,275.131,15.5684,0,0.000885,0,0
0:1:24.847,276.831,15.6649,0,0.000885,0,0
0:1:25.147,277.769,15.72,0,0.000885,0,0
0:1:25.442,279.468,15.8166,0,0.000885,0,0
0:1:25.749,280.056,15.851,0,0.000885,0,0
0:1:26.046,281.933,15.9545,0,0.000885,0,0
0:1:26.350,283.574,16.0441,0,0.000885,0,0
0:1:26.649,284.691,16.113,0,0.000885,0,0
0:1:26.941,286.568,16.2165,0,0.000885,0,0
0:1:27.241,287.68,16.2785,0,0.000885,0,0
0:1:27.537,288.325,16.313,0,0.000885,0,0
0:1:27.835,289.793,16.3957,0,0.000885,0,0
0:1:28.131,291.025,16.4716,0,0.000885,0,0
0:1:28.427,292.782,16.5681,0,0.000885,0,0
0:1:28.727,294.308,16.6577,0,0.000885,0,0
0:1:29.031,294.837,16.6853,0,0.000885,0,0
0:1:29.333,296.3,16.768,0,0.000885,0,0
0:1:29.635,298.298,16.8784,0,0.000885,0,0
0:1:29.934,298.765,16.9059,0,0.000885,0,0
0:1:30.235,300.468,17.0025,0,0.000885,0,0
0:1:30.529,301.229,17.0438,0,0.000885,0,0
0:1:30.829,302.813,17.1335,0,0.000885,0,0
0:1:31.123,304.69,17.2438,0,0.000885,0,0
0:1:31.420,305.628,17.2921,0,0.000885,0,0
0:1:31.718,307.328,17.3886,0,0.000885,0,0
0:1:32.011,307.973,17.4299,0,0.000885,0,0
0:1:32.310,309.734,17.5265,0,0.000885,0,0
0:1:32.603,311.14,17.6092,0,0.000885,0,0
0:1:32.904,312.723,17.6988,0,0.000885,0,0
0:1:33.197,314.307,17.7885,0,0.000885,0,0
0:1:33.494,314.6,17.8023,0,0.000885,0,0
0:1:33.789,316.478,17.9057,0,0.000885,0,0
0:1:34.091,318.003,17.9953,0,0.000885,0,0
0:1:34.395,319,18.0505,0,0.000885,0,0
0:1:34.696,320.054,18.1125,0,0.000885,0,0
0:1:34.996,320.819,18.1539,0,0.000885,0,0
0:1:35.298,322.225,18.2366,0,0.000885,0,0
0:1:35.592,323.986,18.3332,0,0.000885,0,0
0:1:35.890,325.04,18.3952,0,0.000885,0,0
0:1:36.184,327.033,18.5055,0,0.000885,0,0
0:1:36.485,327.972,18.5607,0,0.000885,0,0
0:1:36.778,328.679,18.6021,0,0.000885,0,0
0:1:37.077,331.375,18.7537,0,0.000885,0,0
0:1:37.374,332.198,18.7951,0,0.000885,0,0
0:1:37.668,333.545,18.8778,0,0.000885,0,0
0:1:37.968,334.306,18.9192,0,0.000885,0,0
0:1:38.261,336.183,19.0226,0,0.000885,0,0
0:1:38.561,337.358,19.0916,0,0.000885,0,0
0:1:38.865,338.59,19.1605,0,0.000885,0,0
0:1:39.167,339.47,19.2088,0,0.000885,0,0
0:1:39.468,341.405,19.3191,0,0.000885,0,0
0:1:39.768,342.638,19.3881,0,0.000885,0,0
0:1:40.070,344.395,19.4915,0,0.000885,0,0
0:1:40.363,344.924,19.5191,0,0.000885,0,0
0:1:40.662,346.859,19.6294,0,0.000885,0,0
0:1:40.957,347.446,19.6638,0,0.000885,0,0
0:1:41.262,349.381,19.7742,0,0.000885,0,0
0:1:41.561,350.671,19.8431,0,0.000885,0,0
0:1:41.852,351.725,19.9052,0,0.000885,0,0
0:1:42.153,352.548,19.9534,0,0.000885,0,0
0:1:42.459,354.425,20.0568,0,0.000885,0,0
0:1:42.764,356.067,20.1465,0,0.000885,0,0
0:1:43.062,357.477,20.2292,0,0.000885,0,0
0:1:43.354,358.353,20.2775,0,0.000885,0,0
0:1:43.655,359.821,20.3602,0,0.000885,0,0
0:1:43.960,360.644,20.4085,0,0.000885,0,0
0:1:44.263,362.93,20.5395,0,0.000885,0,0
0:1:44.564,364.042,20.6015,0,0.000885,0,0
0:1:44.863,365.275,20.6705,0,0.000885,0,0
0:1:45.163,366.213,20.7256,0,0.000885,0,0
0:1:45.458,368.148,20.836,0,0.000885,0,0
0:1:45.758,369.438,20.9049,0,0.000885,0,0
0:1:46.060,370.083,20.9394,0,0.000885,0,0
0:1:46.357,371.845,21.0428,0,0.000885,0,0
0:1:46.654,372.312,21.0704,0,0.000885,0,0
0:1:46.948,374.896,21.2152,0,0.000885,0,0
0:1:47.247,375.95,21.2772,0,0.000885,0,0
0:1:47.541,377.005,21.3324,0,0.000885,0,0
0:1:47.839,378.179,21.4013,0,0.000885,0,0
0:1:48.132,378.415,21.4151,0,0.000885,0,0
0:1:48.429,380.817,21.553,0,0.000885,0,0
0:1:48.729,381.875,21.6082,0,0.000885,0,0
0:1:49.030,383.517,21.7047,0,0.000885,0,0
0:1:49.333,384.335,21.7461,0,0.000885,0,0
0:1:49.635,386.039,21.8426,0,0.000885,0,0
0:1:49.936,387.738,21.9391,0,0.000885,0,0
0:1:50.236,388.383,21.9805,0,0.000885,0,0
0:1:50.531,390.26,22.0839,0,0.000885,0,0
0:1:50.829,391.435,22.1529,0,0.000885,0,0
0:1:51.124,392.604,22.2149,0,0.000885,0,0
0:1:51.423,393.957,22.2908,0,0.000885,0,0
0:1:51.717,395.892,22.4011,0,0.000885,0,0
0:1:52.016,396.417,22.4355,0,0.000885,0,0
0:1:52.311,398.12,22.5321,0,0.000885,0,0
0:1:52.606,398.881,22.5734,0,0.000885,0,0
0:1:52.904,400.7,22.6769,0,0.000885,0,0
0:1:53.198,401.523,22.7182,0,0.000885,0,0
0:1:53.500,403.516,22.8354,0,0.000885,0,0
0:1:53.804,404.161,22.8699,0,0.000885,0,0
0:1:54.106,406.154,22.9802,0,0.000885,0,0
0:1:54.406,407.795,23.0768,0,0.000885,0,0
0:1:54.707,408.854,23.1388,0,0.000885,0,0
0:1:55.007,410.202,23.2146,0,0.000885,0,0
0:1:55.301,411.314,23.2767,0,0.000885,0,0
0:1:55.598,413.133,23.3801,0,0.000885,0,0
0:1:55.892,413.72,23.4146,0,0.000885,0,0
0:1:56.188,415.54,23.518,0,0.000885,0,0
0:1:56.487,416.127,23.5456,0,0.000885,0,0
0:1:56.780,417.474,23.6214,0,0.000885,0,0
0:1:57.080,418.177,23.6628,0,0.000885,0,0
0:1:57.375,420.406,23.7869,0,0.000885,0,0
0:1:57.671,421.874,23.8765,0,0.000885,0,0
0:1:57.969,422.167,23.8903,0,0.000885,0,0
0:1:58.263,424.396,24.0144,0,0.000885,0,0
0:1:58.564,425.099,24.0558,0,0.000885,0,0
0:1:58.866,427.385,24.1868,0,0.000885,0,0
0:1:59.169,428.382,24.242,0,0.000885,0,0
0:1:59.470,429.792,24.3178,0,0.000885,0,0
0:1:59.771,430.966,24.3868,0,0.000885,0,0
0:2:0.072,432.078,24.4488,0,0.000885,0,0
0:2:0.366,434.013,24.5591,0,0.000885,0,0
0:2:0.667,434.778,24.6005,0,0.000885,0,0
0:2:0.959,436.419,24.697,0,0.000885,0,0
0:2:1.265,436.887,24.7246,0,0.000885,0,0
0:2:1.564,439.235,24.8556,0,0.000885,0,0
0:2:1.855,440.174,24.9108,0,0.000885,0,0
0:2:2.153,441.228,24.9659,0,0.000885,0,0
0:2:2.449,442.985,25.0693,0,0.000885,0,0
0:2:2.747,444.044,25.1245,0,0.000885,0,0
0:2:3.042,445.979,25.2348,0,0.000885,0,0
0:2:3.347,446.859,25.29,0,0.000885,0,0
0:2:3.647,448.616,25.3865,0,0.000885,0,0
0:2:3.948,448.737,25.3934,0,0.000885,0,0
0:2:4.249,450.142,25.4761,0,0.000885,0,0
0:2:4.550,452.664,25.614,0,0.000885,0,0
0:2:4.849,453.074,25.6416,0,0.000885,0,0
0:2:5.149,454.542,25.7243,0,0.000885,0,0
0:2:5.444,455.538,25.7795,0,0.000885,0,0
0:2:5.751,457.531,25.8898,0,0.000885,0,0
0:2:6.054,458.532,25.945,0,0.000885,0,0
0:2:6.354,460.404,26.0553,0,0.000885,0,0
0:2:6.660,461.169,26.0967,0,0.000885,0,0
0:2:6.955,462.344,26.1656,0,0.000885,0,0
0:2:7.254,464.572,26.2897,0,0.000885,0,0
0:2:7.556,464.982,26.3104,0,0.000885,0,0
0:2:7.857,466.974,26.4276,0,0.000885,0,0
0:2:8.161,467.619,26.4621,0,0.000885,0,0
0:2:8.461,469.145,26.5448,0,0.000885,0,0
0:2:8.765,471.022,26.6551,0,0.000885,0,0
0:2:9.067,471.903,26.7034,0,0.000885,0,0
0:2:9.368,473.544,26.7999,0,0.000885,0,0
0:2:9.668,474.541,26.8551,0,0.000885,0,0
0:2:9.969,476.182,26.9447,0,0.000885,0,0
0:2:10.263,477.005,26.993,0,0.000885,0,0
0:2:10.567,479.176,27.1171,0,0.000885,0,0
0:2:10.866,479.821,27.1516,0,0.000885,0,0
0:2:11.161,481.756,27.2619,0,0.000885,0,0
0:2:11.461,483.046,27.3377,0,0.000885,0,0
0:2:11.763,483.281,27.3515,0,0.000885,0,0
0:2:12.062,484.981,27.4411,0,0.000885,0,0
0:2:12.357,485.861,27.4963,0,0.000885,0,0
0:2:12.663,488.148,27.6204,0,0.000885,0,0
0:2:12.961,489.616,27.7031,0,0.000885,0,0
0:2:13.255,490.434,27.7514,0,0.000885,0,0
0:2:13.555,491.786,27.8272,0,0.000885,0,0
0:2:13.861,492.489,27.8686,0,0.000885,0,0
0:2:14.161,494.54,27.9858,0,0.000885,0,0
0:2:14.462,495.83,28.0617,0,0.000885,0,0
0:2:14.761,496.768,28.1099,0,0.000885,0,0
0:2:15.061,497.765,28.1651,0,0.000885,0,0
0:2:15.355,499.82,28.2823,0,0.000885,0,0
0:2:15.651,501.226,28.365,0,0.000885,0,0
0:2:15.949,503.161,28.4753,0,0.000885,0,0
0:2:16.252,503.223,28.4753,0,0.000885,0,0
0:2:16.551,505.216,28.5926,0,0.000885,0,0
0:2:16.856,506.741,28.6753,0,0.000885,0,0
0:2:17.163,508.147,28.758,0,0.000885,0,0
0:2:17.462,509.206,28.8132,0,0.000885,0,0
0:2:17.764,510.554,28.889,0,0.000885,0,0
0:2:18.065,512.431,28.9993,0,0.000885,0,0
0:2:18.357,513.018,29.0338,0,0.000885,0,0
0:2:18.657,514.539,29.1166,0,0.000885,0,0
0:2:18.962,514.953,29.1372,0,0.000885,0,0
0:2:19.262,516.536,29.2269,0,0.000885,0,0
0:2:19.563,518,29.3096,0,0.000885,0,0
0:2:19.863,519.41,29.3924,0,0.000885,0,0
0:2:20.162,520.758,29.4682,0,0.000885,0,0
0:2:20.458,522.577,29.5716,0,0.000885,0,0
0:2:20.764,523.867,29.6475,0,0.000885,0,0
0:2:21.063,525.508,29.7371,0,0.000885,0,0
0:2:21.352,526.153,29.7716,0,0.000885,0,0
0:2:21.654,527.853,29.8681,0,0.000885,0,0
0:2:21.958,528.324,29.8957,0,0.000885,0,0
0:2:22.254,530.081,29.9991,0,0.000885,0,0
0:2:22.552,531.727,30.0887,0,0.000885,0,0
0:2:22.846,532.603,30.137,0,0.000885,0,0
0:2:23.147,534.187,30.2266,0,0.000885,0,0
0:2:23.440,534.716,30.2611,0,0.000885,0,0
0:2:23.742,537.474,30.4128,0,0.000885,0,0
0:2:24.043,538.235,30.461,0,0.000885,0,0
0:2:24.345,539.938,30.5576,0,0.000885,0,0
0:2:24.644,541.108,30.6196,0,0.000885,0,0
0:2:24.946,542.105,30.6748,0,0.000885,0,0
0:2:25.244,543.395,30.7506,0,0.000885,0,0
0:2:25.550,545.041,30.8402,0,0.000885,0,0
0:2:25.864,545.508,30.8678,0,0.000885,0,0
0:2:26.164,547.207,30.9644,0,0.000885,0,0
0:2:26.457,548.968,31.0678,0,0.000885,0,0
0:2:26.754,550.374,31.1436,0,0.000885,0,0
0:2:27.062,551.197,31.1919,0,0.000885,0,0
0:2:27.367,553.132,31.3022,0,0.000885,0,0
0:2:27.666,554.364,31.3711,0,0.000885,0,0
0:2:27.957,556.005,31.4608,0,0.000885,0,0
0:2:28.257,556.419,31.4884,0,0.000885,0,0
0:2:28.551,558.412,31.5987,0,0.000885,0,0
0:2:28.853,559.115,31.64,0,0.000885,0,0
0:2:29.154,560.525,31.7159,0,0.000885,0,0
0:2:29.456,561.93,31.7986,0,0.000885,0,0
0:2:29.756,563.75,31.902,0,0.000885,0,0
0:2:30.058,564.337,31.9365,0,0.000885,0,0
0:2:30.354,565.8,32.0193,0,0.000885,0,0
0:2:30.653,567.678,32.1227,0,0.000885,0,0
0:2:30.955,568.149,32.1503,0,0.000885,0,0
0:2:31.256,569.964,32.2537,0,0.000885,0,0
0:2:31.559,571.196,32.3226,0,0.000885,0,0
0:2:31.857,573.073,32.426,0,0.000885,0,0
0:2:32.153,573.718,32.4674,0,0.000885,0,0
0:2:32.449,575.066,32.5433,0,0.000885,0,0
0:2:32.749,576.418,32.6191,0,0.000885,0,0
0:2:33.042,577.588,32.688,0,0.000885,0,0
0:2:33.340,580.173,32.8328,0,0.000885,0,0
0:2:33.637,580.462,32.8466,0,0.000885,0,0
0:2:33.938,582.339,32.9569,0,0.000885,0,0
0:2:34.243,582.695,32.9707,0,0.000885,0,0
0:2:34.542,584.63,33.081,0,0.000885,0,0
0:2:34.843,585.8,33.15,0,0.000885,0,0
0:2:35.143,587.325,33.2327,0,0.000885,0,0
0:2:35.440,588.206,33.2879,0,0.000885,0,0
0:2:35.741,589.438,33.3568,0,0.000885,0,0
0:2:36.035,590.377,33.4051,0,0.000885,0,0
0:2:36.337,592.726,33.543,0,0.000885,0,0
0:2:36.632,593.842,33.605,0,0.000885,0,0
0:2:36.932,594.838,33.6602,0,0.000885,0,0
0:2:37.231,596.306,33.7429,0,0.000885,0,0
0:2:37.526,597.303,33.7981,0,0.000885,0,0
0:2:37.829,599.358,33.9153,0,0.000885,0,0
0:2:38.123,600.417,33.9774,0,0.000885,0,0
0:2:38.425,601.822,34.0532,0,0.000885,0,0
0:2:38.731,602.116,34.0739,0,0.000885,0,0
0:2:39.034,604.816,34.2256,0,0.000885,0,0
0:2:39.336,605.465,34.26,0,0.000885,0,0
0:2:39.638,606.871,34.3428,0,0.000885,0,0
0:2:39.938,608.165,34.4117,0,0.000885,0,0
0:2:40.235,610.1,34.522,0,0.000885,0,0
0:2:40.532,611.453,34.5979,0,0.000885,0,0
0:2:40.831,612.271,34.6462,0,0.000885,0,0
0:2:41.126,613.565,34.722,0,0.000885,0,0
0:2:41.429,614.855,34.7909,0,0.000885,0,0
0:2:41.721,616.088,34.8668,0,0.000885,0,0
0:2:42.021,618.085,34.9771,0,0.000885,0,0
0:2:42.319,619.139,35.0392,0,0.000885,0,0
0:2:42.615,620.02,35.0874,0,0.000885,0,0
0:2:42.916,621.959,35.1977,0,0.000885,0,0
0:2:43.211,622.662,35.2322,0,0.000885,0,0
0:2:43.513,624.659,35.3494,0,0.000885,0,0
0:2:43.818,625.771,35.4115,0,0.000885,0,0
0:2:44.121,626.359,35.4459,0,0.000885,0,0
0:2:44.424,628.062,35.5425,0,0.000885,0,0
0:2:44.727,629.708,35.6321,0,0.000885,0,0
0:2:45.029,630.82,35.6942,0,0.000885,0,0
0:2:45.323,632.052,35.77,0,0.000885,0,0
0:2:45.624,633.462,35.8458,0,0.000885,0,0
0:2:45.921,635.339,35.9562,0,0.000885,0,0
0:2:46.219,636.928,36.0458,0,0.000885,0,0
0:2:46.519,637.688,36.0872,0,0.000885,0,0
0:2:46.814,638.983,36.1561,0,0.000885,0,0
0:2:47.114,640.095,36.2251,0,0.000885,0,0
0:2:47.410,641.62,36.3078,0,0.000885,0,0
0:2:47.709,642.737,36.3698,0,0.000885,0,0
0:2:48.008,643.324,36.4043,0,0.000885,0,0
0:2:48.305,645.201,36.5077,0,0.000885,0,0
0:2:48.607,646.905,36.6043,0,0.000885,0,0
0:2:48.912,648.137,36.6801,0,0.000885,0,0
0:2:49.213,649.547,36.756,0,0.000885,0,0
0:2:49.515,650.664,36.818,0,0.000885,0,0
0:2:49.817,651.602,36.8732,0,0.000885,0,0
0:2:50.120,652.777,36.9421,0,0.000885,0,0
0:2:50.416,654.302,37.0248,0,0.000885,0,0
0:2:50.718,655.944,37.1214,0,0.000885,0,0
0:2:51.012,656.767,37.1627,0,0.000885,0,0
0:2:51.309,658.234,37.2455,0,0.000885,0,0
0:2:51.607,660.054,37.3489,0,0.000885,0,0
0:2:51.905,661.815,37.4523,0,0.000885,0,0
0:2:52.206,662.99,37.5144,0,0.000885,0,0
0:2:52.500,663.928,37.5695,0,0.000885,0,0
0:2:52.802,664.631,37.6109,0,0.000885,0,0
0:2:53.099,666.922,37.7419,0,0.000885,0,0
0:2:53.395,668.212,37.8108,0,0.000885,0,0
0:2:53.696,668.919,37.8522,0,0.000885,0,0
0:2:54.000,670.325,37.935,0,0.000885,0,0
0:2:54.303,672.144,38.0384,0,0.000885,0,0
0:2:54.606,672.851,38.0728,0,0.000885,0,0
0:2:54.907,674.377,38.1625,0,0.000885,0,0
0:2:55.210,676.076,38.259,0,0.000885,0,0
0:2:55.507,677.077,38.3142,0,0.000885,0,0
0:2:55.807,678.487,38.3969,0,0.000885,0,0
0:2:56.104,679.719,38.4659,0,0.000885,0,0
0:2:56.404,681.245,38.5486,0,0.000885,0,0
0:2:56.701,682.357,38.6106,0,0.000885,0,0
0:2:56.998,683.18,38.6589,0,0.000885,0,0
0:2:57.299,685.235,38.7761,0,0.000885,0,0
0:2:57.592,686.819,38.8657,0,0.000885,0,0
0:2:57.895,687.29,38.8933,0,0.000885,0,0
0:2:58.190,688.874,38.983,0,0.000885,0,0
0:2:58.492,689.519,39.0174,0,0.000885,0,0
0:2:58.798,691.752,39.1484,0,0.000885,0,0
0:2:59.101,693.335,39.2381,0,0.000885,0,0
0:2:59.403,694.038,39.2725,0,0.000885,0,0
0:2:59.704,694.688,39.3139,0,0.000885,0,0
0:3:0.005,697.032,39.4449,0,0.000885,0,0
0:3:0.302,698.562,39.5276,0,0.000885,0,0
0:3:0.598,699.674,39.5966,0,0.000885,0,0
0:3:0.897,700.969,39.6655,0,0.000885,0,0
0:3:1.192,701.965,39.7207,0,0.000885,0,0
0:3:1.496,703.669,39.8172,0,0.000885,0,0
0:3:1.790,704.843,39.8862,0,0.000885,0,0
0:3:2.088,706.306,39.9689,0,0.000885,0,0
0:3:2.388,707.601,40.0448,0,0.000885,0,0
0:3:2.683,708.597,40.0999,0,0.000885,0,0
0:3:2.984,710.181,40.1895,0,0.000885,0,0
0:3:3.279,711.475,40.2585,0,0.000885,0,0
0:3:3.582,712.65,40.3274,0,0.000885,0,0
0:3:3.886,713.588,40.3826,0,0.000885,0,0
0:3:4.190,715.465,40.486,0,0.000885,0,0
0:3:4.492,716.991,40.5756,0,0.000885,0,0
0:3:4.794,718.401,40.6515,0,0.000885,0,0
0:3:5.097,719.869,40.7342,0,0.000885,0,0
0:3:5.391,721.337,40.817,0,0.000885,0,0
0:3:5.690,722.218,40.8721,0,0.000885,0,0
0:3:5.987,723.508,40.9411,0,0.000885,0,0
0:3:6.283,724.624,41.0031,0,0.000885,0,0
0:3:6.583,726.266,41.0996,0,0.000885,0,0
0:3:6.879,727.204,41.1548,0,0.000885,0,0
0:3:7.180,728.556,41.2306,0,0.000885,0,0
0:3:7.476,729.967,41.3065,0,0.000885,0,0
0:3:7.775,731.55,41.3961,0,0.000885,0,0
0:3:8.072,732.84,41.472,0,0.000885,0,0
0:3:8.367,733.721,41.5202,0,0.000885,0,0
0:3:8.669,735.131,41.603,0,0.000885,0,0
0:3:8.973,736.479,41.6788,0,0.000885,0,0
0:3:9.276,737.537,41.734,0,0.000885,0,0
0:3:9.579,738.943,41.8167,0,0.000885,0,0
0:3:9.882,740.94,41.927,0,0.000885,0,0
0:3:10.185,741.585,41.9684,0,0.000885,0,0
0:3:10.479,743.173,42.058,0,0.000885,0,0
0:3:10.781,744.699,42.1408,0,0.000885,0,0
0:3:11.077,746.167,42.2235,0,0.000885,0,0
0:3:11.375,747.279,42.2855,0,0.000885,0,0
0:3:11.673,748.102,42.3338,0,0.000885,0,0
0:3:11.968,749.392,42.4097,0,0.000885,0,0
0:3:12.270,750.628,42.4786,0,0.000885,0,0
0:3:12.562,752.799,42.6027,0,0.000885,0,0
0:3:12.864,753.853,42.6579,0,0.000885,0,0
0:3:13.163,755.148,42.7337,0,0.000885,0,0
0:3:13.468,756.438,42.8027,0,0.000885,0,0
0:3:13.774,757.554,42.8716,0,0.000885,0,0
0:3:14.075,759.609,42.9819,0,0.000885,0,0
0:3:14.378,760.779,43.0509,0,0.000885,0,0
0:3:14.680,761.78,43.106,0,0.000885,0,0
0:3:14.977,762.897,43.1681,0,0.000885,0,0
0:3:15.279,765.067,43.2922,0,0.000885,0,0
0:3:15.573,765.77,43.3335,0,0.000885,0,0
0:3:15.873,767.002,43.4025,0,0.000885,0,0
0:3:16.172,767.941,43.4577,0,0.000885,0,0
0:3:16.468,769.293,43.5335,0,0.000885,0,0
0:3:16.769,771.17,43.6369,0,0.000885,0,0
0:3:17.062,772.403,43.7059,0,0.000885,0,0
0:3:17.364,773.87,43.7955,0,0.000885,0,0
0:3:17.671,774.809,43.8438,0,0.000885,0,0
0:3:17.968,776.277,43.9265,0,0.000885,0,0
0:3:18.269,777.451,43.9954,0,0.000885,0,0
0:3:18.572,779.213,44.092,0,0.000885,0,0
0:3:18.875,780.503,44.1678,0,0.000885,0,0
0:3:19.178,781.677,44.2368,0,0.000885,0,0
0:3:19.481,783.087,44.3126,0,0.000885,0,0
0:3:19.782,784.084,44.3678,0,0.000885,0,0
0:3:20.078,785.494,44.4505,0,0.000885,0,0
0:3:20.379,786.552,44.5126,0,0.000885,0,0
0:3:20.677,788.545,44.6229,0,0.000885,0,0
0:3:20.975,789.546,44.678,0,0.000885,0,0
0:3:21.272,791.13,44.7677,0,0.000885,0,0
0:3:21.569,792.184,44.8297,0,0.000885,0,0
0:3:21.870,793.478,44.8987,0,0.000885,0,0
0:3:22.161,795.004,44.9883,0,0.000885,0,0
0:3:22.464,796.116,45.0503,0,0.000885,0,0
0:3:22.760,797.353,45.1193,0,0.000885,0,0
0:3:23.057,798.291,45.1744,0,0.000885,0,0
0:3:23.356,800.053,45.271,0,0.000885,0,0
0:3:23.660,801.636,45.3606,0,0.000885,0,0
0:3:23.963,802.984,45.4365,0,0.000885,0,0
0:3:24.265,804.278,45.5123,0,0.000885,0,0
0:3:24.568,805.626,45.5881,0,0.000885,0,0
0:3:24.871,806.685,45.6502,0,0.000885,0,0
0:3:25.165,808.091,45.726,0,0.000885,0,0
0:3:25.468,809.149,45.7881,0,0.000885,0,0
0:3:25.763,810.559,45.8708,0,0.000885,0,0
0:3:26.062,811.792,45.9398,0,0.000885,0,0
0:3:26.360,813.553,46.0363,0,0.000885,0,0
0:3:26.656,815.021,46.119,0,0.000885,0,0
0:3:26.958,815.902,46.1673,0,0.000885,0,0
0:3:27.252,816.84,46.2225,0,0.000885,0,0
0:3:27.552,818.246,46.3052,0,0.000885,0,0
0:3:27.852,819.95,46.4017,0,0.000885,0,0
0:3:28.148,821.36,46.4776,0,0.000885,0,0
0:3:28.449,822.828,46.5603,0,0.000885,0,0
0:3:28.753,824.002,46.6292,0,0.000885,0,0
0:3:29.056,825.176,46.6982,0,0.000885,0,0
0:3:29.359,826.524,46.774,0,0.000885,0,0
0:3:29.660,827.756,46.843,0,0.000885,0,0
0:3:29.963,828.931,46.905,0,0.000885,0,0
0:3:30.269,830.514,46.9947,0,0.000885,0,0
0:3:30.570,832.044,47.0843,0,0.000885,0,0
0:3:30.865,833.099,47.1464,0,0.000885,0,0
0:3:31.164,834.682,47.236,0,0.000885,0,0
0:3:31.463,835.683,47.2911,0,0.000885,0,0
0:3:31.758,836.27,47.3256,0,0.000885,0,0
0:3:32.060,838.089,47.429,0,0.000885,0,0
0:3:32.355,839.322,47.498,0,0.000885,0,0
0:3:32.663,841.083,47.5945,0,0.000885,0,0
0:3:32.974,842.195,47.6566,0,0.000885,0,0
0:3:33.269,843.725,47.7462,0,0.000885,0,0
0:3:33.571,845.131,47.822,0,0.000885,0,0
0:3:33.875,846.657,47.9117,0,0.000885,0,0
0:3:34.179,847.186,47.9392,0,0.000885,0,0
0:3:34.482,848.948,48.0427,0,0.000885,0,0
0:3:34.784,850.238,48.1116,0,0.000885,0,0
0:3:35.086,851.826,48.2012,0,0.000885,0,0
0:3:35.382,852.528,48.2426,0,0.000885,0,0
0:3:35.681,854.232,48.3391,0,0.000885,0,0
0:3:35.980,855.286,48.4012,0,0.000885,0,0
0:3:36.276,857.048,48.4977,0,0.000885,0,0
0:3:36.578,858.28,48.5667,0,0.000885,0,0
0:3:36.871,859.454,48.6356,0,0.000885,0,0
0:3:37.171,860.513,48.6977,0,0.000885,0,0
0:3:37.469,862.741,48.8218,0,0.000885,0,0
0:3:37.765,864.267,48.9045,0,0.000885,0,0
0:3:38.063,865.557,48.9804,0,0.000885,0,0
0:3:38.359,866.674,49.0424,0,0.000885,0,0
0:3:38.660,867.554,49.0907,0,0.000885,0,0
0:3:38.966,869.374,49.1941,0,0.000885,0,0
0:3:39.270,870.139,49.2424,0,0.000885,0,0
0:3:39.573,871.371,49.3113,0,0.000885,0,0
0:3:39.873,872.252,49.3596,0,0.000885,0,0
0:3:40.177,874.6,49.4906,0,0.000885,0,0
0:3:40.474,875.833,49.5595,0,0.000885,0,0
0:3:40.771,877.416,49.6491,0,0.000885,0,0
0:3:41.070,878.475,49.7112,0,0.000885,0,0
0:3:41.374,880.53,49.8284,0,0.000885,0,0
0:3:41.677,881.642,49.8905,0,0.000885,0,0
0:3:41.970,881.936,49.9043,0,0.000885,0,0
0:3:42.271,883.461,49.9939,0,0.000885,0,0
0:3:42.567,884.814,50.0697,0,0.000885,0,0
0:3:42.865,886.455,50.1663,0,0.000885,0,0
0:3:43.162,887.981,50.249,0,0.000885,0,0
0:3:43.467,889.627,50.3455,0,0.000885,0,0
0:3:43.771,890.743,50.4076,0,0.000885,0,0
0:3:44.073,891.21,50.4351,0,0.000885,0,0
0:3:44.373,892.269,50.4903,0,0.000885,0,0
0:3:44.677,894.324,50.6075,0,0.000885,0,0
0:3:44.972,895.556,50.6765,0,0.000885,0,0
0:3:45.273,896.73,50.7454,0,0.000885,0,0
0:3:45.565,899.017,50.8764,0,0.000885,0,0
0:3:45.867,900.133,50.9385,0,0.000885,0,0
0:3:46.163,901.423,51.0074,0,0.000885,0,0
0:3:46.460,902.482,51.0695,0,0.000885,0,0
0:3:46.759,903.42,51.1246,0,0.000885,0,0
0:3:47.055,905.004,51.2143,0,0.000885,0,0
0:3:47.356,905.769,51.2556,0,0.000885,0,0
0:3:47.651,907.411,51.3522,0,0.000885,0,0
0:3:47.952,908.878,51.4349,0,0.000885,0,0
0:3:48.248,910.111,51.5038,0,0.000885,0,0
0:3:48.551,911.93,51.6073,0,0.000885,0,0
0:3:48.856,913.046,51.6693,0,0.000885,0,0
0:3:49.158,914.043,51.7245,0,0.000885,0,0
0:3:49.460,914.924,51.7727,0,0.000885,0,0
0:3:49.761,917.157,51.9037,0,0.000885,0,0
0:3:50.072,918.447,51.9727,0,0.000885,0,0
0:3:50.371,919.563,52.0347,0,0.000885,0,0
0:3:50.674,920.973,52.1175,0,0.000885,0,0
0:3:50.976,922.205,52.1864,0,0.000885,0,0
0:3:51.271,923.967,52.2829,0,0.000885,0,0
0:3:51.567,924.727,52.3312,0,0.000885,0,0
0:3:51.865,925.608,52.3795,0,0.000885,0,0
0:3:52.162,926.898,52.4484,0,0.000885,0,0
0:3:52.463,928.544,52.5449,0,0.000885,0,0
0:3:52.757,930.421,52.6484,0,0.000885,0,0
0:3:53.058,931.947,52.738,0,0.000885,0,0
0:3:53.354,933.415,52.8207,0,0.000885,0,0
0:3:53.656,934.296,52.869,0,0.000885,0,0
0:3:53.961,936.408,52.9931,0,0.000885,0,0
0:3:54.262,936.76,53.0069,0,0.000885,0,0
0:3:54.564,938.406,53.1034,0,0.000885,0,0
0:3:54.866,939.638,53.1724,0,0.000885,0,0
0:3:55.176,941.221,53.262,0,0.000885,0,0
0:3:55.476,942.044,53.3103,0,0.000885,0,0
0:3:55.779,943.277,53.3792,0,0.000885,0,0
0:3:56.080,944.273,53.4344,0,0.000885,0,0
0:3:56.374,945.741,53.5171,0,0.000885,0,0
0:3:56.675,947.854,53.6343,0,0.000885,0,0
0:3:56.972,948.797,53.6895,0,0.000885,0,0
0:3:57.267,949.678,53.7377,0,0.000885,0,0
0:3:57.568,950.616,53.7929,0,0.000885,0,0
0:3:57.874,952.435,53.8963,0,0.000885,0,0
0:3:58.176,954.255,53.9997,0,0.000885,0,0
0:3:58.468,955.429,54.0687,0,0.000885,0,0
0:3:58.774,957.07,54.1583,0,0.000885,0,0
0:3:59.078,958.009,54.2135,0,0.000885,0,0
0:3:59.383,959.655,54.3031,0,0.000885,0,0
0:3:59.684,960.771,54.3652,0,0.000885,0,0
0:3:59.985,961.59,54.4134,0,0.000885,0,0
0:4:0.286,963.058,54.4962,0,0.000885,0,0
0:4:0.582,964.059,54.5513,0,0.000885,0,0
0:4:0.880,965.758,54.6478,0,0.000885,0,0
0:4:1.180,967.519,54.7513,0,0.000885,0,0
0:4:1.473,968.809,54.8202,0,0.000885,0,0
0:4:1.776,969.69,54.8754,0,0.000885,0,0
0:4:2.079,971.572,54.9788,0,0.000885,0,0
0:4:2.378,972.804,55.0477,0,0.000885,0,0
0:4:2.675,974.209,55.1305,0,0.000885,0,0
0:4:2.974,975.62,55.2063,0,0.000885,0,0
0:4:3.273,976.62,55.2684,0,0.000885,0,0
0:4:3.579,977.381,55.3097,0,0.000885,0,0
0:4:3.881,978.849,55.3925,0,0.000885,0,0
0:4:4.184,980.49,55.4821,0,0.000885,0,0
0:4:4.486,981.9,55.5648,0,0.000885,0,0
0:4:4.787,983.898,55.6752,0,0.000885,0,0
0:4:5.083,985.072,55.7441,0,0.000885,0,0
0:4:5.385,986.068,55.7993,0,0.000885,0,0
0:4:5.679,987.358,55.8751,0,0.000885,0,0
0:4:5.979,988.595,55.9441,0,0.000885,0,0
0:4:6.276,990.001,56.0199,0,0.000885,0,0
0:4:6.572,990.766,56.0682,0,0.000885,0,0
0:4:6.873,991.526,56.1095,0,0.000885,0,0
0:4:7.166,993.346,56.213,0,0.000885,0,0
0:4:7.468,994.347,56.2681,0,0.000885,0,0
0:4:7.763,996.459,56.3853,0,0.000885,0,0
0:4:8.063,997.807,56.4612,0,0.000885,0,0
0:4:8.361,999.102,56.537,0,0.000885,0,0
0:4:8.663,1000.16,56.5991,0,0.000885,0,0
0:4:8.968,1001.68,56.6818,0,0.000885,0,0
0:4:9.270,1003.21,56.7714,0,0.000885,0,0
0:4:9.573,1004.97,56.868,0,0.000885,0,0
0:4:9.874,1005.91,56.9231,0,0.000885,0,0
0:4:10.169,1006.91,56.9783,0,0.000885,0,0
0:4:10.472,1008.55,57.0748,0,0.000885,0,0
0:4:10.763,1009.72,57.1369,0,0.000885,0,0
0:4:11.064,1010.78,57.1989,0,0.000885,0,0
0:4:11.361,1011.89,57.261,0,0.000885,0,0
0:4:11.668,1012.78,57.3092,0,0.000885,0,0
0:4:11.978,1014.59,57.4126,0,0.000885,0,0
0:4:12.273,1016.71,57.5367,0,0.000885,0,0
0:4:12.575,1017.53,57.5781,0,0.000885,0,0
0:4:12.878,1018.53,57.6402,0,0.000885,0,0
0:4:13.178,1020.47,57.7436,0,0.000885,0,0
0:4:13.477,1021.76,57.8194,0,0.000885,0,0
0:4:13.780,1022.93,57.8884,0,0.000885,0,0
0:4:14.083,1024.4,57.9711,0,0.000885,0,0
0:4:14.386,1026.28,58.0745,0,0.000885,0,0
0:4:14.687,1027.33,58.1366,0,0.000885,0,0
0:4:14.989,1028.51,58.1986,0,0.000885,0,0
0:4:15.287,1029.27,58.2469,0,0.000885,0,0
0:4:15.587,1030.97,58.3434,0,0.000885,0,0
0:4:15.881,1032.79,58.4469,0,0.000885,0,0
0:4:16.183,1033.97,58.5089,0,0.000885,0,0
0:4:16.478,1034.96,58.5641,0,0.000885,0,0
0:4:16.779,1036.08,58.633,0,0.000885,0,0
0:4:17.075,1037.25,58.6951,0,0.000885,0,0
0:4:17.371,1038.9,58.7916,0,0.000885,0,0
0:4:17.670,1040.13,58.8605,0,0.000885,0,0
0:4:17.978,1041.36,58.9295,0,0.000885,0,0
0:4:18.280,1042.54,58.9984,0,0.000885,0,0
0:4:18.586,1044.47,59.1019,0,0.000885,0,0
0:4:18.889,1045.53,59.1639,0,0.000885,0,0
0:4:19.192,1046.59,59.226,0,0.000885,0,0
0:4:19.494,1048.11,59.3087,0,0.000885,0,0
0:4:19.797,1050.11,59.4259,0,0.000885,0,0
0:4:20.091,1051.05,59.4742,0,0.000885,0,0
0:4:20.390,1051.87,59.5224,0,0.000885,0,0
0:4:20.687,1052.93,59.5845,0,0.000885,0,0
0:4:20.984,1054.69,59.681,0,0.000885,0,0
0:4:21.285,1056.27,59.7707,0,0.000885,0,0
0:4:21.579,1057.21,59.8258,0,0.000885,0,0
0:4:21.881,1058.39,59.8948,0,0.000885,0,0
0:4:22.176,1060.5,60.012,0,0.000885,0,0
0:4:22.474,1061.38,60.0602,0,0.000885,0,0
0:4:22.782,1062.61,60.1292,0,0.000885,0,0
0:4:23.079,1064.08,60.2119,0,0.000885,0,0
0:4:23.380,1065.66,60.3015,0,0.000885,0,0
0:4:23.685,1066.43,60.3498,0,0.000885,0,0
0:4:23.988,1067.31,60.3981,0,0.000885,0,0
0:4:24.291,1069.72,60.536,0,0.000885,0,0
0:4:24.593,1070.71,60.5911,0,0.000885,0,0
0:4:24.895,1072.18,60.6739,0,0.000885,0,0
0:4:25.190,1073.94,60.7704,0,0.000885,0,0
0:4:25.491,1075.53,60.86,0,0.000885,0,0
0:4:25.787,1076.11,60.8945,0,0.000885,0,0
0:4:26.086,1076.99,60.9428,0,0.000885,0,0
0:4:26.385,1078.34,61.0186,0,0.000885,0,0
0:4:26.679,1080.22,61.1289,0,0.000885,0,0
0:4:26.981,1081.51,61.1979,0,0.000885,0,0
0:4:27.277,1082.51,61.2599,0,0.000885,0,0
0:4:27.576,1083.63,61.322,0,0.000885,0,0
0:4:27.882,1085.45,61.4254,0,0.000885,0,0
0:4:28.179,1086.38,61.4737,0,0.000885,0,0
0:4:28.480,1088.2,61.5771,0,0.000885,0,0
0:4:28.783,1089.14,61.6322,0,0.000885,0,0
0:4:29.088,1090.14,61.6874,0,0.000885,0,0
0:4:29.389,1091.55,61.7701,0,0.000885,0,0
0:4:29.692,1093.43,61.8736,0,0.000885,0,0
0:4:29.994,1094.48,61.9356,0,0.000885,0,0
0:4:30.289,1096.25,62.0321,0,0.000885,0,0
0:4:30.591,1097.13,62.0873,0,0.000885,0,0
0:4:30.885,1098.24,62.1493,0,0.000885,0,0
0:4:31.185,1099.83,62.239,0,0.000885,0,0
0:4:31.483,1101.41,62.3286,0,0.000885,0,0
0:4:31.779,1102.82,62.4044,0,0.000885,0,0
0:4:32.078,1103.82,62.4665,0,0.000885,0,0
0:4:32.371,1104.23,62.4872,0,0.000885,0,0
0:4:32.675,1106.7,62.6251,0,0.000885,0,0
0:4:32.980,1108.11,62.7078,0,0.000885,0,0
0:4:33.277,1108.93,62.7492,0,0.000885,0,0
0:4:33.577,1110.28,62.8319,0,0.000885,0,0
0:4:33.880,1112.39,62.9491,0,0.000885,0,0
0:4:34.186,1113.51,63.0112,0,0.000885,0,0
0:4:34.487,1114.33,63.0595,0,0.000885,0,0
0:4:34.789,1114.97,63.0939,0,0.000885,0,0
0:4:35.091,1117.5,63.2387,0,0.000885,0,0
0:4:35.387,1118.96,63.3215,0,0.000885,0,0
0:4:35.688,1119.9,63.3766,0,0.000885,0,0
0:4:35.982,1121.02,63.4387,0,0.000885,0,0
0:4:36.284,1122.72,63.5352,0,0.000885,0,0
0:4:36.579,1123.78,63.5903,0,0.000885,0,0
0:4:36.878,1125.07,63.6662,0,0.000885,0,0
0:4:37.185,1126.3,63.7351,0,0.000885,0,0
0:4:37.480,1127.71,63.8179,0,0.000885,0,0
0:4:37.781,1128.83,63.8799,0,0.000885,0,0
0:4:38.076,1130.12,63.9489,0,0.000885,0,0
0:4:38.379,1131.53,64.0316,0,0.000885,0,0
0:4:38.684,1133.23,64.1281,0,0.000885,0,0
0:4:38.985,1133.87,64.1626,0,0.000885,0,0
0:4:39.288,1135.52,64.2591,0,0.000885,0,0
0:4:39.589,1137.51,64.3695,0,0.000885,0,0
0:4:39.892,1138.57,64.4315,0,0.000885,0,0
0:4:40.187,1139.92,64.5073,0,0.000885,0,0
0:4:40.485,1141.04,64.5694,0,0.000885,0,0
0:4:40.782,1142.62,64.659,0,0.000885,0,0
0:4:41.079,1143.09,64.6866,0,0.000885,0,0
0:4:41.380,1144.67,64.7762,0,0.000885,0,0
0:4:41.683,1145.96,64.8452,0,0.000885,0,0
0:4:41.985,1147.37,64.9279,0,0.000885,0,0
0:4:42.282,1148.66,65.0038,0,0.000885,0,0
0:4:42.578,1150.25,65.0934,0,0.000885,0,0
0:4:42.879,1151.25,65.1486,0,0.000885,0,0
0:4:43.183,1152.89,65.2382,0,0.000885,0,0
0:4:43.486,1154.3,65.3209,0,0.000885,0,0
0:4:43.790,1155.95,65.4106,0,0.000885,0,0
0:4:44.094,1157,65.4726,0,0.000885,0,0
0:4:44.394,1157.65,65.5071,0,0.000885,0,0
0:4:44.698,1159.94,65.6381,0,0.000885,0,0
0:4:45.000,1160.76,65.6864,0,0.000885,0,0
0:4:45.293,1161.76,65.7415,0,0.000885,0,0
0:4:45.595,1163.4,65.838,0,0.000885,0,0
0:4:45.890,1164.28,65.8863,0,0.000885,0,0
0:4:46.189,1166.33,66.0035,0,0.000885,0,0
0:4:46.489,1167.27,66.0518,0,0.000885,0,0
0:4:46.783,1168.51,66.1207,0,0.000885,0,0
0:4:47.084,1169.86,66.2035,0,0.000885,0,0
0:4:47.380,1170.97,66.2655,0,0.000885,0,0
0:4:47.679,1172.61,66.3551,0,0.000885,0,0
0:4:47.977,1174.5,66.4655,0,0.000885,0,0
0:4:48.283,1174.79,66.4792,0,0.000885,0,0
0:4:48.584,1176.78,66.5896,0,0.000885,0,0
0:4:48.889,1178.72,66.6999,0,0.000885,0,0
0:4:49.193,1179.83,66.7619,0,0.000885,0,0
0:4:49.493,1181.24,66.8447,0,0.000885,0,0
0:4:49.796,1182.18,66.8998,0,0.000885,0,0
0:4:50.100,1184.18,67.0101,0,0.000885,0,0
0:4:50.393,1185.12,67.0653,0,0.000885,0,0
0:4:50.695,1186.18,67.1205,0,0.000885,0,0
0:4:50.990,1187.41,67.1963,0,0.000885,0,0
0:4:51.287,1188.4,67.2515,0,0.000885,0,0
0:4:51.588,1190.4,67.3618,0,0.000885,0,0
0:4:51.883,1191.28,67.41,0,0.000885,0,0
0:4:52.185,1192.63,67.4859,0,0.000885,0,0
0:4:52.480,1193.45,67.5341,0,0.000885,0,0
0:4:52.779,1195.09,67.6307,0,0.000885,0,0
0:4:53.087,1196.21,67.6927,0,0.000885,0,0
0:4:53.381,1197.91,67.7893,0,0.000885,0,0
0:4:53.683,1198.85,67.8444,0,0.000885,0,0
0:4:53.987,1200.32,67.9271,0,0.000885,0,0
0:4:54.290,1202.31,68.0375,0,0.000885,0,0
0:4:54.591,1203.2,68.0857,0,0.000885,0,0
0:4:54.893,1204.84,68.1823,0,0.000885,0,0
0:4:55.197,1205.43,68.2098,0,0.000885,0,0
0:4:55.491,1207.07,68.3064,0,0.000885,0,0
0:4:55.793,1209.12,68.4236,0,0.000885,0,0
0:4:56.090,1210.13,68.4787,0,0.000885,0,0
0:4:56.386,1211.65,68.5684,0,0.000885,0,0
0:4:56.686,1212.24,68.5959,0,0.000885,0,0
0:4:56.981,1214,68.6994,0,0.000885,0,0
0:4:57.282,1215,68.7545,0,0.000885,0,0
0:4:57.579,1216.52,68.8442,0,0.000885,0,0
0:4:57.875,1217.87,68.92,0,0.000885,0,0
0:4:58.186,1218.81,68.9683,0,0.000885,0,0
0:4:58.490,1220.81,69.0855,0,0.000885,0,0
0:4:58.794,1221.86,69.1406,0,0.000885,0,0
0:4:59.096,1223.15,69.2165,0,0.000885,0,0
0:4:59.399,1224.68,69.3061,0,0.000885,0,0
0:4:59.701,1225.8,69.3682,0,0.000885,0,0
0:4:59.994,1227.44,69.4578,0,0.000885,0,0
0:5:0.298,1228.61,69.5267,0,0.000885,0,0
0:5:0.592,1229.38,69.5681,0,0.000885,0,0
0:5:0.890,1231.08,69.6646,0,0.000885,0,0
0:5:1.188,1232.26,69.7336,0,0.000885,0,0
0:5:1.486,1233.84,69.8232,0,0.000885,0,0
0:5:1.786,1234.89,69.8784,0,0.000885,0,0
0:5:2.080,1235.89,69.9404,0,0.000885,0,0
0:5:2.380,1237.59,70.0369,0,0.000885,0,0
0:5:2.679,1239.77,70.1542,0,0.000885,0,0
0:5:2.985,1240,70.1679,0,0.000885,0,0
0:5:3.284,1241.35,70.2438,0,0.000885,0,0
0:5:3.588,1242.82,70.3265,0,0.000885,0,0
0:5:3.891,1244.52,70.4231,0,0.000885,0,0
0:5:4.194,1245.99,70.5058,0,0.000885,0,0
0:5:4.495,1247.22,70.5816,0,0.000885,0,0
0:5:4.799,1248.57,70.6575,0,0.000885,0,0
0:5:5.093,1249.98,70.7333,0,0.000885,0,0
0:5:5.397,1251.39,70.8161,0,0.000885,0,0
0:5:5.692,1252.21,70.8574,0,0.000885,0,0
0:5:5.988,1253.38,70.9264,0,0.000885,0,0
0:5:6.287,1254.38,70.9815,0,0.000885,0,0
0:5:6.583,1255.91,71.0712,0,0.000885,0,0
0:5:6.886,1257.37,71.1539,0,0.000885,0,0
0:5:7.180,1259.14,71.2504,0,0.000885,0,0
0:5:7.479,1260.25,71.3125,0,0.000885,0,0
0:5:7.779,1261.72,71.4021,0,0.000885,0,0
0:5:8.083,1263.42,71.4917,0,0.000885,0,0
0:5:8.384,1264.83,71.5745,0,0.000885,0,0
0:5:8.689,1266.36,71.6641,0,0.000885,0,0
0:5:8.992,1266.77,71.6848,0,0.000885,0,0
0:5:9.296,1267.77,71.7399,0,0.000885,0,0
0:5:9.599,1269.53,71.8434,0,0.000885,0,0
0:5:9.901,1270.35,71.8847,0,0.000885,0,0
0:5:10.196,1271.64,71.9606,0,0.000885,0,0
0:5:10.494,1272.81,72.0295,0,0.000885,0,0
0:5:10.792,1274.58,72.1261,0,0.000885,0,0
0:5:11.090,1276.04,72.2088,0,0.000885,0,0
0:5:11.390,1277.45,72.2915,0,0.000885,0,0
0:5:11.684,1278.57,72.3536,0,0.000885,0,0
0:5:11.987,1279.62,72.4087,0,0.000885,0,0
0:5:12.282,1281.97,72.5466,0,0.000885,0,0
0:5:12.580,1283.09,72.6087,0,0.000885,0,0
0:5:12.888,1284.32,72.6776,0,0.000885,0,0
0:5:13.183,1285.08,72.719,0,0.000885,0,0
0:5:13.486,1286.31,72.788,0,0.000885,0,0
0:5:13.791,1288.13,72.8914,0,0.000885,0,0
0:5:14.094,1289.43,72.9672,0,0.000885,0,0
0:5:14.398,1290.48,73.0293,0,0.000885,0,0
0:5:14.699,1291.36,73.0775,0,0.000885,0,0
0:5:15.002,1294.01,73.2223,0,0.000885,0,0
0:5:15.297,1294.94,73.2775,0,0.000885,0,0
0:5:15.595,1295.88,73.3326,0,0.000885,0,0
0:5:15.893,1297.06,73.4016,0,0.000885,0,0
0:5:16.190,1298.29,73.4705,0,0.000885,0,0
0:5:16.491,1300.23,73.5808,0,0.000885,0,0
0:5:16.784,1301.75,73.6636,0,0.000885,0,0
0:5:17.086,1302.87,73.7256,0,0.000885,0,0
0:5:17.382,1303.81,73.7808,0,0.000885,0,0
0:5:17.680,1304.81,73.836,0,0.000885,0,0
0:5:17.989,1306.63,73.9394,0,0.000885,0,0
0:5:18.285,1307.74,74.0014,0,0.000885,0,0
0:5:18.586,1309.15,74.0842,0,0.000885,0,0
0:5:18.891,1310.32,74.1462,0,0.000885,0,0
0:5:19.195,1311.79,74.229,0,0.000885,0,0
0:5:19.498,1312.73,74.2841,0,0.000885,0,0
0:5:19.798,1314.43,74.3806,0,0.000885,0,0
0:5:20.101,1315.55,74.4427,0,0.000885,0,0
0:5:20.397,1316.9,74.5185,0,0.000885,0,0
0:5:20.698,1318.25,74.5944,0,0.000885,0,0
0:5:20.993,1319.77,74.684,0,0.000885,0,0
0:5:21.289,1321.06,74.7599,0,0.000885,0,0
0:5:21.589,1322.12,74.815,0,0.000885,0,0
0:5:21.884,1324.12,74.9322,0,0.000885,0,0
0:5:22.186,1325.35,75.0012,0,0.000885,0,0
0:5:22.481,1326.58,75.0701,0,0.000885,0,0
0:5:22.780,1327.93,75.146,0,0.000885,0,0
0:5:23.086,1328.99,75.208,0,0.000885,0,0
0:5:23.382,1330.52,75.2907,0,0.000885,0,0
0:5:23.683,1331.98,75.3735,0,0.000885,0,0
0:5:23.987,1333.22,75.4424,0,0.000885,0,0
0:5:24.290,1334.45,75.5114,0,0.000885,0,0
0:5:24.593,1335.92,75.5941,0,0.000885,0,0
0:5:24.895,1336.91,75.6562,0,0.000885,0,0
0:5:25.199,1338.27,75.732,0,0.000885,0,0
0:5:25.493,1339.61,75.8079,0,0.000885,0,0
0:5:25.794,1340.9,75.8768,0,0.000885,0,0
0:5:26.089,1342.61,75.9733,0,0.000885,0,0
0:5:26.389,1343.61,76.0354,0,0.000885,0,0
0:5:26.686,1344.96,76.1112,0,0.000885,0,0
0:5:26.983,1346.25,76.1802,0,0.000885,0,0
0:5:27.282,1347.25,76.2353,0,0.000885,0,0
0:5:27.586,1348.59,76.3181,0,0.000885,0,0
0:5:27.889,1349.36,76.3594,0,0.000885,0,0
0:5:28.186,1351.12,76.456,0,0.000885,0,0
0:5:28.488,1352.29,76.5249,0,0.000885,0,0
0:5:28.793,1354.58,76.6559,0,0.000885,0,0
0:5:29.097,1355.46,76.7042,0,0.000885,0,0
0:5:29.398,1356.75,76.78,0,0.000885,0,0
0:5:29.699,1356.99,76.7869,0,0.000885,0,0
0:5:30.000,1358.57,76.8765,0,0.000885,0,0
0:5:30.297,1359.57,76.9386,0,0.000885,0,0
0:5:30.593,1360.1,76.9662,0,0.000885,0,0
0:5:30.893,1360.92,77.0144,0,0.000885,0,0
0:5:31.188,1362.51,77.1041,0,0.000885,0,0
0:5:31.490,1364.97,77.242,0,0.000885,0,0
0:5:31.784,1366.56,77.3316,0,0.000885,0,0
0:5:32.084,1368.43,77.435,0,0.000885,0,0
0:5:32.378,1369.84,77.5178,0,0.000885,0,0
0:5:32.687,1371.43,77.6074,0,0.000885,0,0
0:5:32.988,1373.66,77.7315,0,0.000885,0,0
0:5:33.283,1374.83,77.8004,0,0.000885,0,0
0:5:33.586,1376.48,77.8901,0,0.000885,0,0
0:5:33.890,1377.18,77.9314,0,0.000885,0,0
0:5:34.195,1377.94,77.9728,0,0.000885,0,0
0:5:34.497,1379.3,78.0555,0,0.000885,0,0
0:5:34.798,1380.99,78.1452,0,0.000885,0,0
0:5:35.100,1382.23,78.221,0,0.000885,0,0
0:5:35.395,1383.87,78.3107,0,0.000885,0,0
0:5:35.695,1385.46,78.4003,0,0.000885,0,0
0:5:35.992,1386.4,78.4554,0,0.000885,0,0
0:5:36.288,1387.22,78.5037,0,0.000885,0,0
0:5:36.590,1388.28,78.5589,0,0.000885,0,0
0:5:36.885,1389.04,78.6002,0,0.000885,0,0
0:5:37.186,1391.27,78.7312,0,0.000885,0,0
0:5:37.482,1392.32,78.7864,0,0.000885,0,0
0:5:37.790,1392.97,78.8278,0,0.000885,0,0
0:5:38.090,1394.32,78.9036,0,0.000885,0,0
0:5:38.384,1396.73,79.0415,0,0.000885,0,0
0:5:38.687,1397.26,79.0691,0,0.000885,0,0
0:5:38.988,1398.08,79.1173,0,0.000885,0,0
0:5:39.293,1399.31,79.1863,0,0.000885,0,0
0:5:39.593,1400.54,79.2552,0,0.000885,0,0
0:5:39.897,1403.07,79.4,0,0.000885,0,0
0:5:40.200,1404.53,79.4828,0,0.000885,0,0
0:5:40.493,1405.94,79.5586,0,0.000885,0,0
0:5:40.795,1407.29,79.6344,0,0.000885,0,0
0:5:41.091,1409.64,79.7723,0,0.000885,0,0
0:5:41.388,1410.99,79.8482,0,0.000885,0,0
0:5:41.688,1411.05,79.8482,0,0.000885,0,0
0:5:41.982,1409.17,79.7448,0,0.000885,0,0
0:5:42.282,1405.36,79.5241,0,0.000885,0,0
0:5:42.585,1353.58,76.5939,0,0.000885,0,0
0:5:42.884,1335.45,75.5734,0,0.000885,0,0
0:5:43.189,1318.72,74.622,0,0.000885,0,0
0:5:43.491,1279.45,72.4018,0,0.000885,0,0
0:5:43.794,1244.29,70.4093,0,0.000885,0,0
0:5:44.097,1242.41,70.3058,0,0.000885,0,0
0:5:44.398,1243.58,70.3748,0,0.000885,0,0
0:5:44.699,1245.58,70.4851,0,0.000885,0,0
0:5:44.997,1246.69,70.5472,0,0.000885,0,0
0:5:45.294,1249.92,70.7333,0,0.000885,0,0
0:5:45.587,1252.45,70.8712,0,0.000885,0,0
0:5:45.888,1255.15,71.0298,0,0.000885,0,0
0:5:46.180,1257.79,71.1746,0,0.000885,0,0
0:5:46.490,1259.08,71.2504,0,0.000885,0,0
0:5:46.787,1257.08,71.1332,0,0.000885,0,0
0:5:47.083,1257.79,71.1746,0,0.000885,0,0
0:5:47.393,1259.2,71.2573,0,0.000885,0,0
0:5:47.686,1260.72,71.3401,0,0.000885,0,0
0:5:47.974,1257.37,71.1539,0,0.000885,0,0