File: DataFile2021-06-08_054613.csv
Test ID:,Date Tested:,Time:,Test Type:,Diameter Avg. (mm):,Cyl. Corr. Factor:,Height (mm):,Age (days):,Weight (kN):,Break Type:,Ramp Rate (MPa/s):,Load at Break (kN):,Stress at Break (MPa):
12,6/8/2021,05:46,Cylinder,150,1,300,0,3.6,5,0.24,759.13,42.96
Sample Time,Load (kN),Stress (MPa),Long. Strain,Trans. Strain,Chan1 Deflection (mm),Chan2 Deflection (mm)
0:0:14.327,13.4292,0.758423,0,0.000885,0,0
0:0:14.523,21.4671,1.21348,0,0.000885,0,0
0:0:14.721,21.8764,1.24106,0,0.000885,0,0
0:0:14.924,21.4671,1.21348,0,0.000885,0,0
0:0:15.119,20.7643,1.17211,0,0.000885,0,0
0:0:15.320,20.4084,1.15832,0,0.000885,0,0
0:0:15.518,20.2928,1.15142,0,0.000885,0,0
0:0:15.714,20.5285,1.15832,0,0.000885,0,0
0:0:15.916,19.9992,1.13074,0,0.000885,0,0
0:0:16.110,20.1193,1.13763,0,0.000885,0,0
0:0:16.311,19.6478,1.11006,0,0.000885,0,0
0:0:16.509,19.59,1.11006,0,0.000885,0,0
0:0:16.715,19.4699,1.10316,0,0.000885,0,0
0:0:16.917,19.3542,1.09627,0,0.000885,0,0
0:0:17.113,19.2386,1.08937,0,0.000885,0,0
0:0:17.312,19.1807,1.08248,0,0.000885,0,0
0:0:17.511,19.412,1.09627,0,0.000885,0,0
0:0:17.716,20.235,1.14453,0,0.000885,0,0
0:0:17.918,20.7643,1.17211,0,0.000885,0,0
0:0:18.114,20.88,1.179,0,0.000885,0,0
0:0:18.314,21.8185,1.23416,0,0.000885,0,0
0:0:18.512,22.6993,1.28242,0,0.000885,0,0
0:0:18.709,23.4021,1.32379,0,0.000885,0,0
0:0:18.911,25.1013,1.42032,0,0.000885,0,0
0:0:19.108,26.0977,1.47548,0,0.000885,0,0
0:0:19.317,27.1564,1.53753,0,0.000885,0,0
0:0:19.519,27.9749,1.58579,0,0.000885,0,0
0:0:19.722,28.8556,1.63406,0,0.000885,0,0
0:0:19.925,29.7364,1.68232,0,0.000885,0,0
0:0:20.129,30.497,1.72369,0,0.000885,0,0
0:0:20.330,31.142,1.76506,0,0.000885,0,0
0:0:20.533,32.7834,1.85469,0,0.000885,0,0
0:0:20.734,33.3706,1.88916,0,0.000885,0,0
0:0:20.936,34.7806,1.96501,0,0.000885,0,0
0:0:21.138,35.5413,2.01327,0,0.000885,0,0
0:0:21.335,36.8891,2.08911,0,0.000885,0,0
0:0:21.537,37.1249,2.1029,0,0.000885,0,0
0:0:21.732,38.4727,2.17874,0,0.000885,0,0
0:0:21.932,38.5928,2.18564,0,0.000885,0,0
0:0:22.134,39.9406,2.26148,0,0.000885,0,0
0:0:22.330,40.7635,2.30974,0,0.000885,0,0
0:0:22.532,42.1113,2.38559,0,0.000885,0,0
0:0:22.729,42.2848,2.39248,0,0.000885,0,0
0:0:22.929,43.8105,2.48211,0,0.000885,0,0
0:0:23.130,44.0463,2.4959,0,0.000885,0,0
0:0:23.325,45.1005,2.55106,0,0.000885,0,0
0:0:23.527,45.9813,2.59932,0,0.000885,0,0
0:0:23.725,46.8042,2.64759,0,0.000885,0,0
0:0:23.922,47.1556,2.66827,0,0.000885,0,0
0:0:24.124,48.5612,2.75101,0,0.000885,0,0
0:0:24.321,49.4998,2.79927,0,0.000885,0,0
0:0:24.521,50.2649,2.84753,0,0.000885,0,0
0:0:24.723,51.7284,2.93027,0,0.000885,0,0
0:0:24.927,51.7862,2.93027,0,0.000885,0,0
0:0:25.131,52.9605,2.99922,0,0.000885,0,0
0:0:25.333,53.9569,3.05438,0,0.000885,0,0
0:0:25.534,54.7798,3.10264,0,0.000885,0,0
0:0:25.735,55.7184,3.1509,0,0.000885,0,0
0:0:25.938,56.4212,3.19227,0,0.000885,0,0
0:0:26.140,57.0084,3.22675,0,0.000885,0,0
0:0:26.339,58.414,3.30259,0,0.000885,0,0
0:0:26.538,59.059,3.34396,0,0.000885,0,0
0:0:26.740,59.9976,3.39222,0,0.000885,0,0
0:0:26.934,60.2334,3.40601,0,0.000885,0,0
0:0:27.136,61.7013,3.48875,0,0.000885,0,0
0:0:27.336,62.4041,3.53012,0,0.000885,0,0
0:0:27.534,63.9877,3.61975,0,0.000885,0,0
0:0:27.735,64.9262,3.67491,0,0.000885,0,0
0:0:27.932,65.9805,3.73696,0,0.000885,0,0
0:0:28.132,66.6877,3.77143,0,0.000885,0,0
0:0:28.332,67.5062,3.8197,0,0.000885,0,0
0:0:28.528,68.3291,3.86796,0,0.000885,0,0
0:0:28.731,68.6805,3.88864,0,0.000885,0,0
0:0:28.927,69.499,3.93001,0,0.000885,0,0
0:0:29.128,70.4376,3.98517,0,0.000885,0,0
0:0:29.328,70.6733,3.99896,0,0.000885,0,0
0:0:29.524,71.9055,4.06791,0,0.000885,0,0
0:0:29.726,73.1377,4.13685,0,0.000885,0,0
0:0:29.928,74.0184,4.18512,0,0.000885,0,0
0:0:30.132,75.5397,4.27475,0,0.000885,0,0
0:0:30.335,76.069,4.30233,0,0.000885,0,0
0:0:30.537,76.7719,4.3437,0,0.000885,0,0
0:0:30.740,77.4168,4.37817,0,0.000885,0,0
0:0:30.942,78.4177,4.44022,0,0.000885,0,0
0:0:31.143,79.294,4.48849,0,0.000885,0,0
0:0:31.345,80.7041,4.56433,0,0.000885,0,0
0:0:31.540,81.4647,4.61259,0,0.000885,0,0
0:0:31.743,82.7547,4.68154,0,0.000885,0,0
0:0:31.942,83.4575,4.72291,0,0.000885,0,0
0:0:32.139,84.752,4.79875,0,0.000885,0,0
0:0:32.341,84.9254,4.80565,0,0.000885,0,0
0:0:32.537,85.5126,4.84012,0,0.000885,0,0
0:0:32.736,86.2733,4.88149,0,0.000885,0,0
0:0:32.939,87.0962,4.92975,0,0.000885,0,0
0:0:33.133,87.5632,4.95733,0,0.000885,0,0
0:0:33.335,89.3247,5.05386,0,0.000885,0,0
0:0:33.533,89.9697,5.08833,0,0.000885,0,0
0:0:33.731,91.5533,5.17796,0,0.000885,0,0
0:0:33.933,92.2561,5.21933,0,0.000885,0,0
0:0:34.129,92.9589,5.2607,0,0.000885,0,0
0:0:34.331,93.8397,5.30896,0,0.000885,0,0
0:0:34.529,94.5425,5.35033,0,0.000885,0,0
0:0:34.727,95.5434,5.40549,0,0.000885,0,0
0:0:34.929,95.9526,5.43307,0,0.000885,0,0
0:0:35.131,97.0646,5.49512,0,0.000885,0,0
0:0:35.334,97.8876,5.53649,0,0.000885,0,0
0:0:35.538,99.2354,5.61233,0,0.000885,0,0
0:0:35.740,99.529,5.63302,0,0.000885,0,0
0:0:35.943,100.525,5.68817,0,0.000885,0,0
0:0:36.143,101.464,5.74333,0,0.000885,0,0
0:0:36.345,102.403,5.7916,0,0.000885,0,0
0:0:36.547,102.874,5.81918,0,0.000885,0,0
0:0:36.743,104.222,5.89502,0,0.000885,0,0
0:0:36.945,105.218,5.95707,0,0.000885,0,0
0:0:37.143,106.628,6.03291,0,0.000885,0,0
0:0:37.342,106.86,6.0467,0,0.000885,0,0
0:0:37.543,108.15,6.12254,0,0.000885,0,0
0:0:37.738,108.563,6.14323,0,0.000885,0,0
0:0:37.941,109.502,6.19839,0,0.000885,0,0
0:0:38.140,110.205,6.23286,0,0.000885,0,0
0:0:38.336,111.846,6.32939,0,0.000885,0,0
0:0:38.538,111.904,6.32939,0,0.000885,0,0
0:0:38.733,113.02,6.39833,0,0.000885,0,0
0:0:38.934,113.665,6.43281,0,0.000885,0,0
0:0:39.134,114.31,6.46728,0,0.000885,0,0
0:0:39.330,115.774,6.55002,0,0.000885,0,0
0:0:39.532,116.361,6.58449,0,0.000885,0,0
0:0:39.735,117.593,6.65344,0,0.000885,0,0
0:0:39.939,118.532,6.7086,0,0.000885,0,0
0:0:40.142,120,6.79134,0,0.000885,0,0
0:0:40.343,120.467,6.81891,0,0.000885,0,0
0:0:40.545,121.463,6.87407,0,0.000885,0,0
0:0:40.747,122.108,6.90855,0,0.000885,0,0
0:0:40.950,123.109,6.9637,0,0.000885,0,0
0:0:41.151,123.634,6.99818,0,0.000885,0,0
0:0:41.348,124.808,7.06023,0,0.000885,0,0
0:0:41.549,125.511,7.1016,0,0.000885,0,0
0:0:41.748,126.392,7.14986,0,0.000885,0,0
0:0:41.944,126.628,7.16365,0,0.000885,0,0
0:0:42.147,128.211,7.25328,0,0.000885,0,0
0:0:42.343,128.269,7.26018,0,0.000885,0,0
0:0:42.544,130.382,7.37739,0,0.000885,0,0
0:0:42.743,130.791,7.39807,0,0.000885,0,0
0:0:42.940,131.552,7.44634,0,0.000885,0,0
0:0:43.143,132.375,7.48771,0,0.000885,0,0
0:0:43.340,133.429,7.54976,0,0.000885,0,0
0:0:43.541,134.074,7.58423,0,0.000885,0,0
0:0:43.741,135.484,7.66697,0,0.000885,0,0
0:0:43.937,136.36,7.71523,0,0.000885,0,0
0:0:44.139,137.361,7.77039,0,0.000885,0,0
0:0:44.337,138.122,7.81865,0,0.000885,0,0
0:0:44.537,138.593,7.83934,0,0.000885,0,0
0:0:44.739,139.705,7.90829,0,0.000885,0,0
0:0:44.943,139.941,7.92208,0,0.000885,0,0
0:0:45.146,141.525,8.01171,0,0.000885,0,0
0:0:45.348,141.405,8.00481,0,0.000885,0,0
0:0:45.550,142.815,8.08066,0,0.000885,0,0
0:0:45.751,143.166,8.10134,0,0.000885,0,0
0:0:45.954,144.807,8.19787,0,0.000885,0,0
0:0:46.155,145.51,8.23234,0,0.000885,0,0
0:0:46.354,146.8,8.30818,0,0.000885,0,0
0:0:46.552,147.681,8.35645,0,0.000885,0,0
0:0:46.755,148.562,8.40471,0,0.000885,0,0
0:0:46.950,149.091,8.43918,0,0.000885,0,0
0:0:47.151,150.261,8.50124,0,0.000885,0,0
0:0:47.350,151.262,8.55639,0,0.000885,0,0
0:0:47.547,152.489,8.63224,0,0.000885,0,0
0:0:47.750,153.134,8.66671,0,0.000885,0,0
0:0:47.948,154.309,8.72876,0,0.000885,0,0
0:0:48.145,155.132,8.77703,0,0.000885,0,0
0:0:48.346,156.012,8.82529,0,0.000885,0,0
0:0:48.543,156.657,8.86666,0,0.000885,0,0
0:0:48.745,157.654,8.92182,0,0.000885,0,0
0:0:48.942,157.77,8.92871,0,0.000885,0,0
0:0:49.140,158.063,8.9425,0,0.000885,0,0
0:0:49.342,159.531,9.02524,0,0.000885,0,0
0:0:49.537,159.825,9.04592,0,0.000885,0,0
0:0:49.740,161.817,9.15624,0,0.000885,0,0
0:0:49.942,162.52,9.19761,0,0.000885,0,0
0:0:50.146,163.459,9.25276,0,0.000885,0,0
0:0:50.349,164.455,9.30792,0,0.000885,0,0
0:0:50.552,165.22,9.34929,0,0.000885,0,0
0:0:50.753,166.097,9.39755,0,0.000885,0,0
0:0:50.955,167.449,9.4734,0,0.000885,0,0
0:0:51.157,167.916,9.50098,0,0.000885,0,0
0:0:51.360,169.09,9.56992,0,0.000885,0,0
0:0:51.554,169.971,9.61819,0,0.000885,0,0
0:0:51.756,170.554,9.65266,0,0.000885,0,0
0:0:51.956,171.377,9.70092,0,0.000885,0,0
0:0:52.151,172.845,9.78366,0,0.000885,0,0
0:0:52.353,173.312,9.80434,0,0.000885,0,0
0:0:52.551,174.722,9.88708,0,0.000885,0,0
0:0:52.750,174.837,9.89398,0,0.000885,0,0
0:0:52.951,175.834,9.94913,0,0.000885,0,0
0:0:53.147,176.305,9.97671,0,0.000885,0,0
0:0:53.349,177.769,10.0595,0,0.000885,0,0
0:0:53.548,178.178,10.0801,0,0.000885,0,0
0:0:53.745,178.707,10.1146,0,0.000885,0,0
0:0:53.947,179.766,10.1698,0,0.000885,0,0
0:0:54.144,180.349,10.2042,0,0.000885,0,0
0:0:54.345,181.995,10.3008,0,0.000885,0,0
0:0:54.543,182.519,10.3283,0,0.000885,0,0
0:0:54.740,184.103,10.418,0,0.000885,0,0
0:0:54.943,185.162,10.48,0,0.000885,0,0
0:0:55.144,185.922,10.5214,0,0.000885,0,0
0:0:55.347,186.509,10.5559,0,0.000885,0,0
0:0:55.550,187.448,10.6041,0,0.000885,0,0
0:0:55.752,188.151,10.6455,0,0.000885,0,0
0:0:55.955,189.089,10.7007,0,0.000885,0,0
0:0:56.156,189.792,10.742,0,0.000885,0,0
0:0:56.360,191.14,10.8179,0,0.000885,0,0
0:0:56.562,191.554,10.8386,0,0.000885,0,0
0:0:56.755,192.959,10.9213,0,0.000885,0,0
0:0:56.956,193.431,10.9489,0,0.000885,0,0
0:0:57.152,194.369,10.9971,0,0.000885,0,0
0:0:57.349,194.894,11.0316,0,0.000885,0,0
0:0:57.550,196.362,11.1143,0,0.000885,0,0
0:0:57.743,196.714,11.135,0,0.000885,0,0
0:0:57.943,198.297,11.2247,0,0.000885,0,0
0:0:58.141,198.707,11.2453,0,0.000885,0,0
0:0:58.336,199.12,11.266,0,0.000885,0,0
0:0:58.538,200.526,11.3488,0,0.000885,0,0
0:0:58.733,200.935,11.3695,0,0.000885,0,0
0:0:58.930,202.225,11.4453,0,0.000885,0,0
0:0:59.130,202.581,11.466,0,0.000885,0,0
0:0:59.325,203.577,11.5211,0,0.000885,0,0
0:0:59.525,204.164,11.5556,0,0.000885,0,0
0:0:59.726,205.748,11.6452,0,0.000885,0,0
0:0:59.929,206.099,11.6659,0,0.000885,0,0
0:1:0.130,207.447,11.7418,0,0.000885,0,0
0:1:0.330,208.15,11.7762,0,0.000885,0,0
0:1:0.531,209.676,11.8659,0,0.000885,0,0
0:1:0.731,210.205,11.8935,0,0.000885,0,0
0:1:0.932,211.789,11.9831,0,0.000885,0,0
0:1:1.131,212.607,12.0314,0,0.000885,0,0
0:1:1.328,213.372,12.0727,0,0.000885,0,0
0:1:1.526,214.484,12.1348,0,0.000885,0,0
0:1:1.725,215.481,12.1968,0,0.000885,0,0
0:1:1.920,215.894,12.2175,0,0.000885,0,0
0:1:2.119,216.361,12.2451,0,0.000885,0,0
0:1:2.316,217.478,12.3071,0,0.000885,0,0
0:1:2.514,217.887,12.3278,0,0.000885,0,0
0:1:2.714,219.177,12.4037,0,0.000885,0,0
0:1:2.918,219.644,12.4312,0,0.000885,0,0
0:1:3.118,220.645,12.4864,0,0.000885,0,0
0:1:3.314,221.348,12.5278,0,0.000885,0,0
0:1:3.521,222.874,12.6105,0,0.000885,0,0
0:1:3.722,223.519,12.6519,0,0.000885,0,0
0:1:3.916,224.457,12.7001,0,0.000885,0,0
0:1:4.115,225.334,12.7484,0,0.000885,0,0
0:1:4.313,226.334,12.8105,0,0.000885,0,0
0:1:4.507,226.917,12.838,0,0.000885,0,0
0:1:4.709,228.327,12.9208,0,0.000885,0,0
0:1:4.909,228.794,12.9484,0,0.000885,0,0
0:1:5.114,229.439,12.9828,0,0.000885,0,0
0:1:5.315,230.084,13.0173,0,0.000885,0,0
0:1:5.516,231.143,13.0794,0,0.000885,0,0
0:1:5.715,232.139,13.1345,0,0.000885,0,0
0:1:5.915,232.958,13.1828,0,0.000885,0,0
0:1:6.115,233.896,13.2379,0,0.000885,0,0
0:1:6.316,234.368,13.2655,0,0.000885,0,0
0:1:6.508,235.422,13.3207,0,0.000885,0,0
0:1:6.706,236.654,13.3896,0,0.000885,0,0
0:1:6.906,237.771,13.4517,0,0.000885,0,0
0:1:7.112,238.064,13.4724,0,0.000885,0,0
0:1:7.314,239.412,13.5482,0,0.000885,0,0
0:1:7.517,239.821,13.5689,0,0.000885,0,0
0:1:7.715,241.641,13.6723,0,0.000885,0,0
0:1:7.915,241.876,13.6861,0,0.000885,0,0
0:1:8.107,243.398,13.7757,0,0.000885,0,0
0:1:8.308,243.869,13.8033,0,0.000885,0,0
0:1:8.505,245.159,13.8723,0,0.000885,0,0
0:1:8.701,245.804,13.9067,0,0.000885,0,0
0:1:8.902,247.036,13.9826,0,0.000885,0,0
0:1:9.097,246.565,13.955,0,0.000885,0,0
0:1:9.296,247.624,14.0101,0,0.000885,0,0
0:1:9.503,249.029,14.0929,0,0.000885,0,0
0:1:9.709,250.377,14.1687,0,0.000885,0,0
0:1:9.909,250.671,14.1825,0,0.000885,0,0
0:1:10.109,252.316,14.279,0,0.000885,0,0
0:1:10.313,252.316,14.279,0,0.000885,0,0
0:1:10.514,253.135,14.3273,0,0.000885,0,0
0:1:10.715,253.9,14.3687,0,0.000885,0,0
0:1:10.916,254.776,14.4169,0,0.000885,0,0
0:1:11.115,255.893,14.479,0,0.000885,0,0
0:1:11.316,256.36,14.5066,0,0.000885,0,0
0:1:11.516,257.125,14.5479,0,0.000885,0,0
0:1:11.707,258.179,14.61,0,0.000885,0,0
0:1:11.909,259.233,14.672,0,0.000885,0,0
0:1:12.116,260.172,14.7203,0,0.000885,0,0
0:1:12.315,261.698,14.8099,0,0.000885,0,0
0:1:12.514,261.934,14.8237,0,0.000885,0,0
0:1:12.706,263.691,14.9203,0,0.000885,0,0
0:1:12.907,264.22,14.9547,0,0.000885,0,0
0:1:13.105,265.51,15.0237,0,0.000885,0,0
0:1:13.310,265.861,15.0444,0,0.000885,0,0
0:1:13.513,267.036,15.1133,0,0.000885,0,0
0:1:13.705,267.681,15.1478,0,0.000885,0,0
0:1:13.904,268.735,15.2098,0,0.000885,0,0
0:1:14.103,269.673,15.2581,0,0.000885,0,0
0:1:14.298,270.848,15.327,0,0.000885,0,0
0:1:14.499,271.435,15.3615,0,0.000885,0,0
0:1:14.700,271.493,15.3615,0,0.000885,0,0
0:1:14.904,272.783,15.4374,0,0.000885,0,0
0:1:15.104,273.254,15.4649,0,0.000885,0,0
0:1:15.305,274.366,15.527,0,0.000885,0,0
0:1:15.506,274.776,15.5477,0,0.000885,0,0
0:1:15.706,276.186,15.6304,0,0.000885,0,0
0:1:15.906,276.537,15.6511,0,0.000885,0,0
0:1:16.107,278.063,15.7338,0,0.000885,0,0
0:1:16.301,278.588,15.7683,0,0.000885,0,0
0:1:16.502,280.171,15.8579,0,0.000885,0,0
0:1:16.698,280.585,15.8786,0,0.000885,0,0
0:1:16.903,281.991,15.9545,0,0.000885,0,0
0:1:17.104,282.813,16.0027,0,0.000885,0,0
0:1:17.300,283.752,16.0579,0,0.000885,0,0
0:1:17.498,284.339,16.0924,0,0.000885,0,0
0:1:17.697,285.158,16.1337,0,0.000885,0,0
0:1:17.891,285.981,16.182,0,0.000885,0,0
0:1:18.092,287.155,16.2509,0,0.000885,0,0
0:1:18.289,288.209,16.3061,0,0.000885,0,0
0:1:18.486,288.854,16.3475,0,0.000885,0,0
0:1:18.686,289.735,16.3957,0,0.000885,0,0
0:1:18.881,290.38,16.4302,0,0.000885,0,0
0:1:19.081,291.728,16.506,0,0.000885,0,0
0:1:19.278,292.021,16.5267,0,0.000885,0,0
0:1:19.475,293.253,16.5957,0,0.000885,0,0
0:1:19.675,293.841,16.6302,0,0.000885,0,0
0:1:19.877,295.188,16.706,0,0.000885,0,0
0:1:20.080,295.891,16.7474,0,0.000885,0,0
0:1:20.281,297.066,16.8094,0,0.000885,0,0
0:1:20.482,297.239,16.8232,0,0.000885,0,0
0:1:20.682,298.24,16.8784,0,0.000885,0,0
0:1:20.883,298.591,16.8991,0,0.000885,0,0
0:1:21.084,300.113,16.9818,0,0.000885,0,0
0:1:21.281,301.113,17.0369,0,0.000885,0,0
0:1:21.475,301.932,17.0852,0,0.000885,0,0
0:1:21.675,302.577,17.1197,0,0.000885,0,0
0:1:21.873,303.809,17.1955,0,0.000885,0,0
0:1:22.068,304.574,17.2369,0,0.000885,0,0
0:1:22.269,305.157,17.2714,0,0.000885,0,0
0:1:22.464,307.154,17.3817,0,0.000885,0,0
0:1:22.661,307.448,17.3955,0,0.000885,0,0
0:1:22.862,308.618,17.4644,0,0.000885,0,0
0:1:23.055,308.675,17.4644,0,0.000885,0,0
0:1:23.256,309.908,17.5403,0,0.000885,0,0
0:1:23.452,310.143,17.5472,0,0.000885,0,0
0:1:23.649,311.433,17.623,0,0.000885,0,0
0:1:23.850,311.905,17.6506,0,0.000885,0,0
0:1:24.045,313.426,17.7333,0,0.000885,0,0
0:1:24.244,313.72,17.754,0,0.000885,0,0
0:1:24.442,315.481,17.8505,0,0.000885,0,0
0:1:24.638,315.717,17.8643,0,0.000885,0,0
0:1:24.839,316.068,17.885,0,0.000885,0,0
0:1:25.040,317.768,17.9815,0,0.000885,0,0
0:1:25.242,318.297,18.0091,0,0.000885,0,0
0:1:25.443,319.881,18.0987,0,0.000885,0,0
0:1:25.644,320.41,18.1332,0,0.000885,0,0
0:1:25.845,321.638,18.2022,0,0.000885,0,0
0:1:26.044,321.989,18.2228,0,0.000885,0,0
0:1:26.245,323.399,18.2987,0,0.000885,0,0
0:1:26.445,323.75,18.3194,0,0.000885,0,0
0:1:26.639,324.925,18.3883,0,0.000885,0,0
0:1:26.840,325.334,18.409,0,0.000885,0,0
0:1:27.037,326.744,18.4917,0,0.000885,0,0
0:1:27.234,326.86,18.4986,0,0.000885,0,0
0:1:27.435,328.034,18.5607,0,0.000885,0,0
0:1:27.627,328.265,18.5745,0,0.000885,0,0
0:1:27.828,330.378,18.6986,0,0.000885,0,0
0:1:28.025,330.845,18.7193,0,0.000885,0,0
0:1:28.222,330.556,18.7055,0,0.000885,0,0
0:1:28.423,332.313,18.802,0,0.000885,0,0
0:1:28.616,333.074,18.8503,0,0.000885,0,0
0:1:28.816,334.6,18.933,0,0.000885,0,0
0:1:29.015,335.538,18.9882,0,0.000885,0,0
0:1:29.208,336.535,19.0433,0,0.000885,0,0
0:1:29.409,337.536,19.0985,0,0.000885,0,0
0:1:29.610,338.18,19.1398,0,0.000885,0,0
0:1:29.815,339.35,19.2019,0,0.000885,0,0
0:1:30.015,339.644,19.2226,0,0.000885,0,0
0:1:30.215,340.934,19.2915,0,0.000885,0,0
0:1:30.416,341.463,19.326,0,0.000885,0,0
0:1:30.616,342.108,19.3605,0,0.000885,0,0
0:1:30.818,343.225,19.4225,0,0.000885,0,0
0:1:31.017,343.985,19.4639,0,0.000885,0,0
0:1:31.222,344.982,19.5191,0,0.000885,0,0
0:1:31.423,345.863,19.5742,0,0.000885,0,0
0:1:31.619,347.037,19.6363,0,0.000885,0,0
0:1:31.816,347.562,19.6707,0,0.000885,0,0
0:1:32.015,348.091,19.6983,0,0.000885,0,0
0:1:32.220,349.145,19.7604,0,0.000885,0,0
0:1:32.420,349.617,19.7811,0,0.000885,0,0
0:1:32.618,350.907,19.8569,0,0.000885,0,0
0:1:32.815,351.668,19.8983,0,0.000885,0,0
0:1:33.015,353.309,19.9948,0,0.000885,0,0
0:1:33.206,353.723,20.0155,0,0.000885,0,0
0:1:33.406,355.128,20.0982,0,0.000885,0,0
0:1:33.605,355.422,20.112,0,0.000885,0,0
0:1:33.801,356.77,20.1878,0,0.000885,0,0
0:1:34.002,356.948,20.2016,0,0.000885,0,0
0:1:34.206,358.18,20.2706,0,0.000885,0,0
0:1:34.403,358.647,20.2982,0,0.000885,0,0
0:1:34.604,359.995,20.374,0,0.000885,0,0
0:1:34.806,360.933,20.4223,0,0.000885,0,0
0:1:35.009,361.872,20.4774,0,0.000885,0,0
0:1:35.209,362.459,20.5119,0,0.000885,0,0
0:1:35.410,363.749,20.5809,0,0.000885,0,0
0:1:35.611,364.514,20.6291,0,0.000885,0,0
0:1:35.810,365.862,20.705,0,0.000885,0,0
0:1:36.011,366.507,20.7394,0,0.000885,0,0
0:1:36.208,366.565,20.7463,0,0.000885,0,0
0:1:36.405,368.033,20.8291,0,0.000885,0,0
0:1:36.606,368.5,20.8497,0,0.000885,0,0
0:1:36.800,370.025,20.9394,0,0.000885,0,0
0:1:37.001,370.612,20.9739,0,0.000885,0,0
0:1:37.197,371.257,21.0083,0,0.000885,0,0
0:1:37.393,372.432,21.0773,0,0.000885,0,0
0:1:37.594,373.25,21.1186,0,0.000885,0,0
0:1:37.789,374.309,21.1807,0,0.000885,0,0
0:1:37.990,375.305,21.2359,0,0.000885,0,0
0:1:38.186,375.95,21.2772,0,0.000885,0,0
0:1:38.383,377.005,21.3324,0,0.000885,0,0
0:1:38.583,377.65,21.3737,0,0.000885,0,0
0:1:38.778,377.77,21.3806,0,0.000885,0,0
0:1:38.978,379.291,21.4634,0,0.000885,0,0
0:1:39.175,379.411,21.4703,0,0.000885,0,0
0:1:39.371,381.052,21.5599,0,0.000885,0,0
0:1:39.572,381.582,21.5944,0,0.000885,0,0
0:1:39.773,383.223,21.684,0,0.000885,0,0
0:1:39.975,383.223,21.684,0,0.000885,0,0
0:1:40.177,384.922,21.7805,0,0.000885,0,0
0:1:40.377,385.332,21.8081,0,0.000885,0,0
0:1:40.577,386.857,21.8909,0,0.000885,0,0
0:1:40.778,386.857,21.8909,0,0.000885,0,0
0:1:40.978,388.325,21.9736,0,0.000885,0,0
0:1:41.177,388.499,21.9874,0,0.000885,0,0
0:1:41.373,389.5,22.0425,0,0.000885,0,0
0:1:41.573,390.025,22.0701,0,0.000885,0,0
0:1:41.769,391.844,22.1735,0,0.000885,0,0
0:1:41.967,391.959,22.1804,0,0.000885,0,0
0:1:42.166,393.249,22.2563,0,0.000885,0,0
0:1:42.361,393.779,22.2839,0,0.000885,0,0
0:1:42.560,394.366,22.3183,0,0.000885,0,0
0:1:42.756,396.007,22.408,0,0.000885,0,0
0:1:42.955,396.417,22.4355,0,0.000885,0,0
0:1:43.155,398.178,22.5321,0,0.000885,0,0
0:1:43.349,398.414,22.5459,0,0.000885,0,0
0:1:43.550,399.82,22.6286,0,0.000885,0,0
0:1:43.745,400.055,22.6355,0,0.000885,0,0
0:1:43.942,401.461,22.7182,0,0.000885,0,0
0:1:44.143,401.754,22.732,0,0.000885,0,0
0:1:44.338,403.044,22.8079,0,0.000885,0,0
0:1:44.537,403.574,22.8354,0,0.000885,0,0
0:1:44.736,405.1,22.9251,0,0.000885,0,0
0:1:44.940,405.567,22.9526,0,0.000885,0,0
0:1:45.140,406.977,23.0285,0,0.000885,0,0
0:1:45.342,407.328,23.0492,0,0.000885,0,0
0:1:45.542,407.973,23.0836,0,0.000885,0,0
0:1:45.743,409.672,23.1802,0,0.000885,0,0
0:1:45.942,409.672,23.1802,0,0.000885,0,0
0:1:46.143,410.847,23.2491,0,0.000885,0,0
0:1:46.341,411.14,23.2629,0,0.000885,0,0
0:1:46.538,412.43,23.3388,0,0.000885,0,0
0:1:46.737,413.133,23.3801,0,0.000885,0,0
0:1:46.932,414.423,23.4491,0,0.000885,0,0
0:1:47.133,415.01,23.4835,0,0.000885,0,0
0:1:47.330,416.358,23.5594,0,0.000885,0,0
0:1:47.528,417.123,23.6076,0,0.000885,0,0
0:1:47.728,417.884,23.649,0,0.000885,0,0
0:1:47.922,418.764,23.6973,0,0.000885,0,0
0:1:48.122,419.645,23.7455,0,0.000885,0,0
0:1:48.319,420.642,23.8007,0,0.000885,0,0
0:1:48.525,421.638,23.8628,0,0.000885,0,0
0:1:48.725,422.755,23.9248,0,0.000885,0,0
0:1:48.919,423.048,23.9386,0,0.000885,0,0
0:1:49.120,424.16,24.0007,0,0.000885,0,0
0:1:49.319,425.214,24.0627,0,0.000885,0,0
0:1:49.523,425.922,24.1041,0,0.000885,0,0
0:1:49.724,427.092,24.1661,0,0.000885,0,0
0:1:49.926,427.737,24.2075,0,0.000885,0,0
0:1:50.128,428.675,24.2558,0,0.000885,0,0
0:1:50.330,429.556,24.3109,0,0.000885,0,0
0:1:50.529,430.201,24.3454,0,0.000885,0,0
0:1:50.730,430.846,24.3799,0,0.000885,0,0
0:1:50.930,431.727,24.4281,0,0.000885,0,0
0:1:51.131,432.959,24.4971,0,0.000885,0,0
0:1:51.329,433.955,24.5591,0,0.000885,0,0
0:1:51.525,434.658,24.5936,0,0.000885,0,0
0:1:51.726,435.539,24.6488,0,0.000885,0,0
0:1:51.921,436.184,24.6832,0,0.000885,0,0
0:1:52.119,437.238,24.7453,0,0.000885,0,0
0:1:52.319,438.003,24.7867,0,0.000885,0,0
0:1:52.523,438.47,24.8142,0,0.000885,0,0
0:1:52.725,440.054,24.9039,0,0.000885,0,0
0:1:52.921,440.583,24.9314,0,0.000885,0,0
0:1:53.117,441.286,24.9728,0,0.000885,0,0
0:1:53.318,442.46,25.0349,0,0.000885,0,0
0:1:53.509,443.105,25.0762,0,0.000885,0,0
0:1:53.710,444.924,25.1797,0,0.000885,0,0
0:1:53.908,445.156,25.1934,0,0.000885,0,0
0:1:54.112,446.624,25.2762,0,0.000885,0,0
0:1:54.313,447.269,25.3107,0,0.000885,0,0
0:1:54.517,448.674,25.3865,0,0.000885,0,0
0:1:54.719,448.852,25.4003,0,0.000885,0,0
0:1:54.921,449.849,25.4554,0,0.000885,0,0
0:1:55.122,450.32,25.483,0,0.000885,0,0
0:1:55.322,451.841,25.5658,0,0.000885,0,0
0:1:55.522,452.077,25.5795,0,0.000885,0,0
0:1:55.724,453.781,25.6761,0,0.000885,0,0
0:1:55.924,454.07,25.6968,0,0.000885,0,0
0:1:56.118,455.244,25.7588,0,0.000885,0,0
0:1:56.319,456.067,25.8071,0,0.000885,0,0
0:1:56.513,456.654,25.8416,0,0.000885,0,0
0:1:56.722,457.415,25.8829,0,0.000885,0,0
0:1:56.923,458.354,25.9381,0,0.000885,0,0
0:1:57.126,459.292,25.9932,0,0.000885,0,0
0:1:57.327,460.231,26.0415,0,0.000885,0,0
0:1:57.523,461.463,26.1104,0,0.000885,0,0
0:1:57.719,461.814,26.1311,0,0.000885,0,0
0:1:57.920,462.926,26.1932,0,0.000885,0,0
0:1:58.125,463.282,26.2139,0,0.000885,0,0
0:1:58.324,464.572,26.2897,0,0.000885,0,0
0:1:58.522,465.039,26.3173,0,0.000885,0,0
0:1:58.715,466.449,26.3931,0,0.000885,0,0
0:1:58.918,467.326,26.4483,0,0.000885,0,0
0:1:59.114,468.264,26.4966,0,0.000885,0,0
0:1:59.323,469.087,26.5448,0,0.000885,0,0
0:1:59.522,469.79,26.5862,0,0.000885,0,0
0:1:59.724,470.555,26.6276,0,0.000885,0,0
0:1:59.927,471.783,26.6965,0,0.000885,0,0
0:2:0.128,472.49,26.7379,0,0.000885,0,0
0:2:0.329,473.66,26.8068,0,0.000885,0,0
0:2:0.528,474.305,26.8413,0,0.000885,0,0
0:2:0.728,475.128,26.8896,0,0.000885,0,0
0:2:0.930,475.889,26.9309,0,0.000885,0,0
0:2:1.128,476.827,26.9861,0,0.000885,0,0
0:2:1.323,477.356,27.0137,0,0.000885,0,0
0:2:1.524,478.94,27.1033,0,0.000885,0,0
0:2:1.719,479.407,27.1309,0,0.000885,0,0
0:2:1.915,481.053,27.2205,0,0.000885,0,0
0:2:2.114,481.404,27.2412,0,0.000885,0,0
0:2:2.309,482.049,27.2757,0,0.000885,0,0
0:2:2.508,482.752,27.317,0,0.000885,0,0
0:2:2.706,483.281,27.3515,0,0.000885,0,0
0:2:2.911,485.096,27.448,0,0.000885,0,0
0:2:3.112,485.332,27.4618,0,0.000885,0,0
0:2:3.306,486.858,27.5515,0,0.000885,0,0
0:2:3.506,487.387,27.579,0,0.000885,0,0
0:2:3.712,488.735,27.6549,0,0.000885,0,0
0:2:3.920,489.496,27.7031,0,0.000885,0,0
0:2:4.122,490.141,27.7376,0,0.000885,0,0
0:2:4.325,491.021,27.7859,0,0.000885,0,0
0:2:4.524,492.369,27.8617,0,0.000885,0,0
0:2:4.723,493.134,27.9031,0,0.000885,0,0
0:2:4.926,493.486,27.9238,0,0.000885,0,0
0:2:5.127,494.482,27.9789,0,0.000885,0,0
0:2:5.328,495.127,28.0203,0,0.000885,0,0
0:2:5.529,496.301,28.0823,0,0.000885,0,0
0:2:5.730,497.356,28.1444,0,0.000885,0,0
0:2:5.930,497.534,28.1513,0,0.000885,0,0
0:2:6.132,498.939,28.234,0,0.000885,0,0
0:2:6.328,499.762,28.2823,0,0.000885,0,0
0:2:6.526,501.168,28.3581,0,0.000885,0,0
0:2:6.726,501.519,28.3788,0,0.000885,0,0
0:2:6.921,503.161,28.4753,0,0.000885,0,0
0:2:7.121,503.984,28.5167,0,0.000885,0,0
0:2:7.327,504.686,28.5581,0,0.000885,0,0
0:2:7.524,505.976,28.6339,0,0.000885,0,0
0:2:7.725,506.212,28.6477,0,0.000885,0,0
0:2:7.920,507.208,28.7029,0,0.000885,0,0
0:2:8.119,507.622,28.7236,0,0.000885,0,0
0:2:8.315,508.734,28.7856,0,0.000885,0,0
0:2:8.511,509.731,28.8477,0,0.000885,0,0
0:2:8.711,510.727,28.9028,0,0.000885,0,0
0:2:8.908,511.199,28.9304,0,0.000885,0,0
0:2:9.104,512.079,28.9787,0,0.000885,0,0
0:2:9.304,513.133,29.0407,0,0.000885,0,0
0:2:9.504,514.13,29.0959,0,0.000885,0,0
0:2:9.707,514.601,29.1235,0,0.000885,0,0
0:2:9.909,516.358,29.22,0,0.000885,0,0
0:2:10.109,516.83,29.2476,0,0.000885,0,0
0:2:10.310,517.942,29.3096,0,0.000885,0,0
0:2:10.511,518.414,29.3372,0,0.000885,0,0
0:2:10.712,519.819,29.413,0,0.000885,0,0
0:2:10.909,519.877,29.4199,0,0.000885,0,0
0:2:11.106,521.109,29.4889,0,0.000885,0,0
0:2:11.307,521.812,29.5302,0,0.000885,0,0
0:2:11.510,521.99,29.5371,0,0.000885,0,0
0:2:11.710,523.809,29.6406,0,0.000885,0,0
0:2:11.909,523.983,29.6544,0,0.000885,0,0
0:2:12.112,525.508,29.7371,0,0.000885,0,0
0:2:12.313,526.625,29.7991,0,0.000885,0,0
0:2:12.520,527.559,29.8543,0,0.000885,0,0
0:2:12.719,528.266,29.8957,0,0.000885,0,0
0:2:12.916,529.027,29.937,0,0.000885,0,0
0:2:13.111,530.081,29.9991,0,0.000885,0,0
0:2:13.312,531.02,30.0474,0,0.000885,0,0
0:2:13.520,531.549,30.0818,0,0.000885,0,0
0:2:13.714,532.488,30.1301,0,0.000885,0,0
0:2:13.915,533.075,30.1646,0,0.000885,0,0
0:2:14.109,534.423,30.2404,0,0.000885,0,0
0:2:14.309,534.716,30.2611,0,0.000885,0,0
0:2:14.510,536.536,30.3645,0,0.000885,0,0
0:2:14.711,537.181,30.399,0,0.000885,0,0
0:2:14.912,538.471,30.4679,0,0.000885,0,0
0:2:15.114,539.173,30.5093,0,0.000885,0,0
0:2:15.314,539.938,30.5576,0,0.000885,0,0
0:2:15.514,540.641,30.592,0,0.000885,0,0
0:2:15.716,541.696,30.6541,0,0.000885,0,0
0:2:15.916,542.225,30.6817,0,0.000885,0,0
0:2:16.112,543.221,30.7368,0,0.000885,0,0
0:2:16.310,544.102,30.792,0,0.000885,0,0
0:2:16.509,544.978,30.8402,0,0.000885,0,0
0:2:16.703,546.153,30.9092,0,0.000885,0,0
0:2:16.904,546.446,30.923,0,0.000885,0,0
0:2:17.101,547.327,30.9712,0,0.000885,0,0
0:2:17.297,548.266,31.0264,0,0.000885,0,0
0:2:17.498,549.613,31.1023,0,0.000885,0,0
0:2:17.691,549.613,31.1023,0,0.000885,0,0
0:2:17.892,551.491,31.2057,0,0.000885,0,0
0:2:18.090,552.078,31.2401,0,0.000885,0,0
0:2:18.287,553.252,31.3091,0,0.000885,0,0
0:2:18.487,553.483,31.3229,0,0.000885,0,0
0:2:18.681,554.48,31.378,0,0.000885,0,0
0:2:18.879,555.418,31.4332,0,0.000885,0,0
0:2:19.079,556.183,31.4746,0,0.000885,0,0
0:2:19.273,557.473,31.5435,0,0.000885,0,0
0:2:19.474,558.176,31.5849,0,0.000885,0,0
0:2:19.675,559.115,31.64,0,0.000885,0,0
0:2:19.877,559.818,31.6814,0,0.000885,0,0
0:2:20.080,560.814,31.7366,0,0.000885,0,0
0:2:20.280,561.401,31.771,0,0.000885,0,0
0:2:20.482,562.811,31.8469,0,0.000885,0,0
0:2:20.680,562.927,31.8538,0,0.000885,0,0
0:2:20.881,564.51,31.9434,0,0.000885,0,0
0:2:21.082,564.746,31.9572,0,0.000885,0,0
0:2:21.278,566.272,32.0468,0,0.000885,0,0
0:2:21.476,566.623,32.0675,0,0.000885,0,0
0:2:21.675,567.856,32.1365,0,0.000885,0,0
0:2:21.868,568.029,32.1434,0,0.000885,0,0
0:2:22.069,569.377,32.2192,0,0.000885,0,0
0:2:22.267,570.258,32.2675,0,0.000885,0,0
0:2:22.463,571.138,32.3226,0,0.000885,0,0
0:2:22.663,572.019,32.3709,0,0.000885,0,0
0:2:22.857,573.015,32.426,0,0.000885,0,0
0:2:23.056,574.363,32.5019,0,0.000885,0,0
0:2:23.255,574.715,32.5226,0,0.000885,0,0
0:2:23.451,575.947,32.5915,0,0.000885,0,0
0:2:23.651,576.298,32.6122,0,0.000885,0,0
0:2:23.846,577.53,32.6811,0,0.000885,0,0
0:2:24.044,578.469,32.7363,0,0.000885,0,0
0:2:24.243,579.172,32.7777,0,0.000885,0,0
0:2:24.438,580.053,32.8259,0,0.000885,0,0
0:2:24.640,581.578,32.9087,0,0.000885,0,0
0:2:24.840,581.578,32.9087,0,0.000885,0,0
0:2:25.043,583.22,33.0052,0,0.000885,0,0
0:2:25.245,583.513,33.019,0,0.000885,0,0
0:2:25.444,585.097,33.1086,0,0.000885,0,0
0:2:25.645,585.742,33.1431,0,0.000885,0,0
0:2:25.846,586.623,33.1983,0,0.000885,0,0
0:2:26.047,587.503,33.2465,0,0.000885,0,0
0:2:26.247,588.028,33.2741,0,0.000885,0,0
0:2:26.442,588.793,33.3155,0,0.000885,0,0
0:2:26.643,589.554,33.3637,0,0.000885,0,0
0:2:26.840,590.319,33.4051,0,0.000885,0,0
0:2:27.036,590.786,33.4327,0,0.000885,0,0
0:2:27.236,592.192,33.5085,0,0.000885,0,0
0:2:27.429,592.605,33.5361,0,0.000885,0,0
0:2:27.630,594.367,33.6326,0,0.000885,0,0
0:2:27.830,594.95,33.6671,0,0.000885,0,0
0:2:28.027,596.302,33.7429,0,0.000885,0,0
0:2:28.228,596.595,33.7636,0,0.000885,0,0
0:2:28.424,597.24,33.7981,0,0.000885,0,0
0:2:28.622,598.473,33.867,0,0.000885,0,0
0:2:28.823,599.238,33.9084,0,0.000885,0,0
0:2:29.017,600.061,33.9567,0,0.000885,0,0
0:2:29.218,601.173,34.0187,0,0.000885,0,0
0:2:29.423,602.405,34.0877,0,0.000885,0,0
0:2:29.626,602.347,34.0877,0,0.000885,0,0
0:2:29.828,603.931,34.1773,0,0.000885,0,0
0:2:30.029,604.224,34.1911,0,0.000885,0,0
0:2:30.230,605.399,34.26,0,0.000885,0,0
0:2:30.432,606.106,34.3014,0,0.000885,0,0
0:2:30.634,607.28,34.3635,0,0.000885,0,0
0:2:30.835,607.805,34.3979,0,0.000885,0,0
0:2:31.030,609.215,34.4738,0,0.000885,0,0
0:2:31.231,609.744,34.5014,0,0.000885,0,0
0:2:31.427,610.977,34.5772,0,0.000885,0,0
0:2:31.626,612.151,34.6393,0,0.000885,0,0
0:2:31.828,613.21,34.7013,0,0.000885,0,0
0:2:32.022,613.619,34.722,0,0.000885,0,0
0:2:32.225,614.967,34.7978,0,0.000885,0,0
0:2:32.421,615.554,34.8323,0,0.000885,0,0
0:2:32.629,616.786,34.9013,0,0.000885,0,0
0:2:32.829,617.551,34.9495,0,0.000885,0,0
0:2:33.025,617.845,34.9633,0,0.000885,0,0
0:2:33.227,618.725,35.0116,0,0.000885,0,0
0:2:33.423,619.548,35.0598,0,0.000885,0,0
0:2:33.619,620.545,35.115,0,0.000885,0,0
0:2:33.823,621.074,35.1426,0,0.000885,0,0
0:2:34.017,622.128,35.2046,0,0.000885,0,0
0:2:34.218,622.6,35.2322,0,0.000885,0,0
0:2:34.419,623.89,35.3081,0,0.000885,0,0
0:2:34.625,624.948,35.3632,0,0.000885,0,0
0:2:34.828,626.061,35.4253,0,0.000885,0,0
0:2:35.030,626.416,35.4459,0,0.000885,0,0
0:2:35.230,628,35.5356,0,0.000885,0,0
0:2:35.431,628.529,35.5701,0,0.000885,0,0
0:2:35.633,629.583,35.6252,0,0.000885,0,0
0:2:35.834,630.349,35.6735,0,0.000885,0,0
0:2:36.029,631.345,35.7286,0,0.000885,0,0
0:2:36.229,631.403,35.7286,0,0.000885,0,0
0:2:36.429,633.106,35.8252,0,0.000885,0,0
0:2:36.624,633.516,35.8527,0,0.000885,0,0
0:2:36.827,634.984,35.9355,0,0.000885,0,0
0:2:37.022,635.335,35.9562,0,0.000885,0,0
0:2:37.222,636.629,36.0251,0,0.000885,0,0
0:2:37.424,637.097,36.0527,0,0.000885,0,0
0:2:37.617,637.977,36.1009,0,0.000885,0,0
0:2:37.818,639.33,36.1768,0,0.000885,0,0
0:2:38.015,639.387,36.1837,0,0.000885,0,0
0:2:38.213,640.913,36.2664,0,0.000885,0,0
0:2:38.414,641.852,36.3216,0,0.000885,0,0
0:2:38.609,642.732,36.3698,0,0.000885,0,0
0:2:38.810,643.729,36.425,0,0.000885,0,0
0:2:39.008,644.378,36.4664,0,0.000885,0,0
0:2:39.205,645.197,36.5077,0,0.000885,0,0
0:2:39.407,646.198,36.5698,0,0.000885,0,0
0:2:39.609,647.194,36.625,0,0.000885,0,0
0:2:39.813,648.368,36.687,0,0.000885,0,0
0:2:40.015,648.72,36.7077,0,0.000885,0,0
0:2:40.216,650.01,36.7835,0,0.000885,0,0
0:2:40.417,650.659,36.818,0,0.000885,0,0
0:2:40.619,651.184,36.8525,0,0.000885,0,0
0:2:40.823,651.891,36.887,0,0.000885,0,0
0:2:41.023,653.533,36.9835,0,0.000885,0,0
0:2:41.217,654.298,37.0248,0,0.000885,0,0
0:2:41.420,654.885,37.0593,0,0.000885,0,0
0:2:41.616,656.233,37.1352,0,0.000885,0,0
0:2:41.817,657.114,37.1834,0,0.000885,0,0
0:2:42.014,657.527,37.211,0,0.000885,0,0
0:2:42.223,658.991,37.2937,0,0.000885,0,0
0:2:42.424,659.756,37.3351,0,0.000885,0,0
0:2:42.629,660.988,37.4041,0,0.000885,0,0
0:2:42.829,661.402,37.4247,0,0.000885,0,0
0:2:43.028,661.517,37.4316,0,0.000885,0,0
0:2:43.226,663.452,37.542,0,0.000885,0,0
0:2:43.427,663.688,37.5557,0,0.000885,0,0
0:2:43.623,664.747,37.6178,0,0.000885,0,0
0:2:43.823,665.334,37.6523,0,0.000885,0,0
0:2:44.020,666.682,37.7281,0,0.000885,0,0
0:2:44.216,667.562,37.7764,0,0.000885,0,0
0:2:44.418,668.092,37.804,0,0.000885,0,0
0:2:44.620,668.915,37.8522,0,0.000885,0,0
0:2:44.826,670.44,37.9418,0,0.000885,0,0
0:2:45.028,671.028,37.9694,0,0.000885,0,0
0:2:45.230,671.73,38.0108,0,0.000885,0,0
0:2:45.431,672.553,38.0591,0,0.000885,0,0
0:2:45.632,673.665,38.1211,0,0.000885,0,0
0:2:45.833,674.315,38.1556,0,0.000885,0,0
0:2:46.035,675.783,38.2383,0,0.000885,0,0
0:2:46.230,676.014,38.2521,0,0.000885,0,0
0:2:46.432,677.188,38.3211,0,0.000885,0,0
0:2:46.627,678.011,38.3693,0,0.000885,0,0
0:2:46.827,678.892,38.4176,0,0.000885,0,0
0:2:47.029,679.653,38.459,0,0.000885,0,0
0:2:47.223,680.533,38.5072,0,0.000885,0,0
0:2:47.425,681.708,38.5762,0,0.000885,0,0
0:2:47.620,681.944,38.59,0,0.000885,0,0
0:2:47.819,683.411,38.6727,0,0.000885,0,0
0:2:48.023,684.114,38.7141,0,0.000885,0,0
0:2:48.217,685.289,38.7761,0,0.000885,0,0
0:2:48.417,685.702,38.8037,0,0.000885,0,0
0:2:48.615,687.05,38.8795,0,0.000885,0,0
0:2:48.812,687.228,38.8864,0,0.000885,0,0
0:2:49.013,688.46,38.9623,0,0.000885,0,0
0:2:49.210,689.163,38.9967,0,0.000885,0,0
0:2:49.410,690.573,39.0795,0,0.000885,0,0
0:2:49.611,691.218,39.114,0,0.000885,0,0
0:2:49.815,692.214,39.1691,0,0.000885,0,0
0:2:50.017,692.57,39.1898,0,0.000885,0,0
0:2:50.219,694.154,39.2794,0,0.000885,0,0
0:2:50.421,694.683,39.3139,0,0.000885,0,0
0:2:50.624,695.858,39.376,0,0.000885,0,0
0:2:50.824,696.151,39.3966,0,0.000885,0,0
0:2:51.027,697.09,39.4449,0,0.000885,0,0
0:2:51.224,697.615,39.4794,0,0.000885,0,0
0:2:51.423,698.789,39.5414,0,0.000885,0,0
0:2:51.620,699.905,39.6035,0,0.000885,0,0
0:2:51.815,700.55,39.6449,0,0.000885,0,0
0:2:52.017,702.018,39.7276,0,0.000885,0,0
0:2:52.215,702.783,39.769,0,0.000885,0,0
0:2:52.413,704.309,39.8586,0,0.000885,0,0
0:2:52.613,704.839,39.8862,0,0.000885,0,0
0:2:52.807,705.777,39.9413,0,0.000885,0,0
0:2:53.009,706.48,39.9758,0,0.000885,0,0
0:2:53.209,707.539,40.0379,0,0.000885,0,0
0:2:53.406,708.419,40.0861,0,0.000885,0,0
0:2:53.607,711.88,40.2861,0,0.000885,0,0
0:2:53.802,712.116,40.2999,0,0.000885,0,0
0:2:54.003,712.819,40.3343,0,0.000885,0,0
0:2:54.201,712.645,40.3274,0,0.000885,0,0
0:2:54.398,712.645,40.3274,0,0.000885,0,0
0:2:54.599,712.761,40.3343,0,0.000885,0,0
0:2:54.801,713.348,40.3688,0,0.000885,0,0
0:2:55.005,713.935,40.4033,0,0.000885,0,0
0:2:55.208,713.584,40.3826,0,0.000885,0,0
0:2:55.409,715.461,40.486,0,0.000885,0,0
0:2:55.610,716.226,40.5274,0,0.000885,0,0
0:2:55.811,717.925,40.6239,0,0.000885,0,0
0:2:56.012,718.219,40.6446,0,0.000885,0,0
0:2:56.213,719.157,40.6929,0,0.000885,0,0
0:2:56.408,720.274,40.7618,0,0.000885,0,0
0:2:56.609,721.333,40.817,0,0.000885,0,0
0:2:56.807,722.329,40.8721,0,0.000885,0,0
0:2:57.004,723.619,40.948,0,0.000885,0,0
0:2:57.205,724.442,40.9962,0,0.000885,0,0
0:2:57.401,725.38,41.0514,0,0.000885,0,0
0:2:57.603,726.439,41.1065,0,0.000885,0,0
0:2:57.802,727.435,41.1617,0,0.000885,0,0
0:2:57.998,727.907,41.1893,0,0.000885,0,0
0:2:58.200,729.313,41.272,0,0.000885,0,0
0:2:58.395,730.371,41.3272,0,0.000885,0,0
0:2:58.595,731.488,41.3961,0,0.000885,0,0
0:2:58.796,731.603,41.403,0,0.000885,0,0
0:2:58.992,732.484,41.4513,0,0.000885,0,0
0:2:59.193,733.832,41.5271,0,0.000885,0,0
0:2:59.394,734.246,41.5478,0,0.000885,0,0
0:2:59.598,735.771,41.6374,0,0.000885,0,0
0:2:59.801,736.007,41.6512,0,0.000885,0,0
0:3:0.003,736.826,41.6926,0,0.000885,0,0
0:3:0.204,737.475,41.734,0,0.000885,0,0
0:3:0.405,738.707,41.8029,0,0.000885,0,0
0:3:0.606,738.707,41.8029,0,0.000885,0,0
0:3:0.806,740.233,41.8857,0,0.000885,0,0
0:3:1.012,740.878,41.927,0,0.000885,0,0
0:3:1.213,742.23,42.0029,0,0.000885,0,0
0:3:1.420,742.639,42.0235,0,0.000885,0,0
0:3:1.616,743.929,42.0994,0,0.000885,0,0
0:3:1.818,744.637,42.1408,0,0.000885,0,0
0:3:2.015,745.455,42.1821,0,0.000885,0,0
0:3:2.214,746.514,42.2442,0,0.000885,0,0
0:3:2.413,747.63,42.3062,0,0.000885,0,0
0:3:2.607,747.982,42.3269,0,0.000885,0,0
0:3:2.810,749.156,42.3959,0,0.000885,0,0
0:3:3.008,749.508,42.4165,0,0.000885,0,0
0:3:3.207,750.855,42.4924,0,0.000885,0,0
0:3:3.406,751.327,42.5131,0,0.000885,0,0
0:3:3.602,752.501,42.582,0,0.000885,0,0
0:3:3.803,752.853,42.6027,0,0.000885,0,0
0:3:4.001,753.204,42.6234,0,0.000885,0,0
0:3:4.199,754.205,42.6785,0,0.000885,0,0
0:3:4.400,754.498,42.6923,0,0.000885,0,0
0:3:4.603,755.846,42.7751,0,0.000885,0,0
0:3:4.805,756.376,42.8027,0,0.000885,0,0
0:3:5.008,757.199,42.8509,0,0.000885,0,0
0:3:5.210,757.959,42.8923,0,0.000885,0,0
0:3:5.410,758.368,42.913,0,0.000885,0,0
0:3:5.610,758.782,42.9405,0,0.000885,0,0
0:3:5.812,759.133,42.9612,0,0.000885,0,0
0:3:6.011,759.485,42.975,0,0.000885,0,0
0:3:6.207,759.485,42.975,0,0.000885,0,0
0:3:6.409,759.427,42.975,0,0.000885,0,0
0:3:6.604,758.075,42.8992,0,0.000885,0,0
0:3:6.802,757.256,42.8509,0,0.000885,0,0
0:3:7.002,752.968,42.6096,0,0.000885,0,0
0:3:7.198,749.565,42.4165,0,0.000885,0,0
0:3:7.398,740.762,41.9201,0,0.000885,0,0
0:3:7.594,733.832,41.5271,0,0.000885,0,0
0:3:7.791,711.529,40.2654,0,0.000885,0,0
0:3:7.993,696.97,39.438,0,0.000885,0,0
0:3:8.188,676.601,38.2866,0,0.000885,0,0
0:3:8.388,624.655,35.3494,0,0.000885,0,0
0:3:8.586,587.797,33.2603,0,0.000885,0,0
0:3:8.780,533.956,30.2128,0,0.000885,0,0
0:3:8.871,533.956,30.2128,0,0.000885,0,0