File: DataFile2021-07-15_074907.csv
Test ID:,Date Tested:,Time:,Test Type:,Diameter Avg. (mm):,Cyl. Corr. Factor:,Height (mm):,Age (days):,Weight (kN):,Break Type:,Ramp Rate (MPa/s):,Load at Break (kN):,Stress at Break (MPa):
12,7/15/2021,07:49,Cylinder,100,1,200,0,3.6,3,0.25,1564.35,199.18
Sample Time,Load (kN),Stress (MPa),Long. Strain,Trans. Strain,Chan1 Deflection (mm),Chan2 Deflection (mm)
0:0:5.892,6.09851,0.779108,0,0.000885,0,0
0:0:6.584,6.15634,0.786002,0,0.000885,0,0
0:0:7.306,8.03349,1.02042,0,0.000885,0,0
0:0:7.994,8.79858,1.11695,0,0.000885,0,0
0:0:8.704,10.3243,1.3169,0,0.000885,0,0
0:0:9.400,12.2593,1.55822,0,0.000885,0,0
0:0:10.104,13.2557,1.68922,0,0.000885,0,0
0:0:10.810,14.6035,1.86158,0,0.000885,0,0
0:0:11.509,15.2485,1.94432,0,0.000885,0,0
0:0:12.219,17.5349,2.2339,0,0.000885,0,0
0:0:12.925,18.8871,2.40627,0,0.000885,0,0
0:0:13.619,19.7634,2.51659,0,0.000885,0,0
0:0:14.314,21.5828,2.75101,0,0.000885,0,0
0:0:15.014,22.637,2.88201,0,0.000885,0,0
0:0:15.709,24.1627,3.07506,0,0.000885,0,0
0:0:16.406,25.9821,3.30948,0,0.000885,0,0
0:0:17.115,27.2142,3.46806,0,0.000885,0,0
0:0:17.820,28.6199,3.64733,0,0.000885,0,0
0:0:18.520,29.7942,3.79212,0,0.000885,0,0
0:0:19.217,31.1998,3.97138,0,0.000885,0,0
0:0:19.911,33.077,4.2127,0,0.000885,0,0
0:0:20.610,34.4871,4.39196,0,0.000885,0,0
0:0:21.310,35.8927,4.57122,0,0.000885,0,0
0:0:22.020,37.1827,4.7367,0,0.000885,0,0
0:0:22.728,38.4148,4.88838,0,0.000885,0,0
0:0:23.424,40.4699,5.15038,0,0.000885,0,0
0:0:24.120,41.582,5.29517,0,0.000885,0,0
0:0:24.817,42.1691,5.37102,0,0.000885,0,0
0:0:25.510,43.3435,5.51581,0,0.000885,0,0
0:0:26.209,44.927,5.72265,0,0.000885,0,0
0:0:26.918,46.7464,5.95018,0,0.000885,0,0
0:0:27.624,48.3299,6.15012,0,0.000885,0,0
0:0:28.323,48.9126,6.22597,0,0.000885,0,0
0:0:29.018,50.5585,6.4397,0,0.000885,0,0
0:0:29.714,52.1421,6.63965,0,0.000885,0,0
0:0:30.412,53.1963,6.77065,0,0.000885,0,0
0:0:31.106,54.3706,6.92234,0,0.000885,0,0
0:0:31.822,56.012,7.12918,0,0.000885,0,0
0:0:32.530,57.947,7.37739,0,0.000885,0,0
0:0:33.230,59.059,7.52218,0,0.000885,0,0
0:0:33.930,60.4113,7.69455,0,0.000885,0,0
0:0:34.628,61.5234,7.83244,0,0.000885,0,0
0:0:35.320,63.2848,8.05997,0,0.000885,0,0
0:0:36.021,64.6905,8.23923,0,0.000885,0,0
0:0:36.733,66.0383,8.4116,0,0.000885,0,0
0:0:37.438,66.8612,8.51503,0,0.000885,0,0
0:0:38.139,68.1512,8.6805,0,0.000885,0,0
0:0:38.831,70.0862,8.92182,0,0.000885,0,0
0:0:39.528,71.4384,9.09418,0,0.000885,0,0
0:0:40.228,72.9019,9.28034,0,0.000885,0,0
0:0:40.918,74.0184,9.42513,0,0.000885,0,0
0:0:41.627,75.0726,9.55613,0,0.000885,0,0
0:0:42.334,76.5984,9.75608,0,0.000885,0,0
0:0:43.034,78.3554,9.97671,0,0.000885,0,0
0:0:43.733,79.8812,10.1698,0,0.000885,0,0
0:0:44.430,80.7619,10.2801,0,0.000885,0,0
0:0:45.122,82.4033,10.4938,0,0.000885,0,0
0:0:45.822,83.8134,10.6731,0,0.000885,0,0
0:0:46.520,85.1034,10.8386,0,0.000885,0,0
0:0:47.231,86.5668,11.0247,0,0.000885,0,0
0:0:47.938,87.8568,11.1833,0,0.000885,0,0
0:0:48.632,88.8577,11.3143,0,0.000885,0,0
0:0:49.326,90.5569,11.528,0,0.000885,0,0
0:0:50.026,92.3139,11.7556,0,0.000885,0,0
0:0:50.718,93.1369,11.859,0,0.000885,0,0
0:0:51.415,94.3112,12.0107,0,0.000885,0,0
0:0:52.124,96.4819,12.2865,0,0.000885,0,0
0:0:52.830,97.3004,12.3899,0,0.000885,0,0
0:0:53.530,98.5904,12.5554,0,0.000885,0,0
0:0:54.227,100,12.7346,0,0.000885,0,0
0:0:54.919,101.406,12.9139,0,0.000885,0,0
0:0:55.618,102.932,13.1069,0,0.000885,0,0
0:0:56.319,104.573,13.3138,0,0.000885,0,0
0:0:57.028,105.396,13.4172,0,0.000885,0,0
0:0:57.734,106.744,13.5896,0,0.000885,0,0
0:0:58.425,107.976,13.7481,0,0.000885,0,0
0:0:59.122,109.324,13.9205,0,0.000885,0,0
0:0:59.819,111.379,14.1825,0,0.000885,0,0
0:1:0.512,112.318,14.2997,0,0.000885,0,0
0:1:1.218,114.368,14.5617,0,0.000885,0,0
0:1:1.930,115.543,14.7134,0,0.000885,0,0
0:1:2.634,116.597,14.8444,0,0.000885,0,0
0:1:3.334,118.123,15.0375,0,0.000885,0,0
0:1:4.028,119.528,15.2167,0,0.000885,0,0
0:1:4.722,120.702,15.3684,0,0.000885,0,0
0:1:5.420,121.935,15.527,0,0.000885,0,0
0:1:6.114,123.109,15.6718,0,0.000885,0,0
0:1:6.819,124.75,15.8855,0,0.000885,0,0
0:1:7.530,126.214,16.0717,0,0.000885,0,0
0:1:8.230,127.508,16.2372,0,0.000885,0,0
0:1:8.929,129.03,16.4302,0,0.000885,0,0
0:1:9.625,130.382,16.6026,0,0.000885,0,0
0:1:10.318,131.61,16.7543,0,0.000885,0,0
0:1:11.019,133.077,16.9473,0,0.000885,0,0
0:1:11.729,134.545,17.1335,0,0.000885,0,0
0:1:12.434,136.187,17.3403,0,0.000885,0,0
0:1:13.133,137.419,17.4989,0,0.000885,0,0
0:1:13.827,138.531,17.6368,0,0.000885,0,0
0:1:14.523,139.999,17.8229,0,0.000885,0,0
0:1:15.222,141.347,17.9953,0,0.000885,0,0
0:1:15.916,142.988,18.2091,0,0.000885,0,0
0:1:16.621,144.34,18.3745,0,0.000885,0,0
0:1:17.329,145.982,18.5883,0,0.000885,0,0
0:1:18.029,146.862,18.6986,0,0.000885,0,0
0:1:18.728,147.917,18.8365,0,0.000885,0,0
0:1:19.425,149.558,19.0433,0,0.000885,0,0
0:1:20.118,150.906,19.2157,0,0.000885,0,0
0:1:20.818,152.903,19.4708,0,0.000885,0,0
0:1:21.517,154.251,19.6432,0,0.000885,0,0
0:1:22.226,155.19,19.7604,0,0.000885,0,0
0:1:22.934,156.715,19.9534,0,0.000885,0,0
0:1:23.629,157.885,20.1051,0,0.000885,0,0
0:1:24.324,158.944,20.2361,0,0.000885,0,0
0:1:25.024,160.407,20.4223,0,0.000885,0,0
0:1:25.719,161.933,20.6153,0,0.000885,0,0
0:1:26.414,163.695,20.8429,0,0.000885,0,0
0:1:27.122,164.633,20.9601,0,0.000885,0,0
0:1:27.830,166.39,21.1876,0,0.000885,0,0
0:1:28.529,167.622,21.3393,0,0.000885,0,0
0:1:29.224,168.387,21.4427,0,0.000885,0,0
0:1:29.919,170.087,21.6564,0,0.000885,0,0
0:1:30.619,172.022,21.9046,0,0.000885,0,0
0:1:31.317,173.312,22.0701,0,0.000885,0,0
0:1:32.028,174.428,22.208,0,0.000885,0,0
0:1:32.734,175.66,22.3666,0,0.000885,0,0
0:1:33.427,176.888,22.5252,0,0.000885,0,0
0:1:34.123,178.534,22.732,0,0.000885,0,0
0:1:34.822,179.939,22.9113,0,0.000885,0,0
0:1:35.515,180.878,23.0285,0,0.000885,0,0
0:1:36.221,182.813,23.2767,0,0.000885,0,0
0:1:36.932,183.752,23.3939,0,0.000885,0,0
0:1:37.638,185.393,23.6076,0,0.000885,0,0
0:1:38.338,187.097,23.8214,0,0.000885,0,0
0:1:39.035,188.329,23.98,0,0.000885,0,0
0:1:39.729,189.85,24.173,0,0.000885,0,0
0:1:40.426,190.967,24.3178,0,0.000885,0,0
0:1:41.121,192.079,24.4557,0,0.000885,0,0
0:1:41.822,193.253,24.6074,0,0.000885,0,0
0:1:42.523,194.837,24.8073,0,0.000885,0,0
0:1:43.220,195.953,24.9521,0,0.000885,0,0
0:1:43.915,198.413,25.2624,0,0.000885,0,0
0:1:44.617,199.472,25.4003,0,0.000885,0,0
0:1:45.315,200.704,25.552,0,0.000885,0,0
0:1:46.018,202.109,25.7312,0,0.000885,0,0
0:1:46.723,203.284,25.8829,0,0.000885,0,0
0:1:47.424,204.454,26.0346,0,0.000885,0,0
0:1:48.115,205.806,26.207,0,0.000885,0,0
0:1:48.817,207.154,26.3724,0,0.000885,0,0
0:1:49.516,208.679,26.5724,0,0.000885,0,0
0:1:50.219,210.205,26.7654,0,0.000885,0,0
0:1:50.918,211.024,26.8689,0,0.000885,0,0
0:1:51.618,212.665,27.0757,0,0.000885,0,0
0:1:52.320,214.6,27.3239,0,0.000885,0,0
0:1:53.015,215.774,27.4756,0,0.000885,0,0
0:1:53.719,217.651,27.71,0,0.000885,0,0
0:1:54.420,218.474,27.8135,0,0.000885,0,0
0:1:55.115,218.884,27.8686,0,0.000885,0,0
0:1:55.820,220.645,28.0961,0,0.000885,0,0
0:1:56.524,221.935,28.2547,0,0.000885,0,0
0:1:57.228,223.812,28.496,0,0.000885,0,0
0:1:57.931,225.511,28.7098,0,0.000885,0,0
0:1:58.619,226.744,28.8683,0,0.000885,0,0
0:1:59.319,227.74,28.9993,0,0.000885,0,0
0:2:0.023,229.617,29.2338,0,0.000885,0,0
0:2:0.720,230.729,29.3786,0,0.000885,0,0
0:2:1.422,232.255,29.5716,0,0.000885,0,0
0:2:2.126,233.665,29.7509,0,0.000885,0,0
0:2:2.828,234.955,29.9164,0,0.000885,0,0
0:2:3.521,236.009,30.0474,0,0.000885,0,0
0:2:4.211,237.477,30.2335,0,0.000885,0,0
0:2:4.920,239.119,30.4472,0,0.000885,0,0
0:2:5.624,240.587,30.6334,0,0.000885,0,0
0:2:6.317,241.992,30.8127,0,0.000885,0,0
0:2:7.022,243.224,30.9712,0,0.000885,0,0
0:2:7.724,244.221,31.0954,0,0.000885,0,0
0:2:8.421,245.217,31.2195,0,0.000885,0,0
0:2:9.124,246.801,31.4263,0,0.000885,0,0
0:2:9.816,248.678,31.6607,0,0.000885,0,0
0:2:10.513,249.852,31.8124,0,0.000885,0,0
0:2:11.220,251.258,31.9917,0,0.000885,0,0
0:2:11.923,252.961,32.2054,0,0.000885,0,0
0:2:12.625,254.016,32.3433,0,0.000885,0,0
0:2:13.317,255.248,32.5019,0,0.000885,0,0
0:2:14.025,257.125,32.7363,0,0.000885,0,0
0:2:14.720,258.415,32.9018,0,0.000885,0,0
0:2:15.419,259.233,33.0052,0,0.000885,0,0
0:2:16.118,260.879,33.2189,0,0.000885,0,0
0:2:16.823,262.814,33.4603,0,0.000885,0,0
0:2:17.523,263.517,33.5499,0,0.000885,0,0
0:2:18.219,264.807,33.7154,0,0.000885,0,0
0:2:18.919,265.803,33.8464,0,0.000885,0,0
0:2:19.617,267.796,34.0946,0,0.000885,0,0
0:2:20.322,269.322,34.2945,0,0.000885,0,0
0:2:21.022,270.439,34.4324,0,0.000885,0,0
0:2:21.724,271.964,34.6255,0,0.000885,0,0
0:2:22.426,273.254,34.7909,0,0.000885,0,0
0:2:23.122,274.66,34.9702,0,0.000885,0,0
0:2:23.826,276.07,35.1495,0,0.000885,0,0
0:2:24.517,277.476,35.3287,0,0.000885,0,0
0:2:25.225,279.175,35.5425,0,0.000885,0,0
0:2:25.919,280.465,35.7079,0,0.000885,0,0
0:2:26.622,281.933,35.8941,0,0.000885,0,0
0:2:27.326,282.929,36.0251,0,0.000885,0,0
0:2:28.029,284.161,36.1837,0,0.000885,0,0
0:2:28.725,285.745,36.3836,0,0.000885,0,0
0:2:29.420,286.919,36.5284,0,0.000885,0,0
0:2:30.121,288.325,36.7077,0,0.000885,0,0
0:2:30.821,289.321,36.8387,0,0.000885,0,0
0:2:31.525,291.67,37.1352,0,0.000885,0,0
0:2:32.230,292.315,37.2179,0,0.000885,0,0
0:2:32.930,294.014,37.4385,0,0.000885,0,0
0:2:33.633,295.482,37.6247,0,0.000885,0,0
0:2:34.320,296.127,37.7005,0,0.000885,0,0
0:2:35.024,297.711,37.9074,0,0.000885,0,0
0:2:35.723,299.823,38.1763,0,0.000885,0,0
0:2:36.422,301.051,38.328,0,0.000885,0,0
0:2:37.125,302.168,38.4727,0,0.000885,0,0
0:2:37.820,303.28,38.6175,0,0.000885,0,0
0:2:38.520,304.863,38.8175,0,0.000885,0,0
0:2:39.223,306.683,39.045,0,0.000885,0,0
0:2:39.921,308.208,39.245,0,0.000885,0,0
0:2:40.623,308.675,39.3001,0,0.000885,0,0
0:2:41.325,310.437,39.5276,0,0.000885,0,0
0:2:42.030,311.905,39.7138,0,0.000885,0,0
0:2:42.730,312.665,39.8103,0,0.000885,0,0
0:2:43.422,313.782,39.9551,0,0.000885,0,0
0:2:44.121,316.304,40.2723,0,0.000885,0,0
0:2:44.825,317.768,40.4584,0,0.000885,0,0
0:2:45.525,318.591,40.5619,0,0.000885,0,0
0:2:46.223,319.529,40.686,0,0.000885,0,0
0:2:46.930,321.406,40.9204,0,0.000885,0,0
0:2:47.627,322.99,41.1272,0,0.000885,0,0
0:2:48.321,323.986,41.2513,0,0.000885,0,0
0:2:49.025,325.921,41.4995,0,0.000885,0,0
0:2:49.722,326.566,41.5823,0,0.000885,0,0
0:2:50.425,328.559,41.8305,0,0.000885,0,0
0:2:51.126,329.618,41.9684,0,0.000885,0,0
0:2:51.835,331.49,42.2097,0,0.000885,0,0
0:2:52.537,333.074,42.4097,0,0.000885,0,0
0:2:53.235,333.723,42.4924,0,0.000885,0,0
0:2:53.925,335.187,42.6785,0,0.000885,0,0
0:2:54.626,335.832,42.7613,0,0.000885,0,0
0:2:55.326,337.887,43.0233,0,0.000885,0,0
0:2:56.026,339.408,43.2163,0,0.000885,0,0
0:2:56.730,340.347,43.3335,0,0.000885,0,0
0:2:57.430,341.993,43.5404,0,0.000885,0,0
0:2:58.124,343.75,43.7679,0,0.000885,0,0
0:2:58.826,345.097,43.9403,0,0.000885,0,0
0:2:59.523,346.098,44.0644,0,0.000885,0,0
0:3:0.228,347.037,44.1885,0,0.000885,0,0
0:3:0.926,349.203,44.4643,0,0.000885,0,0
0:3:1.625,349.79,44.5401,0,0.000885,0,0
0:3:2.329,351.374,44.7401,0,0.000885,0,0
0:3:3.025,352.606,44.8987,0,0.000885,0,0
0:3:3.727,355.013,45.202,0,0.000885,0,0
0:3:4.429,356.067,45.333,0,0.000885,0,0
0:3:5.129,357.183,45.4778,0,0.000885,0,0
0:3:5.830,358.647,45.664,0,0.000885,0,0
0:3:6.522,359.879,45.8226,0,0.000885,0,0
0:3:7.226,361.872,46.0777,0,0.000885,0,0
0:3:7.929,363.224,46.25,0,0.000885,0,0
0:3:8.629,364.336,46.3879,0,0.000885,0,0
0:3:9.325,365.804,46.5741,0,0.000885,0,0
0:3:10.032,366.622,46.6775,0,0.000885,0,0
0:3:10.730,367.797,46.8292,0,0.000885,0,0
0:3:11.431,369.496,47.0429,0,0.000885,0,0
0:3:12.132,370.67,47.1946,0,0.000885,0,0
0:3:12.826,372.312,47.4015,0,0.000885,0,0
0:3:13.527,373.37,47.5394,0,0.000885,0,0
0:3:14.231,375.127,47.76,0,0.000885,0,0
0:3:14.929,376.186,47.8979,0,0.000885,0,0
0:3:15.630,377.356,48.0496,0,0.000885,0,0
0:3:16.320,379.705,48.346,0,0.000885,0,0
0:3:17.026,380.759,48.477,0,0.000885,0,0
0:3:17.727,382.342,48.6839,0,0.000885,0,0
0:3:18.428,382.752,48.7321,0,0.000885,0,0
0:3:19.124,384.807,48.9941,0,0.000885,0,0
0:3:19.829,385.981,49.1458,0,0.000885,0,0
0:3:20.527,387.622,49.3527,0,0.000885,0,0
0:3:21.236,388.735,49.4975,0,0.000885,0,0
0:3:21.942,389.967,49.6491,0,0.000885,0,0
0:3:22.641,391.435,49.8422,0,0.000885,0,0
0:3:23.335,392.84,50.0215,0,0.000885,0,0
0:3:24.029,394.602,50.2421,0,0.000885,0,0
0:3:24.726,395.305,50.3317,0,0.000885,0,0
0:3:25.429,397.124,50.5661,0,0.000885,0,0
0:3:26.131,398.765,50.773,0,0.000885,0,0
0:3:26.827,398.939,50.7937,0,0.000885,0,0
0:3:27.529,401.581,51.1315,0,0.000885,0,0
0:3:28.226,402.577,51.2556,0,0.000885,0,0
0:3:28.924,404.103,51.4487,0,0.000885,0,0
0:3:29.627,405.157,51.5866,0,0.000885,0,0
0:3:30.327,406.563,51.7658,0,0.000885,0,0
0:3:31.027,408.325,51.9865,0,0.000885,0,0
0:3:31.730,409.672,52.1588,0,0.000885,0,0
0:3:32.431,411.025,52.3312,0,0.000885,0,0
0:3:33.135,411.901,52.4484,0,0.000885,0,0
0:3:33.826,413.836,52.6897,0,0.000885,0,0
0:3:34.533,414.365,52.7587,0,0.000885,0,0
0:3:35.226,416.242,53,0,0.000885,0,0
0:3:35.927,417.59,53.1724,0,0.000885,0,0
0:3:36.624,419.525,53.4137,0,0.000885,0,0
0:3:37.327,420.17,53.4964,0,0.000885,0,0
0:3:38.034,422.047,53.7377,0,0.000885,0,0
0:3:38.720,422.928,53.8481,0,0.000885,0,0
0:3:39.423,423.867,53.9653,0,0.000885,0,0
0:3:40.134,425.859,54.2204,0,0.000885,0,0
0:3:40.826,427.269,54.3996,0,0.000885,0,0
0:3:41.529,428.324,54.5375,0,0.000885,0,0
0:3:42.232,430.317,54.7926,0,0.000885,0,0
0:3:42.934,431.082,54.8892,0,0.000885,0,0
0:3:43.626,433.132,55.1512,0,0.000885,0,0
0:3:44.334,433.955,55.2546,0,0.000885,0,0
0:3:45.026,435.187,55.4063,0,0.000885,0,0
0:3:45.726,436.829,55.62,0,0.000885,0,0
0:3:46.426,437.825,55.7441,0,0.000885,0,0
0:3:47.127,439.938,56.013,0,0.000885,0,0
0:3:47.834,440.756,56.1164,0,0.000885,0,0
0:3:48.534,442.812,56.3784,0,0.000885,0,0
0:3:49.226,442.869,56.3853,0,0.000885,0,0
0:3:49.934,445.156,56.6818,0,0.000885,0,0
0:3:50.626,446.33,56.8266,0,0.000885,0,0
0:3:51.329,448.265,57.0748,0,0.000885,0,0
0:3:52.032,449.733,57.261,0,0.000885,0,0
0:3:52.733,450.551,57.3644,0,0.000885,0,0
0:3:53.434,451.548,57.4954,0,0.000885,0,0
0:3:54.131,452.9,57.6677,0,0.000885,0,0
0:3:54.835,454.951,57.9229,0,0.000885,0,0
0:3:55.522,455.947,58.0539,0,0.000885,0,0
0:3:56.234,458.176,58.3365,0,0.000885,0,0
0:3:56.939,458.647,58.3986,0,0.000885,0,0
0:3:57.639,460.876,58.6813,0,0.000885,0,0
0:3:58.331,461.343,58.7433,0,0.000885,0,0
0:3:59.035,462.869,58.9364,0,0.000885,0,0
0:3:59.732,464.804,59.1777,0,0.000885,0,0
0:4:0.434,465.511,59.2673,0,0.000885,0,0
0:4:1.136,466.916,59.4466,0,0.000885,0,0
0:4:1.834,467.797,59.5638,0,0.000885,0,0
0:4:2.535,470.026,59.8465,0,0.000885,0,0
0:4:3.233,470.907,59.9568,0,0.000885,0,0
0:4:3.932,473.251,60.2533,0,0.000885,0,0
0:4:4.635,474.367,60.3981,0,0.000885,0,0
0:4:5.334,475.186,60.5015,0,0.000885,0,0
0:4:6.034,477.005,60.7359,0,0.000885,0,0
0:4:6.737,478.824,60.9634,0,0.000885,0,0
0:4:7.437,479.056,60.9979,0,0.000885,0,0
0:4:8.131,481.226,61.2737,0,0.000885,0,0
0:4:8.832,481.347,61.2875,0,0.000885,0,0
0:4:9.529,483.869,61.6047,0,0.000885,0,0
0:4:10.232,484.571,61.6943,0,0.000885,0,0
0:4:10.933,486.68,61.9632,0,0.000885,0,0
0:4:11.631,488.263,62.17,0,0.000885,0,0
0:4:12.333,489.144,62.2803,0,0.000885,0,0
0:4:13.030,490.612,62.4665,0,0.000885,0,0
0:4:13.730,492.196,62.6664,0,0.000885,0,0
0:4:14.432,492.721,62.7354,0,0.000885,0,0
0:4:15.130,494.891,63.0112,0,0.000885,0,0
0:4:15.832,496.301,63.1905,0,0.000885,0,0
0:4:16.535,497.298,63.3146,0,0.000885,0,0
0:4:17.239,498.179,63.4318,0,0.000885,0,0
0:4:17.939,500.229,63.6938,0,0.000885,0,0
0:4:18.640,501.052,63.7972,0,0.000885,0,0
0:4:19.337,503.454,64.1006,0,0.000885,0,0
0:4:20.039,503.806,64.1488,0,0.000885,0,0
0:4:20.730,506.096,64.4384,0,0.000885,0,0
0:4:21.437,506.684,64.5142,0,0.000885,0,0
0:4:22.140,508.556,64.7487,0,0.000885,0,0
0:4:22.836,509.495,64.8728,0,0.000885,0,0
0:4:23.538,511.199,65.0865,0,0.000885,0,0
0:4:24.227,512.311,65.2313,0,0.000885,0,0
0:4:24.937,513.956,65.4381,0,0.000885,0,0
0:4:25.641,515.011,65.576,0,0.000885,0,0
0:4:26.333,515.891,65.6864,0,0.000885,0,0
0:4:27.037,518.414,66.0035,0,0.000885,0,0
0:4:27.739,519.352,66.1276,0,0.000885,0,0
0:4:28.437,520.994,66.3345,0,0.000885,0,0
0:4:29.135,522.106,66.4792,0,0.000885,0,0
0:4:29.832,523.458,66.6516,0,0.000885,0,0
0:4:30.539,524.57,66.7895,0,0.000885,0,0
0:4:31.240,526.331,67.017,0,0.000885,0,0
0:4:31.943,527.679,67.1894,0,0.000885,0,0
0:4:32.644,528.56,67.2997,0,0.000885,0,0
0:4:33.339,530.375,67.5273,0,0.000885,0,0
0:4:34.031,532.372,67.7824,0,0.000885,0,0
0:4:34.737,532.603,67.8168,0,0.000885,0,0
0:4:35.428,534.187,68.0168,0,0.000885,0,0
0:4:36.132,536.006,68.2443,0,0.000885,0,0
0:4:36.839,536.887,68.3615,0,0.000885,0,0
0:4:37.540,538.764,68.5959,0,0.000885,0,0
0:4:38.236,539.703,68.72,0,0.000885,0,0
0:4:38.934,541.402,68.9338,0,0.000885,0,0
0:4:39.639,542.812,69.113,0,0.000885,0,0
0:4:40.336,543.924,69.2578,0,0.000885,0,0
0:4:41.038,546.153,69.5405,0,0.000885,0,0
0:4:41.742,546.446,69.575,0,0.000885,0,0
0:4:42.443,548.145,69.7956,0,0.000885,0,0
0:4:43.138,549.613,69.9818,0,0.000885,0,0
0:4:43.837,551.726,70.2507,0,0.000885,0,0
0:4:44.536,552.193,70.3058,0,0.000885,0,0
0:4:45.239,553.31,70.4506,0,0.000885,0,0
0:4:45.937,555.303,70.7057,0,0.000885,0,0
0:4:46.639,556.299,70.8298,0,0.000885,0,0
0:4:47.340,557.825,71.0229,0,0.000885,0,0
0:4:48.033,558.941,71.1677,0,0.000885,0,0
0:4:48.736,560.463,71.3607,0,0.000885,0,0
0:4:49.435,562.046,71.5607,0,0.000885,0,0
0:4:50.123,563.278,71.7193,0,0.000885,0,0
0:4:50.837,564.395,71.8641,0,0.000885,0,0
0:4:51.533,566.623,72.1467,0,0.000885,0,0
0:4:52.237,567.442,72.2502,0,0.000885,0,0
0:4:52.933,568.968,72.4432,0,0.000885,0,0
0:4:53.630,570.378,72.6225,0,0.000885,0,0
0:4:54.336,571.49,72.7673,0,0.000885,0,0
0:4:55.034,573.425,73.0086,0,0.000885,0,0
0:4:55.735,573.838,73.0637,0,0.000885,0,0
0:4:56.437,575.302,73.2499,0,0.000885,0,0
0:4:57.141,577.063,73.4705,0,0.000885,0,0
0:4:57.840,578.763,73.6912,0,0.000885,0,0
0:4:58.528,579.643,73.8015,0,0.000885,0,0
0:4:59.237,581.463,74.0359,0,0.000885,0,0
0:4:59.940,582.633,74.1807,0,0.000885,0,0
0:5:0.631,583.985,74.3531,0,0.000885,0,0
0:5:1.326,585.212,74.5116,0,0.000885,0,0
0:5:2.028,586.738,74.7047,0,0.000885,0,0
0:5:2.730,587.383,74.7874,0,0.000885,0,0
0:5:3.436,589.674,75.077,0,0.000885,0,0
0:5:4.131,591.258,75.2839,0,0.000885,0,0
0:5:4.831,592.49,75.4355,0,0.000885,0,0
0:5:5.526,593.077,75.5114,0,0.000885,0,0
0:5:6.236,595.074,75.7665,0,0.000885,0,0
0:5:6.944,596.364,75.932,0,0.000885,0,0
0:5:7.649,597.596,76.0905,0,0.000885,0,0
0:5:8.339,598.655,76.2215,0,0.000885,0,0
0:5:9.032,600.71,76.4835,0,0.000885,0,0
0:5:9.741,602.058,76.6559,0,0.000885,0,0
0:5:10.441,603.117,76.7938,0,0.000885,0,0
0:5:11.136,604.286,76.9386,0,0.000885,0,0
0:5:11.843,606.168,77.1799,0,0.000885,0,0
0:5:12.547,607.636,77.3661,0,0.000885,0,0
0:5:13.245,608.397,77.4626,0,0.000885,0,0
0:5:13.940,610.394,77.7177,0,0.000885,0,0
0:5:14.630,611.51,77.8625,0,0.000885,0,0
0:5:15.338,612.858,78.0349,0,0.000885,0,0
0:5:16.041,614.09,78.1865,0,0.000885,0,0
0:5:16.744,615.852,78.4141,0,0.000885,0,0
0:5:17.449,617.556,78.6278,0,0.000885,0,0
0:5:18.146,618.552,78.7588,0,0.000885,0,0
0:5:18.843,619.139,78.8347,0,0.000885,0,0
0:5:19.535,620.785,79.0415,0,0.000885,0,0
0:5:20.236,622.426,79.2483,0,0.000885,0,0
0:5:20.933,624.072,79.4621,0,0.000885,0,0
0:5:21.640,625.714,79.6689,0,0.000885,0,0
0:5:22.346,626.301,79.7448,0,0.000885,0,0
0:5:23.052,627.947,79.9516,0,0.000885,0,0
0:5:23.744,628.592,80.0343,0,0.000885,0,0
0:5:24.438,630.527,80.2826,0,0.000885,0,0
0:5:25.138,632.404,80.517,0,0.000885,0,0
0:5:25.836,633.405,80.648,0,0.000885,0,0
0:5:26.543,634.579,80.7997,0,0.000885,0,0
0:5:27.247,636.634,81.0617,0,0.000885,0,0
0:5:27.944,637.63,81.1858,0,0.000885,0,0
0:5:28.641,638.978,81.3581,0,0.000885,0,0
0:5:29.346,640.446,81.5443,0,0.000885,0,0
0:5:30.033,641.505,81.6822,0,0.000885,0,0
0:5:30.731,643.324,81.9097,0,0.000885,0,0
0:5:31.437,644.792,82.0959,0,0.000885,0,0
0:5:32.143,645.966,82.2476,0,0.000885,0,0
0:5:32.847,647.078,82.3855,0,0.000885,0,0
0:5:33.542,648.666,82.5923,0,0.000885,0,0
0:5:34.233,649.547,82.7026,0,0.000885,0,0
0:5:34.943,651.366,82.937,0,0.000885,0,0
0:5:35.631,652.305,83.0542,0,0.000885,0,0
0:5:36.337,653.595,83.2197,0,0.000885,0,0
0:5:37.043,654.711,83.3576,0,0.000885,0,0
0:5:37.746,656.94,83.6472,0,0.000885,0,0
0:5:38.443,658.586,83.854,0,0.000885,0,0
0:5:39.138,659.702,83.9988,0,0.000885,0,0
0:5:39.828,661.108,84.1781,0,0.000885,0,0
0:5:40.524,662.518,84.3574,0,0.000885,0,0
0:5:41.244,663.75,84.509,0,0.000885,0,0
0:5:41.951,664.982,84.6676,0,0.000885,0,0
0:5:42.656,666.508,84.8607,0,0.000885,0,0
0:5:43.350,668.096,85.0675,0,0.000885,0,0
0:5:44.044,669.622,85.2606,0,0.000885,0,0
0:5:44.740,670.97,85.4329,0,0.000885,0,0
0:5:45.441,672.144,85.5777,0,0.000885,0,0
0:5:46.133,672.909,85.6743,0,0.000885,0,0
0:5:46.841,674.608,85.8949,0,0.000885,0,0
0:5:47.545,676.432,86.1224,0,0.000885,0,0
0:5:48.244,677.544,86.2672,0,0.000885,0,0
0:5:48.935,678.545,86.3982,0,0.000885,0,0
0:5:49.639,679.715,86.543,0,0.000885,0,0
0:5:50.332,680.831,86.6878,0,0.000885,0,0
0:5:51.045,683.002,86.9636,0,0.000885,0,0
0:5:51.749,684.412,87.1428,0,0.000885,0,0
0:5:52.455,685.587,87.2945,0,0.000885,0,0
0:5:53.153,686.939,87.4669,0,0.000885,0,0
0:5:53.848,688.287,87.6324,0,0.000885,0,0
0:5:54.543,689.225,87.7565,0,0.000885,0,0
0:5:55.233,691.516,88.0461,0,0.000885,0,0
0:5:55.929,692.57,88.1839,0,0.000885,0,0
0:5:56.636,693.923,88.3563,0,0.000885,0,0
0:5:57.348,694.861,88.4735,0,0.000885,0,0
0:5:58.051,696.738,88.7148,0,0.000885,0,0
0:5:58.744,698.384,88.9217,0,0.000885,0,0
0:5:59.435,700.026,89.1285,0,0.000885,0,0
0:6:0.132,700.791,89.2251,0,0.000885,0,0
0:6:0.844,701.787,89.3561,0,0.000885,0,0
0:6:1.547,703.081,89.5215,0,0.000885,0,0
0:6:2.254,704.959,89.756,0,0.000885,0,0
0:6:2.952,706.369,89.9352,0,0.000885,0,0
0:6:3.647,707.601,90.0938,0,0.000885,0,0
0:6:4.344,709.358,90.3213,0,0.000885,0,0
0:6:5.043,710.652,90.4799,0,0.000885,0,0
0:6:5.741,711.649,90.6109,0,0.000885,0,0
0:6:6.435,712.587,90.7281,0,0.000885,0,0
0:6:7.145,714.7,90.997,0,0.000885,0,0
0:6:7.850,716.168,91.1832,0,0.000885,0,0
0:6:8.538,716.933,91.2797,0,0.000885,0,0
0:6:9.232,718.575,91.4934,0,0.000885,0,0
0:6:9.930,719.985,91.6727,0,0.000885,0,0
0:6:10.632,721.395,91.852,0,0.000885,0,0
0:6:11.336,722.743,92.0243,0,0.000885,0,0
0:6:12.044,724.624,92.2587,0,0.000885,0,0
0:6:12.748,725.678,92.3966,0,0.000885,0,0
0:6:13.446,726.795,92.5414,0,0.000885,0,0
0:6:14.150,728.321,92.7345,0,0.000885,0,0
0:6:14.838,729.668,92.9069,0,0.000885,0,0
0:6:15.536,730.318,92.9896,0,0.000885,0,0
0:6:16.253,732.431,93.2585,0,0.000885,0,0
0:6:16.960,733.134,93.3481,0,0.000885,0,0
0:6:17.665,735.131,93.5963,0,0.000885,0,0
0:6:18.357,736.83,93.817,0,0.000885,0,0
0:6:19.054,737.889,93.948,0,0.000885,0,0
0:6:19.750,739.472,94.1548,0,0.000885,0,0
0:6:20.439,740.825,94.3272,0,0.000885,0,0
0:6:21.146,742.23,94.5064,0,0.000885,0,0
0:6:21.854,743.347,94.6443,0,0.000885,0,0
0:6:22.558,745.108,94.8719,0,0.000885,0,0
0:6:23.256,746.047,94.9891,0,0.000885,0,0
0:6:23.952,747.986,95.2373,0,0.000885,0,0
0:6:24.643,748.805,95.3407,0,0.000885,0,0
0:6:25.340,750.33,95.5338,0,0.000885,0,0
0:6:26.032,751.389,95.6717,0,0.000885,0,0
0:6:26.748,753.444,95.9337,0,0.000885,0,0
0:6:27.451,753.974,95.9957,0,0.000885,0,0
0:6:28.150,755.966,96.2508,0,0.000885,0,0
0:6:28.846,757.67,96.4714,0,0.000885,0,0
0:6:29.544,758.609,96.5887,0,0.000885,0,0
0:6:30.244,759.667,96.7265,0,0.000885,0,0
0:6:30.950,760.722,96.8576,0,0.000885,0,0
0:6:31.648,762.834,97.1264,0,0.000885,0,0
0:6:32.357,764.654,97.3609,0,0.000885,0,0
0:6:33.059,765.183,97.4229,0,0.000885,0,0
0:6:33.752,766.651,97.616,0,0.000885,0,0
0:6:34.446,768.355,97.8297,0,0.000885,0,0
0:6:35.151,769.409,97.9676,0,0.000885,0,0
0:6:35.844,771.113,98.1813,0,0.000885,0,0
0:6:36.549,772.167,98.3123,0,0.000885,0,0
0:6:37.252,773.519,98.4847,0,0.000885,0,0
0:6:37.948,774.867,98.6571,0,0.000885,0,0
0:6:38.646,776.099,98.8157,0,0.000885,0,0
0:6:39.338,777.567,99.0018,0,0.000885,0,0
0:6:40.031,779.155,99.2018,0,0.000885,0,0
0:6:40.737,780.445,99.3672,0,0.000885,0,0
0:6:41.434,781.441,99.4982,0,0.000885,0,0
0:6:42.141,783.203,99.7189,0,0.000885,0,0
0:6:42.848,784.786,99.9257,0,0.000885,0,0
0:6:43.538,786.139,100.091,0,0.000885,0,0
0:6:44.245,787.197,100.229,0,0.000885,0,0
0:6:44.940,788.723,100.422,0,0.000885,0,0
0:6:45.633,789.955,100.581,0,0.000885,0,0
0:6:46.338,791.775,100.815,0,0.000885,0,0
0:6:47.048,793.122,100.981,0,0.000885,0,0
0:6:47.753,794.239,101.125,0,0.000885,0,0
0:6:48.449,795.298,101.263,0,0.000885,0,0
0:6:49.142,796.645,101.429,0,0.000885,0,0
0:6:49.845,798.229,101.636,0,0.000885,0,0
0:6:50.542,800.284,101.898,0,0.000885,0,0
0:6:51.249,800.871,101.973,0,0.000885,0,0
0:6:51.957,802.633,102.194,0,0.000885,0,0
0:6:52.661,803.749,102.339,0,0.000885,0,0
0:6:53.355,805.275,102.532,0,0.000885,0,0
0:6:54.049,806.507,102.691,0,0.000885,0,0
0:6:54.747,808.326,102.918,0,0.000885,0,0
0:6:55.437,809.501,103.07,0,0.000885,0,0
0:6:56.132,810.497,103.194,0,0.000885,0,0
0:6:56.840,812.143,103.408,0,0.000885,0,0
0:6:57.547,813.553,103.587,0,0.000885,0,0
0:6:58.242,814.785,103.739,0,0.000885,0,0
0:6:58.938,816.133,103.911,0,0.000885,0,0
0:6:59.629,817.485,104.083,0,0.000885,0,0
0:7:0.336,819.069,104.29,0,0.000885,0,0
0:7:1.031,820.301,104.442,0,0.000885,0,0
0:7:1.746,821.533,104.6,0,0.000885,0,0
0:7:2.451,823.001,104.787,0,0.000885,0,0
0:7:3.151,824.705,105.007,0,0.000885,0,0
0:7:3.846,825.995,105.166,0,0.000885,0,0
0:7:4.541,826.991,105.297,0,0.000885,0,0
0:7:5.241,828.228,105.455,0,0.000885,0,0
0:7:5.950,829.753,105.648,0,0.000885,0,0
0:7:6.656,831.688,105.897,0,0.000885,0,0
0:7:7.365,832.805,106.034,0,0.000885,0,0
0:7:8.068,834.153,106.207,0,0.000885,0,0
0:7:8.763,835.211,106.345,0,0.000885,0,0
0:7:9.456,836.737,106.538,0,0.000885,0,0
0:7:10.153,838.499,106.758,0,0.000885,0,0
0:7:10.843,839.144,106.841,0,0.000885,0,0
0:7:11.550,841.377,107.124,0,0.000885,0,0
0:7:12.255,842.547,107.276,0,0.000885,0,0
0:7:12.955,844.135,107.475,0,0.000885,0,0
0:7:13.649,844.895,107.579,0,0.000885,0,0
0:7:14.344,846.305,107.758,0,0.000885,0,0
0:7:15.048,848.182,107.993,0,0.000885,0,0
0:7:15.741,849.299,108.137,0,0.000885,0,0
0:7:16.438,850.767,108.324,0,0.000885,0,0
0:7:17.148,851.941,108.475,0,0.000885,0,0
0:7:17.851,852.938,108.599,0,0.000885,0,0
0:7:18.541,854.228,108.765,0,0.000885,0,0
0:7:19.248,856.576,109.061,0,0.000885,0,0
0:7:19.942,857.048,109.123,0,0.000885,0,0
0:7:20.633,858.631,109.323,0,0.000885,0,0
0:7:21.331,860.099,109.509,0,0.000885,0,0
0:7:22.039,861.451,109.682,0,0.000885,0,0
0:7:22.742,862.977,109.875,0,0.000885,0,0
0:7:23.441,864.503,110.075,0,0.000885,0,0
0:7:24.134,865.735,110.226,0,0.000885,0,0
0:7:24.839,866.909,110.378,0,0.000885,0,0
0:7:25.544,868.551,110.585,0,0.000885,0,0
0:7:26.244,869.667,110.73,0,0.000885,0,0
0:7:26.954,871.487,110.964,0,0.000885,0,0
0:7:27.658,872.603,111.102,0,0.000885,0,0
0:7:28.356,873.951,111.274,0,0.000885,0,0
0:7:29.054,875.655,111.495,0,0.000885,0,0
0:7:29.745,876.829,111.64,0,0.000885,0,0
0:7:30.437,877.71,111.75,0,0.000885,0,0
0:7:31.156,879.765,112.012,0,0.000885,0,0
0:7:31.866,880.468,112.102,0,0.000885,0,0
0:7:32.571,882.171,112.322,0,0.000885,0,0
0:7:33.266,883.697,112.516,0,0.000885,0,0
0:7:33.959,884.929,112.674,0,0.000885,0,0
0:7:34.656,886.633,112.888,0,0.000885,0,0
0:7:35.358,887.745,113.033,0,0.000885,0,0
0:7:36.055,889.333,113.233,0,0.000885,0,0
0:7:36.762,890.974,113.439,0,0.000885,0,0
0:7:37.467,891.619,113.522,0,0.000885,0,0
0:7:38.164,893.323,113.743,0,0.000885,0,0
0:7:38.856,894.497,113.888,0,0.000885,0,0
0:7:39.552,895.845,114.06,0,0.000885,0,0
0:7:40.245,897.197,114.232,0,0.000885,0,0
0:7:40.946,898.43,114.391,0,0.000885,0,0
0:7:41.653,900.485,114.653,0,0.000885,0,0
0:7:42.358,901.601,114.798,0,0.000885,0,0
0:7:43.057,903.127,114.991,0,0.000885,0,0
0:7:43.756,904.359,115.149,0,0.000885,0,0
0:7:44.446,905.649,115.308,0,0.000885,0,0
0:7:45.140,906.766,115.453,0,0.000885,0,0
0:7:45.847,907.998,115.611,0,0.000885,0,0
0:7:46.546,909.581,115.811,0,0.000885,0,0
0:7:47.254,911.343,116.039,0,0.000885,0,0
0:7:47.958,912.989,116.246,0,0.000885,0,0
0:7:48.647,913.869,116.356,0,0.000885,0,0
0:7:49.344,915.217,116.528,0,0.000885,0,0
0:7:50.049,916.569,116.701,0,0.000885,0,0
0:7:50.742,918.211,116.908,0,0.000885,0,0
0:7:51.449,919.443,117.066,0,0.000885,0,0
0:7:52.158,920.266,117.17,0,0.000885,0,0
0:7:52.861,921.498,117.328,0,0.000885,0,0
0:7:53.560,923.086,117.528,0,0.000885,0,0
0:7:54.261,924.55,117.714,0,0.000885,0,0
0:7:54.956,926.725,117.997,0,0.000885,0,0
0:7:55.652,927.779,118.128,0,0.000885,0,0
0:7:56.360,929.073,118.293,0,0.000885,0,0
0:7:57.067,930.537,118.48,0,0.000885,0,0
0:7:57.768,931.418,118.59,0,0.000885,0,0
0:7:58.460,932.943,118.783,0,0.000885,0,0
0:7:59.158,934.998,119.045,0,0.000885,0,0
0:7:59.849,935.937,119.169,0,0.000885,0,0
0:8:0.556,937.231,119.334,0,0.000885,0,0
0:8:1.250,938.228,119.459,0,0.000885,0,0
0:8:1.960,939.989,119.686,0,0.000885,0,0
0:8:2.662,941.399,119.865,0,0.000885,0,0
0:8:3.358,943.219,120.093,0,0.000885,0,0
0:8:4.048,944.509,120.258,0,0.000885,0,0
0:8:4.745,945.505,120.382,0,0.000885,0,0
0:8:5.449,946.679,120.534,0,0.000885,0,0
0:8:6.153,948.267,120.734,0,0.000885,0,0
0:8:6.859,949.442,120.886,0,0.000885,0,0
0:8:7.565,950.79,121.058,0,0.000885,0,0
0:8:8.262,952.373,121.258,0,0.000885,0,0
0:8:8.959,954.077,121.479,0,0.000885,0,0
0:8:9.650,954.958,121.589,0,0.000885,0,0
0:8:10.343,957.013,121.851,0,0.000885,0,0
0:8:11.049,957.893,121.961,0,0.000885,0,0
0:8:11.748,958.832,122.085,0,0.000885,0,0
0:8:12.457,960.416,122.285,0,0.000885,0,0
0:8:13.160,961.883,122.472,0,0.000885,0,0
0:8:13.861,962.764,122.582,0,0.000885,0,0
0:8:14.560,964.468,122.803,0,0.000885,0,0
0:8:15.254,966.051,123.002,0,0.000885,0,0
0:8:15.943,967.519,123.189,0,0.000885,0,0
0:8:16.650,968.987,123.375,0,0.000885,0,0
0:8:17.357,970.104,123.52,0,0.000885,0,0
0:8:18.054,971.687,123.72,0,0.000885,0,0
0:8:18.750,972.626,123.837,0,0.000885,0,0
0:8:19.443,974.152,124.03,0,0.000885,0,0
0:8:20.147,975.384,124.188,0,0.000885,0,0
0:8:20.844,977.497,124.457,0,0.000885,0,0
0:8:21.542,978.498,124.588,0,0.000885,0,0
0:8:22.248,979.672,124.733,0,0.000885,0,0
0:8:22.951,981.549,124.974,0,0.000885,0,0
0:8:23.654,983.017,125.161,0,0.000885,0,0
0:8:24.348,983.484,125.223,0,0.000885,0,0
0:8:25.042,985.539,125.485,0,0.000885,0,0
0:8:25.755,986.304,125.581,0,0.000885,0,0
0:8:26.449,988.003,125.795,0,0.000885,0,0
0:8:27.159,989.413,125.974,0,0.000885,0,0
0:8:27.861,990.703,126.14,0,0.000885,0,0
0:8:28.559,992.114,126.319,0,0.000885,0,0
0:8:29.260,993.581,126.505,0,0.000885,0,0
0:8:29.953,994.756,126.657,0,0.000885,0,0
0:8:30.650,996.633,126.898,0,0.000885,0,0
0:8:31.349,997.692,127.029,0,0.000885,0,0
0:8:32.058,998.688,127.16,0,0.000885,0,0
0:8:32.759,1000.51,127.388,0,0.000885,0,0
0:8:33.459,1001.8,127.553,0,0.000885,0,0
0:8:34.157,1003.27,127.739,0,0.000885,0,0
0:8:34.848,1004.5,127.898,0,0.000885,0,0
0:8:35.552,1005.73,128.056,0,0.000885,0,0
0:8:36.260,1007.32,128.256,0,0.000885,0,0
0:8:36.968,1008.55,128.415,0,0.000885,0,0
0:8:37.671,1010.02,128.601,0,0.000885,0,0
0:8:38.368,1012.07,128.863,0,0.000885,0,0
0:8:39.060,1012.95,128.973,0,0.000885,0,0
0:8:39.756,1013.77,129.077,0,0.000885,0,0
0:8:40.449,1015.18,129.256,0,0.000885,0,0
0:8:41.161,1016.77,129.456,0,0.000885,0,0
0:8:41.867,1017.94,129.608,0,0.000885,0,0
0:8:42.571,1019.82,129.849,0,0.000885,0,0
0:8:43.269,1021.46,130.056,0,0.000885,0,0
0:8:43.967,1022.82,130.228,0,0.000885,0,0
0:8:44.658,1024.16,130.401,0,0.000885,0,0
0:8:45.350,1024.69,130.469,0,0.000885,0,0
0:8:46.048,1026.75,130.731,0,0.000885,0,0
0:8:46.754,1027.92,130.876,0,0.000885,0,0
0:8:47.463,1028.86,131,0,0.000885,0,0
0:8:48.165,1030.15,131.166,0,0.000885,0,0
0:8:48.854,1031.85,131.38,0,0.000885,0,0
0:8:49.553,1033.32,131.566,0,0.000885,0,0
0:8:50.257,1034.73,131.745,0,0.000885,0,0
0:8:50.958,1036.08,131.917,0,0.000885,0,0
0:8:51.666,1037.78,132.131,0,0.000885,0,0
0:8:52.369,1038.6,132.241,0,0.000885,0,0
0:8:53.065,1040.13,132.434,0,0.000885,0,0
0:8:53.764,1041.77,132.641,0,0.000885,0,0
0:8:54.453,1042.83,132.779,0,0.000885,0,0
0:8:55.148,1044.65,133.007,0,0.000885,0,0
0:8:55.844,1045.94,133.172,0,0.000885,0,0
0:8:56.562,1047,133.31,0,0.000885,0,0
0:8:57.269,1048.64,133.517,0,0.000885,0,0
0:8:57.972,1049.87,133.676,0,0.000885,0,0
0:8:58.665,1051.05,133.82,0,0.000885,0,0
0:8:59.361,1052.57,134.02,0,0.000885,0,0
0:9:0.052,1053.4,134.124,0,0.000885,0,0
0:9:0.753,1055.33,134.372,0,0.000885,0,0
0:9:1.449,1057.04,134.586,0,0.000885,0,0
0:9:2.159,1058.5,134.772,0,0.000885,0,0
0:9:2.862,1059.56,134.91,0,0.000885,0,0
0:9:3.559,1061.03,135.096,0,0.000885,0,0
0:9:4.260,1062.44,135.275,0,0.000885,0,0
0:9:4.952,1063.37,135.392,0,0.000885,0,0
0:9:5.659,1064.73,135.565,0,0.000885,0,0
0:9:6.355,1066.84,135.834,0,0.000885,0,0
0:9:7.062,1067.78,135.951,0,0.000885,0,0
0:9:7.765,1069.6,136.185,0,0.000885,0,0
0:9:8.456,1070.48,136.296,0,0.000885,0,0
0:9:9.150,1072.06,136.502,0,0.000885,0,0
0:9:9.845,1073.41,136.668,0,0.000885,0,0
0:9:10.547,1074.41,136.799,0,0.000885,0,0
0:9:11.254,1076.17,137.02,0,0.000885,0,0
0:9:11.962,1077.46,137.185,0,0.000885,0,0
0:9:12.667,1078.81,137.357,0,0.000885,0,0
0:9:13.364,1079.81,137.488,0,0.000885,0,0
0:9:14.054,1081.22,137.668,0,0.000885,0,0
0:9:14.750,1082.1,137.778,0,0.000885,0,0
0:9:15.446,1084.33,138.061,0,0.000885,0,0
0:9:16.156,1085.68,138.233,0,0.000885,0,0
0:9:16.865,1087.56,138.474,0,0.000885,0,0
0:9:17.569,1088.26,138.564,0,0.000885,0,0
0:9:18.266,1089.67,138.743,0,0.000885,0,0
0:9:18.965,1091.38,138.957,0,0.000885,0,0
0:9:19.665,1092.31,139.081,0,0.000885,0,0
0:9:20.369,1094.43,139.35,0,0.000885,0,0
0:9:21.065,1094.72,139.384,0,0.000885,0,0
0:9:21.762,1096.72,139.64,0,0.000885,0,0
0:9:22.467,1097.95,139.798,0,0.000885,0,0
0:9:23.171,1099.94,140.046,0,0.000885,0,0
0:9:23.861,1101.06,140.191,0,0.000885,0,0
0:9:24.568,1102.06,140.315,0,0.000885,0,0
0:9:25.262,1103.17,140.46,0,0.000885,0,0
0:9:25.950,1105.17,140.715,0,0.000885,0,0
0:9:26.655,1105.64,140.777,0,0.000885,0,0
0:9:27.363,1108.11,141.087,0,0.000885,0,0
0:9:28.056,1108.81,141.177,0,0.000885,0,0
0:9:28.754,1110.57,141.405,0,0.000885,0,0
0:9:29.456,1111.92,141.577,0,0.000885,0,0
0:9:30.149,1112.68,141.673,0,0.000885,0,0
0:9:30.846,1114.56,141.908,0,0.000885,0,0
0:9:31.566,1115.85,142.073,0,0.000885,0,0
0:9:32.271,1117.5,142.287,0,0.000885,0,0
0:9:32.973,1118.91,142.466,0,0.000885,0,0
0:9:33.664,1120.14,142.618,0,0.000885,0,0
0:9:34.370,1121.19,142.756,0,0.000885,0,0
0:9:35.065,1122.54,142.928,0,0.000885,0,0
0:9:35.757,1124.25,143.142,0,0.000885,0,0
0:9:36.454,1125.54,143.308,0,0.000885,0,0
0:9:37.160,1126.36,143.411,0,0.000885,0,0
0:9:37.865,1128.18,143.645,0,0.000885,0,0
0:9:38.564,1129.65,143.832,0,0.000885,0,0
0:9:39.253,1131.7,144.094,0,0.000885,0,0
0:9:39.958,1132.46,144.19,0,0.000885,0,0
0:9:40.653,1133.46,144.314,0,0.000885,0,0
0:9:41.359,1134.93,144.5,0,0.000885,0,0
0:9:42.066,1136.45,144.7,0,0.000885,0,0
0:9:42.771,1137.75,144.866,0,0.000885,0,0
0:9:43.460,1139.51,145.086,0,0.000885,0,0
0:9:44.169,1140.74,145.245,0,0.000885,0,0
0:9:44.860,1141.62,145.355,0,0.000885,0,0
0:9:45.553,1143.38,145.583,0,0.000885,0,0
0:9:46.258,1144.91,145.776,0,0.000885,0,0
0:9:46.967,1146.02,145.914,0,0.000885,0,0
0:9:47.669,1147.96,146.162,0,0.000885,0,0
0:9:48.366,1149.07,146.307,0,0.000885,0,0
0:9:49.056,1149.84,146.403,0,0.000885,0,0
0:9:49.752,1151.19,146.576,0,0.000885,0,0
0:9:50.456,1152.95,146.796,0,0.000885,0,0
0:9:51.148,1154.24,146.962,0,0.000885,0,0
0:9:51.853,1155.47,147.12,0,0.000885,0,0
0:9:52.557,1157.53,147.382,0,0.000885,0,0
0:9:53.264,1158.47,147.5,0,0.000885,0,0
0:9:53.970,1159.52,147.637,0,0.000885,0,0
0:9:54.660,1161.11,147.837,0,0.000885,0,0
0:9:55.354,1162.46,148.01,0,0.000885,0,0
0:9:56.050,1164.51,148.272,0,0.000885,0,0
0:9:56.760,1165.75,148.43,0,0.000885,0,0
0:9:57.466,1166.27,148.492,0,0.000885,0,0
0:9:58.166,1168.21,148.741,0,0.000885,0,0
0:9:58.868,1169.38,148.892,0,0.000885,0,0
0:9:59.562,1170.79,149.072,0,0.000885,0,0
0:10:0.253,1172.44,149.278,0,0.000885,0,0
0:10:0.958,1174.02,149.478,0,0.000885,0,0
0:10:1.655,1174.67,149.561,0,0.000885,0,0
0:10:2.360,1176.08,149.74,0,0.000885,0,0
0:10:3.066,1178.49,150.051,0,0.000885,0,0
0:10:3.769,1179.37,150.161,0,0.000885,0,0
0:10:4.457,1179.95,150.237,0,0.000885,0,0
0:10:5.155,1182.07,150.506,0,0.000885,0,0
0:10:5.846,1183.18,150.65,0,0.000885,0,0
0:10:6.549,1184.35,150.795,0,0.000885,0,0
0:10:7.252,1186.23,151.037,0,0.000885,0,0
0:10:7.950,1187.76,151.23,0,0.000885,0,0
0:10:8.648,1188.87,151.374,0,0.000885,0,0
0:10:9.340,1189.75,151.485,0,0.000885,0,0
0:10:10.034,1190.87,151.63,0,0.000885,0,0
0:10:10.729,1192.39,151.823,0,0.000885,0,0
0:10:11.425,1194.21,152.05,0,0.000885,0,0
0:10:12.133,1195.92,152.271,0,0.000885,0,0
0:10:12.837,1197.44,152.464,0,0.000885,0,0
0:10:13.528,1198.38,152.581,0,0.000885,0,0
0:10:14.223,1199.56,152.733,0,0.000885,0,0
0:10:14.919,1200.73,152.884,0,0.000885,0,0
0:10:15.614,1202.31,153.084,0,0.000885,0,0
0:10:16.310,1204.08,153.305,0,0.000885,0,0
0:10:17.016,1204.9,153.415,0,0.000885,0,0
0:10:17.720,1206.31,153.595,0,0.000885,0,0
0:10:18.417,1207.36,153.726,0,0.000885,0,0
0:10:19.109,1208.77,153.905,0,0.000885,0,0
0:10:19.807,1210.36,154.105,0,0.000885,0,0
0:10:20.499,1212.18,154.339,0,0.000885,0,0
0:10:21.194,1213.35,154.491,0,0.000885,0,0
0:10:21.902,1214.94,154.691,0,0.000885,0,0
0:10:22.607,1215.93,154.815,0,0.000885,0,0
0:10:23.306,1217.75,155.049,0,0.000885,0,0
0:10:24.003,1218.4,155.132,0,0.000885,0,0
0:10:24.693,1220.57,155.408,0,0.000885,0,0
0:10:25.390,1221.98,155.587,0,0.000885,0,0
0:10:26.087,1223.45,155.773,0,0.000885,0,0
0:10:26.792,1224.15,155.863,0,0.000885,0,0
0:10:27.498,1225.85,156.084,0,0.000885,0,0
0:10:28.193,1226.97,156.221,0,0.000885,0,0
0:10:28.885,1228.2,156.38,0,0.000885,0,0
0:10:29.583,1229.91,156.594,0,0.000885,0,0
0:10:30.275,1231.31,156.773,0,0.000885,0,0
0:10:30.965,1232.54,156.932,0,0.000885,0,0
0:10:31.676,1234.07,157.125,0,0.000885,0,0
0:10:32.380,1235.72,157.338,0,0.000885,0,0
0:10:33.078,1236.6,157.449,0,0.000885,0,0
0:10:33.775,1237.83,157.607,0,0.000885,0,0
0:10:34.464,1239.18,157.78,0,0.000885,0,0
0:10:35.160,1240.71,157.973,0,0.000885,0,0
0:10:35.866,1242.11,158.152,0,0.000885,0,0
0:10:36.565,1243.46,158.324,0,0.000885,0,0
0:10:37.273,1245.17,158.538,0,0.000885,0,0
0:10:37.974,1246.52,158.71,0,0.000885,0,0
0:10:38.676,1247.98,158.897,0,0.000885,0,0
0:10:39.373,1249.22,159.055,0,0.000885,0,0
0:10:40.065,1250.45,159.214,0,0.000885,0,0
0:10:40.766,1251.68,159.372,0,0.000885,0,0
0:10:41.464,1253.33,159.579,0,0.000885,0,0
0:10:42.174,1254.85,159.772,0,0.000885,0,0
0:10:42.878,1256.14,159.938,0,0.000885,0,0
0:10:43.574,1257.08,160.055,0,0.000885,0,0
0:10:44.275,1258.31,160.213,0,0.000885,0,0
0:10:44.970,1260.07,160.441,0,0.000885,0,0
0:10:45.663,1261.72,160.648,0,0.000885,0,0
0:10:46.374,1263.25,160.841,0,0.000885,0,0
0:10:47.081,1264.77,161.034,0,0.000885,0,0
0:10:47.779,1265.95,161.186,0,0.000885,0,0
0:10:48.471,1267.06,161.33,0,0.000885,0,0
0:10:49.166,1268.35,161.489,0,0.000885,0,0
0:10:49.868,1269.47,161.634,0,0.000885,0,0
0:10:50.563,1271.58,161.903,0,0.000885,0,0
0:10:51.260,1272.76,162.054,0,0.000885,0,0
0:10:51.966,1274.22,162.241,0,0.000885,0,0
0:10:52.672,1275.46,162.399,0,0.000885,0,0
0:10:53.363,1276.39,162.516,0,0.000885,0,0
0:10:54.063,1277.86,162.702,0,0.000885,0,0
0:10:54.759,1278.86,162.827,0,0.000885,0,0
0:10:55.453,1280.68,163.061,0,0.000885,0,0
0:10:56.144,1281.62,163.178,0,0.000885,0,0
0:10:56.852,1282.73,163.323,0,0.000885,0,0
0:10:57.557,1284.85,163.592,0,0.000885,0,0
0:10:58.254,1285.91,163.723,0,0.000885,0,0
0:10:58.959,1287.66,163.95,0,0.000885,0,0
0:10:59.651,1288.37,164.04,0,0.000885,0,0
0:11:0.345,1289.95,164.24,0,0.000885,0,0
0:11:1.040,1291.48,164.433,0,0.000885,0,0
0:11:1.747,1292.71,164.592,0,0.000885,0,0
0:11:2.450,1294.3,164.798,0,0.000885,0,0
0:11:3.145,1295.94,165.005,0,0.000885,0,0
0:11:3.836,1297.29,165.178,0,0.000885,0,0
0:11:4.531,1298.7,165.357,0,0.000885,0,0
0:11:5.226,1299.76,165.488,0,0.000885,0,0
0:11:5.920,1300.99,165.647,0,0.000885,0,0
0:11:6.629,1302.75,165.874,0,0.000885,0,0
0:11:7.330,1304.28,166.067,0,0.000885,0,0
0:11:8.026,1305.27,166.191,0,0.000885,0,0
0:11:8.723,1306.92,166.405,0,0.000885,0,0
0:11:9.416,1308.27,166.57,0,0.000885,0,0
0:11:10.111,1309.38,166.715,0,0.000885,0,0
0:11:10.806,1310.62,166.874,0,0.000885,0,0
0:11:11.503,1312.14,167.067,0,0.000885,0,0
0:11:12.210,1313.49,167.239,0,0.000885,0,0
0:11:12.912,1314.37,167.35,0,0.000885,0,0
0:11:13.603,1316.14,167.577,0,0.000885,0,0
0:11:14.301,1317.83,167.791,0,0.000885,0,0
0:11:14.995,1318.89,167.929,0,0.000885,0,0
0:11:15.685,1319.83,168.046,0,0.000885,0,0
0:11:16.391,1321.3,168.232,0,0.000885,0,0
0:11:17.098,1323.41,168.501,0,0.000885,0,0
0:11:17.795,1324.88,168.687,0,0.000885,0,0
0:11:18.492,1326.17,168.853,0,0.000885,0,0
0:11:19.185,1327.34,169.004,0,0.000885,0,0
0:11:19.877,1327.99,169.087,0,0.000885,0,0
0:11:20.574,1329.64,169.294,0,0.000885,0,0
0:11:21.269,1330.93,169.459,0,0.000885,0,0
0:11:21.980,1332.92,169.714,0,0.000885,0,0
0:11:22.683,1333.8,169.825,0,0.000885,0,0
0:11:23.383,1335.56,170.052,0,0.000885,0,0
0:11:24.079,1336.74,170.197,0,0.000885,0,0
0:11:24.775,1337.62,170.307,0,0.000885,0,0
0:11:25.474,1339.08,170.5,0,0.000885,0,0
0:11:26.170,1341.37,170.79,0,0.000885,0,0
0:11:26.880,1342.66,170.956,0,0.000885,0,0
0:11:27.582,1343.78,171.093,0,0.000885,0,0
0:11:28.279,1345.6,171.328,0,0.000885,0,0
0:11:28.968,1347.07,171.514,0,0.000885,0,0
0:11:29.658,1348.36,171.679,0,0.000885,0,0
0:11:30.357,1349.12,171.776,0,0.000885,0,0
0:11:31.065,1350.3,171.928,0,0.000885,0,0
0:11:31.771,1352.12,172.155,0,0.000885,0,0
0:11:32.479,1353.46,172.328,0,0.000885,0,0
0:11:33.176,1354.52,172.465,0,0.000885,0,0
0:11:33.869,1355.28,172.562,0,0.000885,0,0
0:11:34.577,1357.34,172.824,0,0.000885,0,0
0:11:35.277,1358.75,173.003,0,0.000885,0,0
0:11:35.976,1361.1,173.3,0,0.000885,0,0
0:11:36.682,1362.45,173.472,0,0.000885,0,0
0:11:37.384,1363.33,173.582,0,0.000885,0,0
0:11:38.081,1364.33,173.713,0,0.000885,0,0
0:11:38.773,1365.97,173.92,0,0.000885,0,0
0:11:39.477,1366.73,174.017,0,0.000885,0,0
0:11:40.171,1368.73,174.272,0,0.000885,0,0
0:11:40.864,1370.37,174.479,0,0.000885,0,0
0:11:41.569,1371.2,174.589,0,0.000885,0,0
0:11:42.276,1372.31,174.727,0,0.000885,0,0
0:11:42.983,1374.13,174.961,0,0.000885,0,0
0:11:43.679,1375.59,175.148,0,0.000885,0,0
0:11:44.372,1377.24,175.354,0,0.000885,0,0
0:11:45.063,1378.29,175.492,0,0.000885,0,0
0:11:45.760,1379.65,175.665,0,0.000885,0,0
0:11:46.458,1380.76,175.803,0,0.000885,0,0
0:11:47.165,1381.35,175.878,0,0.000885,0,0
0:11:47.869,1383.4,176.14,0,0.000885,0,0
0:11:48.560,1385.58,176.416,0,0.000885,0,0
0:11:49.255,1386.81,176.575,0,0.000885,0,0
0:11:49.949,1387.4,176.651,0,0.000885,0,0
0:11:50.641,1388.74,176.823,0,0.000885,0,0
0:11:51.346,1390.27,177.016,0,0.000885,0,0
0:11:52.049,1391.27,177.14,0,0.000885,0,0
0:11:52.746,1393.68,177.45,0,0.000885,0,0
0:11:53.443,1394.67,177.574,0,0.000885,0,0
0:11:54.136,1395.96,177.74,0,0.000885,0,0
0:11:54.828,1397.32,177.912,0,0.000885,0,0
0:11:55.526,1399.19,178.154,0,0.000885,0,0
0:11:56.221,1400.19,178.278,0,0.000885,0,0
0:11:56.929,1401.01,178.381,0,0.000885,0,0
0:11:57.635,1403.01,178.636,0,0.000885,0,0
0:11:58.325,1403.65,178.719,0,0.000885,0,0
0:11:59.022,1405,178.891,0,0.000885,0,0
0:11:59.720,1407.23,179.174,0,0.000885,0,0
0:12:0.409,1408.06,179.277,0,0.000885,0,0
0:12:1.105,1409.46,179.457,0,0.000885,0,0
0:12:1.813,1410.52,179.595,0,0.000885,0,0
0:12:2.516,1412.4,179.829,0,0.000885,0,0
0:12:3.214,1413.52,179.974,0,0.000885,0,0
0:12:3.909,1415.04,180.167,0,0.000885,0,0
0:12:4.599,1416.8,180.394,0,0.000885,0,0
0:12:5.296,1417.56,180.491,0,0.000885,0,0
0:12:5.990,1418.51,180.608,0,0.000885,0,0
0:12:6.699,1420.33,180.843,0,0.000885,0,0
0:12:7.402,1422.15,181.07,0,0.000885,0,0
0:12:8.096,1423.2,181.208,0,0.000885,0,0
0:12:8.789,1424.02,181.311,0,0.000885,0,0
0:12:9.486,1425.66,181.518,0,0.000885,0,0
0:12:10.175,1427.13,181.711,0,0.000885,0,0
0:12:10.869,1429.01,181.946,0,0.000885,0,0
0:12:11.576,1430.01,182.077,0,0.000885,0,0
0:12:12.282,1432.12,182.346,0,0.000885,0,0
0:12:12.975,1432.71,182.421,0,0.000885,0,0
0:12:13.682,1433.71,182.546,0,0.000885,0,0
0:12:14.371,1436,182.835,0,0.000885,0,0
0:12:15.068,1437.35,183.008,0,0.000885,0,0
0:12:15.783,1438.35,183.139,0,0.000885,0,0
0:12:16.485,1439.05,183.228,0,0.000885,0,0
0:12:17.191,1440.4,183.401,0,0.000885,0,0
0:12:17.890,1442.57,183.676,0,0.000885,0,0
0:12:18.584,1443.98,183.856,0,0.000885,0,0
0:12:19.280,1445.21,184.007,0,0.000885,0,0
0:12:19.981,1446.15,184.131,0,0.000885,0,0
0:12:20.674,1447.86,184.345,0,0.000885,0,0
0:12:21.383,1449.85,184.6,0,0.000885,0,0
0:12:22.087,1450.73,184.711,0,0.000885,0,0
0:12:22.786,1452.55,184.945,0,0.000885,0,0
0:12:23.477,1452.96,185,0,0.000885,0,0
0:12:24.170,1455.08,185.269,0,0.000885,0,0
0:12:24.867,1455.89,185.372,0,0.000885,0,0
0:12:25.570,1458.18,185.662,0,0.000885,0,0
0:12:26.282,1458.77,185.738,0,0.000885,0,0
0:12:26.989,1460.65,185.979,0,0.000885,0,0
0:12:27.687,1461.41,186.076,0,0.000885,0,0
0:12:28.384,1462.65,186.227,0,0.000885,0,0
0:12:29.077,1464.52,186.469,0,0.000885,0,0
0:12:29.768,1465.11,186.545,0,0.000885,0,0
0:12:30.466,1467.29,186.82,0,0.000885,0,0
0:12:31.160,1468.22,186.938,0,0.000885,0,0
0:12:31.869,1470.69,187.255,0,0.000885,0,0
0:12:32.572,1471.33,187.337,0,0.000885,0,0
0:12:33.264,1472.69,187.51,0,0.000885,0,0
0:12:33.960,1473.98,187.675,0,0.000885,0,0
0:12:34.664,1474.39,187.724,0,0.000885,0,0
0:12:35.358,1476.27,187.965,0,0.000885,0,0
0:12:36.056,1478.26,188.22,0,0.000885,0,0
0:12:36.763,1479.67,188.399,0,0.000885,0,0
0:12:37.466,1481.03,188.572,0,0.000885,0,0
0:12:38.174,1482.73,188.785,0,0.000885,0,0
0:12:38.874,1483.97,188.944,0,0.000885,0,0
0:12:39.572,1485.15,189.096,0,0.000885,0,0
0:12:40.276,1486.21,189.227,0,0.000885,0,0
0:12:40.977,1487.97,189.454,0,0.000885,0,0
0:12:41.687,1488.74,189.551,0,0.000885,0,0
0:12:42.391,1490.8,189.813,0,0.000885,0,0
0:12:43.090,1492.33,190.013,0,0.000885,0,0
0:12:43.787,1493.33,190.137,0,0.000885,0,0
0:12:44.476,1494.1,190.233,0,0.000885,0,0
0:12:45.174,1495.87,190.461,0,0.000885,0,0
0:12:45.866,1496.57,190.55,0,0.000885,0,0
0:12:46.568,1498.57,190.806,0,0.000885,0,0
0:12:47.275,1502.58,191.316,0,0.000885,0,0
0:12:47.973,1502.46,191.302,0,0.000885,0,0
0:12:48.679,1502.46,191.302,0,0.000885,0,0
0:12:49.383,1503.29,191.405,0,0.000885,0,0
0:12:50.085,1504.4,191.543,0,0.000885,0,0
0:12:50.783,1506.05,191.757,0,0.000885,0,0
0:12:51.492,1508.41,192.053,0,0.000885,0,0
0:12:52.194,1510.11,192.274,0,0.000885,0,0
0:12:52.891,1511.94,192.509,0,0.000885,0,0
0:12:53.580,1512.59,192.591,0,0.000885,0,0
0:12:54.277,1513.77,192.736,0,0.000885,0,0
0:12:54.981,1515.65,192.977,0,0.000885,0,0
0:12:55.673,1516.59,193.101,0,0.000885,0,0
0:12:56.381,1517.65,193.232,0,0.000885,0,0
0:12:57.086,1519.13,193.419,0,0.000885,0,0
0:12:57.784,1520.83,193.639,0,0.000885,0,0
0:12:58.478,1521.71,193.75,0,0.000885,0,0
0:12:59.169,1523.31,193.956,0,0.000885,0,0
0:12:59.875,1525.54,194.239,0,0.000885,0,0
0:13:0.569,1526.6,194.37,0,0.000885,0,0
0:13:1.269,1527.9,194.536,0,0.000885,0,0
0:13:1.977,1528.72,194.646,0,0.000885,0,0
0:13:2.676,1530.61,194.88,0,0.000885,0,0
0:13:3.371,1531.14,194.949,0,0.000885,0,0
0:13:4.087,1533.32,195.225,0,0.000885,0,0
0:13:4.777,1534.14,195.335,0,0.000885,0,0
0:13:5.472,1536.32,195.611,0,0.000885,0,0
0:13:6.179,1537.08,195.708,0,0.000885,0,0
0:13:6.890,1539.08,195.963,0,0.000885,0,0
0:13:7.592,1539.73,196.046,0,0.000885,0,0
0:13:8.287,1541.56,196.28,0,0.000885,0,0
0:13:8.978,1542.38,196.383,0,0.000885,0,0
0:13:9.685,1544.32,196.632,0,0.000885,0,0
0:13:10.388,1545.56,196.79,0,0.000885,0,0
0:13:11.080,1546.92,196.963,0,0.000885,0,0
0:13:11.788,1548.1,197.107,0,0.000885,0,0
0:13:12.493,1549.74,197.321,0,0.000885,0,0
0:13:13.190,1550.98,197.48,0,0.000885,0,0
0:13:13.885,1552.45,197.666,0,0.000885,0,0
0:13:14.574,1554.16,197.88,0,0.000885,0,0
0:13:15.270,1554.75,197.955,0,0.000885,0,0
0:13:15.966,1556.87,198.224,0,0.000885,0,0
0:13:16.674,1557.4,198.293,0,0.000885,0,0
0:13:17.377,1559.22,198.528,0,0.000885,0,0
0:13:18.073,1560.69,198.714,0,0.000885,0,0
0:13:18.765,1561.34,198.797,0,0.000885,0,0
0:13:19.471,1563.82,199.114,0,0.000885,0,0
0:13:20.165,1565,199.258,0,0.000885,0,0
0:13:20.789,1564.23,199.162,0,0.000885,0,0