File: DataFile2021-06-30_064949.csv
Test ID:,Date Tested:,Time:,Test Type:,Diameter Avg. (mm):,Cyl. Corr. Factor:,Height (mm):,Age (days):,Weight (kN):,Break Type:,Ramp Rate (MPa/s):,Load at Break (kN):,Stress at Break (MPa):
12,6/30/2021,06:49,Cylinder,100,1,200,0,3.6,3,0.25,1104.4,140.62
Sample Time,Load (kN),Stress (MPa),Long. Strain,Trans. Strain,Chan1 Deflection (mm),Chan2 Deflection (mm)
0:0:19.810,5.92503,0.751529,0,0.000885,0,0
0:0:20.309,9.67933,1.23416,0,0.000885,0,0
0:0:20.804,8.97206,1.14453,0,0.000885,0,0
0:0:21.302,9.26565,1.179,0,0.000885,0,0
0:0:21.798,9.32347,1.1859,0,0.000885,0,0
0:0:22.295,9.44357,1.19969,0,0.000885,0,0
0:0:22.791,10.3821,1.32379,0,0.000885,0,0
0:0:23.288,11.6143,1.47548,0,0.000885,0,0
0:0:23.785,12.1392,1.54443,0,0.000885,0,0
0:0:24.281,13.0199,1.65474,0,0.000885,0,0
0:0:24.779,14.43,1.83401,0,0.000885,0,0
0:0:25.275,15.7778,2.00637,0,0.000885,0,0
0:0:25.781,16.5385,2.1029,0,0.000885,0,0
0:0:26.287,17.7706,2.26148,0,0.000885,0,0
0:0:26.791,18.5936,2.3649,0,0.000885,0,0
0:0:27.289,19.6478,2.5028,0,0.000885,0,0
0:0:27.789,21.2314,2.70274,0,0.000885,0,0
0:0:28.286,22.4635,2.86132,0,0.000885,0,0
0:0:28.784,23.4599,2.98543,0,0.000885,0,0
0:0:29.281,24.3407,3.09575,0,0.000885,0,0
0:0:29.779,25.4527,3.24054,0,0.000885,0,0
0:0:30.285,26.2756,3.34396,0,0.000885,0,0
0:0:30.790,26.7427,3.40601,0,0.000885,0,0
0:0:31.298,27.7436,3.53012,0,0.000885,0,0
0:0:31.795,28.6821,3.65422,0,0.000885,0,0
0:0:32.291,29.0335,3.69559,0,0.000885,0,0
0:0:32.787,30.5548,3.88864,0,0.000885,0,0
0:0:33.285,31.6135,4.02654,0,0.000885,0,0
0:0:33.782,32.8457,4.18512,0,0.000885,0,0
0:0:34.280,34.1357,4.3437,0,0.000885,0,0
0:0:34.777,35.2477,4.48849,0,0.000885,0,0
0:0:35.281,35.8349,4.56433,0,0.000885,0,0
0:0:35.790,36.4799,4.64707,0,0.000885,0,0
0:0:36.293,37.067,4.72291,0,0.000885,0,0
0:0:36.795,38.4148,4.88838,0,0.000885,0,0
0:0:37.292,39.2378,4.9987,0,0.000885,0,0
0:0:37.789,40.292,5.1297,0,0.000885,0,0
0:0:38.289,41.3507,5.26759,0,0.000885,0,0
0:0:38.786,42.1691,5.37102,0,0.000885,0,0
0:0:39.284,43.2856,5.50891,0,0.000885,0,0
0:0:39.782,44.5756,5.67439,0,0.000885,0,0
0:0:40.279,45.1628,5.75023,0,0.000885,0,0
0:0:40.787,46.6263,5.93639,0,0.000885,0,0
0:0:41.293,47.2134,6.01223,0,0.000885,0,0
0:0:41.797,48.797,6.21218,0,0.000885,0,0
0:0:42.293,49.2062,6.26733,0,0.000885,0,0
0:0:42.791,50.2026,6.39144,0,0.000885,0,0
0:0:43.287,51.6127,6.5707,0,0.000885,0,0
0:0:43.785,51.9641,6.61897,0,0.000885,0,0
0:0:44.281,53.3119,6.79134,0,0.000885,0,0
0:0:44.779,54.077,6.88786,0,0.000885,0,0
0:0:45.277,55.1891,7.02576,0,0.000885,0,0
0:0:45.784,56.012,7.12918,0,0.000885,0,0
0:0:46.291,56.8928,7.24639,0,0.000885,0,0
0:0:46.795,57.8313,7.3636,0,0.000885,0,0
0:0:47.295,59.2948,7.54976,0,0.000885,0,0
0:0:47.791,60.4691,7.70144,0,0.000885,0,0
0:0:48.287,60.7627,7.73592,0,0.000885,0,0
0:0:48.782,62.0527,7.90139,0,0.000885,0,0
0:0:49.281,63.1647,8.03929,0,0.000885,0,0
0:0:49.777,64.517,8.21166,0,0.000885,0,0
0:0:50.284,64.9841,8.27371,0,0.000885,0,0
0:0:50.789,65.9226,8.39092,0,0.000885,0,0
0:0:51.294,66.8034,8.50813,0,0.000885,0,0
0:0:51.791,67.564,8.60466,0,0.000885,0,0
0:0:52.290,68.9163,8.77703,0,0.000885,0,0
0:0:52.786,69.7926,8.88734,0,0.000885,0,0
0:0:53.285,70.789,9.01145,0,0.000885,0,0
0:0:53.781,71.9633,9.16313,0,0.000885,0,0
0:0:54.281,72.9597,9.28724,0,0.000885,0,0
0:0:54.778,73.7827,9.39755,0,0.000885,0,0
0:0:55.280,74.3698,9.4665,0,0.000885,0,0
0:0:55.787,76.069,9.68713,0,0.000885,0,0
0:0:56.290,76.6562,9.76298,0,0.000885,0,0
0:0:56.795,77.9462,9.92156,0,0.000885,0,0
0:0:57.290,79.0004,10.0595,0,0.000885,0,0
0:0:57.789,79.7655,10.156,0,0.000885,0,0
0:0:58.286,80.5262,10.2525,0,0.000885,0,0
0:0:58.784,81.3491,10.3559,0,0.000885,0,0
0:0:59.281,82.5234,10.5076,0,0.000885,0,0
0:0:59.780,83.8134,10.6731,0,0.000885,0,0
0:1:0.287,84.574,10.7696,0,0.000885,0,0
0:1:0.796,86.2154,10.9765,0,0.000885,0,0
0:1:1.300,86.8604,11.0592,0,0.000885,0,0
0:1:1.801,86.8026,11.0523,0,0.000885,0,0
0:1:2.299,88.2082,11.2316,0,0.000885,0,0
0:1:2.796,89.734,11.4246,0,0.000885,0,0
0:1:3.295,90.6147,11.5349,0,0.000885,0,0
0:1:3.792,91.6111,11.6659,0,0.000885,0,0
0:1:4.289,92.0248,11.7142,0,0.000885,0,0
0:1:4.785,92.7855,11.8107,0,0.000885,0,0
0:1:5.285,94.1911,11.99,0,0.000885,0,0
0:1:5.791,95.6012,12.1692,0,0.000885,0,0
0:1:6.297,96.4819,12.2865,0,0.000885,0,0
0:1:6.800,97.7719,12.4519,0,0.000885,0,0
0:1:7.299,98.7105,12.5691,0,0.000885,0,0
0:1:7.795,99.5868,12.6795,0,0.000885,0,0
0:1:8.292,100,12.7346,0,0.000885,0,0
0:1:8.789,100.939,12.8518,0,0.000885,0,0
0:1:9.288,102.287,13.0242,0,0.000885,0,0
0:1:9.785,102.874,13.1,0,0.000885,0,0
0:1:10.292,104.164,13.2655,0,0.000885,0,0
0:1:10.797,104.925,13.362,0,0.000885,0,0
0:1:11.303,106.45,13.5551,0,0.000885,0,0
0:1:11.801,106.98,13.624,0,0.000885,0,0
0:1:12.299,107.918,13.7413,0,0.000885,0,0
0:1:12.795,109.266,13.9136,0,0.000885,0,0
0:1:13.292,110.263,14.0377,0,0.000885,0,0
0:1:13.788,111.028,14.1343,0,0.000885,0,0
0:1:14.286,112.14,14.279,0,0.000885,0,0
0:1:14.783,112.9,14.3756,0,0.000885,0,0
0:1:15.291,114.017,14.5204,0,0.000885,0,0
0:1:15.797,115.129,14.6583,0,0.000885,0,0
0:1:16.301,115.778,14.741,0,0.000885,0,0
0:1:16.800,116.89,14.8858,0,0.000885,0,0
0:1:17.297,118.296,15.065,0,0.000885,0,0
0:1:17.795,119.297,15.1892,0,0.000885,0,0
0:1:18.291,120.235,15.3064,0,0.000885,0,0
0:1:18.789,120.938,15.396,0,0.000885,0,0
0:1:19.287,122.108,15.5477,0,0.000885,0,0
0:1:19.784,122.58,15.6097,0,0.000885,0,0
0:1:20.288,123.634,15.7407,0,0.000885,0,0
0:1:20.798,124.75,15.8855,0,0.000885,0,0
0:1:21.300,125.925,16.0303,0,0.000885,0,0
0:1:21.798,126.57,16.113,0,0.000885,0,0
0:1:22.298,127.918,16.2854,0,0.000885,0,0
0:1:22.791,128.798,16.3957,0,0.000885,0,0
0:1:23.290,129.559,16.4992,0,0.000885,0,0
0:1:23.787,130.791,16.6508,0,0.000885,0,0
0:1:24.285,132.023,16.8094,0,0.000885,0,0
0:1:24.782,132.784,16.9059,0,0.000885,0,0
0:1:25.284,133.843,17.0438,0,0.000885,0,0
0:1:25.791,134.425,17.1128,0,0.000885,0,0
0:1:26.295,135.426,17.2438,0,0.000885,0,0
0:1:26.799,136.423,17.3679,0,0.000885,0,0
0:1:27.298,137.535,17.5127,0,0.000885,0,0
0:1:27.795,138.473,17.6299,0,0.000885,0,0
0:1:28.295,139.527,17.7678,0,0.000885,0,0
0:1:28.792,140.644,17.9057,0,0.000885,0,0
0:1:29.289,141.698,18.0436,0,0.000885,0,0
0:1:29.787,142.17,18.0987,0,0.000885,0,0
0:1:30.283,143.344,18.2504,0,0.000885,0,0
0:1:30.791,144.75,18.4297,0,0.000885,0,0
0:1:31.295,145.573,18.5331,0,0.000885,0,0
0:1:31.799,146.569,18.6641,0,0.000885,0,0
0:1:32.296,147.739,18.8089,0,0.000885,0,0
0:1:32.793,148.971,18.9675,0,0.000885,0,0
0:1:33.289,149.029,18.9744,0,0.000885,0,0
0:1:33.787,150.261,19.133,0,0.000885,0,0
0:1:34.284,151.435,19.2846,0,0.000885,0,0
0:1:34.782,152.196,19.3812,0,0.000885,0,0
0:1:35.288,153.664,19.5673,0,0.000885,0,0
0:1:35.795,154.545,19.6776,0,0.000885,0,0
0:1:36.301,155.363,19.7811,0,0.000885,0,0
0:1:36.802,155.892,19.85,0,0.000885,0,0
0:1:37.300,156.831,19.9672,0,0.000885,0,0
0:1:37.796,158.241,20.1465,0,0.000885,0,0
0:1:38.292,159.117,20.2568,0,0.000885,0,0
0:1:38.790,160.527,20.4361,0,0.000885,0,0
0:1:39.287,160.821,20.4774,0,0.000885,0,0
0:1:39.783,161.817,20.6015,0,0.000885,0,0
0:1:40.288,163.401,20.8015,0,0.000885,0,0
0:1:40.796,164.219,20.9118,0,0.000885,0,0
0:1:41.300,165.22,21.0359,0,0.000885,0,0
0:1:41.799,166.39,21.1876,0,0.000885,0,0
0:1:42.299,167.387,21.3117,0,0.000885,0,0
0:1:42.795,168.267,21.422,0,0.000885,0,0
0:1:43.292,168.561,21.4634,0,0.000885,0,0
0:1:43.788,170.087,21.6564,0,0.000885,0,0
0:1:44.287,170.732,21.7392,0,0.000885,0,0
0:1:44.785,171.728,21.8633,0,0.000885,0,0
0:1:45.283,172.724,21.9943,0,0.000885,0,0
0:1:45.792,173.899,22.1391,0,0.000885,0,0
0:1:46.297,174.895,22.2701,0,0.000885,0,0
0:1:46.800,175.892,22.3942,0,0.000885,0,0
0:1:47.298,177.302,22.5734,0,0.000885,0,0
0:1:47.795,177.769,22.6355,0,0.000885,0,0
0:1:48.291,178.885,22.7734,0,0.000885,0,0
0:1:48.790,179.704,22.8837,0,0.000885,0,0
0:1:49.286,180.878,23.0285,0,0.000885,0,0
0:1:49.784,181.932,23.1664,0,0.000885,0,0
0:1:50.288,182.755,23.2698,0,0.000885,0,0
0:1:50.797,183.516,23.3663,0,0.000885,0,0
0:1:51.301,184.517,23.4904,0,0.000885,0,0
0:1:51.806,185.335,23.6008,0,0.000885,0,0
0:1:52.304,186.509,23.7455,0,0.000885,0,0
0:1:52.801,187.27,23.8421,0,0.000885,0,0
0:1:53.297,188.56,24.0075,0,0.000885,0,0
0:1:53.795,189.792,24.1661,0,0.000885,0,0
0:1:54.290,190.673,24.2764,0,0.000885,0,0
0:1:54.787,192.079,24.4557,0,0.000885,0,0
0:1:55.294,193.08,24.5867,0,0.000885,0,0
0:1:55.796,193.782,24.6763,0,0.000885,0,0
0:1:56.297,194.076,24.7108,0,0.000885,0,0
0:1:56.789,195.482,24.8901,0,0.000885,0,0
0:1:57.284,196.42,25.0073,0,0.000885,0,0
0:1:57.787,197.417,25.1383,0,0.000885,0,0
0:1:58.282,198.355,25.2555,0,0.000885,0,0
0:1:58.784,199.765,25.4348,0,0.000885,0,0
0:1:59.289,200.468,25.5244,0,0.000885,0,0
0:1:59.782,201.349,25.6347,0,0.000885,0,0
0:2:0.291,202.639,25.8002,0,0.000885,0,0
0:2:0.794,203.226,25.876,0,0.000885,0,0
0:2:1.295,204.516,26.0415,0,0.000885,0,0
0:2:1.792,205.161,26.1242,0,0.000885,0,0
0:2:2.286,206.509,26.2966,0,0.000885,0,0
0:2:2.790,207.389,26.4069,0,0.000885,0,0
0:2:3.285,208.208,26.5103,0,0.000885,0,0
0:2:3.788,209.44,26.6689,0,0.000885,0,0
0:2:4.292,209.791,26.7103,0,0.000885,0,0
0:2:4.786,211.317,26.9033,0,0.000885,0,0
0:2:5.289,212.256,27.0274,0,0.000885,0,0
0:2:5.794,213.016,27.124,0,0.000885,0,0
0:2:6.295,214.191,27.2688,0,0.000885,0,0
0:2:6.796,215.187,27.3998,0,0.000885,0,0
0:2:7.290,216.304,27.5377,0,0.000885,0,0
0:2:7.785,217.122,27.648,0,0.000885,0,0
0:2:8.285,218.123,27.7721,0,0.000885,0,0
0:2:8.788,219.062,27.8893,0,0.000885,0,0
0:2:9.291,219.707,27.972,0,0.000885,0,0
0:2:9.785,221.054,28.1444,0,0.000885,0,0
0:2:10.287,222.166,28.2892,0,0.000885,0,0
0:2:10.790,223.283,28.4271,0,0.000885,0,0
0:2:11.292,224.101,28.5305,0,0.000885,0,0
0:2:11.791,225.396,28.696,0,0.000885,0,0
0:2:12.285,225.685,28.7373,0,0.000885,0,0
0:2:12.790,226.334,28.8201,0,0.000885,0,0
0:2:13.284,227.798,29.0062,0,0.000885,0,0
0:2:13.787,228.914,29.1441,0,0.000885,0,0
0:2:14.290,230.026,29.2889,0,0.000885,0,0
0:2:14.783,231.374,29.4613,0,0.000885,0,0
0:2:15.285,232.082,29.5509,0,0.000885,0,0
0:2:15.789,232.784,29.6406,0,0.000885,0,0
0:2:16.290,233.781,29.7647,0,0.000885,0,0
0:2:16.786,235.013,29.9232,0,0.000885,0,0
0:2:17.289,235.48,29.9853,0,0.000885,0,0
0:2:17.792,236.89,30.1646,0,0.000885,0,0
0:2:18.287,237.771,30.2749,0,0.000885,0,0
0:2:18.791,238.647,30.3852,0,0.000885,0,0
0:2:19.285,239.354,30.4748,0,0.000885,0,0
0:2:19.788,240.466,30.6196,0,0.000885,0,0
0:2:20.281,241.756,30.7782,0,0.000885,0,0
0:2:20.787,242.521,30.8816,0,0.000885,0,0
0:2:21.289,243.282,30.9781,0,0.000885,0,0
0:2:21.789,244.75,31.1643,0,0.000885,0,0
0:2:22.292,245.804,31.2953,0,0.000885,0,0
0:2:22.786,246.627,31.3987,0,0.000885,0,0
0:2:23.289,247.975,31.5711,0,0.000885,0,0
0:2:23.781,248.856,31.6883,0,0.000885,0,0
0:2:24.285,249.323,31.7435,0,0.000885,0,0
0:2:24.790,250.906,31.9434,0,0.000885,0,0
0:2:25.294,251.845,32.0675,0,0.000885,0,0
0:2:25.797,252.374,32.1365,0,0.000885,0,0
0:2:26.299,253.255,32.2468,0,0.000885,0,0
0:2:26.799,254.545,32.4123,0,0.000885,0,0
0:2:27.291,255.128,32.4812,0,0.000885,0,0
0:2:27.786,256.302,32.6329,0,0.000885,0,0
0:2:28.287,257.241,32.7501,0,0.000885,0,0
0:2:28.780,258.121,32.8673,0,0.000885,0,0
0:2:29.286,259.527,33.0466,0,0.000885,0,0
0:2:29.789,260.114,33.1155,0,0.000885,0,0
0:2:30.292,261.64,33.3155,0,0.000885,0,0
0:2:30.795,262.227,33.3844,0,0.000885,0,0
0:2:31.297,263.459,33.543,0,0.000885,0,0
0:2:31.790,264.629,33.6947,0,0.000885,0,0
0:2:32.294,264.865,33.7223,0,0.000885,0,0
0:2:32.785,265.924,33.8602,0,0.000885,0,0
0:2:33.289,267.036,33.998,0,0.000885,0,0
0:2:33.791,267.796,34.0946,0,0.000885,0,0
0:2:34.286,269.5,34.3152,0,0.000885,0,0
0:2:34.790,270.612,34.4531,0,0.000885,0,0
0:2:35.290,271.257,34.5358,0,0.000885,0,0
0:2:35.793,272.547,34.7013,0,0.000885,0,0
0:2:36.295,273.721,34.853,0,0.000885,0,0
0:2:36.790,274.073,34.8944,0,0.000885,0,0
0:2:37.286,274.66,34.9702,0,0.000885,0,0
0:2:37.789,275.656,35.1012,0,0.000885,0,0
0:2:38.291,276.421,35.1977,0,0.000885,0,0
0:2:38.786,278.236,35.4253,0,0.000885,0,0
0:2:39.290,278.944,35.5149,0,0.000885,0,0
0:2:39.795,279.704,35.6114,0,0.000885,0,0
0:2:40.291,280.821,35.7562,0,0.000885,0,0
0:2:40.796,281.755,35.8734,0,0.000885,0,0
0:2:41.296,282.636,35.9837,0,0.000885,0,0
0:2:41.797,284.455,36.2182,0,0.000885,0,0
0:2:42.289,285.216,36.3147,0,0.000885,0,0
0:2:42.794,286.154,36.4319,0,0.000885,0,0
0:2:43.286,286.568,36.4871,0,0.000885,0,0
0:2:43.789,287.386,36.5905,0,0.000885,0,0
0:2:44.293,288.445,36.7284,0,0.000885,0,0
0:2:44.788,289.966,36.9214,0,0.000885,0,0
0:2:45.293,290.438,36.9766,0,0.000885,0,0
0:2:45.798,291.67,37.1352,0,0.000885,0,0
0:2:46.299,292.137,37.1972,0,0.000885,0,0
0:2:46.798,293.605,37.3834,0,0.000885,0,0
0:2:47.292,294.953,37.5557,0,0.000885,0,0
0:2:47.795,295.655,37.6454,0,0.000885,0,0
0:2:48.289,296.127,37.7005,0,0.000885,0,0
0:2:48.792,297.475,37.8729,0,0.000885,0,0
0:2:49.289,298.649,38.0246,0,0.000885,0,0
0:2:49.792,299.41,38.1211,0,0.000885,0,0
0:2:50.295,300.468,38.259,0,0.000885,0,0
0:2:50.801,301.638,38.4038,0,0.000885,0,0
0:2:51.301,302.283,38.4865,0,0.000885,0,0
0:2:51.803,303.693,38.6658,0,0.000885,0,0
0:2:52.297,304.574,38.7761,0,0.000885,0,0
0:2:52.790,305.686,38.9209,0,0.000885,0,0
0:2:53.293,306.509,39.0243,0,0.000885,0,0
0:2:53.796,307.212,39.114,0,0.000885,0,0
0:2:54.289,308.853,39.3277,0,0.000885,0,0
0:2:54.792,309.498,39.4035,0,0.000885,0,0
0:2:55.283,310.086,39.4794,0,0.000885,0,0
0:2:55.787,310.966,39.5966,0,0.000885,0,0
0:2:56.290,312.314,39.7621,0,0.000885,0,0
0:2:56.790,313.31,39.8931,0,0.000885,0,0
0:2:57.295,314.365,40.0241,0,0.000885,0,0
0:2:57.789,315.13,40.1206,0,0.000885,0,0
0:2:58.293,315.89,40.2171,0,0.000885,0,0
0:2:58.797,317.243,40.3895,0,0.000885,0,0
0:2:59.290,318.061,40.4998,0,0.000885,0,0
0:2:59.792,319.058,40.6239,0,0.000885,0,0
0:3:0.294,320.41,40.7963,0,0.000885,0,0
0:3:0.796,321.055,40.879,0,0.000885,0,0
0:3:1.297,322.109,41.01,0,0.000885,0,0
0:3:1.799,322.99,41.1272,0,0.000885,0,0
0:3:2.292,324.16,41.272,0,0.000885,0,0
0:3:2.784,324.983,41.3754,0,0.000885,0,0
0:3:3.289,326.215,41.534,0,0.000885,0,0
0:3:3.791,327.389,41.6857,0,0.000885,0,0
0:3:4.285,327.914,41.7547,0,0.000885,0,0
0:3:4.789,328.386,41.8098,0,0.000885,0,0
0:3:5.289,329.907,42.0029,0,0.000885,0,0
0:3:5.792,331.317,42.1821,0,0.000885,0,0
0:3:6.293,332.14,42.2924,0,0.000885,0,0
0:3:6.790,333.136,42.4165,0,0.000885,0,0
0:3:7.296,333.897,42.5131,0,0.000885,0,0
0:3:7.789,334.893,42.6372,0,0.000885,0,0
0:3:8.292,335.423,42.7061,0,0.000885,0,0
0:3:8.796,336.891,42.8923,0,0.000885,0,0
0:3:9.289,337.651,42.9888,0,0.000885,0,0
0:3:9.792,338.474,43.0922,0,0.000885,0,0
0:3:10.285,339.822,43.2646,0,0.000885,0,0
0:3:10.791,340.76,43.3887,0,0.000885,0,0
0:3:11.290,341.993,43.5404,0,0.000885,0,0
0:3:11.791,342.638,43.6231,0,0.000885,0,0
0:3:12.296,343.87,43.7817,0,0.000885,0,0
0:3:12.799,344.159,43.8231,0,0.000885,0,0
0:3:13.291,345.685,44.0161,0,0.000885,0,0
0:3:13.796,346.743,44.1471,0,0.000885,0,0
0:3:14.298,347.446,44.2368,0,0.000885,0,0
0:3:14.792,348.558,44.3816,0,0.000885,0,0
0:3:15.295,349.675,44.5194,0,0.000885,0,0
0:3:15.797,350.435,44.616,0,0.000885,0,0
0:3:16.299,351.668,44.7746,0,0.000885,0,0
0:3:16.799,353.015,44.9469,0,0.000885,0,0
0:3:17.292,353.66,45.0297,0,0.000885,0,0
0:3:17.795,354.599,45.1469,0,0.000885,0,0
0:3:18.286,355.422,45.2503,0,0.000885,0,0
0:3:18.791,356.77,45.4227,0,0.000885,0,0
0:3:19.295,357.766,45.5537,0,0.000885,0,0
0:3:19.797,358.647,45.664,0,0.000885,0,0
0:3:20.300,359.234,45.7398,0,0.000885,0,0
0:3:20.801,360.35,45.8777,0,0.000885,0,0
0:3:21.302,361.347,46.0087,0,0.000885,0,0
0:3:21.796,362.517,46.1604,0,0.000885,0,0
0:3:22.291,363.811,46.319,0,0.000885,0,0
0:3:22.795,364.278,46.381,0,0.000885,0,0
0:3:23.299,365.568,46.5465,0,0.000885,0,0
0:3:23.792,366.155,46.6223,0,0.000885,0,0
0:3:24.297,367.21,46.7533,0,0.000885,0,0
0:3:24.799,368.384,46.905,0,0.000885,0,0
0:3:25.297,369.322,47.0222,0,0.000885,0,0
0:3:25.801,370.319,47.1532,0,0.000885,0,0
0:3:26.303,371.435,47.2911,0,0.000885,0,0
0:3:26.801,371.902,47.3532,0,0.000885,0,0
0:3:27.295,373.135,47.5118,0,0.000885,0,0
0:3:27.787,374.482,47.6841,0,0.000885,0,0
0:3:28.295,375.657,47.8289,0,0.000885,0,0
0:3:28.798,376.36,47.9186,0,0.000885,0,0
0:3:29.300,377.062,48.0082,0,0.000885,0,0
0:3:29.795,378.295,48.1668,0,0.000885,0,0
0:3:30.298,378.882,48.2426,0,0.000885,0,0
0:3:30.800,380.114,48.3943,0,0.000885,0,0
0:3:31.302,380.701,48.4701,0,0.000885,0,0
0:3:31.801,381.755,48.608,0,0.000885,0,0
0:3:32.296,382.987,48.7666,0,0.000885,0,0
0:3:32.799,384.042,48.8976,0,0.000885,0,0
0:3:33.293,384.687,48.9804,0,0.000885,0,0
0:3:33.797,385.981,49.1458,0,0.000885,0,0
0:3:34.301,386.857,49.2561,0,0.000885,0,0
0:3:34.793,387.622,49.3527,0,0.000885,0,0
0:3:35.298,389.322,49.5733,0,0.000885,0,0
0:3:35.801,390.202,49.6836,0,0.000885,0,0
0:3:36.302,391.021,49.787,0,0.000885,0,0
0:3:36.801,391.959,49.9043,0,0.000885,0,0
0:3:37.296,392.725,50.0008,0,0.000885,0,0
0:3:37.801,394.015,50.1663,0,0.000885,0,0
0:3:38.295,394.424,50.2214,0,0.000885,0,0
0:3:38.797,395.598,50.3662,0,0.000885,0,0
0:3:39.301,397.066,50.5524,0,0.000885,0,0
0:3:39.793,397.591,50.6213,0,0.000885,0,0
0:3:40.297,398.414,50.7247,0,0.000885,0,0
0:3:40.799,399.468,50.8626,0,0.000885,0,0
0:3:41.300,400.994,51.0557,0,0.000885,0,0
0:3:41.795,401.523,51.1246,0,0.000885,0,0
0:3:42.298,402.577,51.2556,0,0.000885,0,0
0:3:42.793,403.983,51.4349,0,0.000885,0,0
0:3:43.296,404.748,51.5314,0,0.000885,0,0
0:3:43.801,405.745,51.6624,0,0.000885,0,0
0:3:44.293,406.683,51.7796,0,0.000885,0,0
0:3:44.797,407.564,51.8899,0,0.000885,0,0
0:3:45.300,408.56,52.0209,0,0.000885,0,0
0:3:45.801,409.557,52.145,0,0.000885,0,0
0:3:46.302,410.731,52.2967,0,0.000885,0,0
0:3:46.797,411.549,52.4002,0,0.000885,0,0
0:3:47.299,412.252,52.4898,0,0.000885,0,0
0:3:47.803,413.311,52.6277,0,0.000885,0,0
0:3:48.297,413.956,52.7035,0,0.000885,0,0
0:3:48.801,415.597,52.9173,0,0.000885,0,0
0:3:49.296,416.714,53.0552,0,0.000885,0,0
0:3:49.799,417.532,53.1586,0,0.000885,0,0
0:3:50.299,418.177,53.2413,0,0.000885,0,0
0:3:50.802,419.645,53.4275,0,0.000885,0,0
0:3:51.302,419.997,53.4757,0,0.000885,0,0
0:3:51.799,421.465,53.6619,0,0.000885,0,0
0:3:52.293,422.399,53.7791,0,0.000885,0,0
0:3:52.798,423.164,53.8756,0,0.000885,0,0
0:3:53.290,423.924,53.9791,0,0.000885,0,0
0:3:53.796,425.214,54.1376,0,0.000885,0,0
0:3:54.300,426.273,54.2755,0,0.000885,0,0
0:3:54.793,427.505,54.4341,0,0.000885,0,0
0:3:55.300,428.15,54.5168,0,0.000885,0,0
0:3:55.803,429.147,54.641,0,0.000885,0,0
0:3:56.305,429.556,54.6961,0,0.000885,0,0
0:3:56.804,431.197,54.903,0,0.000885,0,0
0:3:57.298,432.256,55.034,0,0.000885,0,0
0:3:57.802,433.017,55.1305,0,0.000885,0,0
0:3:58.291,433.546,55.1994,0,0.000885,0,0
0:3:58.799,434.952,55.3787,0,0.000885,0,0
0:3:59.302,436.068,55.5235,0,0.000885,0,0
0:3:59.797,436.771,55.6131,0,0.000885,0,0
0:4:0.300,437.883,55.751,0,0.000885,0,0
0:4:0.802,438.942,55.8889,0,0.000885,0,0
0:4:1.303,439.996,56.0199,0,0.000885,0,0
0:4:1.805,441.344,56.1923,0,0.000885,0,0
0:4:2.300,441.931,56.2681,0,0.000885,0,0
0:4:2.803,442.576,56.3509,0,0.000885,0,0
0:4:3.305,444.044,56.537,0,0.000885,0,0
0:4:3.799,444.924,56.6473,0,0.000885,0,0
0:4:4.302,445.569,56.7301,0,0.000885,0,0
0:4:4.795,446.214,56.8128,0,0.000885,0,0
0:4:5.298,447.798,57.0127,0,0.000885,0,0
0:4:5.801,449.03,57.1713,0,0.000885,0,0
0:4:6.302,450.027,57.3023,0,0.000885,0,0
0:4:6.802,451.432,57.4816,0,0.000885,0,0
0:4:7.296,451.726,57.5161,0,0.000885,0,0
0:4:7.799,452.607,57.6264,0,0.000885,0,0
0:4:8.302,453.661,57.7643,0,0.000885,0,0
0:4:8.796,454.719,57.8953,0,0.000885,0,0
0:4:9.299,455.48,57.9918,0,0.000885,0,0
0:4:9.801,456.477,58.1228,0,0.000885,0,0
0:4:10.302,457.415,58.24,0,0.000885,0,0
0:4:10.805,458.999,58.44,0,0.000885,0,0
0:4:11.305,459.35,58.4882,0,0.000885,0,0
0:4:11.800,460.934,58.6882,0,0.000885,0,0
0:4:12.305,461.169,58.7158,0,0.000885,0,0
0:4:12.797,462.344,58.8674,0,0.000885,0,0
0:4:13.301,463.514,59.0191,0,0.000885,0,0
0:4:13.804,464.688,59.1639,0,0.000885,0,0
0:4:14.298,465.039,59.2122,0,0.000885,0,0
0:4:14.802,466.623,59.4121,0,0.000885,0,0
0:4:15.307,467.326,59.5018,0,0.000885,0,0
0:4:15.811,468.678,59.6741,0,0.000885,0,0
0:4:16.311,469.145,59.7362,0,0.000885,0,0
0:4:16.812,470.262,59.8741,0,0.000885,0,0
0:4:17.305,471.374,60.0189,0,0.000885,0,0
0:4:17.799,472.197,60.1223,0,0.000885,0,0
0:4:18.302,473.251,60.2533,0,0.000885,0,0
0:4:18.807,474.776,60.4532,0,0.000885,0,0
0:4:19.299,475.479,60.5429,0,0.000885,0,0
0:4:19.802,476.124,60.6187,0,0.000885,0,0
0:4:20.305,477.063,60.7428,0,0.000885,0,0
0:4:20.807,478.531,60.929,0,0.000885,0,0
0:4:21.310,479.234,61.0186,0,0.000885,0,0
0:4:21.810,479.879,61.1013,0,0.000885,0,0
0:4:22.303,481.698,61.3289,0,0.000885,0,0
0:4:22.807,482.401,61.4185,0,0.000885,0,0
0:4:23.298,483.224,61.5288,0,0.000885,0,0
0:4:23.802,483.926,61.6184,0,0.000885,0,0
0:4:24.306,485.039,61.7563,0,0.000885,0,0
0:4:24.806,486.449,61.9356,0,0.000885,0,0
0:4:25.309,487.209,62.0321,0,0.000885,0,0
0:4:25.812,488.032,62.1356,0,0.000885,0,0
0:4:26.311,488.971,62.2597,0,0.000885,0,0
0:4:26.804,489.789,62.3631,0,0.000885,0,0
0:4:27.299,490.906,62.501,0,0.000885,0,0
0:4:27.802,491.786,62.6182,0,0.000885,0,0
0:4:28.307,492.956,62.763,0,0.000885,0,0
0:4:28.800,494.073,62.9078,0,0.000885,0,0
0:4:29.293,495.011,63.025,0,0.000885,0,0
0:4:29.786,495.95,63.1491,0,0.000885,0,0
0:4:30.294,497.12,63.2939,0,0.000885,0,0
0:4:30.801,498.001,63.4042,0,0.000885,0,0
0:4:31.301,498.881,63.5214,0,0.000885,0,0
0:4:31.799,500.229,63.6938,0,0.000885,0,0
0:4:32.303,500.994,63.7903,0,0.000885,0,0
0:4:32.805,501.639,63.873,0,0.000885,0,0
0:4:33.301,502.987,64.0454,0,0.000885,0,0
0:4:33.804,503.806,64.1488,0,0.000885,0,0
0:4:34.307,504.161,64.1902,0,0.000885,0,0
0:4:34.802,505.918,64.4177,0,0.000885,0,0
0:4:35.305,506.506,64.4936,0,0.000885,0,0
0:4:35.809,507.911,64.6728,0,0.000885,0,0
0:4:36.309,508.498,64.7418,0,0.000885,0,0
0:4:36.810,509.615,64.8866,0,0.000885,0,0
0:4:37.304,510.376,64.9831,0,0.000885,0,0
0:4:37.796,511.608,65.1417,0,0.000885,0,0
0:4:38.302,513.076,65.3278,0,0.000885,0,0
0:4:38.806,513.427,65.3692,0,0.000885,0,0
0:4:39.299,514.481,65.5071,0,0.000885,0,0
0:4:39.802,515.362,65.6174,0,0.000885,0,0
0:4:40.303,516.652,65.7829,0,0.000885,0,0
0:4:40.806,517.533,65.8932,0,0.000885,0,0
0:4:41.306,518.236,65.9828,0,0.000885,0,0
0:4:41.806,519.526,66.1483,0,0.000885,0,0
0:4:42.300,519.997,66.2104,0,0.000885,0,0
0:4:42.803,521.051,66.3414,0,0.000885,0,0
0:4:43.296,522.163,66.4861,0,0.000885,0,0
0:4:43.800,523.222,66.6171,0,0.000885,0,0
0:4:44.303,524.512,66.7826,0,0.000885,0,0
0:4:44.806,525.451,66.8998,0,0.000885,0,0
0:4:45.309,526.683,67.0584,0,0.000885,0,0
0:4:45.811,527.27,67.1343,0,0.000885,0,0
0:4:46.312,528.146,67.2446,0,0.000885,0,0
0:4:46.807,529.085,67.3687,0,0.000885,0,0
0:4:47.301,529.672,67.4376,0,0.000885,0,0
0:4:47.806,531.256,67.6445,0,0.000885,0,0
0:4:48.301,532.252,67.7686,0,0.000885,0,0
0:4:48.804,533.368,67.9134,0,0.000885,0,0
0:4:49.299,534.307,68.0306,0,0.000885,0,0
0:4:49.802,535.126,68.134,0,0.000885,0,0
0:4:50.299,536.126,68.2581,0,0.000885,0,0
0:4:50.803,537.06,68.3822,0,0.000885,0,0
0:4:51.303,537.941,68.4925,0,0.000885,0,0
0:4:51.801,539.173,68.6511,0,0.000885,0,0
0:4:52.306,539.761,68.7269,0,0.000885,0,0
0:4:52.801,540.815,68.8579,0,0.000885,0,0
0:4:53.304,542.047,69.0165,0,0.000885,0,0
0:4:53.807,542.928,69.1268,0,0.000885,0,0
0:4:54.301,544.102,69.2785,0,0.000885,0,0
0:4:54.804,544.747,69.3613,0,0.000885,0,0
0:4:55.296,546.037,69.5267,0,0.000885,0,0
0:4:55.801,547.033,69.6508,0,0.000885,0,0
0:4:56.303,548.03,69.7749,0,0.000885,0,0
0:4:56.802,548.911,69.8922,0,0.000885,0,0
0:4:57.305,550.143,70.0438,0,0.000885,0,0
0:4:57.796,550.788,70.1266,0,0.000885,0,0
0:4:58.302,551.9,70.2714,0,0.000885,0,0
0:4:58.804,552.487,70.3472,0,0.000885,0,0
0:4:59.309,553.955,70.5334,0,0.000885,0,0
0:4:59.802,554.715,70.6299,0,0.000885,0,0
0:5:0.305,555.596,70.7402,0,0.000885,0,0
0:5:0.806,556.357,70.8367,0,0.000885,0,0
0:5:1.306,558.003,71.0436,0,0.000885,0,0
0:5:1.796,559.173,71.1953,0,0.000885,0,0
0:5:2.303,559.586,71.2504,0,0.000885,0,0
0:5:2.806,560.992,71.4297,0,0.000885,0,0
0:5:3.301,561.695,71.5193,0,0.000885,0,0
0:5:3.803,562.46,71.6158,0,0.000885,0,0
0:5:4.307,563.865,71.7951,0,0.000885,0,0
0:5:4.801,564.395,71.8641,0,0.000885,0,0
0:5:5.298,565.333,71.9813,0,0.000885,0,0
0:5:5.803,566.503,72.133,0,0.000885,0,0
0:5:6.303,567.442,72.2502,0,0.000885,0,0
0:5:6.802,568.616,72.4018,0,0.000885,0,0
0:5:7.306,569.377,72.4984,0,0.000885,0,0
0:5:7.809,570.551,72.6432,0,0.000885,0,0
0:5:8.304,571.254,72.7328,0,0.000885,0,0
0:5:8.796,572.428,72.8845,0,0.000885,0,0
0:5:9.302,573.718,73.05,0,0.000885,0,0
0:5:9.806,575.008,73.2154,0,0.000885,0,0
0:5:10.309,575.48,73.2706,0,0.000885,0,0
0:5:10.813,576.183,73.3602,0,0.000885,0,0
0:5:11.313,577.651,73.5464,0,0.000885,0,0
0:5:11.815,578.82,73.6981,0,0.000885,0,0
0:5:12.309,579.114,73.7325,0,0.000885,0,0
0:5:12.803,579.879,73.8291,0,0.000885,0,0
0:5:13.306,581.285,74.0083,0,0.000885,0,0
0:5:13.809,581.93,74.0911,0,0.000885,0,0
0:5:14.303,583.571,74.3048,0,0.000885,0,0
0:5:14.793,584.923,74.4772,0,0.000885,0,0
0:5:15.297,585.333,74.5254,0,0.000885,0,0
0:5:15.802,585.92,74.6013,0,0.000885,0,0
0:5:16.304,586.974,74.7392,0,0.000885,0,0
0:5:16.804,587.619,74.815,0,0.000885,0,0
0:5:17.299,589.087,75.0081,0,0.000885,0,0
0:5:17.793,590.377,75.1666,0,0.000885,0,0
0:5:18.291,591.378,75.2976,0,0.000885,0,0
0:5:18.785,592.548,75.4424,0,0.000885,0,0
0:5:19.281,593.313,75.5459,0,0.000885,0,0
0:5:19.797,594.136,75.6493,0,0.000885,0,0
0:5:20.292,594.954,75.7527,0,0.000885,0,0
0:5:20.798,596.013,75.8837,0,0.000885,0,0
0:5:21.303,596.658,75.9664,0,0.000885,0,0
0:5:21.806,597.716,76.1043,0,0.000885,0,0
0:5:22.300,598.828,76.2422,0,0.000885,0,0
0:5:22.797,600.065,76.4008,0,0.000885,0,0
0:5:23.303,600.826,76.4973,0,0.000885,0,0
0:5:23.809,601.884,76.6352,0,0.000885,0,0
0:5:24.304,603.117,76.7938,0,0.000885,0,0
0:5:24.798,604.229,76.9317,0,0.000885,0,0
0:5:25.307,604.642,76.9869,0,0.000885,0,0
0:5:25.810,606.168,77.1799,0,0.000885,0,0
0:5:26.313,606.64,77.242,0,0.000885,0,0
0:5:26.810,607.752,77.3799,0,0.000885,0,0
0:5:27.304,608.517,77.4764,0,0.000885,0,0
0:5:27.800,609.455,77.6005,0,0.000885,0,0
0:5:28.297,610.63,77.7453,0,0.000885,0,0
0:5:28.804,612.098,77.9314,0,0.000885,0,0
0:5:29.299,612.685,78.0073,0,0.000885,0,0
0:5:29.794,613.623,78.1314,0,0.000885,0,0
0:5:30.304,614.74,78.2693,0,0.000885,0,0
0:5:30.808,615.385,78.352,0,0.000885,0,0
0:5:31.311,616.911,78.5451,0,0.000885,0,0
0:5:31.808,617.965,78.683,0,0.000885,0,0
0:5:32.301,618.845,78.7933,0,0.000885,0,0
0:5:32.809,620.078,78.9519,0,0.000885,0,0
0:5:33.304,620.198,78.9657,0,0.000885,0,0
0:5:33.798,621.314,79.1104,0,0.000885,0,0
0:5:34.307,622.546,79.2621,0,0.000885,0,0
0:5:34.800,623.658,79.4069,0,0.000885,0,0
0:5:35.304,624.13,79.469,0,0.000885,0,0
0:5:35.810,625.246,79.6069,0,0.000885,0,0
0:5:36.312,626.594,79.7792,0,0.000885,0,0
0:5:36.811,627.653,79.9171,0,0.000885,0,0
0:5:37.309,628.356,80.0068,0,0.000885,0,0
0:5:37.804,629.824,80.1929,0,0.000885,0,0
0:5:38.301,630.704,80.3032,0,0.000885,0,0
0:5:38.796,631.292,80.3791,0,0.000885,0,0
0:5:39.305,632.702,80.5583,0,0.000885,0,0
0:5:39.798,633.169,80.6204,0,0.000885,0,0
0:5:40.308,634.227,80.7514,0,0.000885,0,0
0:5:40.813,635.46,80.91,0,0.000885,0,0
0:5:41.319,636.22,81.0065,0,0.000885,0,0
0:5:41.820,636.807,81.0823,0,0.000885,0,0
0:5:42.316,637.63,81.1858,0,0.000885,0,0
0:5:42.812,639.334,81.3995,0,0.000885,0,0
0:5:43.308,640.508,81.5512,0,0.000885,0,0
0:5:43.814,641.153,81.6339,0,0.000885,0,0
0:5:44.309,642.385,81.7925,0,0.000885,0,0
0:5:44.807,643.266,81.9028,0,0.000885,0,0
0:5:45.312,643.969,81.9925,0,0.000885,0,0
0:5:45.818,645.263,82.1579,0,0.000885,0,0
0:5:46.322,646.376,82.2958,0,0.000885,0,0
0:5:46.824,647.083,82.3923,0,0.000885,0,0
0:5:47.320,647.67,82.4613,0,0.000885,0,0
0:5:47.818,648.902,82.6199,0,0.000885,0,0
0:5:48.312,649.899,82.7509,0,0.000885,0,0
0:5:48.810,651.482,82.9508,0,0.000885,0,0
0:5:49.314,652.305,83.0542,0,0.000885,0,0
0:5:49.810,652.892,83.1301,0,0.000885,0,0
0:5:50.317,653.657,83.2266,0,0.000885,0,0
0:5:50.822,655.121,83.4128,0,0.000885,0,0
0:5:51.324,656.064,83.53,0,0.000885,0,0
0:5:51.819,656.824,83.6265,0,0.000885,0,0
0:5:52.315,657.705,83.7437,0,0.000885,0,0
0:5:52.810,658.822,83.8816,0,0.000885,0,0
0:5:53.307,659.702,83.9988,0,0.000885,0,0
0:5:53.812,661.05,84.1643,0,0.000885,0,0
0:5:54.310,661.989,84.2884,0,0.000885,0,0
0:5:54.815,662.754,84.3849,0,0.000885,0,0
0:5:55.315,663.692,84.5021,0,0.000885,0,0
0:5:55.822,664.751,84.64,0,0.000885,0,0
0:5:56.323,665.632,84.7504,0,0.000885,0,0
0:5:56.823,666.57,84.8676,0,0.000885,0,0
0:5:57.320,667.331,84.9641,0,0.000885,0,0
0:5:57.817,668.857,85.164,0,0.000885,0,0
0:5:58.313,669.795,85.2813,0,0.000885,0,0
0:5:58.809,670.561,85.3778,0,0.000885,0,0
0:5:59.303,671.913,85.5501,0,0.000885,0,0
0:5:59.800,672.38,85.6122,0,0.000885,0,0
0:6:0.307,673.906,85.8053,0,0.000885,0,0
0:6:0.812,674.844,85.9225,0,0.000885,0,0
0:6:1.317,676.018,86.0741,0,0.000885,0,0
0:6:1.818,676.254,86.1017,0,0.000885,0,0
0:6:2.314,678.251,86.3568,0,0.000885,0,0
0:6:2.811,678.719,86.4189,0,0.000885,0,0
0:6:3.303,679.657,86.5361,0,0.000885,0,0
0:6:3.800,680.48,86.6395,0,0.000885,0,0
0:6:4.304,681.245,86.736,0,0.000885,0,0
0:6:4.801,682.006,86.8326,0,0.000885,0,0
0:6:5.296,683.416,87.0118,0,0.000885,0,0
0:6:5.802,684.475,87.1497,0,0.000885,0,0
0:6:6.304,684.648,87.1704,0,0.000885,0,0
0:6:6.809,686,87.3428,0,0.000885,0,0
0:6:7.316,687.348,87.5152,0,0.000885,0,0
0:6:7.813,688.932,87.7151,0,0.000885,0,0
0:6:8.307,689.167,87.7496,0,0.000885,0,0
0:6:8.813,690.693,87.9426,0,0.000885,0,0
0:6:9.309,691.28,88.0185,0,0.000885,0,0
0:6:9.803,692.103,88.1219,0,0.000885,0,0
0:6:10.310,692.926,88.2253,0,0.000885,0,0
0:6:10.814,693.98,88.3632,0,0.000885,0,0
0:6:11.318,695.213,88.5149,0,0.000885,0,0
0:6:11.813,696.271,88.6528,0,0.000885,0,0
0:6:12.311,697.388,88.7907,0,0.000885,0,0
0:6:12.803,698.442,88.9286,0,0.000885,0,0
0:6:13.299,698.913,88.9906,0,0.000885,0,0
0:6:13.794,699.852,89.1078,0,0.000885,0,0
0:6:14.302,701.436,89.3078,0,0.000885,0,0
0:6:14.805,701.436,89.3078,0,0.000885,0,0
0:6:15.305,702.552,89.4526,0,0.000885,0,0
0:6:15.815,704.371,89.6801,0,0.000885,0,0
0:6:16.317,705.43,89.818,0,0.000885,0,0
0:6:16.817,705.724,89.8525,0,0.000885,0,0
0:6:17.313,707.307,90.0593,0,0.000885,0,0
0:6:17.809,708.304,90.1834,0,0.000885,0,0
0:6:18.316,709.006,90.2731,0,0.000885,0,0
0:6:18.811,709.887,90.3834,0,0.000885,0,0
0:6:19.318,710.888,90.5144,0,0.000885,0,0
0:6:19.814,711.769,90.6247,0,0.000885,0,0
0:6:20.312,712.414,90.7074,0,0.000885,0,0
0:6:20.818,713.94,90.9005,0,0.000885,0,0
0:6:21.320,715.23,91.066,0,0.000885,0,0
0:6:21.823,716.052,91.1694,0,0.000885,0,0
0:6:22.320,716.933,91.2797,0,0.000885,0,0
0:6:22.816,718.281,91.4521,0,0.000885,0,0
0:6:23.313,718.988,91.5417,0,0.000885,0,0
0:6:23.810,719.811,91.652,0,0.000885,0,0
0:6:24.316,720.75,91.7692,0,0.000885,0,0
0:6:24.811,721.337,91.8451,0,0.000885,0,0
0:6:25.306,722.743,92.0243,0,0.000885,0,0
0:6:25.815,723.566,92.1277,0,0.000885,0,0
0:6:26.317,724.624,92.2587,0,0.000885,0,0
0:6:26.820,725.678,92.3966,0,0.000885,0,0
0:6:27.316,726.501,92.5001,0,0.000885,0,0
0:6:27.811,727.618,92.6449,0,0.000885,0,0
0:6:28.306,728.436,92.7483,0,0.000885,0,0
0:6:28.803,729.731,92.9137,0,0.000885,0,0
0:6:29.301,730.376,92.9965,0,0.000885,0,0
0:6:29.804,731.43,93.1275,0,0.000885,0,0
0:6:30.301,732.724,93.293,0,0.000885,0,0
0:6:30.807,733.605,93.4033,0,0.000885,0,0
0:6:31.312,734.308,93.4929,0,0.000885,0,0
0:6:31.816,735.367,93.6308,0,0.000885,0,0
0:6:32.313,736.892,93.8239,0,0.000885,0,0
0:6:32.806,737.124,93.8514,0,0.000885,0,0
0:6:33.300,738.36,94.01,0,0.000885,0,0
0:6:33.807,739.472,94.1548,0,0.000885,0,0
0:6:34.303,740.353,94.2651,0,0.000885,0,0
0:6:34.799,741.354,94.3892,0,0.000885,0,0
0:6:35.306,742.23,94.5064,0,0.000885,0,0
0:6:35.813,743.64,94.6857,0,0.000885,0,0
0:6:36.314,744.463,94.7891,0,0.000885,0,0
0:6:36.810,745.108,94.8719,0,0.000885,0,0
0:6:37.315,746.225,95.0098,0,0.000885,0,0
0:6:37.811,747.515,95.1752,0,0.000885,0,0
0:6:38.316,748.573,95.3131,0,0.000885,0,0
0:6:38.813,749.098,95.3752,0,0.000885,0,0
0:6:39.306,750.157,95.5131,0,0.000885,0,0
0:6:39.802,750.98,95.6165,0,0.000885,0,0
0:6:40.306,752.448,95.8027,0,0.000885,0,0
0:6:40.813,753.266,95.9061,0,0.000885,0,0
0:6:41.314,754.325,96.044,0,0.000885,0,0
0:6:41.811,755.557,96.2025,0,0.000885,0,0
0:6:42.317,756.322,96.2991,0,0.000885,0,0
0:6:42.813,757.434,96.437,0,0.000885,0,0
0:6:43.307,757.848,96.4921,0,0.000885,0,0
0:6:43.803,759.138,96.6576,0,0.000885,0,0
0:6:44.301,759.961,96.761,0,0.000885,0,0
0:6:44.805,760.664,96.8507,0,0.000885,0,0
0:6:45.305,762.016,97.023,0,0.000885,0,0
0:6:45.813,763.128,97.1678,0,0.000885,0,0
0:6:46.315,763.6,97.223,0,0.000885,0,0
0:6:46.815,764.947,97.3953,0,0.000885,0,0
0:6:47.314,765.828,97.5057,0,0.000885,0,0
0:6:47.808,766.709,97.6229,0,0.000885,0,0
0:6:48.304,767.59,97.7332,0,0.000885,0,0
0:6:48.800,768.764,97.8849,0,0.000885,0,0
0:6:49.316,769.88,98.0228,0,0.000885,0,0
0:6:49.812,771.113,98.1813,0,0.000885,0,0
0:6:50.305,771.584,98.2434,0,0.000885,0,0
0:6:50.814,772.696,98.3813,0,0.000885,0,0
0:6:51.317,773.697,98.5123,0,0.000885,0,0
0:6:51.820,774.809,98.6502,0,0.000885,0,0
0:6:52.315,775.632,98.7536,0,0.000885,0,0
0:6:52.813,776.806,98.9053,0,0.000885,0,0
0:6:53.306,778.216,99.0846,0,0.000885,0,0
0:6:53.814,778.741,99.1535,0,0.000885,0,0
0:6:54.307,779.213,99.2156,0,0.000885,0,0
0:6:54.814,780.151,99.3328,0,0.000885,0,0
0:6:55.319,781.268,99.4707,0,0.000885,0,0
0:6:55.823,782.558,99.6361,0,0.000885,0,0
0:6:56.327,784.084,99.8361,0,0.000885,0,0
0:6:56.823,785.022,99.9533,0,0.000885,0,0
0:6:57.319,785.672,100.036,0,0.000885,0,0
0:6:57.815,786.668,100.16,0,0.000885,0,0
0:6:58.321,787.549,100.27,0,0.000885,0,0
0:6:58.818,788.487,100.395,0,0.000885,0,0
0:6:59.314,788.839,100.436,0,0.000885,0,0
0:6:59.808,790.071,100.595,0,0.000885,0,0
0:7:0.315,791.659,100.794,0,0.000885,0,0
0:7:0.819,792.477,100.905,0,0.000885,0,0
0:7:1.322,793.3,101.008,0,0.000885,0,0
0:7:1.819,794.065,101.105,0,0.000885,0,0
0:7:2.317,795.355,101.27,0,0.000885,0,0
0:7:2.810,796.178,101.374,0,0.000885,0,0
0:7:3.308,797.41,101.532,0,0.000885,0,0
0:7:3.815,798.527,101.67,0,0.000885,0,0
0:7:4.320,798.936,101.725,0,0.000885,0,0
0:7:4.817,800.226,101.891,0,0.000885,0,0
0:7:5.314,801.285,102.022,0,0.000885,0,0
0:7:5.821,802.575,102.187,0,0.000885,0,0
0:7:6.325,803.046,102.249,0,0.000885,0,0
0:7:6.827,803.749,102.339,0,0.000885,0,0
0:7:7.322,805.159,102.518,0,0.000885,0,0
0:7:7.820,806.213,102.649,0,0.000885,0,0
0:7:8.314,807.33,102.794,0,0.000885,0,0
0:7:8.810,808.211,102.904,0,0.000885,0,0
0:7:9.303,808.856,102.987,0,0.000885,0,0
0:7:9.802,810.266,103.166,0,0.000885,0,0
0:7:10.307,811.32,103.297,0,0.000885,0,0
0:7:10.814,812.085,103.401,0,0.000885,0,0
0:7:11.317,812.788,103.49,0,0.000885,0,0
0:7:11.819,813.847,103.621,0,0.000885,0,0
0:7:12.323,815.079,103.78,0,0.000885,0,0
0:7:12.820,815.96,103.89,0,0.000885,0,0
0:7:13.316,817.192,104.049,0,0.000885,0,0
0:7:13.810,818.13,104.166,0,0.000885,0,0
0:7:14.304,818.602,104.228,0,0.000885,0,0
0:7:14.809,819.598,104.352,0,0.000885,0,0
0:7:15.318,820.83,104.511,0,0.000885,0,0
0:7:15.823,821.827,104.642,0,0.000885,0,0
0:7:16.325,823.063,104.793,0,0.000885,0,0
0:7:16.820,823.766,104.883,0,0.000885,0,0
0:7:17.318,824.82,105.021,0,0.000885,0,0
0:7:17.823,825.643,105.124,0,0.000885,0,0
0:7:18.320,827.053,105.304,0,0.000885,0,0
0:7:18.815,828.05,105.428,0,0.000885,0,0
0:7:19.310,828.286,105.462,0,0.000885,0,0
0:7:19.805,829.46,105.607,0,0.000885,0,0
0:7:20.304,830.986,105.807,0,0.000885,0,0
0:7:20.810,831.631,105.89,0,0.000885,0,0
0:7:21.315,832.689,106.021,0,0.000885,0,0
0:7:21.816,833.392,106.11,0,0.000885,0,0
0:7:22.324,835.038,106.317,0,0.000885,0,0
0:7:22.820,835.683,106.4,0,0.000885,0,0
0:7:23.316,836.622,106.524,0,0.000885,0,0
0:7:23.823,837.444,106.627,0,0.000885,0,0
0:7:24.318,838.263,106.731,0,0.000885,0,0
0:7:24.813,839.495,106.889,0,0.000885,0,0
0:7:25.309,840.554,107.02,0,0.000885,0,0
0:7:25.817,841.786,107.179,0,0.000885,0,0
0:7:26.319,842.431,107.262,0,0.000885,0,0
0:7:26.822,843.547,107.407,0,0.000885,0,0
0:7:27.318,844.602,107.538,0,0.000885,0,0
0:7:27.812,845.367,107.634,0,0.000885,0,0
0:7:28.308,846.07,107.724,0,0.000885,0,0
0:7:28.816,847.48,107.903,0,0.000885,0,0
0:7:29.308,847.951,107.965,0,0.000885,0,0
0:7:29.805,848.89,108.082,0,0.000885,0,0
0:7:30.313,850.238,108.255,0,0.000885,0,0
0:7:30.818,850.945,108.344,0,0.000885,0,0
0:7:31.319,852.057,108.489,0,0.000885,0,0
0:7:31.824,853.583,108.682,0,0.000885,0,0
0:7:32.320,854.29,108.772,0,0.000885,0,0
0:7:32.814,855.113,108.875,0,0.000885,0,0
0:7:33.311,856.225,109.02,0,0.000885,0,0
0:7:33.807,857.163,109.137,0,0.000885,0,0
0:7:34.312,858.4,109.296,0,0.000885,0,0
0:7:34.808,858.867,109.358,0,0.000885,0,0
0:7:35.311,859.806,109.475,0,0.000885,0,0
0:7:35.817,861.038,109.634,0,0.000885,0,0
0:7:36.320,862.154,109.771,0,0.000885,0,0
0:7:36.821,863.507,109.944,0,0.000885,0,0
0:7:37.318,864.619,110.089,0,0.000885,0,0
0:7:37.822,865.148,110.158,0,0.000885,0,0
0:7:38.319,866.207,110.289,0,0.000885,0,0
0:7:38.814,867.145,110.406,0,0.000885,0,0
0:7:39.310,867.848,110.495,0,0.000885,0,0
0:7:39.807,867.968,110.516,0,0.000885,0,0
0:7:40.313,869.725,110.737,0,0.000885,0,0
0:7:40.822,870.962,110.895,0,0.000885,0,0
0:7:41.326,872.132,111.04,0,0.000885,0,0
0:7:41.829,873.542,111.226,0,0.000885,0,0
0:7:42.325,874.129,111.295,0,0.000885,0,0
0:7:42.822,875.188,111.433,0,0.000885,0,0
0:7:43.314,875.775,111.509,0,0.000885,0,0
0:7:43.810,876.656,111.619,0,0.000885,0,0
0:7:44.307,877.416,111.716,0,0.000885,0,0
0:7:44.812,879.062,111.923,0,0.000885,0,0
0:7:45.321,879.943,112.04,0,0.000885,0,0
0:7:45.827,880.058,112.054,0,0.000885,0,0
0:7:46.332,881.878,112.281,0,0.000885,0,0
0:7:46.835,882.643,112.385,0,0.000885,0,0
0:7:47.332,883.697,112.516,0,0.000885,0,0
0:7:47.827,884.578,112.626,0,0.000885,0,0
0:7:48.323,885.81,112.784,0,0.000885,0,0
0:7:48.820,886.869,112.922,0,0.000885,0,0
0:7:49.314,887.571,113.012,0,0.000885,0,0
0:7:49.808,888.337,113.108,0,0.000885,0,0
0:7:50.315,889.684,113.281,0,0.000885,0,0
0:7:50.820,890.743,113.412,0,0.000885,0,0
0:7:51.323,891.446,113.501,0,0.000885,0,0
0:7:51.821,893.15,113.722,0,0.000885,0,0
0:7:52.315,893.674,113.784,0,0.000885,0,0
0:7:52.824,894.44,113.881,0,0.000885,0,0
0:7:53.321,895.729,114.046,0,0.000885,0,0
0:7:53.815,896.788,114.184,0,0.000885,0,0
0:7:54.311,897.549,114.281,0,0.000885,0,0
0:7:54.815,898.198,114.363,0,0.000885,0,0
0:7:55.324,899.897,114.577,0,0.000885,0,0
0:7:55.828,900.605,114.667,0,0.000885,0,0
0:7:56.330,901.308,114.756,0,0.000885,0,0
0:7:56.827,901.775,114.818,0,0.000885,0,0
0:7:57.322,903.011,114.977,0,0.000885,0,0
0:7:57.819,904.123,115.115,0,0.000885,0,0
0:7:58.325,905.943,115.349,0,0.000885,0,0
0:7:58.821,905.885,115.342,0,0.000885,0,0
0:7:59.315,907.588,115.556,0,0.000885,0,0
0:7:59.811,908.349,115.653,0,0.000885,0,0
0:8:0.313,908.999,115.735,0,0.000885,0,0
0:8:0.820,910.053,115.873,0,0.000885,0,0
0:8:1.322,911.111,116.004,0,0.000885,0,0
0:8:1.821,911.814,116.094,0,0.000885,0,0
0:8:2.327,912.753,116.218,0,0.000885,0,0
0:8:2.823,914.336,116.418,0,0.000885,0,0
0:8:3.320,915.453,116.556,0,0.000885,0,0
0:8:3.813,915.867,116.611,0,0.000885,0,0
0:8:4.311,917.099,116.77,0,0.000885,0,0
0:8:4.806,918.037,116.887,0,0.000885,0,0
0:8:5.308,919.212,117.039,0,0.000885,0,0
0:8:5.813,919.857,117.121,0,0.000885,0,0
0:8:6.316,920.853,117.245,0,0.000885,0,0
0:8:6.815,922.321,117.432,0,0.000885,0,0
0:8:7.313,922.908,117.507,0,0.000885,0,0
0:8:7.810,923.967,117.645,0,0.000885,0,0
0:8:8.307,924.963,117.769,0,0.000885,0,0
0:8:8.811,925.55,117.845,0,0.000885,0,0
0:8:9.310,927.134,118.045,0,0.000885,0,0
0:8:9.805,928.073,118.169,0,0.000885,0,0
0:8:10.303,928.953,118.28,0,0.000885,0,0
0:8:10.810,929.54,118.355,0,0.000885,0,0
0:8:11.313,930.951,118.535,0,0.000885,0,0
0:8:11.817,931.947,118.659,0,0.000885,0,0
0:8:12.323,932.77,118.762,0,0.000885,0,0
0:8:12.820,933.766,118.893,0,0.000885,0,0
0:8:13.313,934.883,119.031,0,0.000885,0,0
0:8:13.811,935.999,119.176,0,0.000885,0,0
0:8:14.314,937.053,119.307,0,0.000885,0,0
0:8:14.811,937.819,119.403,0,0.000885,0,0
0:8:15.306,938.521,119.493,0,0.000885,0,0
0:8:15.813,939.696,119.645,0,0.000885,0,0
0:8:16.316,940.812,119.79,0,0.000885,0,0
0:8:16.821,941.751,119.907,0,0.000885,0,0
0:8:17.316,942.809,120.045,0,0.000885,0,0
0:8:17.811,943.334,120.107,0,0.000885,0,0
0:8:18.306,944.215,120.224,0,0.000885,0,0
0:8:18.803,945.274,120.355,0,0.000885,0,0
0:8:19.297,946.328,120.493,0,0.000885,0,0
0:8:19.803,948.09,120.713,0,0.000885,0,0
0:8:20.307,948.619,120.782,0,0.000885,0,0
0:8:20.812,949.384,120.879,0,0.000885,0,0
0:8:21.314,950.438,121.017,0,0.000885,0,0
0:8:21.809,951.083,121.093,0,0.000885,0,0
0:8:22.307,952.493,121.272,0,0.000885,0,0
0:8:22.802,953.725,121.43,0,0.000885,0,0
0:8:23.308,954.255,121.499,0,0.000885,0,0
0:8:23.825,955.078,121.603,0,0.000885,0,0
0:8:24.322,956.074,121.734,0,0.000885,0,0
0:8:24.817,957.893,121.961,0,0.000885,0,0
0:8:25.317,958.187,122.003,0,0.000885,0,0
0:8:25.824,959.713,122.196,0,0.000885,0,0
0:8:26.327,960.3,122.272,0,0.000885,0,0
0:8:26.827,961.71,122.451,0,0.000885,0,0
0:8:27.323,962.061,122.492,0,0.000885,0,0
0:8:27.817,962.884,122.596,0,0.000885,0,0
0:8:28.313,963.703,122.706,0,0.000885,0,0
0:8:28.810,965.464,122.927,0,0.000885,0,0
0:8:29.306,966.287,123.03,0,0.000885,0,0
0:8:29.803,967.226,123.154,0,0.000885,0,0
0:8:30.309,968.284,123.285,0,0.000885,0,0
0:8:30.815,968.929,123.368,0,0.000885,0,0
0:8:31.319,970.046,123.513,0,0.000885,0,0
0:8:31.825,970.749,123.602,0,0.000885,0,0
0:8:32.319,971.981,123.754,0,0.000885,0,0
0:8:32.827,973.097,123.899,0,0.000885,0,0
0:8:33.319,973.916,124.002,0,0.000885,0,0
0:8:33.815,974.739,124.106,0,0.000885,0,0
0:8:34.310,976.207,124.292,0,0.000885,0,0
0:8:34.805,976.914,124.381,0,0.000885,0,0
0:8:35.311,977.79,124.499,0,0.000885,0,0
0:8:35.815,978.44,124.581,0,0.000885,0,0
0:8:36.319,979.32,124.692,0,0.000885,0,0
0:8:36.826,980.962,124.899,0,0.000885,0,0
0:8:37.320,981.9,125.023,0,0.000885,0,0
0:8:37.825,982.839,125.14,0,0.000885,0,0
0:8:38.320,984.013,125.292,0,0.000885,0,0
0:8:38.827,985.014,125.416,0,0.000885,0,0
0:8:39.323,986.184,125.567,0,0.000885,0,0
0:8:39.828,986.949,125.664,0,0.000885,0,0
0:8:40.331,987.888,125.781,0,0.000885,0,0
0:8:40.836,989.062,125.933,0,0.000885,0,0
0:8:41.338,989.885,126.036,0,0.000885,0,0
0:8:41.836,990.939,126.167,0,0.000885,0,0
0:8:42.333,991.82,126.284,0,0.000885,0,0
0:8:42.830,992.643,126.388,0,0.000885,0,0
0:8:43.324,993.581,126.505,0,0.000885,0,0
0:8:43.820,994.698,126.65,0,0.000885,0,0
0:8:44.316,995.93,126.808,0,0.000885,0,0
0:8:44.821,996.108,126.829,0,0.000885,0,0
0:8:45.319,997.749,127.036,0,0.000885,0,0
0:8:45.827,998.688,127.16,0,0.000885,0,0
0:8:46.330,1000.1,127.339,0,0.000885,0,0
0:8:46.832,1000.45,127.381,0,0.000885,0,0
0:8:47.328,1001.21,127.477,0,0.000885,0,0
0:8:47.825,1002.56,127.65,0,0.000885,0,0
0:8:48.319,1003.68,127.794,0,0.000885,0,0
0:8:48.816,1004.15,127.849,0,0.000885,0,0
0:8:49.312,1004.44,127.891,0,0.000885,0,0
0:8:49.828,1005.26,127.994,0,0.000885,0,0
0:8:50.332,1006.91,128.201,0,0.000885,0,0
0:8:50.839,1008.14,128.36,0,0.000885,0,0
0:8:51.342,1009.72,128.56,0,0.000885,0,0
0:8:51.844,1010.6,128.677,0,0.000885,0,0
0:8:52.342,1011.66,128.808,0,0.000885,0,0
0:8:52.838,1012.48,128.911,0,0.000885,0,0
0:8:53.334,1013.54,129.049,0,0.000885,0,0
0:8:53.830,1014.3,129.146,0,0.000885,0,0
0:8:54.326,1016,129.359,0,0.000885,0,0
0:8:54.820,1016.83,129.47,0,0.000885,0,0
0:8:55.327,1017.06,129.497,0,0.000885,0,0
0:8:55.832,1018.76,129.711,0,0.000885,0,0
0:8:56.336,1019.7,129.835,0,0.000885,0,0
0:8:56.839,1020.47,129.932,0,0.000885,0,0
0:8:57.336,1021.41,130.049,0,0.000885,0,0
0:8:57.832,1022.4,130.173,0,0.000885,0,0
0:8:58.326,1023.46,130.311,0,0.000885,0,0
0:8:58.821,1024.46,130.435,0,0.000885,0,0
0:8:59.315,1025.46,130.566,0,0.000885,0,0
0:8:59.814,1026.22,130.663,0,0.000885,0,0
0:9:0.309,1027.22,130.787,0,0.000885,0,0
0:9:0.813,1028.22,130.918,0,0.000885,0,0
0:9:1.318,1028.74,130.987,0,0.000885,0,0
0:9:1.819,1030.09,131.159,0,0.000885,0,0
0:9:2.316,1031.27,131.304,0,0.000885,0,0
0:9:2.813,1032.44,131.455,0,0.000885,0,0
0:9:3.309,1032.91,131.517,0,0.000885,0,0
0:9:3.815,1034.2,131.676,0,0.000885,0,0
0:9:4.310,1035.26,131.814,0,0.000885,0,0
0:9:4.806,1035.67,131.862,0,0.000885,0,0
0:9:5.312,1037.02,132.035,0,0.000885,0,0
0:9:5.817,1037.49,132.097,0,0.000885,0,0
0:9:6.320,1038.84,132.269,0,0.000885,0,0
0:9:6.817,1040.13,132.434,0,0.000885,0,0
0:9:7.322,1040.95,132.538,0,0.000885,0,0
0:9:7.819,1041.95,132.662,0,0.000885,0,0
0:9:8.326,1042.95,132.793,0,0.000885,0,0
0:9:8.821,1043.71,132.89,0,0.000885,0,0
0:9:9.329,1044.36,132.972,0,0.000885,0,0
0:9:9.821,1045.88,133.165,0,0.000885,0,0
0:9:10.328,1046.41,133.234,0,0.000885,0,0
0:9:10.833,1047.94,133.427,0,0.000885,0,0
0:9:11.336,1048.47,133.496,0,0.000885,0,0
0:9:11.833,1049.87,133.676,0,0.000885,0,0
0:9:12.331,1051.17,133.841,0,0.000885,0,0
0:9:12.835,1052.04,133.951,0,0.000885,0,0
0:9:13.332,1052.63,134.027,0,0.000885,0,0
0:9:13.828,1053.45,134.131,0,0.000885,0,0
0:9:14.323,1054.51,134.262,0,0.000885,0,0
0:9:14.830,1055.22,134.351,0,0.000885,0,0
0:9:15.329,1055.39,134.379,0,0.000885,0,0
0:9:15.834,1056.74,134.551,0,0.000885,0,0
0:9:16.338,1057.56,134.655,0,0.000885,0,0
0:9:16.839,1059.62,134.917,0,0.000885,0,0
0:9:17.336,1060.74,135.055,0,0.000885,0,0
0:9:17.831,1062.08,135.227,0,0.000885,0,0
0:9:18.328,1062.73,135.31,0,0.000885,0,0
0:9:18.821,1063.73,135.441,0,0.000885,0,0
0:9:19.316,1064.37,135.523,0,0.000885,0,0
0:9:19.813,1065.02,135.599,0,0.000885,0,0
0:9:20.319,1066.43,135.778,0,0.000885,0,0
0:9:20.823,1067.66,135.937,0,0.000885,0,0
0:9:21.328,1068.6,136.061,0,0.000885,0,0
0:9:21.831,1069.36,136.158,0,0.000885,0,0
0:9:22.324,1070.77,136.337,0,0.000885,0,0
0:9:22.821,1071.65,136.447,0,0.000885,0,0
0:9:23.325,1071.89,136.475,0,0.000885,0,0
0:9:23.821,1073.53,136.689,0,0.000885,0,0
0:9:24.316,1074.41,136.799,0,0.000885,0,0
0:9:24.811,1075.06,136.882,0,0.000885,0,0
0:9:25.318,1076.35,137.047,0,0.000885,0,0
0:9:25.822,1076.7,137.088,0,0.000885,0,0
0:9:26.325,1077.82,137.233,0,0.000885,0,0
0:9:26.820,1079.28,137.419,0,0.000885,0,0
0:9:27.315,1080.52,137.578,0,0.000885,0,0
0:9:27.809,1081.1,137.647,0,0.000885,0,0
0:9:28.305,1080.98,137.633,0,0.000885,0,0
0:9:28.800,1082.57,137.84,0,0.000885,0,0
0:9:29.295,1083.16,137.909,0,0.000885,0,0
0:9:29.790,1084.86,138.13,0,0.000885,0,0
0:9:30.292,1086.38,138.323,0,0.000885,0,0
0:9:30.799,1086.97,138.398,0,0.000885,0,0
0:9:31.303,1087.91,138.516,0,0.000885,0,0
0:9:31.803,1089.32,138.695,0,0.000885,0,0
0:9:32.300,1090.61,138.86,0,0.000885,0,0
0:9:32.793,1091.02,138.916,0,0.000885,0,0
0:9:33.290,1092.31,139.081,0,0.000885,0,0
0:9:33.786,1093.19,139.191,0,0.000885,0,0
0:9:34.282,1094.13,139.309,0,0.000885,0,0
0:9:34.778,1094.72,139.384,0,0.000885,0,0
0:9:35.275,1095.66,139.502,0,0.000885,0,0
0:9:35.780,1096.48,139.605,0,0.000885,0,0
0:9:36.285,1098.19,139.826,0,0.000885,0,0
0:9:36.785,1098.71,139.895,0,0.000885,0,0
0:9:37.281,1099.24,139.957,0,0.000885,0,0
0:9:37.778,1100.3,140.095,0,0.000885,0,0
0:9:38.273,1101.06,140.191,0,0.000885,0,0
0:9:38.769,1102,140.308,0,0.000885,0,0
0:9:39.264,1103.29,140.474,0,0.000885,0,0
0:9:39.761,1104.47,140.625,0,0.000885,0,0
0:9:40.265,1091.84,139.019,0,0.000885,0,0
0:9:40.539,993.172,126.457,0,0.000885,0,0