File: DataFile2021-06-08_072016.csv
Test ID:,Date Tested:,Time:,Test Type:,Diameter Avg. (mm):,Cyl. Corr. Factor:,Height (mm):,Age (days):,Weight (kN):,Break Type:,Ramp Rate (MPa/s):,Load at Break (kN):,Stress at Break (MPa):
12,6/8/2021,07:20,Cylinder,100,1,200,0,3.6,3,0.23,273.55,34.83
Sample Time,Load (kN),Stress (MPa),Long. Strain,Trans. Strain,Chan1 Deflection (mm),Chan2 Deflection (mm)
0:0:20.641,5.10211,0.648107,0,0.000885,0,0
0:0:20.842,6.92143,0.882529,0,0.000885,0,0
0:0:21.038,11.73,1.49616,0,0.000885,0,0
0:0:21.238,11.9079,1.51685,0,0.000885,0,0
0:0:21.438,11.73,1.49616,0,0.000885,0,0
0:0:21.634,11.6143,1.47548,0,0.000885,0,0
0:0:21.836,11.2629,1.43411,0,0.000885,0,0
0:0:22.032,11.1428,1.42032,0,0.000885,0,0
0:0:22.230,11.085,1.41343,0,0.000885,0,0
0:0:22.431,10.9693,1.39964,0,0.000885,0,0
0:0:22.625,10.907,1.38585,0,0.000885,0,0
0:0:22.825,10.6757,1.35827,0,0.000885,0,0
0:0:23.024,10.4978,1.33758,0,0.000885,0,0
0:0:23.220,10.6757,1.35827,0,0.000885,0,0
0:0:23.421,11.3786,1.4479,0,0.000885,0,0
0:0:23.618,11.1428,1.42032,0,0.000885,0,0
0:0:23.817,10.8492,1.37895,0,0.000885,0,0
0:0:24.016,11.2006,1.42721,0,0.000885,0,0
0:0:24.211,10.7336,1.36516,0,0.000885,0,0
0:0:24.412,11.73,1.49616,0,0.000885,0,0
0:0:24.608,11.6143,1.47548,0,0.000885,0,0
0:0:24.806,11.9079,1.51685,0,0.000885,0,0
0:0:25.009,12.2015,1.55132,0,0.000885,0,0
0:0:25.205,12.7842,1.62716,0,0.000885,0,0
0:0:25.406,13.2557,1.68922,0,0.000885,0,0
0:0:25.603,14.7192,1.87537,0,0.000885,0,0
0:0:25.801,14.4879,1.84779,0,0.000885,0,0
0:0:26.003,15.4264,1.96501,0,0.000885,0,0
0:0:26.205,15.8357,2.01327,0,0.000885,0,0
0:0:26.409,16.7742,2.13737,0,0.000885,0,0
0:0:26.611,17.0678,2.17185,0,0.000885,0,0
0:0:26.813,17.0678,2.17185,0,0.000885,0,0
0:0:27.015,17.655,2.24769,0,0.000885,0,0
0:0:27.217,18.3,2.33043,0,0.000885,0,0
0:0:27.418,18.1221,2.30974,0,0.000885,0,0
0:0:27.618,18.945,2.41317,0,0.000885,0,0
0:0:27.815,19.3542,2.46143,0,0.000885,0,0
0:0:28.016,19.8836,2.53038,0,0.000885,0,0
0:0:28.214,20.2928,2.58553,0,0.000885,0,0
0:0:28.413,20.9956,2.67517,0,0.000885,0,0
0:0:28.614,21.4671,2.73032,0,0.000885,0,0
0:0:28.809,21.7029,2.7648,0,0.000885,0,0
0:0:29.011,22.2278,2.82685,0,0.000885,0,0
0:0:29.211,22.2856,2.84064,0,0.000885,0,0
0:0:29.408,22.4057,2.85443,0,0.000885,0,0
0:0:29.609,22.5792,2.87511,0,0.000885,0,0
0:0:29.806,23.2242,2.95785,0,0.000885,0,0
0:0:30.006,23.2864,2.96475,0,0.000885,0,0
0:0:30.206,24.3407,3.09575,0,0.000885,0,0
0:0:30.402,24.5764,3.13022,0,0.000885,0,0
0:0:30.603,24.87,3.16469,0,0.000885,0,0
0:0:30.800,25.4527,3.24054,0,0.000885,0,0
0:0:30.998,25.9821,3.30948,0,0.000885,0,0
0:0:31.200,25.9821,3.30948,0,0.000885,0,0
0:0:31.402,26.3913,3.35775,0,0.000885,0,0
0:0:31.606,26.7427,3.40601,0,0.000885,0,0
0:0:31.808,27.2142,3.46806,0,0.000885,0,0
0:0:32.010,27.272,3.47496,0,0.000885,0,0
0:0:32.212,27.6813,3.52322,0,0.000885,0,0
0:0:32.413,28.3263,3.60596,0,0.000885,0,0
0:0:32.616,28.8556,3.67491,0,0.000885,0,0
0:0:32.815,29.0914,3.70248,0,0.000885,0,0
0:0:33.012,29.385,3.74385,0,0.000885,0,0
0:0:33.214,29.852,3.79901,0,0.000885,0,0
0:0:33.409,30.0299,3.82659,0,0.000885,0,0
0:0:33.611,30.7328,3.91622,0,0.000885,0,0
0:0:33.809,30.497,3.88175,0,0.000885,0,0
0:0:34.006,31.142,3.96449,0,0.000885,0,0
0:0:34.208,31.4356,4.00585,0,0.000885,0,0
0:0:34.405,32.2007,4.10238,0,0.000885,0,0
0:0:34.605,32.6099,4.15064,0,0.000885,0,0
0:0:34.806,33.1971,4.22649,0,0.000885,0,0
0:0:35.001,33.1971,4.22649,0,0.000885,0,0
0:0:35.203,33.722,4.29543,0,0.000885,0,0
0:0:35.403,34.5449,4.39886,0,0.000885,0,0
0:0:35.601,34.6605,4.41264,0,0.000885,0,0
0:0:35.802,34.6605,4.41264,0,0.000885,0,0
0:0:36.005,35.3055,4.49538,0,0.000885,0,0
0:0:36.209,35.8927,4.57122,0,0.000885,0,0
0:0:36.412,36.1863,4.6057,0,0.000885,0,0
0:0:36.612,36.2441,4.61259,0,0.000885,0,0
0:0:36.813,36.6,4.66086,0,0.000885,0,0
0:0:37.016,37.0092,4.70912,0,0.000885,0,0
0:0:37.218,37.5385,4.77807,0,0.000885,0,0
0:0:37.418,38.0634,4.84701,0,0.000885,0,0
0:0:37.615,38.1835,4.8608,0,0.000885,0,0
0:0:37.816,38.9442,4.95733,0,0.000885,0,0
0:0:38.013,39.4112,5.01938,0,0.000885,0,0
0:0:38.213,39.647,5.04696,0,0.000885,0,0
0:0:38.414,40.3498,5.13659,0,0.000885,0,0
0:0:38.610,40.7057,5.18486,0,0.000885,0,0
0:0:38.813,41.1149,5.23312,0,0.000885,0,0
0:0:39.010,40.937,5.21244,0,0.000885,0,0
0:0:39.208,41.3507,5.26759,0,0.000885,0,0
0:0:39.410,42.1691,5.37102,0,0.000885,0,0
0:0:39.606,42.1113,5.36412,0,0.000885,0,0
0:0:39.807,42.9921,5.47444,0,0.000885,0,0
0:0:40.006,43.4591,5.53649,0,0.000885,0,0
0:0:40.203,43.9306,5.59165,0,0.000885,0,0
0:0:40.403,43.9885,5.59854,0,0.000885,0,0
0:0:40.601,44.8069,5.70196,0,0.000885,0,0
0:0:40.802,45.1005,5.74333,0,0.000885,0,0
0:0:41.002,45.1005,5.74333,0,0.000885,0,0
0:0:41.206,45.5142,5.7916,0,0.000885,0,0
0:0:41.409,45.8656,5.83986,0,0.000885,0,0
0:0:41.611,46.217,5.88123,0,0.000885,0,0
0:0:41.812,46.6263,5.93639,0,0.000885,0,0
0:0:42.013,47.0978,5.99844,0,0.000885,0,0
0:0:42.214,47.9162,6.10186,0,0.000885,0,0
0:0:42.416,48.0942,6.12254,0,0.000885,0,0
0:0:42.614,48.2098,6.13633,0,0.000885,0,0
0:0:42.812,48.5612,6.1846,0,0.000885,0,0
0:0:43.013,48.5612,6.1846,0,0.000885,0,0
0:0:43.210,49.2685,6.27423,0,0.000885,0,0
0:0:43.411,49.5576,6.3087,0,0.000885,0,0
0:0:43.610,49.7356,6.32939,0,0.000885,0,0
0:0:43.807,49.9713,6.36386,0,0.000885,0,0
0:0:44.010,50.6163,6.4466,0,0.000885,0,0
0:0:44.206,51.4971,6.55691,0,0.000885,0,0
0:0:44.406,52.0798,6.63276,0,0.000885,0,0
0:0:44.607,52.2577,6.65344,0,0.000885,0,0
0:0:44.802,53.2541,6.77755,0,0.000885,0,0
0:0:45.004,53.3119,6.79134,0,0.000885,0,0
0:0:45.203,53.3698,6.79823,0,0.000885,0,0
0:0:45.401,54.0192,6.88097,0,0.000885,0,0
0:0:45.603,54.4863,6.93613,0,0.000885,0,0
0:0:45.798,54.722,6.9706,0,0.000885,0,0
0:0:45.999,54.8955,6.99128,0,0.000885,0,0
0:0:46.200,55.367,7.04644,0,0.000885,0,0
0:0:46.404,55.7184,7.09471,0,0.000885,0,0
0:0:46.607,56.1855,7.15676,0,0.000885,0,0
0:0:46.809,56.657,7.21192,0,0.000885,0,0
0:0:47.010,56.657,7.21192,0,0.000885,0,0
0:0:47.211,56.657,7.21192,0,0.000885,0,0
0:0:47.413,57.4755,7.31534,0,0.000885,0,0
0:0:47.616,58.1827,7.40497,0,0.000885,0,0
0:0:47.812,58.592,7.46013,0,0.000885,0,0
0:0:48.012,59.0012,7.51529,0,0.000885,0,0
0:0:48.213,59.4149,7.56355,0,0.000885,0,0
0:0:48.408,59.4727,7.57044,0,0.000885,0,0
0:0:48.611,60.2334,7.66697,0,0.000885,0,0
0:0:48.808,60.2334,7.66697,0,0.000885,0,0
0:0:49.007,61.0563,7.77039,0,0.000885,0,0
0:0:49.208,61.4077,7.81865,0,0.000885,0,0
0:0:49.405,61.7013,7.85313,0,0.000885,0,0
0:0:49.604,61.5234,7.83244,0,0.000885,0,0
0:0:49.802,62.3463,7.93587,0,0.000885,0,0
0:0:49.999,62.9334,8.01171,0,0.000885,0,0
0:0:50.201,63.1647,8.03929,0,0.000885,0,0
0:0:50.399,63.8097,8.12202,0,0.000885,0,0
0:0:50.599,63.7519,8.11513,0,0.000885,0,0
0:0:50.798,64.5748,8.21855,0,0.000885,0,0
0:0:50.994,64.5748,8.21855,0,0.000885,0,0
0:0:51.196,64.9841,8.27371,0,0.000885,0,0
0:0:51.397,65.3933,8.32887,0,0.000885,0,0
0:0:51.601,65.9226,8.39092,0,0.000885,0,0
0:0:51.803,66.6255,8.48055,0,0.000885,0,0
0:0:52.006,67.3327,8.57018,0,0.000885,0,0
0:0:52.208,67.3906,8.57708,0,0.000885,0,0
0:0:52.409,67.4484,8.59087,0,0.000885,0,0
0:0:52.610,68.0355,8.65982,0,0.000885,0,0
0:0:52.813,68.387,8.70808,0,0.000885,0,0
0:0:53.009,69.1476,8.80461,0,0.000885,0,0
0:0:53.210,69.3255,8.82529,0,0.000885,0,0
0:0:53.408,68.9163,8.77703,0,0.000885,0,0
0:0:53.606,69.6769,8.87355,0,0.000885,0,0
0:0:53.809,70.2641,8.94939,0,0.000885,0,0
0:0:54.004,70.8513,9.01834,0,0.000885,0,0
0:0:54.204,71.0248,9.04592,0,0.000885,0,0
0:0:54.402,71.2027,9.06661,0,0.000885,0,0
0:0:54.600,71.7898,9.14245,0,0.000885,0,0
0:0:54.803,72.4927,9.23208,0,0.000885,0,0
0:0:55.001,72.7284,9.25966,0,0.000885,0,0
0:0:55.198,72.9019,9.28034,0,0.000885,0,0
0:0:55.400,73.7248,9.38376,0,0.000885,0,0
0:0:55.597,73.667,9.37687,0,0.000885,0,0
0:0:55.799,73.9561,9.41824,0,0.000885,0,0
0:0:56.001,74.5433,9.49408,0,0.000885,0,0
0:0:56.205,75.1305,9.56303,0,0.000885,0,0
0:0:56.408,75.2506,9.58371,0,0.000885,0,0
0:0:56.611,75.3662,9.5975,0,0.000885,0,0
0:0:56.811,75.5397,9.61819,0,0.000885,0,0
0:0:57.013,76.4204,9.7285,0,0.000885,0,0
0:0:57.214,76.9498,9.79745,0,0.000885,0,0
0:0:57.417,77.0654,9.81124,0,0.000885,0,0
0:0:57.612,77.359,9.85261,0,0.000885,0,0
0:0:57.811,78.2398,9.96292,0,0.000885,0,0
0:0:58.013,78.5912,10.0043,0,0.000885,0,0
0:0:58.209,78.8269,10.0388,0,0.000885,0,0
0:0:58.411,79.1783,10.0801,0,0.000885,0,0
0:0:58.609,79.5876,10.1353,0,0.000885,0,0
0:0:58.808,79.8812,10.1698,0,0.000885,0,0
0:0:59.010,80.9977,10.3146,0,0.000885,0,0
0:0:59.204,81.5226,10.3766,0,0.000885,0,0
0:0:59.407,81.7005,10.4042,0,0.000885,0,0
0:0:59.604,81.8161,10.418,0,0.000885,0,0
0:0:59.802,82.0519,10.4456,0,0.000885,0,0
0:1:0.003,82.3455,10.4869,0,0.000885,0,0
0:1:0.199,82.5234,10.5076,0,0.000885,0,0
0:1:0.400,82.9326,10.5559,0,0.000885,0,0
0:1:0.599,83.1061,10.5835,0,0.000885,0,0
0:1:0.797,83.6933,10.6593,0,0.000885,0,0
0:1:0.998,84.107,10.7076,0,0.000885,0,0
0:1:1.201,84.8676,10.8041,0,0.000885,0,0
0:1:1.403,85.2769,10.8592,0,0.000885,0,0
0:1:1.607,85.8062,10.9282,0,0.000885,0,0
0:1:1.808,85.864,10.9351,0,0.000885,0,0
0:1:2.012,86.5668,11.0247,0,0.000885,0,0
0:1:2.211,86.5668,11.0247,0,0.000885,0,0
0:1:2.413,87.154,11.0937,0,0.000885,0,0
0:1:2.615,87.3898,11.1281,0,0.000885,0,0
0:1:2.810,87.799,11.1764,0,0.000885,0,0
0:1:3.013,88.3283,11.2453,0,0.000885,0,0
0:1:3.212,89.2091,11.3557,0,0.000885,0,0
0:1:3.411,89.3826,11.3832,0,0.000885,0,0
0:1:3.611,89.9119,11.4453,0,0.000885,0,0
0:1:3.807,90.0854,11.4729,0,0.000885,0,0
0:1:4.009,90.379,11.5073,0,0.000885,0,0
0:1:4.207,90.6725,11.5418,0,0.000885,0,0
0:1:4.405,91.3175,11.6246,0,0.000885,0,0
0:1:4.607,91.1441,11.6039,0,0.000885,0,0
0:1:4.801,91.6111,11.6659,0,0.000885,0,0
0:1:5.002,92.434,11.7694,0,0.000885,0,0
0:1:5.202,92.4919,11.7762,0,0.000885,0,0
0:1:5.399,92.8433,11.8245,0,0.000885,0,0
0:1:5.601,93.1947,11.8659,0,0.000885,0,0
0:1:5.799,93.7819,11.9417,0,0.000885,0,0
0:1:5.996,94.369,12.0176,0,0.000885,0,0
0:1:6.198,94.7783,12.0658,0,0.000885,0,0
0:1:6.401,95.014,12.1003,0,0.000885,0,0
0:1:6.605,95.8948,12.2106,0,0.000885,0,0
0:1:6.807,95.9526,12.2175,0,0.000885,0,0
0:1:7.010,96.1261,12.2382,0,0.000885,0,0
0:1:7.212,96.5976,12.3002,0,0.000885,0,0
0:1:7.412,96.8912,12.3347,0,0.000885,0,0
0:1:7.613,97.3582,12.3968,0,0.000885,0,0
0:1:7.813,97.6518,12.4312,0,0.000885,0,0
0:1:8.011,97.8876,12.4657,0,0.000885,0,0
0:1:8.212,98.3591,12.5209,0,0.000885,0,0
0:1:8.409,98.7683,12.576,0,0.000885,0,0
0:1:8.609,99.529,12.6726,0,0.000885,0,0
0:1:8.809,99.6491,12.6864,0,0.000885,0,0
0:1:9.006,100.294,12.7691,0,0.000885,0,0
0:1:9.207,100.525,12.7967,0,0.000885,0,0
0:1:9.404,100.997,12.8587,0,0.000885,0,0
0:1:9.604,101.348,12.907,0,0.000885,0,0
0:1:9.804,101.522,12.9277,0,0.000885,0,0
0:1:10.000,102.051,12.9966,0,0.000885,0,0
0:1:10.202,102.345,13.0311,0,0.000885,0,0
0:1:10.399,102.638,13.0656,0,0.000885,0,0
0:1:10.600,102.99,13.1138,0,0.000885,0,0
0:1:10.801,103.399,13.1621,0,0.000885,0,0
0:1:11.004,103.692,13.2035,0,0.000885,0,0
0:1:11.208,104.222,13.2724,0,0.000885,0,0
0:1:11.409,104.867,13.3551,0,0.000885,0,0
0:1:11.612,105.805,13.4724,0,0.000885,0,0
0:1:11.813,105.921,13.4861,0,0.000885,0,0
0:1:12.016,106.157,13.5137,0,0.000885,0,0
0:1:12.218,106.393,13.5482,0,0.000885,0,0
0:1:12.416,106.86,13.6034,0,0.000885,0,0
0:1:12.614,106.922,13.6103,0,0.000885,0,0
0:1:12.815,107.389,13.6723,0,0.000885,0,0
0:1:13.011,107.798,13.7275,0,0.000885,0,0
0:1:13.212,108.27,13.7826,0,0.000885,0,0
0:1:13.412,108.505,13.8171,0,0.000885,0,0
0:1:13.609,109.208,13.9067,0,0.000885,0,0
0:1:13.811,109.502,13.9412,0,0.000885,0,0
0:1:14.009,110.205,14.0308,0,0.000885,0,0
0:1:14.207,110.44,14.0584,0,0.000885,0,0
0:1:14.408,110.672,14.0929,0,0.000885,0,0
0:1:14.604,111.023,14.1343,0,0.000885,0,0
0:1:14.806,111.201,14.1618,0,0.000885,0,0
0:1:15.004,111.73,14.2239,0,0.000885,0,0
0:1:15.202,112.14,14.279,0,0.000885,0,0
0:1:15.404,112.491,14.3204,0,0.000885,0,0
0:1:15.599,112.842,14.3687,0,0.000885,0,0
0:1:15.802,113.608,14.4652,0,0.000885,0,0
0:1:16.003,113.901,14.4997,0,0.000885,0,0
0:1:16.208,114.253,14.5479,0,0.000885,0,0
0:1:16.411,114.484,14.5755,0,0.000885,0,0
0:1:16.613,115.191,14.6651,0,0.000885,0,0
0:1:16.814,115.485,14.7065,0,0.000885,0,0
0:1:17.016,115.836,14.7479,0,0.000885,0,0
0:1:17.217,116.245,14.803,0,0.000885,0,0
0:1:17.419,117.068,14.9065,0,0.000885,0,0
0:1:17.616,117.126,14.9134,0,0.000885,0,0
0:1:17.818,117.593,14.9754,0,0.000885,0,0
0:1:18.017,118.007,15.0237,0,0.000885,0,0
0:1:18.214,118.238,15.0581,0,0.000885,0,0
0:1:18.417,118.59,15.0995,0,0.000885,0,0
0:1:18.611,118.883,15.134,0,0.000885,0,0
0:1:18.813,119.177,15.1754,0,0.000885,0,0
0:1:19.013,119.528,15.2167,0,0.000885,0,0
0:1:19.210,120.058,15.2857,0,0.000885,0,0
0:1:19.413,120.938,15.396,0,0.000885,0,0
0:1:19.609,121.174,15.4305,0,0.000885,0,0
0:1:19.809,121.232,15.4374,0,0.000885,0,0
0:1:20.010,121.757,15.4994,0,0.000885,0,0
0:1:20.208,122.05,15.5408,0,0.000885,0,0
0:1:20.410,122.402,15.5822,0,0.000885,0,0
0:1:20.605,122.464,15.589,0,0.000885,0,0
0:1:20.805,123.46,15.72,0,0.000885,0,0
0:1:21.006,123.518,15.7269,0,0.000885,0,0
0:1:21.210,124.515,15.851,0,0.000885,0,0
0:1:21.413,124.279,15.8235,0,0.000885,0,0
0:1:21.615,124.63,15.8717,0,0.000885,0,0
0:1:21.816,124.693,15.8786,0,0.000885,0,0
0:1:22.018,125.102,15.9269,0,0.000885,0,0
0:1:22.219,125.511,15.982,0,0.000885,0,0
0:1:22.423,126.507,16.1062,0,0.000885,0,0
0:1:22.621,126.685,16.1268,0,0.000885,0,0
0:1:22.821,127.152,16.1889,0,0.000885,0,0
0:1:23.021,127.566,16.244,0,0.000885,0,0
0:1:23.218,128.211,16.3268,0,0.000885,0,0
0:1:23.421,128.62,16.375,0,0.000885,0,0
0:1:23.618,129.03,16.4302,0,0.000885,0,0
0:1:23.816,129.03,16.4302,0,0.000885,0,0
0:1:24.017,129.265,16.4578,0,0.000885,0,0
0:1:24.212,129.559,16.4992,0,0.000885,0,0
0:1:24.415,129.91,16.5405,0,0.000885,0,0
0:1:24.613,130.791,16.6508,0,0.000885,0,0
0:1:24.812,131.2,16.706,0,0.000885,0,0
0:1:25.013,132.023,16.8094,0,0.000885,0,0
0:1:25.208,132.317,16.8439,0,0.000885,0,0
0:1:25.410,132.375,16.8577,0,0.000885,0,0
0:1:25.610,133.135,16.9542,0,0.000885,0,0
0:1:25.808,133.429,16.9887,0,0.000885,0,0
0:1:26.010,133.665,17.0163,0,0.000885,0,0
0:1:26.212,133.958,17.0576,0,0.000885,0,0
0:1:26.416,134.016,17.0645,0,0.000885,0,0
0:1:26.619,134.603,17.1404,0,0.000885,0,0
0:1:26.821,134.661,17.1473,0,0.000885,0,0
0:1:27.023,135.542,17.2576,0,0.000885,0,0
0:1:27.223,135.484,17.2507,0,0.000885,0,0
0:1:27.425,135.893,17.3058,0,0.000885,0,0
0:1:27.626,136.302,17.3541,0,0.000885,0,0
0:1:27.824,136.832,17.4231,0,0.000885,0,0
0:1:28.024,136.89,17.4299,0,0.000885,0,0
0:1:28.221,137.712,17.5334,0,0.000885,0,0
0:1:28.422,138.064,17.5816,0,0.000885,0,0
0:1:28.622,138.473,17.6299,0,0.000885,0,0
0:1:28.819,138.882,17.6851,0,0.000885,0,0
0:1:29.022,139.06,17.7057,0,0.000885,0,0
0:1:29.217,139.941,17.8161,0,0.000885,0,0
0:1:29.417,140.115,17.8367,0,0.000885,0,0
0:1:29.619,140.822,17.9264,0,0.000885,0,0
0:1:29.814,140.822,17.9264,0,0.000885,0,0
0:1:30.017,141.76,18.0505,0,0.000885,0,0
0:1:30.214,141.76,18.0505,0,0.000885,0,0
0:1:30.413,142.637,18.1608,0,0.000885,0,0
0:1:30.613,142.637,18.1608,0,0.000885,0,0
0:1:30.810,142.757,18.1746,0,0.000885,0,0
0:1:31.013,143.166,18.2297,0,0.000885,0,0
0:1:31.215,143.633,18.2849,0,0.000885,0,0
0:1:31.416,143.927,18.3263,0,0.000885,0,0
0:1:31.620,144.34,18.3745,0,0.000885,0,0
0:1:31.822,144.456,18.3952,0,0.000885,0,0
0:1:32.025,144.928,18.4504,0,0.000885,0,0
0:1:32.224,145.217,18.4917,0,0.000885,0,0
0:1:32.426,146.155,18.6089,0,0.000885,0,0
0:1:32.628,146.511,18.6572,0,0.000885,0,0
0:1:32.823,146.862,18.6986,0,0.000885,0,0
0:1:33.025,147.33,18.7606,0,0.000885,0,0
0:1:33.225,147.739,18.8089,0,0.000885,0,0
0:1:33.421,148.095,18.8572,0,0.000885,0,0
0:1:33.623,148.562,18.9123,0,0.000885,0,0
0:1:33.818,148.797,18.9468,0,0.000885,0,0
0:1:34.020,149.207,18.9951,0,0.000885,0,0
0:1:34.220,149.5,19.0364,0,0.000885,0,0
0:1:34.416,149.852,19.0778,0,0.000885,0,0
0:1:34.619,150.612,19.1743,0,0.000885,0,0
0:1:34.815,150.79,19.2019,0,0.000885,0,0
0:1:35.016,151.084,19.2364,0,0.000885,0,0
0:1:35.216,151.262,19.2571,0,0.000885,0,0
0:1:35.412,152.08,19.3605,0,0.000885,0,0
0:1:35.613,152.258,19.3881,0,0.000885,0,0
0:1:35.812,153.019,19.4846,0,0.000885,0,0
0:1:36.011,153.37,19.526,0,0.000885,0,0
0:1:36.212,153.664,19.5673,0,0.000885,0,0
0:1:36.414,154.135,19.6225,0,0.000885,0,0
0:1:36.618,154.193,19.6294,0,0.000885,0,0
0:1:36.820,154.838,19.7121,0,0.000885,0,0
0:1:37.022,155.19,19.7604,0,0.000885,0,0
0:1:37.223,155.305,19.7742,0,0.000885,0,0
0:1:37.425,155.777,19.8362,0,0.000885,0,0
0:1:37.627,155.719,19.8293,0,0.000885,0,0
0:1:37.827,156.657,19.9465,0,0.000885,0,0
0:1:38.023,157.009,19.9879,0,0.000885,0,0
0:1:38.223,157.302,20.0293,0,0.000885,0,0
0:1:38.422,157.885,20.1051,0,0.000885,0,0
0:1:38.621,157.947,20.112,0,0.000885,0,0
0:1:38.823,158.592,20.1947,0,0.000885,0,0
0:1:39.017,158.53,20.1878,0,0.000885,0,0
0:1:39.219,159.589,20.3188,0,0.000885,0,0
0:1:39.418,159.705,20.3326,0,0.000885,0,0
0:1:39.616,160.292,20.4085,0,0.000885,0,0
0:1:39.818,160.643,20.4567,0,0.000885,0,0
0:1:40.013,160.879,20.4843,0,0.000885,0,0
0:1:40.214,161.697,20.5877,0,0.000885,0,0
0:1:40.415,161.875,20.6084,0,0.000885,0,0
0:1:40.610,162.347,20.6705,0,0.000885,0,0
0:1:40.811,162.52,20.6912,0,0.000885,0,0
0:1:41.013,163.05,20.7601,0,0.000885,0,0
0:1:41.217,163.281,20.7877,0,0.000885,0,0
0:1:41.420,163.637,20.836,0,0.000885,0,0
0:1:41.622,164.162,20.9049,0,0.000885,0,0
0:1:41.823,164.34,20.9256,0,0.000885,0,0
0:1:42.024,164.864,20.9945,0,0.000885,0,0
0:1:42.227,165.278,21.0428,0,0.000885,0,0
0:1:42.428,165.514,21.0704,0,0.000885,0,0
0:1:42.624,166.039,21.1393,0,0.000885,0,0
0:1:42.826,166.332,21.1807,0,0.000885,0,0
0:1:43.023,166.862,21.2427,0,0.000885,0,0
0:1:43.221,167.387,21.3117,0,0.000885,0,0
0:1:43.423,167.507,21.3255,0,0.000885,0,0
0:1:43.619,168.267,21.422,0,0.000885,0,0
0:1:43.820,169.326,21.5599,0,0.000885,0,0
0:1:44.020,168.797,21.491,0,0.000885,0,0
0:1:44.215,169.09,21.5323,0,0.000885,0,0
0:1:44.417,169.735,21.6082,0,0.000885,0,0
0:1:44.613,170.144,21.6633,0,0.000885,0,0
0:1:44.813,170.496,21.7116,0,0.000885,0,0
0:1:45.014,171.199,21.8012,0,0.000885,0,0
0:1:45.209,171.083,21.7805,0,0.000885,0,0
0:1:45.411,171.492,21.8357,0,0.000885,0,0
0:1:45.610,172.022,21.9046,0,0.000885,0,0
0:1:45.809,172.493,21.9598,0,0.000885,0,0
0:1:46.010,173.018,22.0287,0,0.000885,0,0
0:1:46.212,172.782,22.0012,0,0.000885,0,0
0:1:46.415,173.312,22.0701,0,0.000885,0,0
0:1:46.618,173.547,22.0977,0,0.000885,0,0
0:1:46.819,173.957,22.146,0,0.000885,0,0
0:1:47.022,174.192,22.1804,0,0.000885,0,0
0:1:47.222,174.837,22.2632,0,0.000885,0,0
0:1:47.423,175.718,22.3735,0,0.000885,0,0
0:1:47.623,175.892,22.3942,0,0.000885,0,0
0:1:47.822,176.305,22.4493,0,0.000885,0,0
0:1:48.023,176.305,22.4493,0,0.000885,0,0
0:1:48.219,177.008,22.539,0,0.000885,0,0
0:1:48.420,178.062,22.67,0,0.000885,0,0
0:1:48.618,177.769,22.6355,0,0.000885,0,0
0:1:48.815,178.534,22.732,0,0.000885,0,0
0:1:49.018,178.765,22.7596,0,0.000885,0,0
0:1:49.214,179.472,22.8492,0,0.000885,0,0
0:1:49.413,179.766,22.8906,0,0.000885,0,0
0:1:49.614,180.233,22.9458,0,0.000885,0,0
0:1:49.810,180.469,22.9802,0,0.000885,0,0
0:1:50.011,180.7,23.0078,0,0.000885,0,0
0:1:50.210,181.056,23.0492,0,0.000885,0,0
0:1:50.408,181.345,23.0905,0,0.000885,0,0
0:1:50.610,181.759,23.1388,0,0.000885,0,0
0:1:50.805,182.346,23.2146,0,0.000885,0,0
0:1:51.007,182.697,23.2629,0,0.000885,0,0
0:1:51.209,183.222,23.3319,0,0.000885,0,0
0:1:51.413,183.285,23.3388,0,0.000885,0,0
0:1:51.614,183.636,23.3801,0,0.000885,0,0
0:1:51.816,183.636,23.3801,0,0.000885,0,0
0:1:52.019,184.512,23.4904,0,0.000885,0,0
0:1:52.220,184.984,23.5525,0,0.000885,0,0
0:1:52.421,185.219,23.5801,0,0.000885,0,0
0:1:52.623,186.038,23.6904,0,0.000885,0,0
0:1:52.821,186.038,23.6904,0,0.000885,0,0
0:1:53.020,186.509,23.7455,0,0.000885,0,0
0:1:53.222,186.803,23.7869,0,0.000885,0,0
0:1:53.418,187.328,23.849,0,0.000885,0,0
0:1:53.620,187.742,23.9041,0,0.000885,0,0
0:1:53.818,187.973,23.9317,0,0.000885,0,0
0:1:54.014,188.444,23.9938,0,0.000885,0,0
0:1:54.217,188.796,24.0351,0,0.000885,0,0
0:1:54.414,189.325,24.1041,0,0.000885,0,0
0:1:54.614,189.557,24.1385,0,0.000885,0,0
0:1:54.814,189.97,24.1868,0,0.000885,0,0
0:1:55.010,190.264,24.2282,0,0.000885,0,0
0:1:55.212,190.673,24.2764,0,0.000885,0,0
0:1:55.411,191.318,24.3592,0,0.000885,0,0
0:1:55.609,191.434,24.373,0,0.000885,0,0
0:1:55.811,192.372,24.4971,0,0.000885,0,0
0:1:56.014,192.55,24.5178,0,0.000885,0,0
0:1:56.217,193.431,24.6281,0,0.000885,0,0
0:1:56.418,193.431,24.6281,0,0.000885,0,0
0:1:56.618,193.369,24.6212,0,0.000885,0,0
0:1:56.818,193.724,24.6625,0,0.000885,0,0
0:1:57.018,194.427,24.7522,0,0.000885,0,0
0:1:57.218,194.894,24.8142,0,0.000885,0,0
0:1:57.415,195.13,24.8418,0,0.000885,0,0
0:1:57.612,195.539,24.897,0,0.000885,0,0
0:1:57.812,195.891,24.9452,0,0.000885,0,0
0:1:58.008,196.362,25.0004,0,0.000885,0,0
0:1:58.205,196.478,25.0142,0,0.000885,0,0
0:1:58.405,197.007,25.0831,0,0.000885,0,0
0:1:58.599,197.181,25.1038,0,0.000885,0,0
0:1:58.801,197.652,25.1659,0,0.000885,0,0
0:1:58.996,197.946,25.2003,0,0.000885,0,0
0:1:59.193,198.475,25.2693,0,0.000885,0,0
0:1:59.392,198.884,25.3244,0,0.000885,0,0
0:1:59.587,199,25.3382,0,0.000885,0,0
0:1:59.788,199.765,25.4348,0,0.000885,0,0
0:1:59.983,199.939,25.4554,0,0.000885,0,0
0:2:0.180,200.704,25.552,0,0.000885,0,0
0:2:0.381,201.113,25.6071,0,0.000885,0,0
0:2:0.586,201.286,25.6278,0,0.000885,0,0
0:2:0.784,201.7,25.683,0,0.000885,0,0
0:2:0.986,201.994,25.7174,0,0.000885,0,0
0:2:1.189,202.754,25.814,0,0.000885,0,0
0:2:1.388,202.519,25.7864,0,0.000885,0,0
0:2:1.589,203.226,25.876,0,0.000885,0,0
0:2:1.789,203.457,25.9036,0,0.000885,0,0
0:2:1.988,203.635,25.9243,0,0.000885,0,0
0:2:2.189,205.041,26.1036,0,0.000885,0,0
0:2:2.389,204.983,26.0967,0,0.000885,0,0
0:2:2.584,205.277,26.138,0,0.000885,0,0
0:2:2.781,205.219,26.1311,0,0.000885,0,0
0:2:2.982,206.099,26.2414,0,0.000885,0,0
0:2:3.184,206.099,26.2414,0,0.000885,0,0
0:2:3.384,207.154,26.3724,0,0.000885,0,0
0:2:3.582,207.212,26.3862,0,0.000885,0,0
0:2:3.788,207.563,26.4276,0,0.000885,0,0
0:2:3.989,207.856,26.4621,0,0.000885,0,0
0:2:4.183,208.266,26.5172,0,0.000885,0,0
0:2:4.381,208.795,26.5862,0,0.000885,0,0
0:2:4.580,209.089,26.6207,0,0.000885,0,0
0:2:4.773,209.676,26.6965,0,0.000885,0,0
0:2:4.974,210.085,26.7517,0,0.000885,0,0
0:2:5.182,210.436,26.793,0,0.000885,0,0
0:2:5.376,210.966,26.862,0,0.000885,0,0
0:2:5.576,210.85,26.8482,0,0.000885,0,0
0:2:5.782,211.375,26.9102,0,0.000885,0,0
0:2:5.983,211.669,26.9516,0,0.000885,0,0
0:2:6.182,211.726,26.9585,0,0.000885,0,0
0:2:6.386,212.901,27.1102,0,0.000885,0,0
0:2:6.588,213.016,27.124,0,0.000885,0,0
0:2:6.789,213.488,27.1791,0,0.000885,0,0
0:2:6.989,213.839,27.2274,0,0.000885,0,0
0:2:7.189,214.249,27.2826,0,0.000885,0,0
0:2:7.389,214.542,27.317,0,0.000885,0,0
0:2:7.589,214.894,27.3584,0,0.000885,0,0
0:2:7.783,215.365,27.4204,0,0.000885,0,0
0:2:7.982,215.952,27.4963,0,0.000885,0,0
0:2:8.183,216.246,27.5308,0,0.000885,0,0
0:2:8.387,217.006,27.6273,0,0.000885,0,0
0:2:8.587,216.949,27.6204,0,0.000885,0,0
0:2:8.782,217.478,27.6893,0,0.000885,0,0
0:2:8.990,218.239,27.7859,0,0.000885,0,0
0:2:9.189,218.181,27.779,0,0.000885,0,0
0:2:9.384,219.062,27.8893,0,0.000885,0,0
0:2:9.583,219.351,27.9307,0,0.000885,0,0
0:2:9.790,219.529,27.9513,0,0.000885,0,0
0:2:9.984,219.707,27.972,0,0.000885,0,0
0:2:10.184,220.058,28.0203,0,0.000885,0,0
0:2:10.390,220.645,28.0961,0,0.000885,0,0
0:2:10.589,220.645,28.0961,0,0.000885,0,0
0:2:10.784,221.29,28.172,0,0.000885,0,0
0:2:10.991,221.584,28.2133,0,0.000885,0,0
0:2:11.192,221.699,28.2271,0,0.000885,0,0
0:2:11.392,222.696,28.3512,0,0.000885,0,0
0:2:11.594,222.874,28.3788,0,0.000885,0,0
0:2:11.795,223.577,28.4685,0,0.000885,0,0
0:2:11.996,223.87,28.5029,0,0.000885,0,0
0:2:12.196,223.986,28.5167,0,0.000885,0,0
0:2:12.395,224.515,28.5857,0,0.000885,0,0
0:2:12.596,225.102,28.6615,0,0.000885,0,0
0:2:12.796,225.16,28.6684,0,0.000885,0,0
0:2:12.991,225.921,28.7649,0,0.000885,0,0
0:2:13.190,226.156,28.7925,0,0.000885,0,0
0:2:13.388,226.156,28.7925,0,0.000885,0,0
0:2:13.583,226.624,28.8546,0,0.000885,0,0
0:2:13.783,227.269,28.9373,0,0.000885,0,0
0:2:13.987,227.504,28.9649,0,0.000885,0,0
0:2:14.187,227.856,29.0131,0,0.000885,0,0
0:2:14.384,228.852,29.1372,0,0.000885,0,0
0:2:14.589,228.736,29.1235,0,0.000885,0,0
0:2:14.791,229.675,29.2407,0,0.000885,0,0
0:2:14.994,229.559,29.2269,0,0.000885,0,0
0:2:15.191,230.32,29.3234,0,0.000885,0,0
0:2:15.392,230.671,29.3717,0,0.000885,0,0
0:2:15.584,230.556,29.3579,0,0.000885,0,0
0:2:15.784,230.965,29.4061,0,0.000885,0,0
0:2:15.986,231.61,29.4889,0,0.000885,0,0
0:2:16.189,231.61,29.4889,0,0.000885,0,0
0:2:16.390,232.019,29.544,0,0.000885,0,0
0:2:16.590,232.669,29.6268,0,0.000885,0,0
0:2:16.792,233.194,29.6888,0,0.000885,0,0
0:2:16.991,233.723,29.7578,0,0.000885,0,0
0:2:17.192,234.19,29.8198,0,0.000885,0,0
0:2:17.392,234.604,29.8681,0,0.000885,0,0
0:2:17.588,235.013,29.9232,0,0.000885,0,0
0:2:17.787,235.6,29.9991,0,0.000885,0,0
0:2:17.983,235.658,30.006,0,0.000885,0,0
0:2:18.188,235.894,30.0336,0,0.000885,0,0
0:2:18.389,236.009,30.0474,0,0.000885,0,0
0:2:18.584,236.654,30.1301,0,0.000885,0,0
0:2:18.783,236.948,30.1715,0,0.000885,0,0
0:2:18.984,237.477,30.2335,0,0.000885,0,0
0:2:19.187,237.829,30.2818,0,0.000885,0,0
0:2:19.387,238.296,30.3438,0,0.000885,0,0
0:2:19.583,238.589,30.3783,0,0.000885,0,0
0:2:19.778,239.234,30.461,0,0.000885,0,0
0:2:19.979,239.412,30.4817,0,0.000885,0,0
0:2:20.186,239.937,30.5507,0,0.000885,0,0
0:2:20.384,239.937,30.5507,0,0.000885,0,0
0:2:20.591,240.818,30.661,0,0.000885,0,0
0:2:20.789,241.054,30.6886,0,0.000885,0,0
0:2:20.990,241.521,30.7506,0,0.000885,0,0
0:2:21.190,241.583,30.7575,0,0.000885,0,0
0:2:21.392,242.17,30.8334,0,0.000885,0,0
0:2:21.594,242.521,30.8816,0,0.000885,0,0
0:2:21.794,242.989,30.9368,0,0.000885,0,0
0:2:21.994,243.224,30.9712,0,0.000885,0,0
0:2:22.194,244.163,31.0885,0,0.000885,0,0
0:2:22.394,244.221,31.0954,0,0.000885,0,0
0:2:22.592,244.456,31.1229,0,0.000885,0,0
0:2:22.787,244.63,31.1505,0,0.000885,0,0
0:2:22.987,244.924,31.185,0,0.000885,0,0
0:2:23.183,245.395,31.247,0,0.000885,0,0
0:2:23.391,245.569,31.2677,0,0.000885,0,0
0:2:23.591,246.334,31.3643,0,0.000885,0,0
0:2:23.783,246.507,31.3849,0,0.000885,0,0
0:2:23.984,246.921,31.4401,0,0.000885,0,0
0:2:24.179,247.33,31.4884,0,0.000885,0,0
0:2:24.387,248.033,31.578,0,0.000885,0,0
0:2:24.588,248.211,31.6056,0,0.000885,0,0
0:2:24.791,248.736,31.6676,0,0.000885,0,0
0:2:24.991,249.149,31.7228,0,0.000885,0,0
0:2:25.190,249.732,31.7986,0,0.000885,0,0
0:2:25.383,249.852,31.8124,0,0.000885,0,0
0:2:25.585,250.319,31.8745,0,0.000885,0,0
0:2:25.790,250.906,31.9434,0,0.000885,0,0
0:2:25.987,251.729,32.0537,0,0.000885,0,0
0:2:26.188,251.787,32.0606,0,0.000885,0,0
0:2:26.388,252.49,32.1503,0,0.000885,0,0
0:2:26.591,252.668,32.1709,0,0.000885,0,0
0:2:26.792,253.019,32.2123,0,0.000885,0,0
0:2:26.991,253.019,32.2123,0,0.000885,0,0
0:2:27.191,252.961,32.2054,0,0.000885,0,0
0:2:27.392,253.722,32.3019,0,0.000885,0,0
0:2:27.592,254.016,32.3433,0,0.000885,0,0
0:2:27.791,254.131,32.3571,0,0.000885,0,0
0:2:27.987,254.661,32.426,0,0.000885,0,0
0:2:28.187,255.541,32.5364,0,0.000885,0,0
0:2:28.392,256.008,32.5984,0,0.000885,0,0
0:2:28.592,256.302,32.6329,0,0.000885,0,0
0:2:28.790,256.774,32.6949,0,0.000885,0,0
0:2:28.985,257.067,32.7294,0,0.000885,0,0
0:2:29.187,257.241,32.7501,0,0.000885,0,0
0:2:29.392,257.77,32.819,0,0.000885,0,0
0:2:29.590,258.064,32.8604,0,0.000885,0,0
0:2:29.789,258.295,32.888,0,0.000885,0,0
0:2:29.992,258.415,32.9018,0,0.000885,0,0
0:2:30.192,258.651,32.9294,0,0.000885,0,0
0:2:30.391,259.118,32.9914,0,0.000885,0,0
0:2:30.586,259.705,33.0673,0,0.000885,0,0
0:2:30.787,260.114,33.1155,0,0.000885,0,0
0:2:30.989,261.053,33.2396,0,0.000885,0,0
0:2:31.190,260.937,33.2258,0,0.000885,0,0
0:2:31.393,261.698,33.3224,0,0.000885,0,0
0:2:31.592,262.049,33.3637,0,0.000885,0,0
0:2:31.792,262.343,33.4051,0,0.000885,0,0
0:2:31.993,262.401,33.412,0,0.000885,0,0
0:2:32.194,262.988,33.4878,0,0.000885,0,0
0:2:32.392,263.281,33.5223,0,0.000885,0,0
0:2:32.588,263.753,33.5844,0,0.000885,0,0
0:2:32.788,264.22,33.6395,0,0.000885,0,0
0:2:32.993,264.571,33.6878,0,0.000885,0,0
0:2:33.192,265.101,33.7567,0,0.000885,0,0
0:2:33.391,265.394,33.7912,0,0.000885,0,0
0:2:33.586,265.861,33.8533,0,0.000885,0,0
0:2:33.787,265.981,33.867,0,0.000885,0,0
0:2:33.983,266.626,33.9498,0,0.000885,0,0
0:2:34.190,266.333,33.9084,0,0.000885,0,0
0:2:34.390,267.329,34.0394,0,0.000885,0,0
0:2:34.584,267.445,34.0532,0,0.000885,0,0
0:2:34.781,268.09,34.1359,0,0.000885,0,0
0:2:34.991,268.561,34.1911,0,0.000885,0,0
0:2:35.187,269.206,34.2738,0,0.000885,0,0
0:2:35.385,269.028,34.2532,0,0.000885,0,0
0:2:35.590,269.206,34.2738,0,0.000885,0,0
0:2:35.790,269.851,34.3566,0,0.000885,0,0
0:2:35.990,270.261,34.4117,0,0.000885,0,0
0:2:36.193,270.554,34.4462,0,0.000885,0,0
0:2:36.394,270.906,34.4945,0,0.000885,0,0
0:2:36.594,271.319,34.5427,0,0.000885,0,0
0:2:36.794,271.608,34.5841,0,0.000885,0,0
0:2:36.993,272.08,34.6393,0,0.000885,0,0
0:2:37.193,272.138,34.6531,0,0.000885,0,0
0:2:37.396,272.316,34.6737,0,0.000885,0,0
0:2:37.590,272.138,34.6531,0,0.000885,0,0
0:2:37.788,272.431,34.6875,0,0.000885,0,0
0:2:37.987,272.783,34.7289,0,0.000885,0,0
0:2:38.191,272.903,34.7496,0,0.000885,0,0
0:2:38.392,273.428,34.8116,0,0.000885,0,0
0:2:38.588,273.548,34.8323,0,0.000885,0,0
0:2:38.781,273.548,34.8323,0,0.000885,0,0
0:2:38.981,273.606,34.8392,0,0.000885,0,0
0:2:39.188,273.312,34.7978,0,0.000885,0,0
0:2:39.386,273.254,34.7909,0,0.000885,0,0
0:2:39.582,272.725,34.722,0,0.000885,0,0
0:2:39.787,271.964,34.6255,0,0.000885,0,0
0:2:39.987,270.848,34.4876,0,0.000885,0,0
0:2:40.193,269.38,34.3014,0,0.000885,0,0
0:2:40.390,268.913,34.2394,0,0.000885,0,0
0:2:40.589,268.677,34.2118,0,0.000885,0,0
0:2:40.792,267.738,34.0877,0,0.000885,0,0
0:2:40.992,266.626,33.9498,0,0.000885,0,0
0:2:41.191,265.688,33.8257,0,0.000885,0,0
0:2:41.393,263.339,33.5292,0,0.000885,0,0
0:2:41.595,261.876,33.343,0,0.000885,0,0
0:2:41.793,260.759,33.1983,0,0.000885,0,0
0:2:41.995,259.06,32.9845,0,0.000885,0,0
0:2:42.193,257.886,32.8328,0,0.000885,0,0
0:2:42.394,255.364,32.5157,0,0.000885,0,0
0:2:42.593,253.958,32.3364,0,0.000885,0,0
0:2:42.789,250.849,31.9365,0,0.000885,0,0
0:2:42.988,249.087,31.7159,0,0.000885,0,0
0:2:43.186,243.811,31.0402,0,0.000885,0,0
0:2:43.389,240.409,30.6127,0,0.000885,0,0
0:2:43.590,232.842,29.6475,0,0.000885,0,0
0:2:43.793,228.736,29.1235,0,0.000885,0,0
0:2:43.991,224.101,28.5305,0,0.000885,0,0
0:2:44.192,222.344,28.3099,0,0.000885,0,0
0:2:44.393,217.651,27.71,0,0.000885,0,0
0:2:44.594,214.662,27.3308,0,0.000885,0,0
0:2:44.790,209.44,26.6689,0,0.000885,0,0
0:2:44.982,206.567,26.3035,0,0.000885,0,0
0:2:45.182,198.764,25.3107,0,0.000885,0,0
0:2:45.390,193.782,24.6763,0,0.000885,0,0
0:2:45.447,193.782,24.6763,0,0.000885,0,0