File: DataFile2021-07-18_080159.csv
Test ID:,Date Tested:,Time:,Test Type:,Diameter Avg. (mm):,Cyl. Corr. Factor:,Height (mm):,Age (days):,Weight (kN):,Break Type:,Ramp Rate (MPa/s):,Load at Break (kN):,Stress at Break (MPa):
12,7/18/2021,08:01,Cylinder,100,1,200,0,3.89,3,0.35,1156.12,147.2
Sample Time,Load (kN),Stress (MPa),Long. Strain,Trans. Strain,Chan1 Deflection (mm),Chan2 Deflection (mm)
0:0:13.821,6.57002,0.834266,0,0.000885,0,0
0:0:14.222,9.20782,1.17211,0,0.000885,0,0
0:0:14.631,9.20782,1.17211,0,0.000885,0,0
0:0:15.025,9.32347,1.1859,0,0.000885,0,0
0:0:15.432,9.85281,1.25485,0,0.000885,0,0
0:0:15.829,10.3821,1.32379,0,0.000885,0,0
0:0:16.238,11.552,1.46858,0,0.000885,0,0
0:0:16.634,12.375,1.5789,0,0.000885,0,0
0:0:17.031,13.9007,1.77195,0,0.000885,0,0
0:0:17.437,14.7814,1.88227,0,0.000885,0,0
0:0:17.837,16.0714,2.04774,0,0.000885,0,0
0:0:18.235,16.9522,2.15806,0,0.000885,0,0
0:0:18.640,17.8863,2.27527,0,0.000885,0,0
0:0:19.037,19.1807,2.44074,0,0.000885,0,0
0:0:19.440,20.5285,2.61311,0,0.000885,0,0
0:0:19.847,21.347,2.71653,0,0.000885,0,0
0:0:20.250,22.9306,2.91648,0,0.000885,0,0
0:0:20.654,24.4563,3.11643,0,0.000885,0,0
0:0:21.052,25.7463,3.27501,0,0.000885,0,0
0:0:21.452,27.45,3.49564,0,0.000885,0,0
0:0:21.851,28.3886,3.61285,0,0.000885,0,0
0:0:22.250,29.1492,3.70938,0,0.000885,0,0
0:0:22.646,30.7328,3.91622,0,0.000885,0,0
0:0:23.043,31.6135,4.02654,0,0.000885,0,0
0:0:23.442,32.0227,4.0748,0,0.000885,0,0
0:0:23.843,33.2549,4.23338,0,0.000885,0,0
0:0:24.240,34.0778,4.3368,0,0.000885,0,0
0:0:24.644,35.1321,4.4747,0,0.000885,0,0
0:0:25.047,35.7192,4.55054,0,0.000885,0,0
0:0:25.452,37.245,4.74359,0,0.000885,0,0
0:0:25.855,37.89,4.82633,0,0.000885,0,0
0:0:26.253,39.2378,4.9987,0,0.000885,0,0
0:0:26.651,40.5277,5.15728,0,0.000885,0,0
0:0:27.048,41.6398,5.30207,0,0.000885,0,0
0:0:27.448,42.6985,5.43307,0,0.000885,0,0
0:0:27.848,43.8105,5.57786,0,0.000885,0,0
0:0:28.244,45.0427,5.73644,0,0.000885,0,0
0:0:28.641,46.4528,5.9157,0,0.000885,0,0
0:0:29.041,47.3291,6.02602,0,0.000885,0,0
0:0:29.442,48.9126,6.22597,0,0.000885,0,0
0:0:29.847,50.2026,6.39144,0,0.000885,0,0
0:0:30.251,50.9677,6.48797,0,0.000885,0,0
0:0:30.654,52.3155,6.66034,0,0.000885,0,0
0:0:31.054,52.8449,6.72928,0,0.000885,0,0
0:0:31.453,53.8413,6.85339,0,0.000885,0,0
0:0:31.852,54.4284,6.92923,0,0.000885,0,0
0:0:32.249,55.7184,7.09471,0,0.000885,0,0
0:0:32.646,56.5992,7.20502,0,0.000885,0,0
0:0:33.045,58.0626,7.39118,0,0.000885,0,0
0:0:33.445,59.5305,7.57734,0,0.000885,0,0
0:0:33.842,60.1177,7.65318,0,0.000885,0,0
0:0:34.238,61.7013,7.85313,0,0.000885,0,0
0:0:34.643,62.8133,7.99792,0,0.000885,0,0
0:0:35.050,63.4583,8.08066,0,0.000885,0,0
0:0:35.453,64.517,8.21166,0,0.000885,0,0
0:0:35.857,65.6291,8.35645,0,0.000885,0,0
0:0:36.254,66.9769,8.52881,0,0.000885,0,0
0:0:36.653,68.209,8.68739,0,0.000885,0,0
0:0:37.054,69.1476,8.80461,0,0.000885,0,0
0:0:37.452,70.6733,8.99766,0,0.000885,0,0
0:0:37.847,71.7276,9.13555,0,0.000885,0,0
0:0:38.245,72.5505,9.23897,0,0.000885,0,0
0:0:38.643,73.022,9.29413,0,0.000885,0,0
0:0:39.044,74.6634,9.50787,0,0.000885,0,0
0:0:39.451,76.0112,9.68024,0,0.000885,0,0
0:0:39.855,77.0076,9.80434,0,0.000885,0,0
0:0:40.259,78.2398,9.96292,0,0.000885,0,0
0:0:40.660,79.2362,10.087,0,0.000885,0,0
0:0:41.060,80.4105,10.2387,0,0.000885,0,0
0:0:41.457,81.1133,10.3283,0,0.000885,0,0
0:0:41.852,82.4033,10.4938,0,0.000885,0,0
0:0:42.252,82.9326,10.5559,0,0.000885,0,0
0:0:42.651,84.3961,10.7489,0,0.000885,0,0
0:0:43.051,85.8062,10.9282,0,0.000885,0,0
0:0:43.447,87.0384,11.0799,0,0.000885,0,0
0:0:43.842,87.9191,11.1971,0,0.000885,0,0
0:0:44.247,89.3247,11.3763,0,0.000885,0,0
0:0:44.653,90.4991,11.5211,0,0.000885,0,0
0:0:45.056,91.3175,11.6246,0,0.000885,0,0
0:0:45.460,92.1405,11.7349,0,0.000885,0,0
0:0:45.857,93.3726,11.8866,0,0.000885,0,0
0:0:46.256,94.1911,11.99,0,0.000885,0,0
0:0:46.657,95.4811,12.1555,0,0.000885,0,0
0:0:47.053,96.6554,12.3071,0,0.000885,0,0
0:0:47.449,97.594,12.4244,0,0.000885,0,0
0:0:47.848,99.4711,12.6657,0,0.000885,0,0
0:0:48.247,100.058,12.7415,0,0.000885,0,0
0:0:48.644,101.17,12.8794,0,0.000885,0,0
0:0:49.041,101.878,12.969,0,0.000885,0,0
0:0:49.447,103.225,13.1414,0,0.000885,0,0
0:0:49.851,104.337,13.2862,0,0.000885,0,0
0:0:50.255,105.512,13.431,0,0.000885,0,0
0:0:50.659,106.922,13.6103,0,0.000885,0,0
0:0:51.055,107.74,13.7206,0,0.000885,0,0
0:0:51.452,108.737,13.8447,0,0.000885,0,0
0:0:51.853,109.56,13.9481,0,0.000885,0,0
0:0:52.252,110.44,14.0584,0,0.000885,0,0
0:0:52.648,111.846,14.2377,0,0.000885,0,0
0:0:53.045,113.43,14.4445,0,0.000885,0,0
0:0:53.444,114.604,14.5893,0,0.000885,0,0
0:0:53.843,115.365,14.6858,0,0.000885,0,0
0:0:54.241,116.423,14.8237,0,0.000885,0,0
0:0:54.646,117.593,14.9754,0,0.000885,0,0
0:0:55.052,118.59,15.0995,0,0.000885,0,0
0:0:55.456,120,15.2788,0,0.000885,0,0
0:0:55.859,120.645,15.3615,0,0.000885,0,0
0:0:56.255,122.17,15.5546,0,0.000885,0,0
0:0:56.651,123.047,15.6649,0,0.000885,0,0
0:0:57.051,124.808,15.8924,0,0.000885,0,0
0:0:57.452,125.862,16.0234,0,0.000885,0,0
0:0:57.847,126.45,16.0993,0,0.000885,0,0
0:0:58.243,127.624,16.2509,0,0.000885,0,0
0:0:58.640,128.033,16.2992,0,0.000885,0,0
0:0:59.042,129.15,16.444,0,0.000885,0,0
0:0:59.448,130.204,16.575,0,0.000885,0,0
0:0:59.852,131.494,16.7405,0,0.000885,0,0
0:1:0.255,132.548,16.8784,0,0.000885,0,0
0:1:0.658,134.31,17.099,0,0.000885,0,0
0:1:1.057,135.248,17.2231,0,0.000885,0,0
0:1:1.451,136.245,17.3472,0,0.000885,0,0
0:1:1.849,137.477,17.5058,0,0.000885,0,0
0:1:2.247,138.064,17.5816,0,0.000885,0,0
0:1:2.649,139.763,17.7954,0,0.000885,0,0
0:1:3.046,140.644,17.9057,0,0.000885,0,0
0:1:3.441,141.876,18.0643,0,0.000885,0,0
0:1:3.839,143.224,18.2366,0,0.000885,0,0
0:1:4.243,144.047,18.3401,0,0.000885,0,0
0:1:4.649,145.337,18.5055,0,0.000885,0,0
0:1:5.052,146.097,18.6021,0,0.000885,0,0
0:1:5.455,147.272,18.7537,0,0.000885,0,0
0:1:5.853,148.326,18.8847,0,0.000885,0,0
0:1:6.253,149.678,19.0571,0,0.000885,0,0
0:1:6.651,150.675,19.1812,0,0.000885,0,0
0:1:7.048,151.729,19.3191,0,0.000885,0,0
0:1:7.444,152.61,19.4294,0,0.000885,0,0
0:1:7.844,153.548,19.5535,0,0.000885,0,0
0:1:8.244,154.602,19.6845,0,0.000885,0,0
0:1:8.640,155.777,19.8362,0,0.000885,0,0
0:1:9.037,157.418,20.0431,0,0.000885,0,0
0:1:9.442,158.299,20.1534,0,0.000885,0,0
0:1:9.849,159.411,20.2982,0,0.000885,0,0
0:1:10.252,160.527,20.4361,0,0.000885,0,0
0:1:10.655,161.524,20.5671,0,0.000885,0,0
0:1:11.052,162.578,20.6981,0,0.000885,0,0
0:1:11.452,163.988,20.8773,0,0.000885,0,0
0:1:11.851,164.513,20.9463,0,0.000885,0,0
0:1:12.248,165.22,21.0359,0,0.000885,0,0
0:1:12.643,166.684,21.2221,0,0.000885,0,0
0:1:13.042,168.094,21.4013,0,0.000885,0,0
0:1:13.444,169.032,21.5185,0,0.000885,0,0
0:1:13.840,170.265,21.6771,0,0.000885,0,0
0:1:14.236,171.906,21.8909,0,0.000885,0,0
0:1:14.640,172.96,22.0219,0,0.000885,0,0
0:1:15.046,173.721,22.1184,0,0.000885,0,0
0:1:15.450,175.304,22.3183,0,0.000885,0,0
0:1:15.853,176.07,22.4149,0,0.000885,0,0
0:1:16.249,176.83,22.5183,0,0.000885,0,0
0:1:16.648,177.595,22.6148,0,0.000885,0,0
0:1:17.048,179.179,22.8148,0,0.000885,0,0
0:1:17.444,180.175,22.9389,0,0.000885,0,0
0:1:17.841,181.639,23.125,0,0.000885,0,0
0:1:18.238,182.991,23.2974,0,0.000885,0,0
0:1:18.638,183.867,23.4077,0,0.000885,0,0
0:1:19.046,184.748,23.5249,0,0.000885,0,0
0:1:19.452,185.571,23.6283,0,0.000885,0,0
0:1:19.855,186.803,23.7869,0,0.000885,0,0
0:1:20.258,188.035,23.9386,0,0.000885,0,0
0:1:20.662,189.383,24.111,0,0.000885,0,0
0:1:21.060,190.202,24.2144,0,0.000885,0,0
0:1:21.455,191.434,24.373,0,0.000885,0,0
0:1:21.853,192.959,24.566,0,0.000885,0,0
0:1:22.250,193.662,24.6557,0,0.000885,0,0
0:1:22.645,194.369,24.7453,0,0.000885,0,0
0:1:23.040,195.717,24.9177,0,0.000885,0,0
0:1:23.442,196.42,25.0073,0,0.000885,0,0
0:1:23.840,197.301,25.1176,0,0.000885,0,0
0:1:24.238,198.942,25.3313,0,0.000885,0,0
0:1:24.640,199.587,25.4141,0,0.000885,0,0
0:1:25.042,201.229,25.6209,0,0.000885,0,0
0:1:25.443,202.581,25.7933,0,0.000885,0,0
0:1:25.840,203.457,25.9036,0,0.000885,0,0
0:1:26.233,204.222,26.0001,0,0.000885,0,0
0:1:26.640,205.454,26.1587,0,0.000885,0,0
0:1:27.043,206.567,26.3035,0,0.000885,0,0
0:1:27.440,207.799,26.4552,0,0.000885,0,0
0:1:27.838,209.031,26.6138,0,0.000885,0,0
0:1:28.242,210.143,26.7586,0,0.000885,0,0
0:1:28.644,211.024,26.8689,0,0.000885,0,0
0:1:29.040,212.198,27.0206,0,0.000885,0,0
0:1:29.439,213.137,27.1378,0,0.000885,0,0
0:1:29.844,214.369,27.2963,0,0.000885,0,0
0:1:30.245,215.365,27.4204,0,0.000885,0,0
0:1:30.644,216.597,27.579,0,0.000885,0,0
0:1:31.040,217.242,27.6618,0,0.000885,0,0
0:1:31.439,218.239,27.7859,0,0.000885,0,0
0:1:31.841,219.644,27.9651,0,0.000885,0,0
0:1:32.244,220.761,28.1099,0,0.000885,0,0
0:1:32.639,221.873,28.2478,0,0.000885,0,0
0:1:33.034,223.283,28.4271,0,0.000885,0,0
0:1:33.441,224.222,28.5512,0,0.000885,0,0
0:1:33.832,225.569,28.7236,0,0.000885,0,0
0:1:34.234,226.624,28.8546,0,0.000885,0,0
0:1:34.639,227.976,29.0269,0,0.000885,0,0
0:1:35.040,229.03,29.1579,0,0.000885,0,0
0:1:35.441,229.791,29.2613,0,0.000885,0,0
0:1:35.844,230.729,29.3786,0,0.000885,0,0
0:1:36.238,232.019,29.544,0,0.000885,0,0
0:1:36.645,232.9,29.6544,0,0.000885,0,0
0:1:37.040,233.839,29.7716,0,0.000885,0,0
0:1:37.430,235.129,29.937,0,0.000885,0,0
0:1:37.838,236.303,30.0887,0,0.000885,0,0
0:1:38.244,237.006,30.1784,0,0.000885,0,0
0:1:38.640,238.354,30.3507,0,0.000885,0,0
0:1:39.045,239.706,30.5231,0,0.000885,0,0
0:1:39.447,240.351,30.5989,0,0.000885,0,0
0:1:39.850,241.405,30.7368,0,0.000885,0,0
0:1:40.250,242.637,30.8954,0,0.000885,0,0
0:1:40.651,243.985,31.0678,0,0.000885,0,0
0:1:41.044,245.275,31.2264,0,0.000885,0,0
0:1:41.438,246.334,31.3643,0,0.000885,0,0
0:1:41.842,247.272,31.4815,0,0.000885,0,0
0:1:42.241,248.091,31.5849,0,0.000885,0,0
0:1:42.644,249.323,31.7435,0,0.000885,0,0
0:1:43.047,250.733,31.9227,0,0.000885,0,0
0:1:43.441,251.961,32.0813,0,0.000885,0,0
0:1:43.839,253.251,32.2468,0,0.000885,0,0
0:1:44.244,254.603,32.4191,0,0.000885,0,0
0:1:44.647,255.541,32.5364,0,0.000885,0,0
0:1:45.048,256.36,32.6398,0,0.000885,0,0
0:1:45.447,257.77,32.819,0,0.000885,0,0
0:1:45.847,258.651,32.9294,0,0.000885,0,0
0:1:46.240,259.878,33.0879,0,0.000885,0,0
0:1:46.643,260.35,33.15,0,0.000885,0,0
0:1:47.047,261.818,33.3362,0,0.000885,0,0
0:1:47.445,263.046,33.4947,0,0.000885,0,0
0:1:47.840,264.046,33.6188,0,0.000885,0,0
0:1:48.243,265.158,33.7636,0,0.000885,0,0
0:1:48.646,265.861,33.8533,0,0.000885,0,0
0:1:49.042,267.387,34.0463,0,0.000885,0,0
0:1:49.435,268.21,34.1497,0,0.000885,0,0
0:1:49.841,269.38,34.3014,0,0.000885,0,0
0:1:50.242,270.732,34.4738,0,0.000885,0,0
0:1:50.642,271.608,34.5841,0,0.000885,0,0
0:1:51.041,272.489,34.6944,0,0.000885,0,0
0:1:51.446,273.606,34.8392,0,0.000885,0,0
0:1:51.840,274.776,34.984,0,0.000885,0,0
0:1:52.242,275.541,35.0805,0,0.000885,0,0
0:1:52.640,277.066,35.2736,0,0.000885,0,0
0:1:53.046,278.005,35.3977,0,0.000885,0,0
0:1:53.435,279.237,35.5563,0,0.000885,0,0
0:1:53.829,280.349,35.6942,0,0.000885,0,0
0:1:54.230,281.23,35.8045,0,0.000885,0,0
0:1:54.633,282.284,35.9424,0,0.000885,0,0
0:1:55.033,283.632,36.1147,0,0.000885,0,0
0:1:55.433,285.216,36.3147,0,0.000885,0,0
0:1:55.828,285.745,36.3836,0,0.000885,0,0
0:1:56.234,286.919,36.5284,0,0.000885,0,0
0:1:56.642,288.209,36.6939,0,0.000885,0,0
0:1:57.045,289.441,36.8525,0,0.000885,0,0
0:1:57.447,289.908,36.9145,0,0.000885,0,0
0:1:57.842,291.141,37.0662,0,0.000885,0,0
0:1:58.240,292.195,37.2041,0,0.000885,0,0
0:1:58.643,293.663,37.3903,0,0.000885,0,0
0:1:59.046,294.837,37.542,0,0.000885,0,0
0:1:59.447,295.598,37.6385,0,0.000885,0,0
0:1:59.849,296.421,37.7419,0,0.000885,0,0
0:2:0.250,297.711,37.9074,0,0.000885,0,0
0:2:0.651,298.591,38.0177,0,0.000885,0,0
0:2:1.043,299.761,38.1694,0,0.000885,0,0
0:2:1.448,300.936,38.3142,0,0.000885,0,0
0:2:1.845,302.283,38.4865,0,0.000885,0,0
0:2:2.250,303.751,38.6727,0,0.000885,0,0
0:2:2.643,304.512,38.7692,0,0.000885,0,0
0:2:3.047,305.864,38.9416,0,0.000885,0,0
0:2:3.444,307.212,39.114,0,0.000885,0,0
0:2:3.839,308.151,39.2381,0,0.000885,0,0
0:2:4.242,309.031,39.3484,0,0.000885,0,0
0:2:4.644,310.086,39.4794,0,0.000885,0,0
0:2:5.045,311.318,39.638,0,0.000885,0,0
0:2:5.444,312.078,39.7345,0,0.000885,0,0
0:2:5.845,312.901,39.8379,0,0.000885,0,0
0:2:6.249,313.955,39.9758,0,0.000885,0,0
0:2:6.643,315.366,40.1551,0,0.000885,0,0
0:2:7.040,316.535,40.2999,0,0.000885,0,0
0:2:7.447,318.177,40.5136,0,0.000885,0,0
0:2:7.841,318.826,40.5963,0,0.000885,0,0
0:2:8.242,319.76,40.7135,0,0.000885,0,0
0:2:8.640,320.761,40.8376,0,0.000885,0,0
0:2:9.047,322.167,41.0169,0,0.000885,0,0
0:2:9.452,323.457,41.1824,0,0.000885,0,0
0:2:9.852,324.573,41.3272,0,0.000885,0,0
0:2:10.251,324.867,41.3616,0,0.000885,0,0
0:2:10.647,326.566,41.5823,0,0.000885,0,0
0:2:11.046,327.505,41.6995,0,0.000885,0,0
0:2:11.449,328.501,41.8236,0,0.000885,0,0
0:2:11.842,329.618,41.9684,0,0.000885,0,0
0:2:12.249,330.614,42.0925,0,0.000885,0,0
0:2:12.646,332.255,42.3062,0,0.000885,0,0
0:2:13.041,333.368,42.4441,0,0.000885,0,0
0:2:13.442,334.19,42.5475,0,0.000885,0,0
0:2:13.836,335.48,42.713,0,0.000885,0,0
0:2:14.236,336.77,42.8785,0,0.000885,0,0
0:2:14.643,338.003,43.0371,0,0.000885,0,0
0:2:15.043,338.296,43.0715,0,0.000885,0,0
0:2:15.444,339.764,43.2577,0,0.000885,0,0
0:2:15.841,340.934,43.4094,0,0.000885,0,0
0:2:16.247,341.993,43.5404,0,0.000885,0,0
0:2:16.642,342.931,43.6645,0,0.000885,0,0
0:2:17.045,343.87,43.7817,0,0.000885,0,0
0:2:17.449,344.746,43.892,0,0.000885,0,0
0:2:17.847,345.92,44.0437,0,0.000885,0,0
0:2:18.243,347.095,44.1954,0,0.000885,0,0
0:2:18.648,348.736,44.4022,0,0.000885,0,0
0:2:19.038,349.968,44.5608,0,0.000885,0,0
0:2:19.439,350.907,44.678,0,0.000885,0,0
0:2:19.845,352.019,44.8228,0,0.000885,0,0
0:2:20.246,352.606,44.8987,0,0.000885,0,0
0:2:20.645,353.838,45.0503,0,0.000885,0,0
0:2:21.049,355.128,45.2158,0,0.000885,0,0
0:2:21.448,355.831,45.3055,0,0.000885,0,0
0:2:21.844,357.299,45.4916,0,0.000885,0,0
0:2:22.246,358.18,45.6019,0,0.000885,0,0
0:2:22.638,359.35,45.7536,0,0.000885,0,0
0:2:23.047,360.466,45.8984,0,0.000885,0,0
0:2:23.444,362.05,46.0983,0,0.000885,0,0
0:2:23.849,363.34,46.2638,0,0.000885,0,0
0:2:24.242,363.691,46.3052,0,0.000885,0,0
0:2:24.643,365.039,46.4776,0,0.000885,0,0
0:2:25.045,365.92,46.5879,0,0.000885,0,0
0:2:25.447,367.152,46.7465,0,0.000885,0,0
0:2:25.847,368.033,46.8568,0,0.000885,0,0
0:2:26.250,369.265,47.0153,0,0.000885,0,0
0:2:26.647,369.616,47.0636,0,0.000885,0,0
0:2:27.044,371.2,47.2636,0,0.000885,0,0
0:2:27.447,372.49,47.429,0,0.000885,0,0
0:2:27.838,373.78,47.5945,0,0.000885,0,0
0:2:28.246,375.012,47.7462,0,0.000885,0,0
0:2:28.642,376.066,47.8841,0,0.000885,0,0
0:2:29.036,377.062,48.0082,0,0.000885,0,0
0:2:29.443,378.001,48.1254,0,0.000885,0,0
0:2:29.845,379.353,48.2978,0,0.000885,0,0
0:2:30.244,380.465,48.4426,0,0.000885,0,0
0:2:30.644,381.288,48.546,0,0.000885,0,0
0:2:31.047,382.285,48.677,0,0.000885,0,0
0:2:31.450,383.748,48.8631,0,0.000885,0,0
0:2:31.845,384.865,49.001,0,0.000885,0,0
0:2:32.244,385.919,49.1389,0,0.000885,0,0
0:2:32.648,387.035,49.2768,0,0.000885,0,0
0:2:33.039,388.383,49.4492,0,0.000885,0,0
0:2:33.444,389.322,49.5733,0,0.000885,0,0
0:2:33.839,390.145,49.6767,0,0.000885,0,0
0:2:34.248,391.492,49.8491,0,0.000885,0,0
0:2:34.650,392.311,49.9525,0,0.000885,0,0
0:2:35.053,393.249,50.0697,0,0.000885,0,0
0:2:35.453,394.366,50.2145,0,0.000885,0,0
0:2:35.853,395.54,50.3593,0,0.000885,0,0
0:2:36.248,396.83,50.5248,0,0.000885,0,0
0:2:36.641,398,50.6765,0,0.000885,0,0
0:2:37.046,398.53,50.7454,0,0.000885,0,0
0:2:37.443,399.82,50.904,0,0.000885,0,0
0:2:37.839,401.461,51.1177,0,0.000885,0,0
0:2:38.243,402.751,51.2832,0,0.000885,0,0
0:2:38.648,404.045,51.4418,0,0.000885,0,0
0:2:39.040,404.69,51.5245,0,0.000885,0,0
0:2:39.440,405.918,51.6831,0,0.000885,0,0
0:2:39.845,406.625,51.7727,0,0.000885,0,0
0:2:40.246,407.737,51.9175,0,0.000885,0,0
0:2:40.645,408.796,52.0485,0,0.000885,0,0
0:2:41.040,410.202,52.2278,0,0.000885,0,0
0:2:41.450,411.434,52.3864,0,0.000885,0,0
0:2:41.844,412.372,52.5036,0,0.000885,0,0
0:2:42.246,413.662,52.6691,0,0.000885,0,0
0:2:42.640,414.952,52.8345,0,0.000885,0,0
0:2:43.038,415.188,52.8621,0,0.000885,0,0
0:2:43.445,416.42,53.0207,0,0.000885,0,0
0:2:43.838,417.359,53.1379,0,0.000885,0,0
0:2:44.240,418.177,53.2413,0,0.000885,0,0
0:2:44.645,419.587,53.4206,0,0.000885,0,0
0:2:45.045,420.815,53.5792,0,0.000885,0,0
0:2:45.445,422.283,53.7653,0,0.000885,0,0
0:2:45.835,423.337,53.9032,0,0.000885,0,0
0:2:46.244,424.218,54.0135,0,0.000885,0,0
0:2:46.639,425.214,54.1376,0,0.000885,0,0
0:2:47.032,426.153,54.2617,0,0.000885,0,0
0:2:47.427,427.563,54.441,0,0.000885,0,0
0:2:47.852,428.911,54.6134,0,0.000885,0,0
0:2:48.249,429.734,54.7168,0,0.000885,0,0
0:2:48.646,430.846,54.8547,0,0.000885,0,0
0:2:49.049,431.962,54.9995,0,0.000885,0,0
0:2:49.452,433.074,55.1443,0,0.000885,0,0
0:2:49.855,434.422,55.3097,0,0.000885,0,0
0:2:50.255,435.539,55.4545,0,0.000885,0,0
0:2:50.655,436.362,55.558,0,0.000885,0,0
0:2:51.048,437.474,55.7027,0,0.000885,0,0
0:2:51.440,438.412,55.82,0,0.000885,0,0
0:2:51.839,439.938,56.013,0,0.000885,0,0
0:2:52.246,440.877,56.1371,0,0.000885,0,0
0:2:52.638,441.579,56.2267,0,0.000885,0,0
0:2:53.041,443.221,56.4336,0,0.000885,0,0
0:2:53.448,443.986,56.5301,0,0.000885,0,0
0:2:53.846,445.334,56.7025,0,0.000885,0,0
0:2:54.252,445.979,56.7852,0,0.000885,0,0
0:2:54.655,447.269,56.9507,0,0.000885,0,0
0:2:55.056,448.501,57.1024,0,0.000885,0,0
0:2:55.456,449.497,57.2334,0,0.000885,0,0
0:2:55.858,450.378,57.3437,0,0.000885,0,0
0:2:56.251,451.432,57.4816,0,0.000885,0,0
0:2:56.645,452.9,57.6677,0,0.000885,0,0
0:2:57.038,453.603,57.7574,0,0.000885,0,0
0:2:57.447,455.538,57.9987,0,0.000885,0,0
0:2:57.842,456.77,58.1573,0,0.000885,0,0
0:2:58.255,457.531,58.2538,0,0.000885,0,0
0:2:58.649,459.056,58.4469,0,0.000885,0,0
0:2:59.046,459.879,58.5503,0,0.000885,0,0
0:2:59.443,460.818,58.6744,0,0.000885,0,0
0:2:59.848,461.579,58.7709,0,0.000885,0,0
0:3:0.251,462.869,58.9364,0,0.000885,0,0
0:3:0.651,464.159,59.1019,0,0.000885,0,0
0:3:1.049,464.688,59.1639,0,0.000885,0,0
0:3:1.445,466.036,59.3363,0,0.000885,0,0
0:3:1.850,467.971,59.5845,0,0.000885,0,0
0:3:2.252,468.033,59.5914,0,0.000885,0,0
0:3:2.649,468.851,59.6948,0,0.000885,0,0
0:3:3.046,470.729,59.9361,0,0.000885,0,0
0:3:3.439,471.667,60.0533,0,0.000885,0,0
0:3:3.843,472.842,60.205,0,0.000885,0,0
0:3:4.247,473.486,60.2878,0,0.000885,0,0
0:3:4.650,474.719,60.4394,0,0.000885,0,0
0:3:5.051,475.773,60.5773,0,0.000885,0,0
0:3:5.452,477.179,60.7566,0,0.000885,0,0
0:3:5.844,478.059,60.8669,0,0.000885,0,0
0:3:6.238,479.469,61.0462,0,0.000885,0,0
0:3:6.646,480.346,61.1565,0,0.000885,0,0
0:3:7.042,481.52,61.3082,0,0.000885,0,0
0:3:7.449,482.81,61.4737,0,0.000885,0,0
0:3:7.850,483.633,61.5771,0,0.000885,0,0
0:3:8.246,485.039,61.7563,0,0.000885,0,0
0:3:8.641,485.684,61.8391,0,0.000885,0,0
0:3:9.037,487.209,62.0321,0,0.000885,0,0
0:3:9.441,487.912,62.1218,0,0.000885,0,0
0:3:9.843,489.616,62.3424,0,0.000885,0,0
0:3:10.242,490.67,62.4734,0,0.000885,0,0
0:3:10.642,491.724,62.6113,0,0.000885,0,0
0:3:11.048,492.721,62.7354,0,0.000885,0,0
0:3:11.452,493.721,62.8595,0,0.000885,0,0
0:3:11.843,494.66,62.9836,0,0.000885,0,0
0:3:12.240,495.599,63.1008,0,0.000885,0,0
0:3:12.649,496.768,63.2525,0,0.000885,0,0
0:3:13.054,498.236,63.4387,0,0.000885,0,0
0:3:13.448,498.997,63.5352,0,0.000885,0,0
0:3:13.841,500.229,63.6938,0,0.000885,0,0
0:3:14.241,500.994,63.7903,0,0.000885,0,0
0:3:14.643,502.164,63.9351,0,0.000885,0,0
0:3:15.044,503.516,64.1075,0,0.000885,0,0
0:3:15.442,504.393,64.2247,0,0.000885,0,0
0:3:15.841,505.625,64.3763,0,0.000885,0,0
0:3:16.237,506.799,64.528,0,0.000885,0,0
0:3:16.633,507.974,64.6797,0,0.000885,0,0
0:3:17.038,508.734,64.7762,0,0.000885,0,0
0:3:17.452,509.909,64.921,0,0.000885,0,0
0:3:17.848,511.372,65.1072,0,0.000885,0,0
0:3:18.244,512.546,65.2589,0,0.000885,0,0
0:3:18.639,513.543,65.383,0,0.000885,0,0
0:3:19.043,514.423,65.5002,0,0.000885,0,0
0:3:19.449,516.007,65.7001,0,0.000885,0,0
0:3:19.851,516.71,65.7898,0,0.000885,0,0
0:3:20.251,518.293,65.9897,0,0.000885,0,0
0:3:20.652,518.645,66.038,0,0.000885,0,0
0:3:21.043,519.704,66.169,0,0.000885,0,0
0:3:21.438,520.936,66.3276,0,0.000885,0,0
0:3:21.843,521.638,66.4172,0,0.000885,0,0
0:3:22.252,523.102,66.6034,0,0.000885,0,0
0:3:22.645,524.628,66.7964,0,0.000885,0,0
0:3:23.049,525.393,66.8929,0,0.000885,0,0
0:3:23.444,526.798,67.0722,0,0.000885,0,0
0:3:23.841,527.559,67.1687,0,0.000885,0,0
0:3:24.235,528.324,67.2653,0,0.000885,0,0
0:3:24.639,529.908,67.4721,0,0.000885,0,0
0:3:25.041,530.726,67.5755,0,0.000885,0,0
0:3:25.441,532.194,67.7617,0,0.000885,0,0
0:3:25.843,533.368,67.9134,0,0.000885,0,0
0:3:26.245,534.601,68.065,0,0.000885,0,0
0:3:26.640,535.539,68.1891,0,0.000885,0,0
0:3:27.045,536.358,68.2926,0,0.000885,0,0
0:3:27.442,537.648,68.458,0,0.000885,0,0
0:3:27.837,538.528,68.5684,0,0.000885,0,0
0:3:28.242,539.996,68.7545,0,0.000885,0,0
0:3:28.635,540.935,68.8717,0,0.000885,0,0
0:3:29.041,541.989,69.0096,0,0.000885,0,0
0:3:29.451,543.395,69.1889,0,0.000885,0,0
0:3:29.853,543.688,69.2234,0,0.000885,0,0
0:3:30.256,545.156,69.4095,0,0.000885,0,0
0:3:30.655,546.21,69.5474,0,0.000885,0,0
0:3:31.056,547.149,69.6646,0,0.000885,0,0
0:3:31.452,548.323,69.8163,0,0.000885,0,0
0:3:31.844,549.791,70.0025,0,0.000885,0,0
0:3:32.257,550.668,70.1128,0,0.000885,0,0
0:3:32.655,552.078,70.2921,0,0.000885,0,0
0:3:33.053,553.368,70.4575,0,0.000885,0,0
0:3:33.456,554.128,70.5541,0,0.000885,0,0
0:3:33.846,555.538,70.7333,0,0.000885,0,0
0:3:34.251,556.063,70.8023,0,0.000885,0,0
0:3:34.654,557.238,70.9471,0,0.000885,0,0
0:3:35.054,558.412,71.0987,0,0.000885,0,0
0:3:35.454,559.23,71.2022,0,0.000885,0,0
0:3:35.857,560.698,71.3883,0,0.000885,0,0
0:3:36.256,561.695,71.5193,0,0.000885,0,0
0:3:36.652,562.811,71.6572,0,0.000885,0,0
0:3:37.055,563.865,71.7951,0,0.000885,0,0
0:3:37.458,565.098,71.9537,0,0.000885,0,0
0:3:37.854,566.21,72.0916,0,0.000885,0,0
0:3:38.252,567.326,72.2364,0,0.000885,0,0
0:3:38.657,568.443,72.3743,0,0.000885,0,0
0:3:39.050,569.377,72.4984,0,0.000885,0,0
0:3:39.450,570.493,72.6363,0,0.000885,0,0
0:3:39.853,572.193,72.8569,0,0.000885,0,0
0:3:40.256,572.664,72.9121,0,0.000885,0,0
0:3:40.655,573.367,73.0017,0,0.000885,0,0
0:3:41.046,574.657,73.1672,0,0.000885,0,0
0:3:41.455,575.947,73.3326,0,0.000885,0,0
0:3:41.854,576.77,73.4361,0,0.000885,0,0
0:3:42.258,577.882,73.5808,0,0.000885,0,0
0:3:42.651,579.234,73.7532,0,0.000885,0,0
0:3:43.055,580.462,73.9049,0,0.000885,0,0
0:3:43.453,581.4,74.029,0,0.000885,0,0
0:3:43.850,582.926,74.2221,0,0.000885,0,0
0:3:44.241,584.043,74.36,0,0.000885,0,0
0:3:44.643,584.274,74.3944,0,0.000885,0,0
0:3:45.044,585.978,74.6082,0,0.000885,0,0
0:3:45.447,587.032,74.7461,0,0.000885,0,0
0:3:45.852,588.148,74.884,0,0.000885,0,0
0:3:46.257,589.616,75.0701,0,0.000885,0,0
0:3:46.653,590.381,75.1666,0,0.000885,0,0
0:3:47.052,591.671,75.3321,0,0.000885,0,0
0:3:47.451,592.903,75.4907,0,0.000885,0,0
0:3:47.845,593.842,75.6079,0,0.000885,0,0
0:3:48.239,594.959,75.7527,0,0.000885,0,0
0:3:48.647,595.719,75.8492,0,0.000885,0,0
0:3:49.059,596.484,75.9458,0,0.000885,0,0
0:3:49.465,597.952,76.1319,0,0.000885,0,0
0:3:49.868,599.127,76.2836,0,0.000885,0,0
0:3:50.270,600.83,76.4973,0,0.000885,0,0
0:3:50.669,601.475,76.5801,0,0.000885,0,0
0:3:51.069,602.414,76.7042,0,0.000885,0,0
0:3:51.463,603.762,76.8765,0,0.000885,0,0
0:3:51.859,604.584,76.98,0,0.000885,0,0
0:3:52.259,605.701,77.1179,0,0.000885,0,0
0:3:52.657,606.817,77.2627,0,0.000885,0,0
0:3:53.053,608.165,77.435,0,0.000885,0,0
0:3:53.456,609.162,77.5591,0,0.000885,0,0
0:3:53.853,609.749,77.635,0,0.000885,0,0
0:3:54.254,610.923,77.7867,0,0.000885,0,0
0:3:54.660,611.924,77.9108,0,0.000885,0,0
0:3:55.064,613.508,78.1176,0,0.000885,0,0
0:3:55.465,614.562,78.2486,0,0.000885,0,0
0:3:55.865,615.327,78.3451,0,0.000885,0,0
0:3:56.265,616.853,78.5382,0,0.000885,0,0
0:3:56.660,617.733,78.6554,0,0.000885,0,0
0:3:57.054,618.792,78.7864,0,0.000885,0,0
0:3:57.452,620.14,78.9588,0,0.000885,0,0
0:3:57.852,621.43,79.1242,0,0.000885,0,0
0:3:58.259,622.311,79.2346,0,0.000885,0,0
0:3:58.654,623.899,79.4345,0,0.000885,0,0
0:3:59.047,624.837,79.5586,0,0.000885,0,0
0:3:59.448,625.424,79.6344,0,0.000885,0,0
0:3:59.857,626.185,79.731,0,0.000885,0,0
0:4:0.259,627.186,79.8551,0,0.000885,0,0
0:4:0.663,628.712,80.0481,0,0.000885,0,0
0:4:1.061,630.002,80.2136,0,0.000885,0,0
0:4:1.461,630.825,80.317,0,0.000885,0,0
0:4:1.859,632.057,80.4756,0,0.000885,0,0
0:4:2.254,633.173,80.6204,0,0.000885,0,0
0:4:2.649,634.285,80.7583,0,0.000885,0,0
0:4:3.047,635.517,80.9169,0,0.000885,0,0
0:4:3.445,636.634,81.0617,0,0.000885,0,0
0:4:3.842,637.63,81.1858,0,0.000885,0,0
0:4:4.257,638.983,81.3581,0,0.000885,0,0
0:4:4.661,639.748,81.4547,0,0.000885,0,0
0:4:5.066,640.335,81.5305,0,0.000885,0,0
0:4:5.469,641.976,81.7373,0,0.000885,0,0
0:4:5.870,643.208,81.8959,0,0.000885,0,0
0:4:6.268,644.031,81.9993,0,0.000885,0,0
0:4:6.666,645.499,82.1855,0,0.000885,0,0
0:4:7.067,646.553,82.3234,0,0.000885,0,0
0:4:7.463,647.728,82.4682,0,0.000885,0,0
0:4:7.859,648.551,82.5785,0,0.000885,0,0
0:4:8.256,649.961,82.7578,0,0.000885,0,0
0:4:8.654,650.664,82.8474,0,0.000885,0,0
0:4:9.052,651.66,82.9715,0,0.000885,0,0
0:4:9.458,652.661,83.1025,0,0.000885,0,0
0:4:9.862,653.657,83.2266,0,0.000885,0,0
0:4:10.265,655.303,83.4335,0,0.000885,0,0
0:4:10.666,656.473,83.5851,0,0.000885,0,0
0:4:11.063,657.647,83.7368,0,0.000885,0,0
0:4:11.459,658.822,83.8816,0,0.000885,0,0
0:4:11.855,659.467,83.9644,0,0.000885,0,0
0:4:12.255,660.877,84.1436,0,0.000885,0,0
0:4:12.650,661.406,84.2126,0,0.000885,0,0
0:4:13.055,662.638,84.3711,0,0.000885,0,0
0:4:13.453,663.755,84.509,0,0.000885,0,0
0:4:13.849,665.103,84.6814,0,0.000885,0,0
0:4:14.246,666.219,84.8262,0,0.000885,0,0
0:4:14.651,667.393,84.9779,0,0.000885,0,0
0:4:15.056,668.568,85.1227,0,0.000885,0,0
0:4:15.458,670.093,85.3157,0,0.000885,0,0
0:4:15.859,670.681,85.3916,0,0.000885,0,0
0:4:16.256,671.677,85.5226,0,0.000885,0,0
0:4:16.650,672.794,85.6605,0,0.000885,0,0
0:4:17.045,673.732,85.7846,0,0.000885,0,0
0:4:17.443,674.671,85.9018,0,0.000885,0,0
0:4:17.854,675.672,86.0259,0,0.000885,0,0
0:4:18.247,676.784,86.1707,0,0.000885,0,0
0:4:18.642,677.958,86.3224,0,0.000885,0,0
0:4:19.040,678.896,86.4396,0,0.000885,0,0
0:4:19.440,679.897,86.5637,0,0.000885,0,0
0:4:19.846,681.423,86.7636,0,0.000885,0,0
0:4:20.249,682.713,86.9291,0,0.000885,0,0
0:4:20.651,683.887,87.0739,0,0.000885,0,0
0:4:21.051,685.413,87.2669,0,0.000885,0,0
0:4:21.461,686.294,87.3842,0,0.000885,0,0
0:4:21.857,687.29,87.5083,0,0.000885,0,0
0:4:22.250,688.233,87.6255,0,0.000885,0,0
0:4:22.647,689.465,87.784,0,0.000885,0,0
0:4:23.047,690.578,87.9288,0,0.000885,0,0
0:4:23.443,691.049,87.984,0,0.000885,0,0
0:4:23.848,692.811,88.2115,0,0.000885,0,0
0:4:24.255,693.398,88.2874,0,0.000885,0,0
0:4:24.660,694.866,88.4735,0,0.000885,0,0
0:4:25.062,696.156,88.639,0,0.000885,0,0
0:4:25.465,697.508,88.8114,0,0.000885,0,0
0:4:25.860,698.562,88.9424,0,0.000885,0,0
0:4:26.258,699.501,89.0665,0,0.000885,0,0
0:4:26.656,700.559,89.1975,0,0.000885,0,0
0:4:27.051,701.204,89.2802,0,0.000885,0,0
0:4:27.445,702.143,89.3974,0,0.000885,0,0
0:4:27.840,703.553,89.5767,0,0.000885,0,0
0:4:28.241,704.434,89.6939,0,0.000885,0,0
0:4:28.637,705.959,89.887,0,0.000885,0,0
0:4:29.043,706.662,89.9766,0,0.000885,0,0
0:4:29.447,707.894,90.1352,0,0.000885,0,0
0:4:29.851,709.127,90.2868,0,0.000885,0,0
0:4:30.257,710.065,90.411,0,0.000885,0,0
0:4:30.659,711.124,90.542,0,0.000885,0,0
0:4:31.053,712.534,90.7212,0,0.000885,0,0
0:4:31.449,713.646,90.866,0,0.000885,0,0
0:4:31.849,714.762,91.0039,0,0.000885,0,0
0:4:32.247,715.763,91.1349,0,0.000885,0,0
0:4:32.644,716.524,91.2314,0,0.000885,0,0
0:4:33.049,718.17,91.4383,0,0.000885,0,0
0:4:33.459,719.046,91.5555,0,0.000885,0,0
0:4:33.858,720.163,91.6934,0,0.000885,0,0
0:4:34.253,721.163,91.8244,0,0.000885,0,0
0:4:34.660,721.866,91.914,0,0.000885,0,0
0:4:35.064,723.214,92.0795,0,0.000885,0,0
0:4:35.466,724.802,92.2863,0,0.000885,0,0
0:4:35.867,726.034,92.438,0,0.000885,0,0
0:4:36.265,727.266,92.5966,0,0.000885,0,0
0:4:36.660,728.147,92.7138,0,0.000885,0,0
0:4:37.056,728.97,92.8172,0,0.000885,0,0
0:4:37.452,730.202,92.9689,0,0.000885,0,0
0:4:37.852,731.199,93.0999,0,0.000885,0,0
0:4:38.246,731.964,93.1964,0,0.000885,0,0
0:4:38.652,732.724,93.293,0,0.000885,0,0
0:4:39.050,733.899,93.4446,0,0.000885,0,0
0:4:39.460,735.309,93.6239,0,0.000885,0,0
0:4:39.864,736.132,93.7273,0,0.000885,0,0
0:4:40.268,737.422,93.8928,0,0.000885,0,0
0:4:40.670,739.063,94.0996,0,0.000885,0,0
0:4:41.073,739.944,94.21,0,0.000885,0,0
0:4:41.470,741.412,94.403,0,0.000885,0,0
0:4:41.864,741.941,94.4651,0,0.000885,0,0
0:4:42.261,743.289,94.6374,0,0.000885,0,0
0:4:42.661,744.405,94.7822,0,0.000885,0,0
0:4:43.058,745.58,94.927,0,0.000885,0,0
0:4:43.464,746.518,95.0511,0,0.000885,0,0
0:4:43.860,747.986,95.2373,0,0.000885,0,0
0:4:44.263,748.573,95.3131,0,0.000885,0,0
0:4:44.668,749.748,95.4579,0,0.000885,0,0
0:4:45.072,750.628,95.5751,0,0.000885,0,0
0:4:45.474,751.745,95.713,0,0.000885,0,0
0:4:45.870,753.444,95.9337,0,0.000885,0,0
0:4:46.269,754.325,96.044,0,0.000885,0,0
0:4:46.667,755.206,96.1543,0,0.000885,0,0
0:4:47.063,756.558,96.3267,0,0.000885,0,0
0:4:47.459,757.203,96.4094,0,0.000885,0,0
0:4:47.865,758.377,96.5611,0,0.000885,0,0
0:4:48.265,759.432,96.6921,0,0.000885,0,0
0:4:48.662,760.49,96.83,0,0.000885,0,0
0:4:49.065,761.9,97.0092,0,0.000885,0,0
0:4:49.469,763.19,97.1747,0,0.000885,0,0
0:4:49.874,764.071,97.285,0,0.000885,0,0
0:4:50.277,765.245,97.4367,0,0.000885,0,0
0:4:50.680,766.362,97.5746,0,0.000885,0,0
0:4:51.076,767.123,97.6711,0,0.000885,0,0
0:4:51.473,768.355,97.8297,0,0.000885,0,0
0:4:51.873,769.587,97.9883,0,0.000885,0,0
0:4:52.270,770.645,98.1193,0,0.000885,0,0
0:4:52.666,771.468,98.2296,0,0.000885,0,0
0:4:53.060,772.936,98.4158,0,0.000885,0,0
0:4:53.461,774.106,98.5606,0,0.000885,0,0
0:4:53.860,775.165,98.6985,0,0.000885,0,0
0:4:54.254,776.633,98.8846,0,0.000885,0,0
0:4:54.661,777.456,98.988,0,0.000885,0,0
0:4:55.065,778.746,99.1535,0,0.000885,0,0
0:4:55.467,779.92,99.3052,0,0.000885,0,0
0:4:55.867,780.801,99.4155,0,0.000885,0,0
0:4:56.264,781.975,99.5672,0,0.000885,0,0
0:4:56.660,782.736,99.6637,0,0.000885,0,0
0:4:57.060,783.794,99.7947,0,0.000885,0,0
0:4:57.455,784.969,99.9464,0,0.000885,0,0
0:4:57.851,785.965,100.071,0,0.000885,0,0
0:4:58.255,787.375,100.25,0,0.000885,0,0
0:4:58.654,788.256,100.367,0,0.000885,0,0
0:4:59.054,789.195,100.484,0,0.000885,0,0
0:4:59.462,790.249,100.615,0,0.000885,0,0
0:4:59.866,791.717,100.801,0,0.000885,0,0
0:5:0.266,792.362,100.884,0,0.000885,0,0
0:5:0.666,793.83,101.07,0,0.000885,0,0
0:5:1.064,795.24,101.256,0,0.000885,0,0
0:5:1.461,796.005,101.353,0,0.000885,0,0
0:5:1.852,797.001,101.477,0,0.000885,0,0
0:5:2.252,798.585,101.677,0,0.000885,0,0
0:5:2.650,799.172,101.753,0,0.000885,0,0
0:5:3.068,800.404,101.911,0,0.000885,0,0
0:5:3.464,801.756,102.084,0,0.000885,0,0
0:5:3.859,802.695,102.201,0,0.000885,0,0
0:5:4.262,803.518,102.304,0,0.000885,0,0
0:5:4.669,805.217,102.525,0,0.000885,0,0
0:5:5.071,805.804,102.601,0,0.000885,0,0
0:5:5.474,807.272,102.787,0,0.000885,0,0
0:5:5.872,808.153,102.897,0,0.000885,0,0
0:5:6.273,809.212,103.035,0,0.000885,0,0
0:5:6.670,810.15,103.152,0,0.000885,0,0
0:5:7.064,810.973,103.256,0,0.000885,0,0
0:5:7.461,812.379,103.435,0,0.000885,0,0
0:5:7.861,813.495,103.58,0,0.000885,0,0
0:5:8.259,814.847,103.752,0,0.000885,0,0
0:5:8.652,816.08,103.904,0,0.000885,0,0
0:5:9.046,816.547,103.966,0,0.000885,0,0
0:5:9.450,817.779,104.125,0,0.000885,0,0
0:5:9.855,818.953,104.269,0,0.000885,0,0
0:5:10.261,820.185,104.428,0,0.000885,0,0
0:5:10.664,821.186,104.559,0,0.000885,0,0
0:5:11.061,822.361,104.704,0,0.000885,0,0
0:5:11.461,823.473,104.849,0,0.000885,0,0
0:5:11.857,824.411,104.966,0,0.000885,0,0
0:5:12.263,825.706,105.131,0,0.000885,0,0
0:5:12.657,827.525,105.366,0,0.000885,0,0
0:5:13.056,827.934,105.414,0,0.000885,0,0
0:5:13.454,828.521,105.49,0,0.000885,0,0
0:5:13.851,829.753,105.648,0,0.000885,0,0
0:5:14.254,831.048,105.814,0,0.000885,0,0
0:5:14.661,832.28,105.972,0,0.000885,0,0
0:5:15.065,833.219,106.09,0,0.000885,0,0
0:5:15.468,834.099,106.2,0,0.000885,0,0
0:5:15.870,835.567,106.386,0,0.000885,0,0
0:5:16.266,836.27,106.476,0,0.000885,0,0
0:5:16.666,837.329,106.614,0,0.000885,0,0
0:5:17.066,838.734,106.793,0,0.000885,0,0
0:5:17.462,839.793,106.924,0,0.000885,0,0
0:5:17.867,840.79,107.055,0,0.000885,0,0
0:5:18.265,842.257,107.241,0,0.000885,0,0
0:5:18.664,843.547,107.407,0,0.000885,0,0
0:5:19.063,844.37,107.51,0,0.000885,0,0
0:5:19.467,845.429,107.641,0,0.000885,0,0
0:5:19.872,846.777,107.813,0,0.000885,0,0
0:5:20.274,847.542,107.91,0,0.000885,0,0
0:5:20.676,848.774,108.068,0,0.000885,0,0
0:5:21.072,850.122,108.241,0,0.000885,0,0
0:5:21.468,850.829,108.33,0,0.000885,0,0
0:5:21.862,852.177,108.503,0,0.000885,0,0
0:5:22.263,853.351,108.654,0,0.000885,0,0
0:5:22.661,854.348,108.779,0,0.000885,0,0
0:5:23.053,855.171,108.882,0,0.000885,0,0
0:5:23.449,856.171,109.013,0,0.000885,0,0
0:5:23.848,857.577,109.192,0,0.000885,0,0
0:5:24.248,858.694,109.33,0,0.000885,0,0
0:5:24.653,859.69,109.461,0,0.000885,0,0
0:5:25.056,860.571,109.571,0,0.000885,0,0
0:5:25.458,861.803,109.73,0,0.000885,0,0
0:5:25.862,863.155,109.902,0,0.000885,0,0
0:5:26.268,864.036,110.013,0,0.000885,0,0
0:5:26.664,865.152,110.158,0,0.000885,0,0
0:5:27.056,866.207,110.289,0,0.000885,0,0
0:5:27.456,867.203,110.413,0,0.000885,0,0
0:5:27.855,868.555,110.585,0,0.000885,0,0
0:5:28.251,869.903,110.757,0,0.000885,0,0
0:5:28.656,871.14,110.916,0,0.000885,0,0
0:5:29.051,872.078,111.033,0,0.000885,0,0
0:5:29.454,872.781,111.123,0,0.000885,0,0
0:5:29.862,873.662,111.24,0,0.000885,0,0
0:5:30.265,875.308,111.447,0,0.000885,0,0
0:5:30.666,876.362,111.585,0,0.000885,0,0
0:5:31.065,877.358,111.709,0,0.000885,0,0
0:5:31.463,878.711,111.881,0,0.000885,0,0
0:5:31.857,879.591,111.992,0,0.000885,0,0
0:5:32.253,880.352,112.088,0,0.000885,0,0
0:5:32.647,881.526,112.24,0,0.000885,0,0
0:5:33.056,882.821,112.405,0,0.000885,0,0
0:5:33.455,884.111,112.571,0,0.000885,0,0
0:5:33.851,884.934,112.674,0,0.000885,0,0
0:5:34.258,885.636,112.764,0,0.000885,0,0
0:5:34.664,887.22,112.964,0,0.000885,0,0
0:5:35.067,888.101,113.074,0,0.000885,0,0
0:5:35.469,889.275,113.226,0,0.000885,0,0
0:5:35.870,890.685,113.405,0,0.000885,0,0
0:5:36.266,891.388,113.495,0,0.000885,0,0
0:5:36.663,892.798,113.674,0,0.000885,0,0
0:5:37.062,893.852,113.812,0,0.000885,0,0
0:5:37.468,895.32,113.998,0,0.000885,0,0
0:5:37.862,896.201,114.108,0,0.000885,0,0
0:5:38.256,897.14,114.225,0,0.000885,0,0
0:5:38.656,898.67,114.418,0,0.000885,0,0
0:5:39.054,899.257,114.494,0,0.000885,0,0
0:5:39.459,900.427,114.646,0,0.000885,0,0
0:5:39.865,901.601,114.798,0,0.000885,0,0
0:5:40.267,902.602,114.922,0,0.000885,0,0
0:5:40.669,903.656,115.06,0,0.000885,0,0
0:5:41.066,904.421,115.156,0,0.000885,0,0
0:5:41.463,906.183,115.377,0,0.000885,0,0
0:5:41.855,906.943,115.473,0,0.000885,0,0
0:5:42.253,908.002,115.611,0,0.000885,0,0
0:5:42.654,909.47,115.797,0,0.000885,0,0
0:5:43.059,910.409,115.915,0,0.000885,0,0
0:5:43.454,911.521,116.059,0,0.000885,0,0
0:5:43.850,912.522,116.184,0,0.000885,0,0
0:5:44.254,913.46,116.308,0,0.000885,0,0
0:5:44.658,914.928,116.494,0,0.000885,0,0
0:5:45.065,915.689,116.59,0,0.000885,0,0
0:5:45.467,916.925,116.749,0,0.000885,0,0
0:5:45.863,918.095,116.894,0,0.000885,0,0
0:5:46.263,919.154,117.032,0,0.000885,0,0
0:5:46.660,919.919,117.128,0,0.000885,0,0
0:5:47.056,921.209,117.294,0,0.000885,0,0
0:5:47.458,922.032,117.397,0,0.000885,0,0
0:5:47.857,923.851,117.631,0,0.000885,0,0
0:5:48.256,924.732,117.742,0,0.000885,0,0
0:5:48.653,925.906,117.887,0,0.000885,0,0
0:5:49.049,927.018,118.031,0,0.000885,0,0
0:5:49.454,928.371,118.204,0,0.000885,0,0
0:5:49.857,929.131,118.3,0,0.000885,0,0
0:5:50.261,930.306,118.452,0,0.000885,0,0
0:5:50.665,931.186,118.562,0,0.000885,0,0
0:5:51.060,932.067,118.673,0,0.000885,0,0
0:5:51.468,933.535,118.859,0,0.000885,0,0
0:5:51.865,934.358,118.969,0,0.000885,0,0
0:5:52.267,936.057,119.183,0,0.000885,0,0
0:5:52.660,936.351,119.217,0,0.000885,0,0
0:5:53.067,937.996,119.431,0,0.000885,0,0
0:5:53.472,938.699,119.521,0,0.000885,0,0
0:5:53.870,940.109,119.7,0,0.000885,0,0
0:5:54.269,940.287,119.721,0,0.000885,0,0
0:5:54.675,942.338,119.983,0,0.000885,0,0
0:5:55.080,943.454,120.127,0,0.000885,0,0
0:5:55.481,944.277,120.231,0,0.000885,0,0
0:5:55.883,945.687,120.41,0,0.000885,0,0
0:5:56.281,946.626,120.527,0,0.000885,0,0
0:5:56.678,948.21,120.727,0,0.000885,0,0
0:5:57.072,948.739,120.796,0,0.000885,0,0
0:5:57.471,949.855,120.941,0,0.000885,0,0
0:5:57.870,951.555,121.155,0,0.000885,0,0
0:5:58.266,952.026,121.217,0,0.000885,0,0
0:5:58.661,953.08,121.348,0,0.000885,0,0
0:5:59.056,953.961,121.465,0,0.000885,0,0
0:5:59.457,955.665,121.679,0,0.000885,0,0
0:5:59.866,956.603,121.796,0,0.000885,0,0
0:6:0.268,957.484,121.913,0,0.000885,0,0
0:6:0.670,958.836,122.085,0,0.000885,0,0
0:6:1.067,959.713,122.196,0,0.000885,0,0
0:6:1.468,960.714,122.32,0,0.000885,0,0
0:6:1.865,962.181,122.506,0,0.000885,0,0
0:6:2.269,963.414,122.665,0,0.000885,0,0
0:6:2.664,964.174,122.761,0,0.000885,0,0
0:6:3.061,965.7,122.954,0,0.000885,0,0
0:6:3.459,966.114,123.009,0,0.000885,0,0
0:6:3.855,967.404,123.175,0,0.000885,0,0
0:6:4.250,968.462,123.306,0,0.000885,0,0
0:6:4.652,969.401,123.43,0,0.000885,0,0
0:6:5.058,970.869,123.616,0,0.000885,0,0
0:6:5.461,972.217,123.788,0,0.000885,0,0
0:6:5.862,973.097,123.899,0,0.000885,0,0
0:6:6.259,974.272,124.05,0,0.000885,0,0
0:6:6.658,975.446,124.195,0,0.000885,0,0
0:6:7.058,976.563,124.34,0,0.000885,0,0
0:6:7.452,977.443,124.45,0,0.000885,0,0
0:6:7.856,978.849,124.63,0,0.000885,0,0
0:6:8.255,979.908,124.768,0,0.000885,0,0
0:6:8.654,980.495,124.843,0,0.000885,0,0
0:6:9.051,981.669,124.988,0,0.000885,0,0
0:6:9.455,982.608,125.112,0,0.000885,0,0
0:6:9.861,983.724,125.25,0,0.000885,0,0
0:6:10.262,985.308,125.45,0,0.000885,0,0
0:6:10.665,986.424,125.595,0,0.000885,0,0
0:6:11.071,987.363,125.712,0,0.000885,0,0
0:6:11.467,988.066,125.802,0,0.000885,0,0
0:6:11.862,989.827,126.029,0,0.000885,0,0
0:6:12.263,990.414,126.105,0,0.000885,0,0
0:6:12.659,991.411,126.229,0,0.000885,0,0
0:6:13.054,992.936,126.422,0,0.000885,0,0
0:6:13.451,994.111,126.574,0,0.000885,0,0
0:6:13.849,995.285,126.726,0,0.000885,0,0
0:6:14.247,995.93,126.808,0,0.000885,0,0
0:6:14.650,997.398,126.995,0,0.000885,0,0
0:6:15.054,998.572,127.139,0,0.000885,0,0
0:6:15.456,999.217,127.222,0,0.000885,0,0
0:6:15.861,1000.39,127.374,0,0.000885,0,0
0:6:16.269,1001.98,127.574,0,0.000885,0,0
0:6:16.673,1002.68,127.663,0,0.000885,0,0
0:6:17.069,1003.97,127.829,0,0.000885,0,0
0:6:17.467,1004.91,127.953,0,0.000885,0,0
0:6:17.867,1006.09,128.098,0,0.000885,0,0
0:6:18.260,1007.44,128.27,0,0.000885,0,0
0:6:18.667,1008.79,128.442,0,0.000885,0,0
0:6:19.062,1009.31,128.511,0,0.000885,0,0
0:6:19.462,1010.14,128.615,0,0.000885,0,0
0:6:19.870,1011.02,128.725,0,0.000885,0,0
0:6:20.273,1012.49,128.911,0,0.000885,0,0
0:6:20.676,1013.78,129.077,0,0.000885,0,0
0:6:21.076,1014.48,129.166,0,0.000885,0,0
0:6:21.474,1015.3,129.27,0,0.000885,0,0
0:6:21.870,1016.53,129.428,0,0.000885,0,0
0:6:22.262,1018.06,129.621,0,0.000885,0,0
0:6:22.661,1019.3,129.78,0,0.000885,0,0
0:6:23.061,1020.06,129.877,0,0.000885,0,0
0:6:23.467,1021.7,130.09,0,0.000885,0,0
0:6:23.860,1022.76,130.221,0,0.000885,0,0
0:6:24.267,1024.28,130.414,0,0.000885,0,0
0:6:24.672,1024.81,130.483,0,0.000885,0,0
0:6:25.073,1025.93,130.628,0,0.000885,0,0
0:6:25.477,1027.1,130.773,0,0.000885,0,0
0:6:25.871,1027.81,130.862,0,0.000885,0,0
0:6:26.271,1028.98,131.014,0,0.000885,0,0
0:6:26.669,1030.15,131.166,0,0.000885,0,0
0:6:27.074,1031.62,131.352,0,0.000885,0,0
0:6:27.470,1032.5,131.462,0,0.000885,0,0
0:6:27.864,1033.79,131.628,0,0.000885,0,0
0:6:28.264,1034.97,131.779,0,0.000885,0,0
0:6:28.661,1035.73,131.876,0,0.000885,0,0
0:6:29.055,1036.61,131.986,0,0.000885,0,0
0:6:29.458,1037.49,132.097,0,0.000885,0,0
0:6:29.862,1038.49,132.228,0,0.000885,0,0
0:6:30.269,1040.02,132.421,0,0.000885,0,0
0:6:30.670,1041.31,132.586,0,0.000885,0,0
0:6:31.074,1042.19,132.696,0,0.000885,0,0
0:6:31.472,1043.42,132.855,0,0.000885,0,0
0:6:31.871,1044.18,132.952,0,0.000885,0,0
0:6:32.265,1045.24,133.083,0,0.000885,0,0
0:6:32.663,1046.71,133.269,0,0.000885,0,0
0:6:33.057,1047.77,133.407,0,0.000885,0,0
0:6:33.456,1048.88,133.545,0,0.000885,0,0
0:6:33.855,1050.17,133.71,0,0.000885,0,0
0:6:34.250,1051.4,133.869,0,0.000885,0,0
0:6:34.654,1052.28,133.979,0,0.000885,0,0
0:6:35.058,1053.87,134.186,0,0.000885,0,0
0:6:35.460,1054.51,134.262,0,0.000885,0,0
0:6:35.864,1055.75,134.42,0,0.000885,0,0
0:6:36.272,1056.98,134.579,0,0.000885,0,0
0:6:36.675,1058.09,134.724,0,0.000885,0,0
0:6:37.073,1058.57,134.779,0,0.000885,0,0
0:6:37.473,1059.74,134.93,0,0.000885,0,0
0:6:37.869,1060.44,135.02,0,0.000885,0,0
0:6:38.262,1061.73,135.186,0,0.000885,0,0
0:6:38.670,1063.03,135.351,0,0.000885,0,0
0:6:39.070,1064.08,135.482,0,0.000885,0,0
0:6:39.466,1065.37,135.647,0,0.000885,0,0
0:6:39.874,1066.25,135.758,0,0.000885,0,0
0:6:40.277,1067.72,135.944,0,0.000885,0,0
0:6:40.678,1068.66,136.068,0,0.000885,0,0
0:6:41.082,1069.72,136.199,0,0.000885,0,0
0:6:41.478,1070.89,136.351,0,0.000885,0,0
0:6:41.872,1071.48,136.427,0,0.000885,0,0
0:6:42.269,1073.06,136.627,0,0.000885,0,0
0:6:42.669,1074.24,136.778,0,0.000885,0,0
0:6:43.065,1074.82,136.854,0,0.000885,0,0
0:6:43.460,1076.23,137.033,0,0.000885,0,0
0:6:43.854,1077.35,137.171,0,0.000885,0,0
0:6:44.257,1078.93,137.371,0,0.000885,0,0
0:6:44.664,1080.28,137.544,0,0.000885,0,0
0:6:45.066,1081.22,137.668,0,0.000885,0,0
0:6:45.470,1082.75,137.861,0,0.000885,0,0
0:6:45.876,1083.51,137.957,0,0.000885,0,0
0:6:46.275,1084.51,138.081,0,0.000885,0,0
0:6:46.673,1085.51,138.212,0,0.000885,0,0
0:6:47.064,1086.21,138.302,0,0.000885,0,0
0:6:47.460,1087.33,138.44,0,0.000885,0,0
0:6:47.858,1088.32,138.571,0,0.000885,0,0
0:6:48.269,1089.79,138.757,0,0.000885,0,0
0:6:48.676,1090.32,138.826,0,0.000885,0,0
0:6:49.070,1091.85,139.019,0,0.000885,0,0
0:6:49.474,1092.43,139.095,0,0.000885,0,0
0:6:49.880,1094.02,139.295,0,0.000885,0,0
0:6:50.283,1095.08,139.433,0,0.000885,0,0
0:6:50.686,1096.19,139.571,0,0.000885,0,0
0:6:51.082,1097.6,139.75,0,0.000885,0,0
0:6:51.480,1098.66,139.888,0,0.000885,0,0
0:6:51.880,1099.54,139.998,0,0.000885,0,0
0:6:52.276,1100.48,140.115,0,0.000885,0,0
0:6:52.672,1101.65,140.267,0,0.000885,0,0
0:6:53.070,1102.65,140.391,0,0.000885,0,0
0:6:53.467,1103.88,140.55,0,0.000885,0,0
0:6:53.865,1104.94,140.688,0,0.000885,0,0
0:6:54.259,1105.99,140.819,0,0.000885,0,0
0:6:54.664,1107.05,140.956,0,0.000885,0,0
0:6:55.067,1108.34,141.115,0,0.000885,0,0
0:6:55.470,1109.34,141.246,0,0.000885,0,0
0:6:55.873,1110.51,141.398,0,0.000885,0,0
0:6:56.267,1111.39,141.508,0,0.000885,0,0
0:6:56.662,1112.8,141.687,0,0.000885,0,0
0:6:57.063,1113.68,141.798,0,0.000885,0,0
0:6:57.460,1114.74,141.935,0,0.000885,0,0
0:6:57.863,1115.91,142.08,0,0.000885,0,0
0:6:58.259,1116.97,142.218,0,0.000885,0,0
0:6:58.659,1118.02,142.349,0,0.000885,0,0
0:6:59.060,1119.2,142.501,0,0.000885,0,0
0:6:59.466,1120.2,142.625,0,0.000885,0,0
0:6:59.868,1121.08,142.742,0,0.000885,0,0
0:7:0.274,1122.37,142.908,0,0.000885,0,0
0:7:0.674,1123.07,142.997,0,0.000885,0,0
0:7:1.070,1125.01,143.239,0,0.000885,0,0
0:7:1.465,1125.83,143.349,0,0.000885,0,0
0:7:1.871,1126.83,143.473,0,0.000885,0,0
0:7:2.271,1128.53,143.687,0,0.000885,0,0
0:7:2.680,1129.41,143.804,0,0.000885,0,0
0:7:3.075,1130.41,143.928,0,0.000885,0,0
0:7:3.471,1131.65,144.087,0,0.000885,0,0
0:7:3.867,1133.17,144.28,0,0.000885,0,0
0:7:4.267,1133.76,144.356,0,0.000885,0,0
0:7:4.674,1134.7,144.473,0,0.000885,0,0
0:7:5.077,1136.4,144.693,0,0.000885,0,0
0:7:5.477,1137.22,144.797,0,0.000885,0,0
0:7:5.877,1138.28,144.928,0,0.000885,0,0
0:7:6.275,1138.51,144.962,0,0.000885,0,0
0:7:6.673,1140.1,145.162,0,0.000885,0,0
0:7:7.065,1141.33,145.321,0,0.000885,0,0
0:7:7.462,1141.97,145.404,0,0.000885,0,0
0:7:7.861,1142.92,145.521,0,0.000885,0,0
0:7:8.267,1144.38,145.707,0,0.000885,0,0
0:7:8.662,1145.38,145.831,0,0.000885,0,0
0:7:9.057,1146.56,145.983,0,0.000885,0,0
0:7:9.460,1148.26,146.203,0,0.000885,0,0
0:7:9.865,1149.19,146.321,0,0.000885,0,0
0:7:10.268,1150.02,146.424,0,0.000885,0,0
0:7:10.673,1151.31,146.589,0,0.000885,0,0
0:7:11.069,1152.37,146.72,0,0.000885,0,0
0:7:11.467,1153.42,146.858,0,0.000885,0,0
0:7:11.877,1154.77,147.031,0,0.000885,0,0
0:7:12.272,1155.54,147.127,0,0.000885,0,0
0:7:12.636,1156.48,147.244,0,0.000885,0,0