File: DataFile2021-07-28_094613.csv
Test ID:,Date Tested:,Time:,Test Type:,Diameter Avg. (mm):,Cyl. Corr. Factor:,Height (mm):,Age (days):,Weight (kN):,Break Type:,Ramp Rate (MPa/s):,Load at Break (kN):,Stress at Break (MPa):
12,7/28/2021,09:46,Cylinder,150,1,300,0,13.69,3,0.33,1324.47,74.95
Sample Time,Load (kN),Stress (MPa),Long. Strain,Trans. Strain,Chan1 Deflection (mm),Chan2 Deflection (mm)
0:0:8.305,7.15719,0.406791,0,0.000885,0,0
0:0:8.501,10.4978,0.592949,0,0.000885,0,0
0:0:8.701,11.4942,0.648107,0,0.000885,0,0
0:0:8.899,11.4942,0.648107,0,0.000885,0,0
0:0:9.099,11.1428,0.627423,0,0.000885,0,0
0:0:9.299,11.3207,0.641212,0,0.000885,0,0
0:0:9.495,11.7878,0.668791,0,0.000885,0,0
0:0:9.695,12.1392,0.689476,0,0.000885,0,0
0:0:9.893,13.1979,0.744634,0,0.000885,0,0
0:0:10.092,13.9585,0.792897,0,0.000885,0,0
0:0:10.294,17.0678,0.965266,0,0.000885,0,0
0:0:10.489,17.9486,1.01353,0,0.000885,0,0
0:0:10.690,19.412,1.09627,0,0.000885,0,0
0:0:10.888,19.8257,1.12385,0,0.000885,0,0
0:0:11.086,21.9342,1.24106,0,0.000885,0,0
0:0:11.288,22.8149,1.28932,0,0.000885,0,0
0:0:11.485,24.9278,1.41343,0,0.000885,0,0
0:0:11.685,25.3949,1.43411,0,0.000885,0,0
0:0:11.885,26.2178,1.48237,0,0.000885,0,0
0:0:12.082,28.3263,1.60648,0,0.000885,0,0
0:0:12.283,29.4428,1.66853,0,0.000885,0,0
0:0:12.482,30.8484,1.74437,0,0.000885,0,0
0:0:12.682,32.0227,1.81332,0,0.000885,0,0
0:0:12.881,34.3091,1.94432,0,0.000885,0,0
0:0:13.078,34.9541,1.9788,0,0.000885,0,0
0:0:13.280,36.8313,2.08222,0,0.000885,0,0
0:0:13.478,37.9478,2.14427,0,0.000885,0,0
0:0:13.677,39.9406,2.26148,0,0.000885,0,0
0:0:13.879,40.937,2.31664,0,0.000885,0,0
0:0:14.081,42.872,2.42695,0,0.000885,0,0
0:0:14.283,43.7527,2.47522,0,0.000885,0,0
0:0:14.487,45.3941,2.57174,0,0.000885,0,0
0:0:14.689,46.217,2.61311,0,0.000885,0,0
0:0:14.891,48.0942,2.72343,0,0.000885,0,0
0:0:15.092,48.6813,2.7579,0,0.000885,0,0
0:0:15.295,50.3227,2.84753,0,0.000885,0,0
0:0:15.496,50.732,2.86822,0,0.000885,0,0
0:0:15.694,52.022,2.94406,0,0.000885,0,0
0:0:15.896,52.7248,2.98543,0,0.000885,0,0
0:0:16.091,54.5441,3.08885,0,0.000885,0,0
0:0:16.293,54.8955,3.10954,0,0.000885,0,0
0:0:16.492,56.1277,3.17848,0,0.000885,0,0
0:0:16.689,57.4176,3.24743,0,0.000885,0,0
0:0:16.891,58.0626,3.2888,0,0.000885,0,0
0:0:17.087,59.8241,3.38533,0,0.000885,0,0
0:0:17.288,60.527,3.42669,0,0.000885,0,0
0:0:17.487,62.582,3.54391,0,0.000885,0,0
0:0:17.684,63.227,3.57838,0,0.000885,0,0
0:0:17.887,65.162,3.6887,0,0.000885,0,0
0:0:18.082,66.1006,3.74385,0,0.000885,0,0
0:0:18.283,68.1512,3.85417,0,0.000885,0,0
0:0:18.484,68.4448,3.87485,0,0.000885,0,0
0:0:18.681,70.2641,3.97827,0,0.000885,0,0
0:0:18.882,71.3183,4.03343,0,0.000885,0,0
0:0:19.084,72.8441,4.12306,0,0.000885,0,0
0:0:19.288,73.8405,4.17822,0,0.000885,0,0
0:0:19.491,75.3084,4.26096,0,0.000885,0,0
0:0:19.692,76.4204,4.32301,0,0.000885,0,0
0:0:19.895,78.004,4.41264,0,0.000885,0,0
0:0:20.095,78.7068,4.45401,0,0.000885,0,0
0:0:20.298,80.8197,4.57122,0,0.000885,0,0
0:0:20.499,81.1133,4.59191,0,0.000885,0,0
0:0:20.697,82.8125,4.68843,0,0.000885,0,0
0:0:20.898,83.6355,4.7298,0,0.000885,0,0
0:0:21.096,85.5126,4.84012,0,0.000885,0,0
0:0:21.295,85.9218,4.8608,0,0.000885,0,0
0:0:21.495,88.0926,4.98491,0,0.000885,0,0
0:0:21.693,88.7376,5.01938,0,0.000885,0,0
0:0:21.895,89.4404,5.06075,0,0.000885,0,0
0:0:22.092,90.9661,5.15038,0,0.000885,0,0
0:0:22.291,91.8469,5.19865,0,0.000885,0,0
0:0:22.492,93.6084,5.29517,0,0.000885,0,0
0:0:22.687,94.6048,5.35033,0,0.000885,0,0
0:0:22.889,96.3618,5.45375,0,0.000885,0,0
0:0:23.088,96.8912,5.48133,0,0.000885,0,0
0:0:23.285,98.5326,5.57786,0,0.000885,0,0
0:0:23.486,99.4711,5.62612,0,0.000885,0,0
0:0:23.689,101.233,5.72954,0,0.000885,0,0
0:0:23.892,101.935,5.77091,0,0.000885,0,0
0:0:24.096,103.87,5.88123,0,0.000885,0,0
0:0:24.296,104.573,5.9157,0,0.000885,0,0
0:0:24.498,106.508,6.02602,0,0.000885,0,0
0:0:24.700,107.273,6.06739,0,0.000885,0,0
0:0:24.901,109.208,6.1777,0,0.000885,0,0
0:0:25.103,109.911,6.21907,0,0.000885,0,0
0:0:25.301,111.259,6.29491,0,0.000885,0,0
0:0:25.502,111.904,6.32939,0,0.000885,0,0
0:0:25.698,113.194,6.40523,0,0.000885,0,0
0:0:25.900,113.723,6.43281,0,0.000885,0,0
0:0:26.099,115.836,6.55691,0,0.000885,0,0
0:0:26.297,116.833,6.61207,0,0.000885,0,0
0:0:26.498,117.945,6.67413,0,0.000885,0,0
0:0:26.694,119.59,6.77065,0,0.000885,0,0
0:0:26.894,120.173,6.79823,0,0.000885,0,0
0:0:27.096,121.992,6.90165,0,0.000885,0,0
0:0:27.291,122.758,6.94992,0,0.000885,0,0
0:0:27.494,124.221,7.03265,0,0.000885,0,0
0:0:27.691,125.395,7.09471,0,0.000885,0,0
0:0:27.891,126.921,7.18434,0,0.000885,0,0
0:0:28.092,127.918,7.2395,0,0.000885,0,0
0:0:28.288,129.852,7.34981,0,0.000885,0,0
0:0:28.491,130.613,7.39118,0,0.000885,0,0
0:0:28.691,132.023,7.47392,0,0.000885,0,0
0:0:28.894,132.904,7.52218,0,0.000885,0,0
0:0:29.099,134.603,7.61871,0,0.000885,0,0
0:0:29.300,135.133,7.64629,0,0.000885,0,0
0:0:29.501,137.183,7.7635,0,0.000885,0,0
0:0:29.702,137.944,7.80487,0,0.000885,0,0
0:0:29.904,139.06,7.86692,0,0.000885,0,0
0:0:30.106,140.177,7.92897,0,0.000885,0,0
0:0:30.302,142.112,8.03929,0,0.000885,0,0
0:0:30.504,142.93,8.08755,0,0.000885,0,0
0:0:30.703,145.159,8.21166,0,0.000885,0,0
0:0:30.900,145.862,8.25302,0,0.000885,0,0
0:0:31.102,146.627,8.29439,0,0.000885,0,0
0:0:31.300,148.446,8.39781,0,0.000885,0,0
0:0:31.499,149.029,8.43229,0,0.000885,0,0
0:0:31.699,150.848,8.53571,0,0.000885,0,0
0:0:31.895,151.965,8.59776,0,0.000885,0,0
0:0:32.098,153.428,8.6805,0,0.000885,0,0
0:0:32.296,154.367,8.73566,0,0.000885,0,0
0:0:32.495,156.012,8.82529,0,0.000885,0,0
0:0:32.696,156.889,8.88045,0,0.000885,0,0
0:0:32.892,158.415,8.96318,0,0.000885,0,0
0:0:33.093,159.06,8.99766,0,0.000885,0,0
0:0:33.291,160.527,9.08729,0,0.000885,0,0
0:0:33.490,161.466,9.13555,0,0.000885,0,0
0:0:33.691,163.281,9.23897,0,0.000885,0,0
0:0:33.894,163.988,9.28034,0,0.000885,0,0
0:0:34.098,165.452,9.36308,0,0.000885,0,0
0:0:34.301,166.217,9.40445,0,0.000885,0,0
0:0:34.502,167.742,9.49408,0,0.000885,0,0
0:0:34.704,168.152,9.51477,0,0.000885,0,0
0:0:34.906,169.851,9.61129,0,0.000885,0,0
0:0:35.107,171.199,9.68713,0,0.000885,0,0
0:0:35.307,172.845,9.78366,0,0.000885,0,0
0:0:35.504,173.605,9.82503,0,0.000885,0,0
0:0:35.706,175.598,9.93535,0,0.000885,0,0
0:0:35.902,176.305,9.97671,0,0.000885,0,0
0:0:36.101,177.475,10.0457,0,0.000885,0,0
0:0:36.303,179.117,10.1353,0,0.000885,0,0
0:0:36.498,180.055,10.1905,0,0.000885,0,0
0:0:36.700,181.874,10.2939,0,0.000885,0,0
0:0:36.900,182.404,10.3215,0,0.000885,0,0
0:0:37.098,184.161,10.4249,0,0.000885,0,0
0:0:37.299,185.219,10.48,0,0.000885,0,0
0:0:37.494,186.683,10.5628,0,0.000885,0,0
0:0:37.694,187.328,10.6041,0,0.000885,0,0
0:0:37.896,189.325,10.7145,0,0.000885,0,0
0:0:38.092,190.144,10.7627,0,0.000885,0,0
0:0:38.294,191.669,10.8455,0,0.000885,0,0
0:0:38.488,192.666,10.9006,0,0.000885,0,0
0:0:38.687,194.485,11.004,0,0.000885,0,0
0:0:38.887,195.366,11.0523,0,0.000885,0,0
0:0:39.090,196.772,11.135,0,0.000885,0,0
0:0:39.290,197.359,11.1695,0,0.000885,0,0
0:0:39.492,199,11.2591,0,0.000885,0,0
0:0:39.692,199.881,11.3143,0,0.000885,0,0
0:0:39.892,200.819,11.3626,0,0.000885,0,0
0:0:40.093,202.581,11.466,0,0.000885,0,0
0:0:40.293,203.284,11.5005,0,0.000885,0,0
0:0:40.491,205.099,11.6039,0,0.000885,0,0
0:0:40.686,205.806,11.6452,0,0.000885,0,0
0:0:40.887,207.389,11.7349,0,0.000885,0,0
0:0:41.082,208.034,11.7694,0,0.000885,0,0
0:0:41.283,210.027,11.8866,0,0.000885,0,0
0:0:41.479,210.205,11.8935,0,0.000885,0,0
0:0:41.676,212.02,11.9969,0,0.000885,0,0
0:0:41.876,212.901,12.0451,0,0.000885,0,0
0:0:42.072,214.6,12.1417,0,0.000885,0,0
0:0:42.271,215.717,12.2037,0,0.000885,0,0
0:0:42.469,217.242,12.2934,0,0.000885,0,0
0:0:42.663,218.123,12.3416,0,0.000885,0,0
0:0:42.864,218.768,12.383,0,0.000885,0,0
0:0:43.059,220.703,12.4864,0,0.000885,0,0
0:0:43.259,221.406,12.5278,0,0.000885,0,0
0:0:43.458,222.754,12.6036,0,0.000885,0,0
0:0:43.649,223.634,12.6519,0,0.000885,0,0
0:0:43.850,225.569,12.7622,0,0.000885,0,0
0:0:44.052,226.859,12.838,0,0.000885,0,0
0:0:44.254,228.385,12.9208,0,0.000885,0,0
0:0:44.455,229.559,12.9897,0,0.000885,0,0
0:0:44.657,230.907,13.0656,0,0.000885,0,0
0:0:44.858,232.082,13.1345,0,0.000885,0,0
0:0:45.057,233.896,13.2379,0,0.000885,0,0
0:0:45.257,234.368,13.2655,0,0.000885,0,0
0:0:45.458,236.303,13.3689,0,0.000885,0,0
0:0:45.661,237.064,13.4172,0,0.000885,0,0
0:0:45.862,238.647,13.5068,0,0.000885,0,0
0:0:46.058,239.586,13.5551,0,0.000885,0,0
0:0:46.258,241.169,13.6447,0,0.000885,0,0
0:0:46.457,242.17,13.7068,0,0.000885,0,0
0:0:46.661,243.749,13.7964,0,0.000885,0,0
0:0:46.861,244.572,13.8378,0,0.000885,0,0
0:0:47.057,244.981,13.8654,0,0.000885,0,0
0:0:47.254,246.859,13.9688,0,0.000885,0,0
0:0:47.455,247.797,14.0239,0,0.000885,0,0
0:0:47.658,249.323,14.1067,0,0.000885,0,0
0:0:47.858,250.026,14.148,0,0.000885,0,0
0:0:48.054,251.258,14.217,0,0.000885,0,0
0:0:48.262,252.668,14.2997,0,0.000885,0,0
0:0:48.463,253.958,14.3687,0,0.000885,0,0
0:0:48.664,254.776,14.4169,0,0.000885,0,0
0:0:48.867,256.36,14.5066,0,0.000885,0,0
0:0:49.066,257.356,14.5617,0,0.000885,0,0
0:0:49.268,259.176,14.6651,0,0.000885,0,0
0:0:49.468,259.878,14.7065,0,0.000885,0,0
0:0:49.667,261.462,14.7961,0,0.000885,0,0
0:0:49.866,262.343,14.8444,0,0.000885,0,0
0:0:50.064,263.984,14.9409,0,0.000885,0,0
0:0:50.261,264.691,14.9754,0,0.000885,0,0
0:0:50.462,266.333,15.0719,0,0.000885,0,0
0:0:50.657,267.623,15.1409,0,0.000885,0,0
0:0:50.855,268.855,15.2167,0,0.000885,0,0
0:0:51.050,270.025,15.2788,0,0.000885,0,0
0:0:51.259,271.608,15.3684,0,0.000885,0,0
0:0:51.460,272.841,15.4374,0,0.000885,0,0
0:0:51.654,273.663,15.4856,0,0.000885,0,0
0:0:51.863,275.305,15.5822,0,0.000885,0,0
0:0:52.062,275.714,15.6028,0,0.000885,0,0
0:0:52.255,278.005,15.7338,0,0.000885,0,0
0:0:52.455,278.65,15.7683,0,0.000885,0,0
0:0:52.662,280.171,15.8579,0,0.000885,0,0
0:0:52.861,281.172,15.9131,0,0.000885,0,0
0:0:53.059,282.756,16.0027,0,0.000885,0,0
0:0:53.254,283.868,16.0648,0,0.000885,0,0
0:0:53.455,285.336,16.1475,0,0.000885,0,0
0:0:53.654,285.745,16.1682,0,0.000885,0,0
0:0:53.858,287.68,16.2785,0,0.000885,0,0
0:0:54.060,288.618,16.3337,0,0.000885,0,0
0:0:54.261,290.202,16.4233,0,0.000885,0,0
0:0:54.461,290.967,16.4647,0,0.000885,0,0
0:0:54.662,292.431,16.5474,0,0.000885,0,0
0:0:54.863,293.311,16.5957,0,0.000885,0,0
0:0:55.063,295.304,16.7129,0,0.000885,0,0
0:0:55.258,296.007,16.7474,0,0.000885,0,0
0:0:55.457,297.768,16.8508,0,0.000885,0,0
0:0:55.654,298.885,16.9128,0,0.000885,0,0
0:0:55.861,300.526,17.0094,0,0.000885,0,0
0:0:56.062,301.113,17.0369,0,0.000885,0,0
0:0:56.255,302.11,17.099,0,0.000885,0,0
0:0:56.455,303.925,17.1955,0,0.000885,0,0
0:0:56.651,304.16,17.2093,0,0.000885,0,0
0:0:56.859,306.038,17.3196,0,0.000885,0,0
0:0:57.060,307.034,17.3748,0,0.000885,0,0
0:0:57.264,308.386,17.4506,0,0.000885,0,0
0:0:57.464,309.556,17.5196,0,0.000885,0,0
0:0:57.660,310.908,17.5954,0,0.000885,0,0
0:0:57.858,311.669,17.6368,0,0.000885,0,0
0:0:58.058,313.195,17.7264,0,0.000885,0,0
0:0:58.262,314.071,17.7747,0,0.000885,0,0
0:0:58.463,315.89,17.8781,0,0.000885,0,0
0:0:58.662,316.771,17.9264,0,0.000885,0,0
0:0:58.865,318.413,18.016,0,0.000885,0,0
0:0:59.067,319.236,18.0643,0,0.000885,0,0
0:0:59.268,321.228,18.1746,0,0.000885,0,0
0:0:59.467,321.993,18.2228,0,0.000885,0,0
0:0:59.668,323.808,18.3263,0,0.000885,0,0
0:0:59.868,324.631,18.3676,0,0.000885,0,0
0:1:0.068,325.979,18.4435,0,0.000885,0,0
0:1:0.264,326.918,18.4986,0,0.000885,0,0
0:1:0.462,328.559,18.5952,0,0.000885,0,0
0:1:0.661,329.618,18.6503,0,0.000885,0,0
0:1:0.855,330.32,18.6917,0,0.000885,0,0
0:1:1.055,331.846,18.7813,0,0.000885,0,0
0:1:1.262,332.607,18.8227,0,0.000885,0,0
0:1:1.459,334.6,18.933,0,0.000885,0,0
0:1:1.659,335.307,18.9744,0,0.000885,0,0
0:1:1.863,336.597,19.0502,0,0.000885,0,0
0:1:2.063,337.945,19.1261,0,0.000885,0,0
0:1:2.261,339.644,19.2226,0,0.000885,0,0
0:1:2.454,339.938,19.2364,0,0.000885,0,0
0:1:2.657,341.699,19.3329,0,0.000885,0,0
0:1:2.861,342.695,19.395,0,0.000885,0,0
0:1:3.060,344.63,19.5053,0,0.000885,0,0
0:1:3.260,345.218,19.5328,0,0.000885,0,0
0:1:3.463,346.743,19.6225,0,0.000885,0,0
0:1:3.664,347.74,19.6776,0,0.000885,0,0
0:1:3.865,349.497,19.7742,0,0.000885,0,0
0:1:4.066,350.142,19.8155,0,0.000885,0,0
0:1:4.269,352.139,19.9258,0,0.000885,0,0
0:1:4.469,353.015,19.9741,0,0.000885,0,0
0:1:4.670,354.835,20.0775,0,0.000885,0,0
0:1:4.870,356.125,20.1534,0,0.000885,0,0
0:1:5.071,357.183,20.2154,0,0.000885,0,0
0:1:5.270,358.473,20.2844,0,0.000885,0,0
0:1:5.465,359.879,20.3671,0,0.000885,0,0
0:1:5.664,361.111,20.4361,0,0.000885,0,0
0:1:5.862,361.462,20.4567,0,0.000885,0,0
0:1:6.057,363.162,20.5533,0,0.000885,0,0
0:1:6.257,363.811,20.5877,0,0.000885,0,0
0:1:6.463,365.453,20.6774,0,0.000885,0,0
0:1:6.661,366.155,20.7187,0,0.000885,0,0
0:1:6.861,368.09,20.8291,0,0.000885,0,0
0:1:7.064,368.793,20.8704,0,0.000885,0,0
0:1:7.264,370.435,20.9601,0,0.000885,0,0
0:1:7.461,371.315,21.0152,0,0.000885,0,0
0:1:7.657,372.725,21.0911,0,0.000885,0,0
0:1:7.857,373.837,21.1531,0,0.000885,0,0
0:1:8.061,375.185,21.229,0,0.000885,0,0
0:1:8.260,376.595,21.3117,0,0.000885,0,0
0:1:8.459,377.827,21.3806,0,0.000885,0,0
0:1:8.651,378.94,21.4427,0,0.000885,0,0
0:1:8.852,380.643,21.5392,0,0.000885,0,0
0:1:9.055,381.23,21.5737,0,0.000885,0,0
0:1:9.259,382.93,21.6702,0,0.000885,0,0
0:1:9.459,383.748,21.7185,0,0.000885,0,0
0:1:9.660,384.98,21.7874,0,0.000885,0,0
0:1:9.861,386.448,21.8702,0,0.000885,0,0
0:1:10.060,388.325,21.9736,0,0.000885,0,0
0:1:10.260,388.735,22.0012,0,0.000885,0,0
0:1:10.459,389.967,22.0701,0,0.000885,0,0
0:1:10.663,391.728,22.1666,0,0.000885,0,0
0:1:10.865,392.547,22.2149,0,0.000885,0,0
0:1:11.060,394.072,22.2976,0,0.000885,0,0
0:1:11.258,394.717,22.339,0,0.000885,0,0
0:1:11.458,396.417,22.4355,0,0.000885,0,0
0:1:11.661,397.182,22.4769,0,0.000885,0,0
0:1:11.862,398.823,22.5665,0,0.000885,0,0
0:1:12.059,399.877,22.6286,0,0.000885,0,0
0:1:12.264,401.581,22.7251,0,0.000885,0,0
0:1:12.465,402.106,22.7527,0,0.000885,0,0
0:1:12.661,404.045,22.863,0,0.000885,0,0
0:1:12.859,405.042,22.9182,0,0.000885,0,0
0:1:13.058,406.39,22.994,0,0.000885,0,0
0:1:13.262,407.564,23.063,0,0.000885,0,0
0:1:13.463,408.912,23.1388,0,0.000885,0,0
0:1:13.662,409.966,23.2009,0,0.000885,0,0
0:1:13.865,411.492,23.2836,0,0.000885,0,0
0:1:14.067,412.546,23.3456,0,0.000885,0,0
0:1:14.268,414.014,23.4284,0,0.000885,0,0
0:1:14.469,415.068,23.4904,0,0.000885,0,0
0:1:14.669,416.3,23.5594,0,0.000885,0,0
0:1:14.869,417.123,23.6076,0,0.000885,0,0
0:1:15.071,419.058,23.7111,0,0.000885,0,0
0:1:15.264,419.525,23.7386,0,0.000885,0,0
0:1:15.464,420.526,23.7938,0,0.000885,0,0
0:1:15.661,422.047,23.8834,0,0.000885,0,0
0:1:15.858,422.928,23.9317,0,0.000885,0,0
0:1:16.058,424.338,24.0144,0,0.000885,0,0
0:1:16.261,425.277,24.0627,0,0.000885,0,0
0:1:16.460,427.212,24.173,0,0.000885,0,0
0:1:16.659,427.737,24.2075,0,0.000885,0,0
0:1:16.864,429.614,24.3109,0,0.000885,0,0
0:1:17.064,430.552,24.3661,0,0.000885,0,0
0:1:17.262,432.55,24.4764,0,0.000885,0,0
0:1:17.459,433.426,24.5247,0,0.000885,0,0
0:1:17.659,435.129,24.6212,0,0.000885,0,0
0:1:17.862,435.832,24.6625,0,0.000885,0,0
0:1:18.062,437.767,24.7729,0,0.000885,0,0
0:1:18.260,438.177,24.7935,0,0.000885,0,0
0:1:18.465,439.76,24.8832,0,0.000885,0,0
0:1:18.664,440.699,24.9383,0,0.000885,0,0
0:1:18.866,442.402,25.0349,0,0.000885,0,0
0:1:19.069,442.985,25.0693,0,0.000885,0,0
0:1:19.271,444.924,25.1797,0,0.000885,0,0
0:1:19.471,445.392,25.2072,0,0.000885,0,0
0:1:19.671,447.736,25.3382,0,0.000885,0,0
0:1:19.872,448.092,25.3589,0,0.000885,0,0
0:1:20.073,449.849,25.4554,0,0.000885,0,0
0:1:20.273,450.551,25.4968,0,0.000885,0,0
0:1:20.466,451.61,25.5589,0,0.000885,0,0
0:1:20.668,453.252,25.6485,0,0.000885,0,0
0:1:20.862,454.306,25.7105,0,0.000885,0,0
0:1:21.062,456.299,25.8209,0,0.000885,0,0
0:1:21.262,456.654,25.8416,0,0.000885,0,0
0:1:21.464,458.589,25.9519,0,0.000885,0,0
0:1:21.664,459.35,25.9932,0,0.000885,0,0
0:1:21.862,461.112,26.0967,0,0.000885,0,0
0:1:22.058,461.699,26.1242,0,0.000885,0,0
0:1:22.259,463.34,26.2208,0,0.000885,0,0
0:1:22.463,464.043,26.2621,0,0.000885,0,0
0:1:22.662,465.391,26.338,0,0.000885,0,0
0:1:22.860,466.507,26.4,0,0.000885,0,0
0:1:23.053,468.149,26.4897,0,0.000885,0,0
0:1:23.253,469.203,26.5517,0,0.000885,0,0
0:1:23.450,470.377,26.6207,0,0.000885,0,0
0:1:23.647,471.552,26.6827,0,0.000885,0,0
0:1:23.846,472.076,26.7172,0,0.000885,0,0
0:1:24.049,473.896,26.8137,0,0.000885,0,0
0:1:24.250,474.367,26.8413,0,0.000885,0,0
0:1:24.452,476.476,26.9654,0,0.000885,0,0
0:1:24.651,477.241,27.0068,0,0.000885,0,0
0:1:24.851,478.998,27.1033,0,0.000885,0,0
0:1:25.052,479.879,27.1584,0,0.000885,0,0
0:1:25.252,481.578,27.255,0,0.000885,0,0
0:1:25.463,482.574,27.3101,0,0.000885,0,0
0:1:25.659,483.691,27.3722,0,0.000885,0,0
0:1:25.860,484.923,27.4411,0,0.000885,0,0
0:1:26.063,486.271,27.517,0,0.000885,0,0
0:1:26.263,487.445,27.5859,0,0.000885,0,0
0:1:26.461,489.496,27.7031,0,0.000885,0,0
0:1:26.667,490.434,27.7514,0,0.000885,0,0
0:1:26.868,492.196,27.8548,0,0.000885,0,0
0:1:27.061,493.014,27.8962,0,0.000885,0,0
0:1:27.260,494.776,27.9996,0,0.000885,0,0
0:1:27.460,495.536,28.041,0,0.000885,0,0
0:1:27.662,496.595,28.103,0,0.000885,0,0
0:1:27.863,497.413,28.1513,0,0.000885,0,0
0:1:28.059,498.588,28.2133,0,0.000885,0,0
0:1:28.265,499.584,28.2685,0,0.000885,0,0
0:1:28.466,501.813,28.3995,0,0.000885,0,0
0:1:28.667,502.809,28.4547,0,0.000885,0,0
0:1:28.869,504.041,28.5236,0,0.000885,0,0
0:1:29.070,504.806,28.565,0,0.000885,0,0
0:1:29.271,506.621,28.6684,0,0.000885,0,0
0:1:29.471,507.386,28.7098,0,0.000885,0,0
0:1:29.671,508.912,28.7994,0,0.000885,0,0
0:1:29.872,509.909,28.8546,0,0.000885,0,0
0:1:30.070,510.669,28.8959,0,0.000885,0,0
0:1:30.266,512.311,28.9925,0,0.000885,0,0
0:1:30.467,512.782,29.02,0,0.000885,0,0
0:1:30.662,515.011,29.1441,0,0.000885,0,0
0:1:30.861,516.007,29.1993,0,0.000885,0,0
0:1:31.059,517.706,29.2958,0,0.000885,0,0
0:1:31.263,518.707,29.351,0,0.000885,0,0
0:1:31.464,520.291,29.4406,0,0.000885,0,0
0:1:31.660,521.287,29.4958,0,0.000885,0,0
0:1:31.867,522.519,29.5716,0,0.000885,0,0
0:1:32.067,523.338,29.613,0,0.000885,0,0
0:1:32.261,525.041,29.7095,0,0.000885,0,0
0:1:32.461,525.744,29.7509,0,0.000885,0,0
0:1:32.659,527.737,29.8612,0,0.000885,0,0
0:1:32.864,528.146,29.8888,0,0.000885,0,0
0:1:33.065,530.317,30.0129,0,0.000885,0,0
0:1:33.259,531.14,30.0542,0,0.000885,0,0
0:1:33.455,532.723,30.1439,0,0.000885,0,0
0:1:33.655,533.191,30.1715,0,0.000885,0,0
0:1:33.859,534.249,30.2335,0,0.000885,0,0
0:1:34.061,535.891,30.3231,0,0.000885,0,0
0:1:34.262,536.709,30.3714,0,0.000885,0,0
0:1:34.463,538.235,30.461,0,0.000885,0,0
0:1:34.663,539.058,30.5024,0,0.000885,0,0
0:1:34.865,540.993,30.6127,0,0.000885,0,0
0:1:35.065,541.696,30.6541,0,0.000885,0,0
0:1:35.261,543.866,30.7782,0,0.000885,0,0
0:1:35.459,544.569,30.8196,0,0.000885,0,0
0:1:35.655,546.388,30.9161,0,0.000885,0,0
0:1:35.862,547.269,30.9712,0,0.000885,0,0
0:1:36.062,549.378,31.0885,0,0.000885,0,0
0:1:36.259,549.907,31.116,0,0.000885,0,0
0:1:36.465,551.433,31.2057,0,0.000885,0,0
0:1:36.666,552.251,31.2539,0,0.000885,0,0
0:1:36.860,553.897,31.3436,0,0.000885,0,0
0:1:37.059,554.773,31.3918,0,0.000885,0,0
0:1:37.259,556.063,31.4677,0,0.000885,0,0
0:1:37.463,556.65,31.5021,0,0.000885,0,0
0:1:37.664,558.648,31.6125,0,0.000885,0,0
0:1:37.859,559.23,31.6469,0,0.000885,0,0
0:1:38.067,560.405,31.7159,0,0.000885,0,0
0:1:38.266,561.521,31.7779,0,0.000885,0,0
0:1:38.461,563.456,31.8883,0,0.000885,0,0
0:1:38.661,564.568,31.9503,0,0.000885,0,0
0:1:38.861,565.213,31.9848,0,0.000885,0,0
0:1:39.065,567.09,32.0882,0,0.000885,0,0
0:1:39.266,567.62,32.1227,0,0.000885,0,0
0:1:39.468,569.146,32.2054,0,0.000885,0,0
0:1:39.667,570.2,32.2675,0,0.000885,0,0
0:1:39.868,571.725,32.3502,0,0.000885,0,0
0:1:40.066,572.9,32.4191,0,0.000885,0,0
0:1:40.267,574.305,32.5019,0,0.000885,0,0
0:1:40.462,575.422,32.5639,0,0.000885,0,0
0:1:40.661,577.121,32.6605,0,0.000885,0,0
0:1:40.859,577.708,32.6949,0,0.000885,0,0
0:1:41.051,579.056,32.7708,0,0.000885,0,0
0:1:41.252,580.23,32.8328,0,0.000885,0,0
0:1:41.449,581.756,32.9225,0,0.000885,0,0
0:1:41.645,582.868,32.9845,0,0.000885,0,0
0:1:41.845,584.923,33.1017,0,0.000885,0,0
0:1:42.049,585.39,33.1293,0,0.000885,0,0
0:1:42.250,587.383,33.2396,0,0.000885,0,0
0:1:42.456,587.855,33.2672,0,0.000885,0,0
0:1:42.667,589.732,33.3706,0,0.000885,0,0
0:1:42.868,590.848,33.4327,0,0.000885,0,0
0:1:43.062,592.374,33.5223,0,0.000885,0,0
0:1:43.263,593.428,33.5844,0,0.000885,0,0
0:1:43.461,594.193,33.6257,0,0.000885,0,0
0:1:43.668,595.777,33.7154,0,0.000885,0,0
0:1:43.870,597.481,33.8119,0,0.000885,0,0
0:1:44.073,598.304,33.8602,0,0.000885,0,0
0:1:44.277,599.651,33.936,0,0.000885,0,0
0:1:44.478,600.417,33.9774,0,0.000885,0,0
0:1:44.680,602,34.067,0,0.000885,0,0
0:1:44.881,602.881,34.1153,0,0.000885,0,0
0:1:45.082,603.819,34.1704,0,0.000885,0,0
0:1:45.283,605.523,34.2669,0,0.000885,0,0
0:1:45.482,606.284,34.3083,0,0.000885,0,0
0:1:45.679,607.164,34.3566,0,0.000885,0,0
0:1:45.881,608.165,34.4117,0,0.000885,0,0
0:1:46.078,609.865,34.5083,0,0.000885,0,0
0:1:46.276,610.51,34.5496,0,0.000885,0,0
0:1:46.476,612.213,34.6462,0,0.000885,0,0
0:1:46.673,613.21,34.7013,0,0.000885,0,0
0:1:46.875,615.265,34.8185,0,0.000885,0,0
0:1:47.071,616.381,34.8806,0,0.000885,0,0
0:1:47.269,618.316,34.9909,0,0.000885,0,0
0:1:47.469,619.139,35.0392,0,0.000885,0,0
0:1:47.666,620.785,35.1288,0,0.000885,0,0
0:1:47.866,621.781,35.1839,0,0.000885,0,0
0:1:48.064,623.249,35.2667,0,0.000885,0,0
0:1:48.260,624.13,35.3218,0,0.000885,0,0
0:1:48.462,624.953,35.3632,0,0.000885,0,0
0:1:48.665,626.359,35.4459,0,0.000885,0,0
0:1:48.865,626.772,35.4666,0,0.000885,0,0
0:1:49.069,628.592,35.5701,0,0.000885,0,0
0:1:49.270,629.997,35.6528,0,0.000885,0,0
0:1:49.472,631.527,35.7355,0,0.000885,0,0
0:1:49.673,632.408,35.7838,0,0.000885,0,0
0:1:49.875,633.934,35.8734,0,0.000885,0,0
0:1:50.076,635.339,35.9562,0,0.000885,0,0
0:1:50.272,636.572,36.0251,0,0.000885,0,0
0:1:50.473,637.337,36.0665,0,0.000885,0,0
0:1:50.670,639.04,36.163,0,0.000885,0,0
0:1:50.869,640.037,36.2182,0,0.000885,0,0
0:1:51.072,641.563,36.3078,0,0.000885,0,0
0:1:51.265,642.679,36.3698,0,0.000885,0,0
0:1:51.465,644.498,36.4733,0,0.000885,0,0
0:1:51.663,645.201,36.5077,0,0.000885,0,0
0:1:51.861,646.611,36.5905,0,0.000885,0,0
0:1:52.062,647.492,36.6387,0,0.000885,0,0
0:1:52.268,649.311,36.7422,0,0.000885,0,0
0:1:52.468,650.076,36.7835,0,0.000885,0,0
0:1:52.668,651.54,36.8732,0,0.000885,0,0
0:1:52.862,652.483,36.9214,0,0.000885,0,0
0:1:53.064,652.834,36.9421,0,0.000885,0,0
0:1:53.262,654.302,37.0248,0,0.000885,0,0
0:1:53.461,655.356,37.0869,0,0.000885,0,0
0:1:53.662,656.651,37.1558,0,0.000885,0,0
0:1:53.864,657.589,37.211,0,0.000885,0,0
0:1:54.067,659.524,37.3213,0,0.000885,0,0
0:1:54.267,660.757,37.3903,0,0.000885,0,0
0:1:54.468,662.402,37.4868,0,0.000885,0,0
0:1:54.670,663.283,37.5351,0,0.000885,0,0
0:1:54.871,664.867,37.6247,0,0.000885,0,0
0:1:55.072,665.512,37.6592,0,0.000885,0,0
0:1:55.272,667.158,37.7557,0,0.000885,0,0
0:1:55.467,668.212,37.8108,0,0.000885,0,0
0:1:55.669,669.622,37.8936,0,0.000885,0,0
0:1:55.865,670.796,37.9625,0,0.000885,0,0
0:1:56.063,672.495,38.0522,0,0.000885,0,0
0:1:56.265,673.67,38.1211,0,0.000885,0,0
0:1:56.461,675.08,38.2039,0,0.000885,0,0
0:1:56.662,676.196,38.2659,0,0.000885,0,0
0:1:56.857,678.016,38.3693,0,0.000885,0,0
0:1:57.067,679.07,38.4245,0,0.000885,0,0
0:1:57.268,680.831,38.5279,0,0.000885,0,0
0:1:57.462,681.303,38.5555,0,0.000885,0,0
0:1:57.663,682.242,38.6037,0,0.000885,0,0
0:1:57.861,683.18,38.6589,0,0.000885,0,0
0:1:58.067,684.061,38.7072,0,0.000885,0,0
0:1:58.270,685.765,38.8037,0,0.000885,0,0
0:1:58.465,686.352,38.8382,0,0.000885,0,0
0:1:58.665,687.757,38.9209,0,0.000885,0,0
0:1:58.865,688.465,38.9623,0,0.000885,0,0
0:1:59.070,690.048,39.0519,0,0.000885,0,0
0:1:59.271,691.165,39.114,0,0.000885,0,0
0:1:59.473,692.69,39.1967,0,0.000885,0,0
0:1:59.674,693.923,39.2656,0,0.000885,0,0
0:1:59.875,695.39,39.3484,0,0.000885,0,0
0:2:0.076,696.093,39.3897,0,0.000885,0,0
0:2:0.277,697.855,39.4932,0,0.000885,0,0
0:2:0.475,698.62,39.5345,0,0.000885,0,0
0:2:0.673,700.969,39.6655,0,0.000885,0,0
0:2:0.874,701.787,39.7138,0,0.000885,0,0
0:2:1.069,703.491,39.8103,0,0.000885,0,0
0:2:1.270,704.429,39.8655,0,0.000885,0,0
0:2:1.468,705.719,39.9344,0,0.000885,0,0
0:2:1.665,706.662,39.9896,0,0.000885,0,0
0:2:1.868,708.304,40.0792,0,0.000885,0,0
0:2:2.062,709.536,40.1482,0,0.000885,0,0
0:2:2.263,710.83,40.224,0,0.000885,0,0
0:2:2.463,712,40.293,0,0.000885,0,0
0:2:2.668,713.997,40.4033,0,0.000885,0,0
0:2:2.870,714.994,40.4584,0,0.000885,0,0
0:2:3.067,715.643,40.4998,0,0.000885,0,0
0:2:3.264,716.991,40.5756,0,0.000885,0,0
0:2:3.465,717.578,40.6032,0,0.000885,0,0
0:2:3.668,719.104,40.6929,0,0.000885,0,0
0:2:3.870,720.163,40.7549,0,0.000885,0,0
0:2:4.072,721.688,40.8376,0,0.000885,0,0
0:2:4.273,722.391,40.879,0,0.000885,0,0
0:2:4.475,723.508,40.9411,0,0.000885,0,0
0:2:4.675,724.504,40.9962,0,0.000885,0,0
0:2:4.877,726.381,41.1065,0,0.000885,0,0
0:2:5.076,727.204,41.1548,0,0.000885,0,0
0:2:5.273,728.792,41.2444,0,0.000885,0,0
0:2:5.474,729.789,41.2996,0,0.000885,0,0
0:2:5.670,731.666,41.403,0,0.000885,0,0
0:2:5.870,732.431,41.4444,0,0.000885,0,0
0:2:6.070,734.13,41.5409,0,0.000885,0,0
0:2:6.263,735.189,41.603,0,0.000885,0,0
0:2:6.465,736.95,41.6995,0,0.000885,0,0
0:2:6.662,737.537,41.734,0,0.000885,0,0
0:2:6.862,739.472,41.8443,0,0.000885,0,0
0:2:7.063,740.06,41.8788,0,0.000885,0,0
0:2:7.255,740.998,41.9339,0,0.000885,0,0
0:2:7.455,742.938,42.0442,0,0.000885,0,0
0:2:7.665,743.64,42.0787,0,0.000885,0,0
0:2:7.864,745.224,42.1683,0,0.000885,0,0
0:2:8.065,746.105,42.2235,0,0.000885,0,0
0:2:8.259,747.693,42.3131,0,0.000885,0,0
0:2:8.456,748.453,42.3545,0,0.000885,0,0
0:2:8.658,750.508,42.4717,0,0.000885,0,0
0:2:8.863,751.505,42.5269,0,0.000885,0,0
0:2:9.064,752.27,42.5682,0,0.000885,0,0
0:2:9.267,753.093,42.6165,0,0.000885,0,0
0:2:9.468,754.97,42.7199,0,0.000885,0,0
0:2:9.669,755.735,42.7682,0,0.000885,0,0
0:2:9.871,757.554,42.8716,0,0.000885,0,0
0:2:10.072,758.435,42.9199,0,0.000885,0,0
0:2:10.270,760.077,43.0095,0,0.000885,0,0
0:2:10.468,761.135,43.0715,0,0.000885,0,0
0:2:10.669,763.186,43.1888,0,0.000885,0,0
0:2:10.863,764.245,43.2508,0,0.000885,0,0
0:2:11.065,764.947,43.2853,0,0.000885,0,0
0:2:11.263,765.828,43.3404,0,0.000885,0,0
0:2:11.470,768.061,43.4645,0,0.000885,0,0
0:2:11.671,768.292,43.4783,0,0.000885,0,0
0:2:11.866,770.41,43.5956,0,0.000885,0,0
0:2:12.066,770.819,43.6162,0,0.000885,0,0
0:2:12.267,771.17,43.6369,0,0.000885,0,0
0:2:12.462,773.283,43.761,0,0.000885,0,0
0:2:12.663,774.048,43.8024,0,0.000885,0,0
0:2:12.857,776.103,43.9196,0,0.000885,0,0
0:2:13.056,777.216,43.9817,0,0.000885,0,0
0:2:13.257,778.216,44.0368,0,0.000885,0,0
0:2:13.463,779.506,44.1127,0,0.000885,0,0
0:2:13.665,781.09,44.2023,0,0.000885,0,0
0:2:13.868,782.322,44.2712,0,0.000885,0,0
0:2:14.071,783.79,44.354,0,0.000885,0,0
0:2:14.274,784.729,44.4091,0,0.000885,0,0
0:2:14.476,785.845,44.4712,0,0.000885,0,0
0:2:14.675,786.904,44.5263,0,0.000885,0,0
0:2:14.877,788.194,44.6022,0,0.000885,0,0
0:2:15.078,789.31,44.6642,0,0.000885,0,0
0:2:15.279,791.13,44.7677,0,0.000885,0,0
0:2:15.475,792.42,44.8435,0,0.000885,0,0
0:2:15.675,793.652,44.9124,0,0.000885,0,0
0:2:15.873,794.768,44.9745,0,0.000885,0,0
0:2:16.070,796.236,45.0572,0,0.000885,0,0
0:2:16.271,796.765,45.0848,0,0.000885,0,0
0:2:16.468,799.052,45.2158,0,0.000885,0,0
0:2:16.668,799.523,45.2434,0,0.000885,0,0
0:2:16.867,800.929,45.3261,0,0.000885,0,0
0:2:17.062,801.93,45.3813,0,0.000885,0,0
0:2:17.265,802.166,45.3951,0,0.000885,0,0
0:2:17.462,804.278,45.5123,0,0.000885,0,0
0:2:17.658,804.981,45.5537,0,0.000885,0,0
0:2:17.860,806.858,45.6571,0,0.000885,0,0
0:2:18.064,807.859,45.7122,0,0.000885,0,0
0:2:18.265,809.501,45.8088,0,0.000885,0,0
0:2:18.465,810.324,45.857,0,0.000885,0,0
0:2:18.671,812.027,45.9536,0,0.000885,0,0
0:2:18.872,813.082,46.0087,0,0.000885,0,0
0:2:19.075,814.492,46.0915,0,0.000885,0,0
0:2:19.278,815.315,46.1397,0,0.000885,0,0
0:2:19.481,816.898,46.2293,0,0.000885,0,0
0:2:19.681,817.659,46.2707,0,0.000885,0,0
0:2:19.883,819.54,46.3741,0,0.000885,0,0
0:2:20.084,820.185,46.4155,0,0.000885,0,0
0:2:20.286,822.005,46.5189,0,0.000885,0,0
0:2:20.485,822.414,46.5396,0,0.000885,0,0
0:2:20.682,824.353,46.6499,0,0.000885,0,0
0:2:20.883,825.176,46.6982,0,0.000885,0,0
0:2:21.081,827.347,46.8154,0,0.000885,0,0
0:2:21.278,828.108,46.8637,0,0.000885,0,0
0:2:21.480,829.869,46.9602,0,0.000885,0,0
0:2:21.675,830.75,47.0085,0,0.000885,0,0
0:2:21.877,832.569,47.1119,0,0.000885,0,0
0:2:22.073,833.041,47.1395,0,0.000885,0,0
0:2:22.270,833.979,47.1946,0,0.000885,0,0
0:2:22.472,835.505,47.2774,0,0.000885,0,0
0:2:22.668,836.386,47.3325,0,0.000885,0,0
0:2:22.868,838.383,47.4428,0,0.000885,0,0
0:2:23.068,838.614,47.4566,0,0.000885,0,0
0:2:23.260,840.26,47.5462,0,0.000885,0,0
0:2:23.464,841.141,47.6014,0,0.000885,0,0
0:2:23.666,843.196,47.7117,0,0.000885,0,0
0:2:23.868,843.841,47.7531,0,0.000885,0,0
0:2:24.071,845.073,47.822,0,0.000885,0,0
0:2:24.273,846.363,47.891,0,0.000885,0,0
0:2:24.474,847.951,47.9875,0,0.000885,0,0
0:2:24.675,849.183,48.0565,0,0.000885,0,0
0:2:24.875,850.767,48.1461,0,0.000885,0,0
0:2:25.078,851.648,48.1944,0,0.000885,0,0
0:2:25.273,853.761,48.3116,0,0.000885,0,0
0:2:25.474,854.232,48.3391,0,0.000885,0,0
0:2:25.671,855.758,48.4288,0,0.000885,0,0
0:2:25.869,856.696,48.477,0,0.000885,0,0
0:2:26.072,858.516,48.5805,0,0.000885,0,0
0:2:26.266,858.751,48.5942,0,0.000885,0,0
0:2:26.466,859.512,48.6356,0,0.000885,0,0
0:2:26.666,860.686,48.7046,0,0.000885,0,0
0:2:26.860,861.625,48.7597,0,0.000885,0,0
0:2:27.064,863.507,48.8631,0,0.000885,0,0
0:2:27.258,864.387,48.9114,0,0.000885,0,0
0:2:27.469,866.144,49.0148,0,0.000885,0,0
0:2:27.669,867.025,49.0631,0,0.000885,0,0
0:2:27.863,868.907,49.1665,0,0.000885,0,0
0:2:28.065,869.667,49.2148,0,0.000885,0,0
0:2:28.264,871.313,49.3044,0,0.000885,0,0
0:2:28.470,872.074,49.3527,0,0.000885,0,0
0:2:28.672,873.657,49.4423,0,0.000885,0,0
0:2:28.875,874.365,49.4768,0,0.000885,0,0
0:2:29.076,876.184,49.5802,0,0.000885,0,0
0:2:29.278,877.123,49.6354,0,0.000885,0,0
0:2:29.480,878.884,49.7319,0,0.000885,0,0
0:2:29.682,879.88,49.7939,0,0.000885,0,0
0:2:29.883,881.406,49.8767,0,0.000885,0,0
0:2:30.086,882.345,49.9318,0,0.000885,0,0
0:2:30.284,884.4,50.049,0,0.000885,0,0
0:2:30.482,885.049,50.0835,0,0.000885,0,0
0:2:30.684,886.513,50.1663,0,0.000885,0,0
0:2:30.878,887.162,50.2007,0,0.000885,0,0
0:2:31.078,888.568,50.2835,0,0.000885,0,0
0:2:31.278,889.569,50.3386,0,0.000885,0,0
0:2:31.473,890.387,50.3869,0,0.000885,0,0
0:2:31.676,892.62,50.511,0,0.000885,0,0
0:2:31.872,893.737,50.573,0,0.000885,0,0
0:2:32.070,894.969,50.642,0,0.000885,0,0
0:2:32.271,895.729,50.6903,0,0.000885,0,0
0:2:32.466,897.962,50.8144,0,0.000885,0,0
0:2:32.667,898.256,50.8282,0,0.000885,0,0
0:2:32.864,900.249,50.9454,0,0.000885,0,0
0:2:33.059,900.778,50.9729,0,0.000885,0,0
0:2:33.264,902.068,51.0488,0,0.000885,0,0
0:2:33.468,903.478,51.1246,0,0.000885,0,0
0:2:33.670,904.888,51.2074,0,0.000885,0,0
0:2:33.871,905.355,51.2349,0,0.000885,0,0
0:2:34.075,907.175,51.3384,0,0.000885,0,0
0:2:34.277,908.585,51.4142,0,0.000885,0,0
0:2:34.478,909.701,51.4763,0,0.000885,0,0
0:2:34.679,910.231,51.5107,0,0.000885,0,0
0:2:34.881,911.93,51.6073,0,0.000885,0,0
0:2:35.082,912.517,51.6348,0,0.000885,0,0
0:2:35.283,914.279,51.7383,0,0.000885,0,0
0:2:35.479,915.395,51.8003,0,0.000885,0,0
0:2:35.680,917.272,51.9037,0,0.000885,0,0
0:2:35.878,918.153,51.9589,0,0.000885,0,0
0:2:36.074,919.034,52.0072,0,0.000885,0,0
0:2:36.276,920.795,52.1037,0,0.000885,0,0
0:2:36.472,921.498,52.145,0,0.000885,0,0
0:2:36.673,923.086,52.2347,0,0.000885,0,0
0:2:36.873,923.673,52.2692,0,0.000885,0,0
0:2:37.068,925.96,52.4002,0,0.000885,0,0
0:2:37.269,926.667,52.4415,0,0.000885,0,0
0:2:37.465,928.366,52.5381,0,0.000885,0,0
0:2:37.661,929.776,52.6139,0,0.000885,0,0
0:2:37.865,930.715,52.6691,0,0.000885,0,0
0:2:38.058,931.831,52.7311,0,0.000885,0,0
0:2:38.260,933.651,52.8345,0,0.000885,0,0
0:2:38.469,934.353,52.8759,0,0.000885,0,0
0:2:38.666,936.057,52.9724,0,0.000885,0,0
0:2:38.868,936.76,53.0069,0,0.000885,0,0
0:2:39.069,938.112,53.0896,0,0.000885,0,0
0:2:39.272,939.286,53.1517,0,0.000885,0,0
0:2:39.475,941.048,53.2551,0,0.000885,0,0
0:2:39.676,941.573,53.2827,0,0.000885,0,0
0:2:39.877,943.277,53.3792,0,0.000885,0,0
0:2:40.078,944.393,53.4413,0,0.000885,0,0
0:2:40.280,945.567,53.5102,0,0.000885,0,0
0:2:40.478,946.915,53.5861,0,0.000885,0,0
0:2:40.675,947.267,53.6067,0,0.000885,0,0
0:2:40.876,948.677,53.6826,0,0.000885,0,0
0:2:41.072,949.557,53.7308,0,0.000885,0,0
0:2:41.274,951.848,53.8618,0,0.000885,0,0
0:2:41.472,951.964,53.8687,0,0.000885,0,0
0:2:41.669,953.961,53.9859,0,0.000885,0,0
0:2:41.871,955.073,54.048,0,0.000885,0,0
0:2:42.065,956.777,54.1445,0,0.000885,0,0
0:2:42.265,957.658,54.1928,0,0.000885,0,0
0:2:42.465,959.183,54.2755,0,0.000885,0,0
0:2:42.658,959.948,54.3238,0,0.000885,0,0
0:2:42.860,961.474,54.4065,0,0.000885,0,0
0:2:43.069,962.177,54.4479,0,0.000885,0,0
0:2:43.268,964.116,54.5582,0,0.000885,0,0
0:2:43.468,964.877,54.5996,0,0.000885,0,0
0:2:43.660,966.874,54.7168,0,0.000885,0,0
0:2:43.862,967.519,54.7513,0,0.000885,0,0
0:2:44.065,969.396,54.8547,0,0.000885,0,0
0:2:44.269,970.277,54.9098,0,0.000885,0,0
0:2:44.470,971.745,54.9926,0,0.000885,0,0
0:2:44.672,972.51,55.034,0,0.000885,0,0
0:2:44.874,974.152,55.1236,0,0.000885,0,0
0:2:45.075,975.268,55.1856,0,0.000885,0,0
0:2:45.275,976.91,55.2822,0,0.000885,0,0
0:2:45.477,977.79,55.3304,0,0.000885,0,0
0:2:45.671,978.377,55.3649,0,0.000885,0,0
0:2:45.872,980.197,55.4683,0,0.000885,0,0
0:2:46.069,980.726,55.4959,0,0.000885,0,0
0:2:46.270,982.488,55.5993,0,0.000885,0,0
0:2:46.471,983.133,55.6338,0,0.000885,0,0
0:2:46.663,985.13,55.7441,0,0.000885,0,0
0:2:46.866,985.89,55.7924,0,0.000885,0,0
0:2:47.061,987.479,55.882,0,0.000885,0,0
0:2:47.260,987.946,55.9096,0,0.000885,0,0
0:2:47.462,990.352,56.0406,0,0.000885,0,0
0:2:47.668,990.53,56.0544,0,0.000885,0,0
0:2:47.869,992.349,56.1578,0,0.000885,0,0
0:2:48.066,993.581,56.2267,0,0.000885,0,0
0:2:48.274,995.285,56.3233,0,0.000885,0,0
0:2:48.474,996.224,56.3715,0,0.000885,0,0
0:2:48.676,997.278,56.4336,0,0.000885,0,0
0:2:48.879,998.337,56.4956,0,0.000885,0,0
0:2:49.082,999.862,56.5784,0,0.000885,0,0
0:2:49.284,1000.98,56.6404,0,0.000885,0,0
0:2:49.485,1002.45,56.7301,0,0.000885,0,0
0:2:49.685,1003.15,56.7645,0,0.000885,0,0
0:2:49.886,1004.91,56.868,0,0.000885,0,0
0:2:50.087,1005.32,56.8886,0,0.000885,0,0
0:2:50.282,1006.97,56.9852,0,0.000885,0,0
0:2:50.483,1008.26,57.0541,0,0.000885,0,0
0:2:50.682,1009.25,57.1093,0,0.000885,0,0
0:2:50.881,1010.6,57.1851,0,0.000885,0,0
0:2:51.080,1011.25,57.2265,0,0.000885,0,0
0:2:51.275,1013.48,57.3506,0,0.000885,0,0
0:2:51.476,1014.07,57.3851,0,0.000885,0,0
0:2:51.675,1016.06,57.4954,0,0.000885,0,0
0:2:51.873,1016.94,57.5505,0,0.000885,0,0
0:2:52.073,1018.23,57.6195,0,0.000885,0,0
0:2:52.267,1019.18,57.6746,0,0.000885,0,0
0:2:52.469,1021,57.7781,0,0.000885,0,0
0:2:52.668,1021.76,57.8194,0,0.000885,0,0
0:2:52.863,1023.64,57.9229,0,0.000885,0,0
0:2:53.066,1024.51,57.978,0,0.000885,0,0
0:2:53.260,1025.69,58.0401,0,0.000885,0,0
0:2:53.460,1026.45,58.0883,0,0.000885,0,0
0:2:53.661,1027.98,58.1711,0,0.000885,0,0
0:2:53.866,1029.04,58.2331,0,0.000885,0,0
0:2:54.069,1030.33,58.3021,0,0.000885,0,0
0:2:54.271,1031.32,58.3641,0,0.000885,0,0
0:2:54.473,1034.02,58.5158,0,0.000885,0,0
0:2:54.675,1034.67,58.5503,0,0.000885,0,0
0:2:54.875,1035.55,58.5985,0,0.000885,0,0
0:2:55.077,1036.78,58.6675,0,0.000885,0,0
0:2:55.273,1037.73,58.7226,0,0.000885,0,0
0:2:55.473,1039.02,58.7985,0,0.000885,0,0
0:2:55.671,1040.01,58.8536,0,0.000885,0,0
0:2:55.869,1041.77,58.9502,0,0.000885,0,0
0:2:56.071,1042.83,59.0122,0,0.000885,0,0
0:2:56.264,1044.18,59.0881,0,0.000885,0,0
0:2:56.463,1044.95,59.1294,0,0.000885,0,0
0:2:56.663,1046.41,59.2122,0,0.000885,0,0
0:2:56.859,1047.41,59.2742,0,0.000885,0,0
0:2:57.062,1049.05,59.3639,0,0.000885,0,0
0:2:57.270,1049.99,59.419,0,0.000885,0,0
0:2:57.469,1051.64,59.5087,0,0.000885,0,0
0:2:57.668,1052.69,59.5707,0,0.000885,0,0
0:2:57.864,1054.63,59.681,0,0.000885,0,0
0:2:58.068,1055.27,59.7155,0,0.000885,0,0
0:2:58.262,1057.04,59.8189,0,0.000885,0,0
0:2:58.460,1057.74,59.8534,0,0.000885,0,0
0:2:58.661,1058.5,59.9017,0,0.000885,0,0
0:2:58.867,1060.09,59.9913,0,0.000885,0,0
0:2:59.068,1060.67,60.0189,0,0.000885,0,0
0:2:59.271,1062.73,60.1361,0,0.000885,0,0
0:2:59.472,1063.37,60.1774,0,0.000885,0,0
0:2:59.673,1064.9,60.2602,0,0.000885,0,0
0:2:59.874,1065.78,60.3084,0,0.000885,0,0
0:3:0.076,1067.66,60.4188,0,0.000885,0,0
0:3:0.275,1068.25,60.4532,0,0.000885,0,0
0:3:0.474,1069.48,60.5222,0,0.000885,0,0
0:3:0.674,1070.48,60.5773,0,0.000885,0,0
0:3:0.869,1072.18,60.6739,0,0.000885,0,0
0:3:1.071,1072.83,60.7083,0,0.000885,0,0
0:3:1.270,1075.06,60.8324,0,0.000885,0,0
0:3:1.475,1075.99,60.8876,0,0.000885,0,0
0:3:1.677,1077.7,60.9841,0,0.000885,0,0
0:3:1.872,1078.52,61.0324,0,0.000885,0,0
0:3:2.073,1080.1,61.122,0,0.000885,0,0
0:3:2.272,1080.98,61.1703,0,0.000885,0,0
0:3:2.468,1082.57,61.2599,0,0.000885,0,0
0:3:2.670,1083.45,61.3082,0,0.000885,0,0
0:3:2.864,1085.09,61.4047,0,0.000885,0,0
0:3:3.062,1085.86,61.4461,0,0.000885,0,0
0:3:3.262,1086.44,61.4806,0,0.000885,0,0
0:3:3.458,1088.15,61.5771,0,0.000885,0,0
0:3:3.660,1089.14,61.6322,0,0.000885,0,0
0:3:3.862,1091.26,61.7494,0,0.000885,0,0
0:3:4.064,1091.96,61.7908,0,0.000885,0,0
0:3:4.269,1093.6,61.8873,0,0.000885,0,0
0:3:4.470,1094.61,61.9425,0,0.000885,0,0
0:3:4.671,1096.01,62.0183,0,0.000885,0,0
0:3:4.872,1096.89,62.0735,0,0.000885,0,0
0:3:5.074,1098.71,62.1769,0,0.000885,0,0
0:3:5.275,1099.94,62.2459,0,0.000885,0,0
0:3:5.470,1101.35,62.3217,0,0.000885,0,0
0:3:5.671,1101.94,62.3562,0,0.000885,0,0
0:3:5.869,1103.29,62.432,0,0.000885,0,0
0:3:6.076,1104.17,62.4803,0,0.000885,0,0
0:3:6.276,1106.05,62.5906,0,0.000885,0,0
0:3:6.472,1106.99,62.6458,0,0.000885,0,0
0:3:6.674,1108.46,62.7285,0,0.000885,0,0
0:3:6.872,1109.22,62.7699,0,0.000885,0,0
0:3:7.069,1110.92,62.8664,0,0.000885,0,0
0:3:7.270,1111.92,62.9216,0,0.000885,0,0
0:3:7.465,1113.74,63.025,0,0.000885,0,0
0:3:7.664,1114.62,63.0732,0,0.000885,0,0
0:3:7.863,1115.27,63.1077,0,0.000885,0,0
0:3:8.058,1116.67,63.1905,0,0.000885,0,0
0:3:8.260,1117.32,63.2249,0,0.000885,0,0
0:3:8.458,1119.31,63.3421,0,0.000885,0,0
0:3:8.665,1120.2,63.3904,0,0.000885,0,0
0:3:8.869,1121.78,63.48,0,0.000885,0,0
0:3:9.071,1122.49,63.5214,0,0.000885,0,0
0:3:9.274,1124.42,63.6317,0,0.000885,0,0
0:3:9.475,1125.13,63.6662,0,0.000885,0,0
0:3:9.677,1126.65,63.7558,0,0.000885,0,0
0:3:9.878,1127.47,63.8041,0,0.000885,0,0
0:3:10.079,1129.41,63.9144,0,0.000885,0,0
0:3:10.281,1130.24,63.9558,0,0.000885,0,0
0:3:10.480,1131.76,64.0454,0,0.000885,0,0
0:3:10.675,1132.64,64.0937,0,0.000885,0,0
0:3:10.878,1134.11,64.1764,0,0.000885,0,0
0:3:11.072,1134.87,64.2178,0,0.000885,0,0
0:3:11.272,1136.57,64.3143,0,0.000885,0,0
0:3:11.472,1137.81,64.3832,0,0.000885,0,0
0:3:11.668,1139.45,64.4798,0,0.000885,0,0
0:3:11.870,1140.15,64.5211,0,0.000885,0,0
0:3:12.064,1141.92,64.6177,0,0.000885,0,0
0:3:12.264,1142.85,64.6728,0,0.000885,0,0
0:3:12.463,1143.5,64.7073,0,0.000885,0,0
0:3:12.658,1145.03,64.7969,0,0.000885,0,0
0:3:12.860,1145.85,64.8383,0,0.000885,0,0
0:3:13.070,1147.78,64.9486,0,0.000885,0,0
0:3:13.266,1148.43,64.99,0,0.000885,0,0
0:3:13.469,1150.43,65.1003,0,0.000885,0,0
0:3:13.673,1150.96,65.1279,0,0.000885,0,0
0:3:13.876,1152.37,65.2106,0,0.000885,0,0
0:3:14.077,1153.42,65.2727,0,0.000885,0,0
0:3:14.278,1154.65,65.3416,0,0.000885,0,0
0:3:14.478,1155.18,65.3692,0,0.000885,0,0
0:3:14.680,1157.35,65.4933,0,0.000885,0,0
0:3:14.882,1158.06,65.5347,0,0.000885,0,0
0:3:15.080,1159.76,65.6312,0,0.000885,0,0
0:3:15.277,1160.52,65.6726,0,0.000885,0,0
0:3:15.478,1162.16,65.7622,0,0.000885,0,0
0:3:15.672,1162.58,65.7898,0,0.000885,0,0
0:3:15.874,1164.69,65.907,0,0.000885,0,0
0:3:16.073,1165.45,65.9484,0,0.000885,0,0
0:3:16.269,1167.45,66.0656,0,0.000885,0,0
0:3:16.470,1168.27,66.1138,0,0.000885,0,0
0:3:16.664,1169.74,66.1966,0,0.000885,0,0
0:3:16.863,1170.85,66.2586,0,0.000885,0,0
0:3:17.063,1172.73,66.362,0,0.000885,0,0
0:3:17.260,1173.55,66.4103,0,0.000885,0,0
0:3:17.461,1174.37,66.4586,0,0.000885,0,0
0:3:17.669,1175.73,66.5344,0,0.000885,0,0
0:3:17.865,1176.55,66.5758,0,0.000885,0,0
0:3:18.065,1178.43,66.6861,0,0.000885,0,0
0:3:18.262,1179.6,66.755,0,0.000885,0,0
0:3:18.464,1180.71,66.8171,0,0.000885,0,0
0:3:18.664,1181.83,66.8791,0,0.000885,0,0
0:3:18.870,1183.53,66.9757,0,0.000885,0,0
0:3:19.072,1184.35,67.0239,0,0.000885,0,0
0:3:19.273,1185.65,67.0929,0,0.000885,0,0
0:3:19.475,1186.41,67.1343,0,0.000885,0,0
0:3:19.675,1187.52,67.2032,0,0.000885,0,0
0:3:19.877,1188.52,67.2584,0,0.000885,0,0
0:3:20.077,1190.58,67.3756,0,0.000885,0,0
0:3:20.273,1191.34,67.4169,0,0.000885,0,0
0:3:20.475,1193.22,67.5204,0,0.000885,0,0
0:3:20.672,1193.92,67.5617,0,0.000885,0,0
0:3:20.871,1195.92,67.672,0,0.000885,0,0
0:3:21.072,1196.8,67.7272,0,0.000885,0,0
0:3:21.264,1198.38,67.8168,0,0.000885,0,0
0:3:21.465,1199.15,67.8582,0,0.000885,0,0
0:3:21.665,1201.02,67.9616,0,0.000885,0,0
0:3:21.872,1201.79,68.0099,0,0.000885,0,0
0:3:22.074,1203.61,68.1133,0,0.000885,0,0
0:3:22.270,1204.31,68.1478,0,0.000885,0,0
0:3:22.466,1205.19,68.2029,0,0.000885,0,0
0:3:22.667,1206.72,68.2857,0,0.000885,0,0
0:3:22.864,1207.31,68.3201,0,0.000885,0,0
0:3:23.064,1209.07,68.4167,0,0.000885,0,0
0:3:23.261,1209.65,68.4512,0,0.000885,0,0
0:3:23.460,1211.18,68.5408,0,0.000885,0,0
0:3:23.661,1212,68.5822,0,0.000885,0,0
0:3:23.865,1213.41,68.6649,0,0.000885,0,0
0:3:24.066,1213.94,68.6925,0,0.000885,0,0
0:3:24.271,1214.82,68.7476,0,0.000885,0,0
0:3:24.472,1215.76,68.7959,0,0.000885,0,0
0:3:24.674,1216.99,68.8648,0,0.000885,0,0
0:3:24.874,1217.81,68.9131,0,0.000885,0,0
0:3:25.076,1219.28,68.9958,0,0.000885,0,0
0:3:25.273,1219.92,69.0303,0,0.000885,0,0
0:3:25.472,1220.93,69.0924,0,0.000885,0,0
0:3:25.673,1221.69,69.1337,0,0.000885,0,0
0:3:25.867,1222.74,69.1958,0,0.000885,0,0
0:3:26.070,1223.39,69.2303,0,0.000885,0,0
0:3:26.264,1224.68,69.3061,0,0.000885,0,0
0:3:26.462,1225.38,69.3406,0,0.000885,0,0
0:3:26.663,1225.85,69.3682,0,0.000885,0,0
0:3:26.860,1227.62,69.4716,0,0.000885,0,0
0:3:27.060,1227.91,69.4854,0,0.000885,0,0
0:3:27.259,1228.96,69.5474,0,0.000885,0,0
0:3:27.466,1229.84,69.5957,0,0.000885,0,0
0:3:27.665,1231.02,69.6646,0,0.000885,0,0
0:3:27.873,1231.66,69.6991,0,0.000885,0,0
0:3:28.074,1232.61,69.7543,0,0.000885,0,0
0:3:28.271,1232.84,69.7612,0,0.000885,0,0
0:3:28.479,1234.13,69.837,0,0.000885,0,0
0:3:28.681,1234.66,69.8646,0,0.000885,0,0
0:3:28.883,1235.77,69.9335,0,0.000885,0,0
0:3:29.086,1236.25,69.9542,0,0.000885,0,0
0:3:29.288,1237.59,70.0369,0,0.000885,0,0
0:3:29.488,1238.06,70.0576,0,0.000885,0,0
0:3:29.690,1239.18,70.1266,0,0.000885,0,0
0:3:29.891,1239.59,70.1473,0,0.000885,0,0
0:3:30.094,1240.71,70.2093,0,0.000885,0,0
0:3:30.292,1241.23,70.2369,0,0.000885,0,0
0:3:30.490,1242.47,70.3058,0,0.000885,0,0
0:3:30.690,1242.47,70.3058,0,0.000885,0,0
0:3:30.886,1243.11,70.3472,0,0.000885,0,0
0:3:31.087,1243.76,70.3817,0,0.000885,0,0
0:3:31.285,1244.87,70.4437,0,0.000885,0,0
0:3:31.482,1245.23,70.4644,0,0.000885,0,0
0:3:31.684,1246.46,70.5334,0,0.000885,0,0
0:3:31.879,1246.75,70.5541,0,0.000885,0,0
0:3:32.080,1247.4,70.5885,0,0.000885,0,0
0:3:32.279,1248.1,70.6299,0,0.000885,0,0
0:3:32.475,1248.81,70.6713,0,0.000885,0,0
0:3:32.677,1249.92,70.7333,0,0.000885,0,0
0:3:32.873,1250.68,70.7747,0,0.000885,0,0
0:3:33.073,1251.8,70.8367,0,0.000885,0,0
0:3:33.274,1252.04,70.8505,0,0.000885,0,0
0:3:33.467,1253.27,70.9195,0,0.000885,0,0
0:3:33.668,1253.91,70.9539,0,0.000885,0,0
0:3:33.870,1254.91,71.016,0,0.000885,0,0
0:3:34.074,1255.56,71.0505,0,0.000885,0,0
0:3:34.277,1256.67,71.1125,0,0.000885,0,0
0:3:34.478,1257.26,71.147,0,0.000885,0,0
0:3:34.679,1258.14,71.1953,0,0.000885,0,0
0:3:34.879,1258.43,71.2159,0,0.000885,0,0
0:3:35.081,1259.49,71.2711,0,0.000885,0,0
0:3:35.281,1260.25,71.3125,0,0.000885,0,0
0:3:35.478,1261.13,71.3676,0,0.000885,0,0
0:3:35.678,1261.43,71.3814,0,0.000885,0,0
0:3:35.875,1262.31,71.4297,0,0.000885,0,0
0:3:36.073,1262.77,71.4573,0,0.000885,0,0
0:3:36.275,1263.13,71.4779,0,0.000885,0,0
0:3:36.471,1263.48,71.4986,0,0.000885,0,0
0:3:36.671,1263.72,71.5124,0,0.000885,0,0
0:3:36.871,1264.83,71.5745,0,0.000885,0,0
0:3:37.063,1265.18,71.5952,0,0.000885,0,0
0:3:37.265,1265.89,71.6365,0,0.000885,0,0
0:3:37.474,1265.89,71.6365,0,0.000885,0,0
0:3:37.682,1266.12,71.6503,0,0.000885,0,0
0:3:37.881,1266.53,71.671,0,0.000885,0,0
0:3:38.077,1267.41,71.7193,0,0.000885,0,0
0:3:38.278,1267.77,71.7399,0,0.000885,0,0
0:3:38.475,1268.82,71.802,0,0.000885,0,0
0:3:38.672,1269.18,71.8227,0,0.000885,0,0
0:3:38.873,1270.11,71.8709,0,0.000885,0,0
0:3:39.076,1270.47,71.8916,0,0.000885,0,0
0:3:39.279,1271.58,71.9537,0,0.000885,0,0
0:3:39.481,1272.17,71.9882,0,0.000885,0,0
0:3:39.683,1272.11,71.9882,0,0.000885,0,0
0:3:39.882,1272.05,71.9813,0,0.000885,0,0
0:3:40.084,1272.7,72.0226,0,0.000885,0,0
0:3:40.285,1273.17,72.0433,0,0.000885,0,0
0:3:40.485,1274.22,72.1054,0,0.000885,0,0
0:3:40.680,1274.81,72.1398,0,0.000885,0,0
0:3:40.883,1275.81,72.195,0,0.000885,0,0
0:3:41.079,1276.16,72.2157,0,0.000885,0,0
0:3:41.277,1277.22,72.2777,0,0.000885,0,0
0:3:41.478,1277.57,72.2984,0,0.000885,0,0
0:3:41.673,1278.39,72.3398,0,0.000885,0,0
0:3:41.875,1279.33,72.395,0,0.000885,0,0
0:3:42.073,1279.86,72.4225,0,0.000885,0,0
0:3:42.268,1280.91,72.4846,0,0.000885,0,0
0:3:42.471,1281.44,72.5122,0,0.000885,0,0
0:3:42.665,1282.44,72.5742,0,0.000885,0,0
0:3:42.865,1283.26,72.6156,0,0.000885,0,0
0:3:43.064,1284.2,72.6707,0,0.000885,0,0
0:3:43.259,1284.61,72.6914,0,0.000885,0,0
0:3:43.461,1285.49,72.7466,0,0.000885,0,0
0:3:43.663,1285.79,72.7604,0,0.000885,0,0
0:3:43.865,1286.9,72.8224,0,0.000885,0,0
0:3:44.068,1287.55,72.8569,0,0.000885,0,0
0:3:44.272,1288.49,72.9121,0,0.000885,0,0
0:3:44.472,1288.9,72.9396,0,0.000885,0,0
0:3:44.673,1289.72,72.981,0,0.000885,0,0
0:3:44.874,1290.01,73.0017,0,0.000885,0,0
0:3:45.077,1291.48,73.0844,0,0.000885,0,0
0:3:45.269,1291.95,73.112,0,0.000885,0,0
0:3:45.472,1292.24,73.1258,0,0.000885,0,0
0:3:45.667,1292.77,73.1534,0,0.000885,0,0
0:3:45.866,1294.01,73.2223,0,0.000885,0,0
0:3:46.067,1294.18,73.2361,0,0.000885,0,0
0:3:46.262,1294.59,73.2568,0,0.000885,0,0
0:3:46.462,1295.53,73.312,0,0.000885,0,0
0:3:46.661,1295.94,73.3326,0,0.000885,0,0
0:3:46.868,1297.17,73.4085,0,0.000885,0,0
0:3:47.072,1297.88,73.443,0,0.000885,0,0
0:3:47.277,1298.52,73.4843,0,0.000885,0,0
0:3:47.475,1299.29,73.5257,0,0.000885,0,0
0:3:47.676,1299.99,73.5671,0,0.000885,0,0
0:3:47.869,1300.46,73.5877,0,0.000885,0,0
0:3:48.074,1301.17,73.6291,0,0.000885,0,0
0:3:48.269,1301.58,73.6567,0,0.000885,0,0
0:3:48.466,1302.4,73.6981,0,0.000885,0,0
0:3:48.666,1302.4,73.6981,0,0.000885,0,0
0:3:48.872,1303.28,73.7532,0,0.000885,0,0
0:3:49.073,1303.8,73.7808,0,0.000885,0,0
0:3:49.276,1304.63,73.8291,0,0.000885,0,0
0:3:49.477,1305.16,73.8566,0,0.000885,0,0
0:3:49.676,1306.04,73.9049,0,0.000885,0,0
0:3:49.878,1306.45,73.9325,0,0.000885,0,0
0:3:50.080,1307.27,73.9739,0,0.000885,0,0
0:3:50.279,1307.92,74.0152,0,0.000885,0,0
0:3:50.475,1308.56,74.0497,0,0.000885,0,0
0:3:50.676,1309.21,74.0842,0,0.000885,0,0
0:3:50.870,1309.68,74.1117,0,0.000885,0,0
0:3:51.068,1310.44,74.1531,0,0.000885,0,0
0:3:51.269,1311.03,74.1876,0,0.000885,0,0
0:3:51.475,1311.97,74.2427,0,0.000885,0,0
0:3:51.677,1312.43,74.2703,0,0.000885,0,0
0:3:51.874,1313.32,74.3186,0,0.000885,0,0
0:3:52.072,1313.84,74.3462,0,0.000885,0,0
0:3:52.274,1314.84,74.4082,0,0.000885,0,0
0:3:52.479,1315.2,74.422,0,0.000885,0,0
0:3:52.679,1316.25,74.4841,0,0.000885,0,0
0:3:52.877,1316.6,74.5047,0,0.000885,0,0
0:3:53.073,1317.6,74.5599,0,0.000885,0,0
0:3:53.275,1317.66,74.5668,0,0.000885,0,0
0:3:53.481,1318.48,74.6082,0,0.000885,0,0
0:3:53.680,1318.89,74.6357,0,0.000885,0,0
0:3:53.881,1319.01,74.6426,0,0.000885,0,0
0:3:54.084,1319.42,74.6633,0,0.000885,0,0
0:3:54.286,1320.3,74.7116,0,0.000885,0,0
0:3:54.488,1320.48,74.7254,0,0.000885,0,0
0:3:54.690,1321.42,74.7736,0,0.000885,0,0
0:3:54.890,1321.83,74.8012,0,0.000885,0,0
0:3:55.092,1322.24,74.8219,0,0.000885,0,0
0:3:55.294,1322.71,74.8495,0,0.000885,0,0
0:3:55.492,1323.18,74.8771,0,0.000885,0,0
0:3:55.689,1323.35,74.884,0,0.000885,0,0
0:3:55.890,1324.47,74.9529,0,0.000885,0,0
0:3:56.085,1324.47,74.9529,0,0.000885,0,0
0:3:56.284,1324.88,74.9736,0,0.000885,0,0
0:3:56.483,1324.59,74.9529,0,0.000885,0,0
0:3:56.679,1324.12,74.9322,0,0.000885,0,0
0:3:56.880,1322,74.8081,0,0.000885,0,0
0:3:57.075,1317.37,74.5461,0,0.000885,0,0
0:3:57.275,1172.03,66.3207,0,0.000885,0,0
0:3:57.475,1035.14,58.5779,0,0.000885,0,0
0:3:57.628,971.572,54.9788,0,0.000885,0,0