File: DataFile2021-07-15_050657.csv
Test ID:,Date Tested:,Time:,Test Type:,Diameter Avg. (mm):,Cyl. Corr. Factor:,Height (mm):,Age (days):,Weight (kN):,Break Type:,Ramp Rate (MPa/s):,Load at Break (kN):,Stress at Break (MPa):
12,7/15/2021,05:06,Cylinder,150,1,300,0,3.6,3,0.25,1672.98,94.67
Sample Time,Load (kN),Stress (MPa),Long. Strain,Trans. Strain,Chan1 Deflection (mm),Chan2 Deflection (mm)
0:0:8.016,5.15994,0.28958,0,0.000885,0,0
0:0:8.414,7.09491,0.399896,0,0.000885,0,0
0:0:8.812,9.03434,0.510212,0,0.000885,0,0
0:0:9.208,11.7878,0.668791,0,0.000885,0,0
0:0:9.605,12.6685,0.717055,0,0.000885,0,0
0:0:10.004,13.6071,0.772213,0,0.000885,0,0
0:0:10.403,14.8393,0.84116,0,0.000885,0,0
0:0:10.797,16.9522,0.958371,0,0.000885,0,0
0:0:11.196,18.4735,1.048,0,0.000885,0,0
0:0:11.595,20.4707,1.15832,0,0.000885,0,0
0:0:11.994,22.2278,1.25485,0,0.000885,0,0
0:0:12.391,23.2242,1.3169,0,0.000885,0,0
0:0:12.785,24.7499,1.39964,0,0.000885,0,0
0:0:13.186,26.8628,1.51685,0,0.000885,0,0
0:0:13.587,29.0335,1.64095,0,0.000885,0,0
0:0:13.994,31.142,1.76506,0,0.000885,0,0
0:0:14.397,33.2549,1.88227,0,0.000885,0,0
0:0:14.801,35.4835,2.00637,0,0.000885,0,0
0:0:15.202,37.3028,2.1098,0,0.000885,0,0
0:0:15.602,39.5892,2.2408,0,0.000885,0,0
0:0:15.999,41.4085,2.34422,0,0.000885,0,0
0:0:16.395,43.3435,2.45453,0,0.000885,0,0
0:0:16.795,44.8069,2.53727,0,0.000885,0,0
0:0:17.195,46.1014,2.60622,0,0.000885,0,0
0:0:17.593,47.8584,2.70964,0,0.000885,0,0
0:0:17.989,49.442,2.79927,0,0.000885,0,0
0:0:18.395,51.5549,2.91648,0,0.000885,0,0
0:0:18.801,53.0184,2.99922,0,0.000885,0,0
0:0:19.204,54.6642,3.09575,0,0.000885,0,0
0:0:19.608,56.7148,3.20606,0,0.000885,0,0
0:0:20.005,57.6534,3.26122,0,0.000885,0,0
0:0:20.401,58.1827,3.29569,0,0.000885,0,0
0:0:20.802,61.5812,3.48185,0,0.000885,0,0
0:0:21.201,64.1656,3.63354,0,0.000885,0,0
0:0:21.596,66.5098,3.76454,0,0.000885,0,0
0:0:21.993,69.032,3.90933,0,0.000885,0,0
0:0:22.392,70.8513,4.00585,0,0.000885,0,0
0:0:22.792,72.2569,4.08859,0,0.000885,0,0
0:0:23.189,73.8983,4.18512,0,0.000885,0,0
0:0:23.595,75.4819,4.27475,0,0.000885,0,0
0:0:23.999,76.069,4.30233,0,0.000885,0,0
0:0:24.403,77.2434,4.37128,0,0.000885,0,0
0:0:24.805,79.1205,4.4747,0,0.000885,0,0
0:0:25.205,80.2326,4.54365,0,0.000885,0,0
0:0:25.600,82.4033,4.66086,0,0.000885,0,0
0:0:26.000,84.3961,4.77807,0,0.000885,0,0
0:0:26.400,86.042,4.8677,0,0.000885,0,0
0:0:26.797,88.444,5.00559,0,0.000885,0,0
0:0:27.194,90.1477,5.10212,0,0.000885,0,0
0:0:27.592,92.1405,5.21244,0,0.000885,0,0
0:0:27.993,93.9598,5.31586,0,0.000885,0,0
0:0:28.390,95.4811,5.40549,0,0.000885,0,0
0:0:28.797,97.4205,5.51581,0,0.000885,0,0
0:0:29.202,99.1197,5.61233,0,0.000885,0,0
0:0:29.605,100.645,5.69507,0,0.000885,0,0
0:0:30.009,103.168,5.83986,0,0.000885,0,0
0:0:30.406,104.631,5.9226,0,0.000885,0,0
0:0:30.803,106.157,6.00533,0,0.000885,0,0
0:0:31.202,107.331,6.07428,0,0.000885,0,0
0:0:31.603,109.266,6.1846,0,0.000885,0,0
0:0:32.000,110.965,6.28112,0,0.000885,0,0
0:0:32.396,113.194,6.40523,0,0.000885,0,0
0:0:32.793,114.546,6.48107,0,0.000885,0,0
0:0:33.193,116.13,6.5707,0,0.000885,0,0
0:0:33.593,118.474,6.7017,0,0.000885,0,0
0:0:33.998,119.822,6.77755,0,0.000885,0,0
0:0:34.403,121.819,6.89476,0,0.000885,0,0
0:0:34.806,123.518,6.99128,0,0.000885,0,0
0:0:35.210,125.689,7.11539,0,0.000885,0,0
0:0:35.608,127.215,7.19813,0,0.000885,0,0
0:0:36.005,128.798,7.28776,0,0.000885,0,0
0:0:36.401,129.91,7.34981,0,0.000885,0,0
0:0:36.803,132.259,7.48081,0,0.000885,0,0
0:0:37.201,134.194,7.59113,0,0.000885,0,0
0:0:37.597,136.187,7.70834,0,0.000885,0,0
0:0:37.993,138.357,7.83244,0,0.000885,0,0
0:0:38.397,139.763,7.90829,0,0.000885,0,0
0:0:38.805,141.467,8.00481,0,0.000885,0,0
0:0:39.208,143.633,8.12892,0,0.000885,0,0
0:0:39.612,145.217,8.21855,0,0.000885,0,0
0:0:40.011,146.92,8.31508,0,0.000885,0,0
0:0:40.410,148.74,8.4185,0,0.000885,0,0
0:0:40.811,150.555,8.52192,0,0.000885,0,0
0:0:41.208,151.2,8.55639,0,0.000885,0,0
0:0:41.603,153.019,8.65982,0,0.000885,0,0
0:0:42.004,155.483,8.79771,0,0.000885,0,0
0:0:42.404,157.182,8.89424,0,0.000885,0,0
0:0:42.799,159.002,8.99766,0,0.000885,0,0
0:0:43.196,160.821,9.10108,0,0.000885,0,0
0:0:43.601,162.578,9.19761,0,0.000885,0,0
0:0:44.007,164.34,9.30103,0,0.000885,0,0
0:0:44.410,165.865,9.38376,0,0.000885,0,0
0:0:44.813,167.68,9.48719,0,0.000885,0,0
0:0:45.209,169.442,9.59061,0,0.000885,0,0
0:0:45.608,170.967,9.67334,0,0.000885,0,0
0:0:46.008,172.667,9.76987,0,0.000885,0,0
0:0:46.406,175.425,9.92845,0,0.000885,0,0
0:0:46.802,177.359,10.0388,0,0.000885,0,0
0:0:47.200,179.179,10.1422,0,0.000885,0,0
0:0:47.600,180.584,10.218,0,0.000885,0,0
0:0:47.998,182.052,10.3008,0,0.000885,0,0
0:0:48.394,183.987,10.4111,0,0.000885,0,0
0:0:48.798,185.629,10.5076,0,0.000885,0,0
0:0:49.204,187.684,10.6179,0,0.000885,0,0
0:0:49.607,189.032,10.6938,0,0.000885,0,0
0:0:50.012,191.024,10.811,0,0.000885,0,0
0:0:50.409,192.257,10.8799,0,0.000885,0,0
0:0:50.803,194.134,10.9833,0,0.000885,0,0
0:0:51.201,196.011,11.0937,0,0.000885,0,0
0:0:51.596,197.243,11.1626,0,0.000885,0,0
0:0:51.991,199.414,11.2867,0,0.000885,0,0
0:0:52.383,201.113,11.3832,0,0.000885,0,0
0:0:52.779,202.812,11.4798,0,0.000885,0,0
0:0:53.188,204.867,11.5901,0,0.000885,0,0
0:0:53.591,206.393,11.6797,0,0.000885,0,0
0:0:53.993,207.914,11.7625,0,0.000885,0,0
0:0:54.394,209.912,11.8797,0,0.000885,0,0
0:0:54.792,212.198,12.0107,0,0.000885,0,0
0:0:55.189,213.782,12.1003,0,0.000885,0,0
0:0:55.582,215.659,12.2037,0,0.000885,0,0
0:0:55.986,217.416,12.3002,0,0.000885,0,0
0:0:56.381,219.351,12.4106,0,0.000885,0,0
0:0:56.789,220.997,12.5071,0,0.000885,0,0
0:0:57.184,222.518,12.5898,0,0.000885,0,0
0:0:57.585,224.395,12.7001,0,0.000885,0,0
0:0:57.981,225.863,12.7829,0,0.000885,0,0
0:0:58.380,227.74,12.8863,0,0.000885,0,0
0:0:58.785,229.324,12.9759,0,0.000885,0,0
0:0:59.187,231.494,13.1,0,0.000885,0,0
0:0:59.587,233.545,13.2172,0,0.000885,0,0
0:0:59.981,235.071,13.3,0,0.000885,0,0
0:1:0.376,236.245,13.3689,0,0.000885,0,0
0:1:0.782,238.002,13.4655,0,0.000885,0,0
0:1:1.185,239.937,13.5758,0,0.000885,0,0
0:1:1.581,241.583,13.6723,0,0.000885,0,0
0:1:1.977,243.104,13.755,0,0.000885,0,0
0:1:2.382,245.159,13.8723,0,0.000885,0,0
0:1:2.786,246.979,13.9757,0,0.000885,0,0
0:1:3.179,248.562,14.0653,0,0.000885,0,0
0:1:3.580,250.733,14.1894,0,0.000885,0,0
0:1:3.985,252.784,14.3066,0,0.000885,0,0
0:1:4.386,254.483,14.4031,0,0.000885,0,0
0:1:4.786,256.422,14.5135,0,0.000885,0,0
0:1:5.180,258.415,14.6238,0,0.000885,0,0
0:1:5.589,260.056,14.7134,0,0.000885,0,0
0:1:5.985,262.107,14.8306,0,0.000885,0,0
0:1:6.386,263.811,14.9271,0,0.000885,0,0
0:1:6.781,264.923,14.9892,0,0.000885,0,0
0:1:7.189,266.275,15.065,0,0.000885,0,0
0:1:7.586,268.383,15.1892,0,0.000885,0,0
0:1:7.990,270.318,15.2995,0,0.000885,0,0
0:1:8.381,271.729,15.3753,0,0.000885,0,0
0:1:8.782,273.663,15.4856,0,0.000885,0,0
0:1:9.188,275.483,15.589,0,0.000885,0,0
0:1:9.589,277.182,15.6856,0,0.000885,0,0
0:1:9.989,279.117,15.7959,0,0.000885,0,0
0:1:10.382,280.643,15.8786,0,0.000885,0,0
0:1:10.789,282.871,16.0096,0,0.000885,0,0
0:1:11.187,284.455,16.0993,0,0.000885,0,0
0:1:11.590,286.332,16.2027,0,0.000885,0,0
0:1:11.985,288.209,16.3061,0,0.000885,0,0
0:1:12.388,289.908,16.4026,0,0.000885,0,0
0:1:12.786,291.256,16.4785,0,0.000885,0,0
0:1:13.182,292.782,16.5681,0,0.000885,0,0
0:1:13.587,294.717,16.6784,0,0.000885,0,0
0:1:13.989,296.656,16.7887,0,0.000885,0,0
0:1:14.390,298.529,16.8922,0,0.000885,0,0
0:1:14.790,300.7,17.0163,0,0.000885,0,0
0:1:15.184,302.283,17.1059,0,0.000885,0,0
0:1:15.586,304.281,17.2162,0,0.000885,0,0
0:1:15.991,306.158,17.3265,0,0.000885,0,0
0:1:16.389,307.092,17.3748,0,0.000885,0,0
0:1:16.782,308.266,17.4437,0,0.000885,0,0
0:1:17.185,310.553,17.5747,0,0.000885,0,0
0:1:17.590,312.198,17.6644,0,0.000885,0,0
0:1:17.987,314.427,17.7954,0,0.000885,0,0
0:1:18.382,315.833,17.8712,0,0.000885,0,0
0:1:18.787,317.358,17.9608,0,0.000885,0,0
0:1:19.188,319.471,18.0781,0,0.000885,0,0
0:1:19.590,321.17,18.1746,0,0.000885,0,0
0:1:19.990,322.696,18.2642,0,0.000885,0,0
0:1:20.382,324.747,18.3745,0,0.000885,0,0
0:1:20.787,326.388,18.4711,0,0.000885,0,0
0:1:21.179,328.679,18.6021,0,0.000885,0,0
0:1:21.577,330.263,18.6917,0,0.000885,0,0
0:1:21.974,331.904,18.7813,0,0.000885,0,0
0:1:22.379,334.075,18.9054,0,0.000885,0,0
0:1:22.782,335.658,18.9951,0,0.000885,0,0
0:1:23.188,337.415,19.0916,0,0.000885,0,0
0:1:23.587,339.644,19.2226,0,0.000885,0,0
0:1:23.992,341.579,19.3329,0,0.000885,0,0
0:1:24.393,343.047,19.4156,0,0.000885,0,0
0:1:24.794,344.395,19.4915,0,0.000885,0,0
0:1:25.191,346.392,19.6018,0,0.000885,0,0
0:1:25.588,347.798,19.6845,0,0.000885,0,0
0:1:25.992,349.559,19.7811,0,0.000885,0,0
0:1:26.385,350.907,19.8569,0,0.000885,0,0
0:1:26.789,352.606,19.9534,0,0.000885,0,0
0:1:27.188,354.892,20.0844,0,0.000885,0,0
0:1:27.592,356.77,20.1878,0,0.000885,0,0
0:1:27.985,358.531,20.2913,0,0.000885,0,0
0:1:28.386,360.466,20.4016,0,0.000885,0,0
0:1:28.788,361.698,20.4705,0,0.000885,0,0
0:1:29.190,363.455,20.5671,0,0.000885,0,0
0:1:29.591,365.568,20.6843,0,0.000885,0,0
0:1:29.982,367.561,20.8015,0,0.000885,0,0
0:1:30.389,368.562,20.8566,0,0.000885,0,0
0:1:30.786,370.67,20.9739,0,0.000885,0,0
0:1:31.190,372.957,21.1049,0,0.000885,0,0
0:1:31.586,374.776,21.2083,0,0.000885,0,0
0:1:31.988,376.48,21.3048,0,0.000885,0,0
0:1:32.386,378.295,21.4082,0,0.000885,0,0
0:1:32.792,379.527,21.4772,0,0.000885,0,0
0:1:33.185,382.227,21.6289,0,0.000885,0,0
0:1:33.587,383.517,21.7047,0,0.000885,0,0
0:1:33.990,385.567,21.8219,0,0.000885,0,0
0:1:34.391,386.626,21.8771,0,0.000885,0,0
0:1:34.790,388.21,21.9667,0,0.000885,0,0
0:1:35.185,390.145,22.077,0,0.000885,0,0
0:1:35.589,392.315,22.2011,0,0.000885,0,0
0:1:35.987,394.072,22.2976,0,0.000885,0,0
0:1:36.384,395.772,22.3942,0,0.000885,0,0
0:1:36.788,397.711,22.5045,0,0.000885,0,0
0:1:37.190,399.352,22.601,0,0.000885,0,0
0:1:37.586,400.878,22.6838,0,0.000885,0,0
0:1:37.985,402.462,22.7734,0,0.000885,0,0
0:1:38.389,403.983,22.863,0,0.000885,0,0
0:1:38.792,405.86,22.9664,0,0.000885,0,0
0:1:39.194,407.68,23.0699,0,0.000885,0,0
0:1:39.594,409.908,23.194,0,0.000885,0,0
0:1:39.994,411.67,23.2974,0,0.000885,0,0
0:1:40.388,413.547,23.4008,0,0.000885,0,0
0:1:40.792,415.304,23.5042,0,0.000885,0,0
0:1:41.188,417.297,23.6145,0,0.000885,0,0
0:1:41.586,419.116,23.718,0,0.000885,0,0
0:1:41.991,421.051,23.8283,0,0.000885,0,0
0:1:42.393,422.634,23.9179,0,0.000885,0,0
0:1:42.788,424.512,24.0213,0,0.000885,0,0
0:1:43.186,426.215,24.1179,0,0.000885,0,0
0:1:43.592,427.385,24.1868,0,0.000885,0,0
0:1:43.995,429.204,24.2902,0,0.000885,0,0
0:1:44.396,431.082,24.3937,0,0.000885,0,0
0:1:44.797,432.487,24.4764,0,0.000885,0,0
0:1:45.197,434.484,24.5867,0,0.000885,0,0
0:1:45.591,436.184,24.6832,0,0.000885,0,0
0:1:45.994,438.061,24.7867,0,0.000885,0,0
0:1:46.388,439.76,24.8832,0,0.000885,0,0
0:1:46.786,441.401,24.9797,0,0.000885,0,0
0:1:47.192,443.163,25.0762,0,0.000885,0,0
0:1:47.586,445.098,25.1865,0,0.000885,0,0
0:1:47.990,446.859,25.29,0,0.000885,0,0
0:1:48.392,448.852,25.4003,0,0.000885,0,0
0:1:48.794,450.32,25.483,0,0.000885,0,0
0:1:49.195,452.313,25.5933,0,0.000885,0,0
0:1:49.594,454.426,25.7174,0,0.000885,0,0
0:1:49.990,455.889,25.8002,0,0.000885,0,0
0:1:50.386,457.709,25.9036,0,0.000885,0,0
0:1:50.780,459.408,26.0001,0,0.000885,0,0
0:1:51.189,460.991,26.0898,0,0.000885,0,0
0:1:51.594,462.695,26.1863,0,0.000885,0,0
0:1:51.994,464.394,26.2759,0,0.000885,0,0
0:1:52.392,466.036,26.3724,0,0.000885,0,0
0:1:52.790,467.913,26.4759,0,0.000885,0,0
0:1:53.194,470.141,26.6069,0,0.000885,0,0
0:1:53.595,471.489,26.6827,0,0.000885,0,0
0:1:53.999,473.602,26.7999,0,0.000885,0,0
0:1:54.399,475.951,26.9309,0,0.000885,0,0
0:1:54.801,476.827,26.9861,0,0.000885,0,0
0:1:55.195,478.94,27.1033,0,0.000885,0,0
0:1:55.588,480.702,27.1998,0,0.000885,0,0
0:1:55.993,482.049,27.2757,0,0.000885,0,0
0:1:56.390,483.984,27.386,0,0.000885,0,0
0:1:56.787,485.39,27.4687,0,0.000885,0,0
0:1:57.190,487.561,27.5928,0,0.000885,0,0
0:1:57.592,488.851,27.6618,0,0.000885,0,0
0:1:57.990,490.848,27.779,0,0.000885,0,0
0:1:58.389,492.605,27.8755,0,0.000885,0,0
0:1:58.793,494.66,27.9927,0,0.000885,0,0
0:1:59.194,496.475,28.0961,0,0.000885,0,0
0:1:59.593,498.766,28.2271,0,0.000885,0,0
0:1:59.991,500.407,28.3168,0,0.000885,0,0
0:2:0.388,502.106,28.4133,0,0.000885,0,0
0:2:0.792,503.926,28.5167,0,0.000885,0,0
0:2:1.182,505.331,28.5926,0,0.000885,0,0
0:2:1.588,507.444,28.7167,0,0.000885,0,0
0:2:1.987,508.676,28.7856,0,0.000885,0,0
0:2:2.392,510.789,28.9028,0,0.000885,0,0
0:2:2.782,512.662,29.0131,0,0.000885,0,0
0:2:3.190,514.423,29.1097,0,0.000885,0,0
0:2:3.590,515.011,29.1441,0,0.000885,0,0
0:2:3.994,516.888,29.2476,0,0.000885,0,0
0:2:4.395,518.881,29.3648,0,0.000885,0,0
0:2:4.795,520.7,29.4682,0,0.000885,0,0
0:2:5.190,522.341,29.5578,0,0.000885,0,0
0:2:5.588,524.748,29.6957,0,0.000885,0,0
0:2:5.994,526.683,29.806,0,0.000885,0,0
0:2:6.390,528.676,29.9164,0,0.000885,0,0
0:2:6.794,530.081,29.9991,0,0.000885,0,0
0:2:7.187,531.785,30.0956,0,0.000885,0,0
0:2:7.595,533.368,30.1852,0,0.000885,0,0
0:2:7.991,535.361,30.2956,0,0.000885,0,0
0:2:8.393,536.945,30.3852,0,0.000885,0,0
0:2:8.795,538.413,30.4679,0,0.000885,0,0
0:2:9.198,540.348,30.5782,0,0.000885,0,0
0:2:9.599,542.398,30.6955,0,0.000885,0,0
0:2:9.999,544.275,30.7989,0,0.000885,0,0
0:2:10.396,546.331,30.9161,0,0.000885,0,0
0:2:10.789,547.972,31.0057,0,0.000885,0,0
0:2:11.194,549.729,31.1091,0,0.000885,0,0
0:2:11.592,551.375,31.1988,0,0.000885,0,0
0:2:11.988,552.958,31.2884,0,0.000885,0,0
0:2:12.389,555.067,31.4125,0,0.000885,0,0
0:2:12.794,556.886,31.5159,0,0.000885,0,0
0:2:13.190,557.709,31.5573,0,0.000885,0,0
0:2:13.587,559.76,31.6745,0,0.000885,0,0
0:2:13.990,562.046,31.8055,0,0.000885,0,0
0:2:14.393,563.514,31.8883,0,0.000885,0,0
0:2:14.792,565.04,31.9779,0,0.000885,0,0
0:2:15.191,566.33,32.0468,0,0.000885,0,0
0:2:15.585,568.265,32.1571,0,0.000885,0,0
0:2:15.992,570.084,32.2606,0,0.000885,0,0
0:2:16.394,572.486,32.3985,0,0.000885,0,0
0:2:16.790,574.541,32.5157,0,0.000885,0,0
0:2:17.189,576.298,32.6122,0,0.000885,0,0
0:2:17.591,577.708,32.6949,0,0.000885,0,0
0:2:17.995,579.528,32.7915,0,0.000885,0,0
0:2:18.398,581.343,32.8949,0,0.000885,0,0
0:2:18.801,583.104,32.9983,0,0.000885,0,0
0:2:19.201,585.155,33.1155,0,0.000885,0,0
0:2:19.601,586.738,33.2052,0,0.000885,0,0
0:2:19.994,588.735,33.3155,0,0.000885,0,0
0:2:20.391,590.141,33.3982,0,0.000885,0,0
0:2:20.789,592.081,33.5016,0,0.000885,0,0
0:2:21.195,593.78,33.5982,0,0.000885,0,0
0:2:21.592,595.599,33.7016,0,0.000885,0,0
0:2:21.996,597.067,33.7843,0,0.000885,0,0
0:2:22.396,599.3,33.9153,0,0.000885,0,0
0:2:22.794,601.057,34.0118,0,0.000885,0,0
0:2:23.188,602.116,34.0739,0,0.000885,0,0
0:2:23.593,603.762,34.1635,0,0.000885,0,0
0:2:23.997,605.99,34.2945,0,0.000885,0,0
0:2:24.399,607.516,34.3773,0,0.000885,0,0
0:2:24.801,609.749,34.5014,0,0.000885,0,0
0:2:25.197,610.981,34.5772,0,0.000885,0,0
0:2:25.594,612.916,34.6806,0,0.000885,0,0
0:2:25.993,614.735,34.7841,0,0.000885,0,0
0:2:26.391,616.733,34.9013,0,0.000885,0,0
0:2:26.788,618.61,35.0047,0,0.000885,0,0
0:2:27.191,620.078,35.0874,0,0.000885,0,0
0:2:27.590,621.546,35.1702,0,0.000885,0,0
0:2:27.990,623.601,35.2874,0,0.000885,0,0
0:2:28.395,625.362,35.3908,0,0.000885,0,0
0:2:28.801,627.181,35.4942,0,0.000885,0,0
0:2:29.205,629.237,35.6045,0,0.000885,0,0
0:2:29.608,630.82,35.6942,0,0.000885,0,0
0:2:30.010,632.697,35.8045,0,0.000885,0,0
0:2:30.407,634.343,35.8941,0,0.000885,0,0
0:2:30.802,636.22,36.0044,0,0.000885,0,0
0:2:31.200,638.155,36.1147,0,0.000885,0,0
0:2:31.598,639.743,36.2044,0,0.000885,0,0
0:2:31.996,641.62,36.3078,0,0.000885,0,0
0:2:32.390,642.679,36.3698,0,0.000885,0,0
0:2:32.797,644.792,36.4871,0,0.000885,0,0
0:2:33.195,646.549,36.5905,0,0.000885,0,0
0:2:33.594,647.723,36.6525,0,0.000885,0,0
0:2:33.999,649.543,36.756,0,0.000885,0,0
0:2:34.402,651.54,36.8663,0,0.000885,0,0
0:2:34.803,653.066,36.9559,0,0.000885,0,0
0:2:35.207,655.299,37.08,0,0.000885,0,0
0:2:35.603,657.234,37.1903,0,0.000885,0,0
0:2:35.998,659.053,37.2937,0,0.000885,0,0
0:2:36.395,661.108,37.411,0,0.000885,0,0
0:2:36.792,662.812,37.5075,0,0.000885,0,0
0:2:37.199,664.395,37.5971,0,0.000885,0,0
0:2:37.595,666.099,37.6936,0,0.000885,0,0
0:2:37.989,668.154,37.8108,0,0.000885,0,0
0:2:38.393,669.622,37.8936,0,0.000885,0,0
0:2:38.798,671.321,37.9901,0,0.000885,0,0
0:2:39.202,673.203,38.0935,0,0.000885,0,0
0:2:39.603,675.08,38.2039,0,0.000885,0,0
0:2:40.000,676.957,38.3073,0,0.000885,0,0
0:2:40.401,678.719,38.4107,0,0.000885,0,0
0:2:40.798,680.831,38.5279,0,0.000885,0,0
0:2:41.192,682.535,38.6244,0,0.000885,0,0
0:2:41.586,683.647,38.6865,0,0.000885,0,0
0:2:41.996,685.177,38.7761,0,0.000885,0,0
0:2:42.395,686.289,38.8382,0,0.000885,0,0
0:2:42.800,688.874,38.983,0,0.000885,0,0
0:2:43.195,690.693,39.0864,0,0.000885,0,0
0:2:43.599,692.161,39.1691,0,0.000885,0,0
0:2:44.003,694.447,39.3001,0,0.000885,0,0
0:2:44.405,696.151,39.3966,0,0.000885,0,0
0:2:44.809,697.855,39.4932,0,0.000885,0,0
0:2:45.203,699.616,39.5897,0,0.000885,0,0
0:2:45.601,701.436,39.6931,0,0.000885,0,0
0:2:46.000,703.491,39.8103,0,0.000885,0,0
0:2:46.396,704.839,39.8862,0,0.000885,0,0
0:2:46.791,706.778,39.9965,0,0.000885,0,0
0:2:47.186,708.477,40.093,0,0.000885,0,0
0:2:47.585,710.417,40.2033,0,0.000885,0,0
0:2:47.996,712.058,40.293,0,0.000885,0,0
0:2:48.388,713.819,40.3964,0,0.000885,0,0
0:2:48.793,715.875,40.5136,0,0.000885,0,0
0:2:49.198,717.52,40.6032,0,0.000885,0,0
0:2:49.601,719.865,40.7342,0,0.000885,0,0
0:2:50.002,721.159,40.8101,0,0.000885,0,0
0:2:50.399,722.743,40.8997,0,0.000885,0,0
0:2:50.795,724.62,41.0031,0,0.000885,0,0
0:2:51.195,725.621,41.0583,0,0.000885,0,0
0:2:51.592,727.382,41.1617,0,0.000885,0,0
0:2:51.996,729.259,41.2651,0,0.000885,0,0
0:2:52.391,731.546,41.3961,0,0.000885,0,0
0:2:52.799,733.894,41.5271,0,0.000885,0,0
0:2:53.199,734.775,41.5823,0,0.000885,0,0
0:2:53.604,736.479,41.6788,0,0.000885,0,0
0:2:54.007,738.004,41.7615,0,0.000885,0,0
0:2:54.410,739.882,41.8719,0,0.000885,0,0
0:2:54.811,741.643,41.9684,0,0.000885,0,0
0:2:55.210,743.756,42.0856,0,0.000885,0,0
0:2:55.606,746.105,42.2235,0,0.000885,0,0
0:2:56.000,747.043,42.2718,0,0.000885,0,0
0:2:56.399,749.098,42.389,0,0.000885,0,0
0:2:56.798,750.802,42.4855,0,0.000885,0,0
0:2:57.193,752.386,42.5751,0,0.000885,0,0
0:2:57.587,754.734,42.7061,0,0.000885,0,0
0:2:57.996,756.376,42.8027,0,0.000885,0,0
0:2:58.396,758.489,42.9199,0,0.000885,0,0
0:2:58.801,760.134,43.0164,0,0.000885,0,0
0:2:59.206,762.132,43.1267,0,0.000885,0,0
0:2:59.608,763.831,43.2232,0,0.000885,0,0
0:3:0.007,765.477,43.3198,0,0.000885,0,0
0:3:0.406,766.824,43.3956,0,0.000885,0,0
0:3:0.802,768.235,43.4714,0,0.000885,0,0
0:3:1.196,769.938,43.568,0,0.000885,0,0
0:3:1.593,771.464,43.6576,0,0.000885,0,0
0:3:1.993,773.813,43.7886,0,0.000885,0,0
0:3:2.388,775.863,43.9058,0,0.000885,0,0
0:3:2.796,776.744,43.9541,0,0.000885,0,0
0:3:3.189,778.919,44.0782,0,0.000885,0,0
0:3:3.594,780.739,44.1816,0,0.000885,0,0
0:3:3.999,782.909,44.3057,0,0.000885,0,0
0:3:4.401,784.844,44.416,0,0.000885,0,0
0:3:4.802,786.374,44.4988,0,0.000885,0,0
0:3:5.200,787.838,44.5815,0,0.000885,0,0
0:3:5.599,789.306,44.6642,0,0.000885,0,0
0:3:5.998,791.303,44.7814,0,0.000885,0,0
0:3:6.393,793.594,44.9056,0,0.000885,0,0
0:3:6.785,795.765,45.0297,0,0.000885,0,0
0:3:7.185,797.112,45.1055,0,0.000885,0,0
0:3:7.597,798.758,45.202,0,0.000885,0,0
0:3:8.002,801.049,45.333,0,0.000885,0,0
0:3:8.397,802.397,45.4089,0,0.000885,0,0
0:3:8.801,804.043,45.4985,0,0.000885,0,0
0:3:9.207,805.568,45.5881,0,0.000885,0,0
0:3:9.609,807.624,45.7053,0,0.000885,0,0
0:3:10.010,809.265,45.795,0,0.000885,0,0
0:3:10.408,810.617,45.8708,0,0.000885,0,0
0:3:10.805,812.668,45.988,0,0.000885,0,0
0:3:11.205,814.136,46.0708,0,0.000885,0,0
0:3:11.600,816.311,46.1949,0,0.000885,0,0
0:3:11.996,818.188,46.2983,0,0.000885,0,0
0:3:12.393,820.185,46.4155,0,0.000885,0,0
0:3:12.801,820.888,46.45,0,0.000885,0,0
0:3:13.199,822.472,46.5396,0,0.000885,0,0
0:3:13.603,824.585,46.6637,0,0.000885,0,0
0:3:14.008,826.76,46.7878,0,0.000885,0,0
0:3:14.409,828.401,46.8775,0,0.000885,0,0
0:3:14.813,830.398,46.9878,0,0.000885,0,0
0:3:15.209,832.098,47.0843,0,0.000885,0,0
0:3:15.603,833.979,47.1946,0,0.000885,0,0
0:3:16.001,835.972,47.3049,0,0.000885,0,0
0:3:16.401,837.969,47.4221,0,0.000885,0,0
0:3:16.799,839.317,47.498,0,0.000885,0,0
0:3:17.191,841.199,47.6014,0,0.000885,0,0
0:3:17.588,843.192,47.7117,0,0.000885,0,0
0:3:17.988,845.011,47.8151,0,0.000885,0,0
0:3:18.397,846.772,47.9186,0,0.000885,0,0
0:3:18.802,848.298,48.0013,0,0.000885,0,0
0:3:19.205,849.828,48.0909,0,0.000885,0,0
0:3:19.606,850.883,48.153,0,0.000885,0,0
0:3:20.010,852.995,48.2702,0,0.000885,0,0
0:3:20.406,854.641,48.3598,0,0.000885,0,0
0:3:20.802,856.696,48.477,0,0.000885,0,0
0:3:21.198,858.16,48.5598,0,0.000885,0,0
0:3:21.597,860.335,48.6839,0,0.000885,0,0
0:3:21.997,862.799,48.8218,0,0.000885,0,0
0:3:22.402,864.089,48.8976,0,0.000885,0,0
0:3:22.797,865.615,48.9873,0,0.000885,0,0
0:3:23.195,867.67,49.0976,0,0.000885,0,0
0:3:23.595,869.138,49.1803,0,0.000885,0,0
0:3:24.001,871.135,49.2975,0,0.000885,0,0
0:3:24.404,872.834,49.394,0,0.000885,0,0
0:3:24.804,874.89,49.5113,0,0.000885,0,0
0:3:25.206,876.771,49.6147,0,0.000885,0,0
0:3:25.603,878.119,49.6905,0,0.000885,0,0
0:3:25.997,880.232,49.8077,0,0.000885,0,0
0:3:26.391,881.406,49.8767,0,0.000885,0,0
0:3:26.789,883.346,49.987,0,0.000885,0,0
0:3:27.189,885.338,50.0973,0,0.000885,0,0
0:3:27.585,886.571,50.1731,0,0.000885,0,0
0:3:27.980,888.746,50.2904,0,0.000885,0,0
0:3:28.383,890.565,50.3938,0,0.000885,0,0
0:3:28.790,891.855,50.4696,0,0.000885,0,0
0:3:29.192,893.79,50.5799,0,0.000885,0,0
0:3:29.595,896.081,50.7109,0,0.000885,0,0
0:3:29.989,897.785,50.8075,0,0.000885,0,0
0:3:30.400,899.484,50.8971,0,0.000885,0,0
0:3:30.798,901.072,50.9867,0,0.000885,0,0
0:3:31.195,902.655,51.0833,0,0.000885,0,0
0:3:31.589,904.301,51.1729,0,0.000885,0,0
0:3:31.997,906.236,51.2832,0,0.000885,0,0
0:3:32.397,908.233,51.3935,0,0.000885,0,0
0:3:32.805,910.053,51.4969,0,0.000885,0,0
0:3:33.200,911.694,51.5935,0,0.000885,0,0
0:3:33.605,913.104,51.6693,0,0.000885,0,0
0:3:34.009,914.924,51.7727,0,0.000885,0,0
0:3:34.410,916.863,51.883,0,0.000885,0,0
0:3:34.813,918.447,51.9727,0,0.000885,0,0
0:3:35.210,920.382,52.083,0,0.000885,0,0
0:3:35.607,922.557,52.2071,0,0.000885,0,0
0:3:36.006,924.492,52.3174,0,0.000885,0,0
0:3:36.405,926.133,52.4071,0,0.000885,0,0
0:3:36.801,927.895,52.5105,0,0.000885,0,0
0:3:37.196,928.953,52.5656,0,0.000885,0,0
0:3:37.592,931.538,52.7173,0,0.000885,0,0
0:3:37.991,932.77,52.7863,0,0.000885,0,0
0:3:38.398,934.705,52.8966,0,0.000885,0,0
0:3:38.803,936.057,52.9724,0,0.000885,0,0
0:3:39.206,937.934,53.0758,0,0.000885,0,0
0:3:39.609,939.638,53.1724,0,0.000885,0,0
0:3:40.013,941.221,53.262,0,0.000885,0,0
0:3:40.408,942.925,53.3585,0,0.000885,0,0
0:3:40.803,945.038,53.4757,0,0.000885,0,0
0:3:41.202,947.089,53.5929,0,0.000885,0,0
0:3:41.601,948.912,53.6964,0,0.000885,0,0
0:3:41.999,950.612,53.7929,0,0.000885,0,0
0:3:42.393,952.257,53.8894,0,0.000885,0,0
0:3:42.789,954.192,53.9997,0,0.000885,0,0
0:3:43.190,955.954,54.0963,0,0.000885,0,0
0:3:43.598,957.6,54.1859,0,0.000885,0,0
0:3:44.002,959.299,54.2824,0,0.000885,0,0
0:3:44.406,961.412,54.4065,0,0.000885,0,0
0:3:44.807,963.409,54.5168,0,0.000885,0,0
0:3:45.210,964.699,54.5927,0,0.000885,0,0
0:3:45.605,966.518,54.6961,0,0.000885,0,0
0:3:46.000,968.694,54.8133,0,0.000885,0,0
0:3:46.397,970.041,54.8961,0,0.000885,0,0
0:3:46.793,971.687,54.9857,0,0.000885,0,0
0:3:47.203,973.213,55.0753,0,0.000885,0,0
0:3:47.598,975.326,55.1925,0,0.000885,0,0
0:3:47.990,976.794,55.2753,0,0.000885,0,0
0:3:48.393,978.493,55.3718,0,0.000885,0,0
0:3:48.800,980.139,55.4614,0,0.000885,0,0
0:3:49.203,981.843,55.558,0,0.000885,0,0
0:3:49.603,984.423,55.7096,0,0.000885,0,0
0:3:50.000,985.775,55.7855,0,0.000885,0,0
0:3:50.401,987.652,55.8889,0,0.000885,0,0
0:3:50.799,989.178,55.9785,0,0.000885,0,0
0:3:51.203,991.055,56.082,0,0.000885,0,0
0:3:51.599,993.168,56.1992,0,0.000885,0,0
0:3:51.998,994.636,56.2819,0,0.000885,0,0
0:3:52.397,996.869,56.4129,0,0.000885,0,0
0:3:52.803,998.394,56.4956,0,0.000885,0,0
0:3:53.194,999.862,56.5784,0,0.000885,0,0
0:3:53.600,1002.21,56.7163,0,0.000885,0,0
0:3:54.004,1003.44,56.7852,0,0.000885,0,0
0:3:54.407,1005.2,56.8817,0,0.000885,0,0
0:3:54.809,1007.2,56.999,0,0.000885,0,0
0:3:55.206,1008.79,57.0886,0,0.000885,0,0
0:3:55.605,1010.31,57.1713,0,0.000885,0,0
0:3:56.003,1012.07,57.2747,0,0.000885,0,0
0:3:56.400,1014.12,57.3851,0,0.000885,0,0
0:3:56.795,1016.12,57.5023,0,0.000885,0,0
0:3:57.201,1017.82,57.5988,0,0.000885,0,0
0:3:57.600,1019.41,57.6884,0,0.000885,0,0
0:3:58.000,1021.28,57.7919,0,0.000885,0,0
0:3:58.392,1022.64,57.8677,0,0.000885,0,0
0:3:58.798,1024.51,57.978,0,0.000885,0,0
0:3:59.203,1026.69,58.0952,0,0.000885,0,0
0:3:59.606,1028.92,58.2262,0,0.000885,0,0
0:4:0.009,1030.09,58.2883,0,0.000885,0,0
0:4:0.403,1032.15,58.4055,0,0.000885,0,0
0:4:0.799,1033.79,58.502,0,0.000885,0,0
0:4:1.200,1035.79,58.6123,0,0.000885,0,0
0:4:1.594,1037.02,58.6813,0,0.000885,0,0
0:4:1.989,1039.19,58.8054,0,0.000885,0,0
0:4:2.395,1041.3,58.9226,0,0.000885,0,0
0:4:2.793,1042.65,59.0053,0,0.000885,0,0
0:4:3.192,1044.3,59.095,0,0.000885,0,0
0:4:3.596,1045.94,59.1915,0,0.000885,0,0
0:4:4.002,1047.82,59.2949,0,0.000885,0,0
0:4:4.404,1049.64,59.3983,0,0.000885,0,0
0:4:4.805,1051.05,59.4742,0,0.000885,0,0
0:4:5.202,1052.87,59.5776,0,0.000885,0,0
0:4:5.596,1054.51,59.6741,0,0.000885,0,0
0:4:6.002,1056.68,59.7982,0,0.000885,0,0
0:4:6.402,1058.68,59.9085,0,0.000885,0,0
0:4:6.800,1059.97,59.9844,0,0.000885,0,0
0:4:7.193,1061.44,60.0671,0,0.000885,0,0
0:4:7.589,1063.32,60.1705,0,0.000885,0,0
0:4:7.986,1065.43,60.2878,0,0.000885,0,0
0:4:8.396,1066.84,60.3705,0,0.000885,0,0
0:4:8.803,1068.83,60.4808,0,0.000885,0,0
0:4:9.207,1071,60.6049,0,0.000885,0,0
0:4:9.608,1072.65,60.7014,0,0.000885,0,0
0:4:10.009,1074.41,60.798,0,0.000885,0,0
0:4:10.407,1076.29,60.9083,0,0.000885,0,0
0:4:10.803,1077.99,61.0048,0,0.000885,0,0
0:4:11.195,1079.63,61.0944,0,0.000885,0,0
0:4:11.594,1081.92,61.2254,0,0.000885,0,0
0:4:11.993,1082.98,61.2875,0,0.000885,0,0
0:4:12.389,1084.8,61.384,0,0.000885,0,0
0:4:12.785,1086.74,61.4943,0,0.000885,0,0
0:4:13.203,1088.85,61.6184,0,0.000885,0,0
0:4:13.606,1090.26,61.6943,0,0.000885,0,0
0:4:14.010,1092.37,61.8184,0,0.000885,0,0
0:4:14.414,1094.08,61.9149,0,0.000885,0,0
0:4:14.815,1095.19,61.977,0,0.000885,0,0
0:4:15.211,1096.71,62.0597,0,0.000885,0,0
0:4:15.611,1098.42,62.1562,0,0.000885,0,0
0:4:16.009,1100.18,62.2597,0,0.000885,0,0
0:4:16.405,1102.76,62.4044,0,0.000885,0,0
0:4:16.797,1104.17,62.4803,0,0.000885,0,0
0:4:17.200,1106.11,62.5906,0,0.000885,0,0
0:4:17.607,1108.1,62.7078,0,0.000885,0,0
0:4:18.002,1109.1,62.763,0,0.000885,0,0
0:4:18.396,1111.39,62.894,0,0.000885,0,0
0:4:18.801,1113.15,62.9905,0,0.000885,0,0
0:4:19.207,1114.74,63.0801,0,0.000885,0,0
0:4:19.609,1117.5,63.2387,0,0.000885,0,0
0:4:20.011,1118.84,63.3146,0,0.000885,0,0
0:4:20.408,1120.08,63.3835,0,0.000885,0,0
0:4:20.806,1122.6,63.5283,0,0.000885,0,0
0:4:21.205,1124.36,63.6248,0,0.000885,0,0
0:4:21.601,1125.48,63.6869,0,0.000885,0,0
0:4:21.994,1127.65,63.811,0,0.000885,0,0
0:4:22.391,1129.06,63.8937,0,0.000885,0,0
0:4:22.790,1130.76,63.9902,0,0.000885,0,0
0:4:23.186,1131.93,64.0523,0,0.000885,0,0
0:4:23.592,1133.99,64.1695,0,0.000885,0,0
0:4:23.994,1136.04,64.2867,0,0.000885,0,0
0:4:24.396,1137.57,64.3763,0,0.000885,0,0
0:4:24.801,1139.15,64.466,0,0.000885,0,0
0:4:25.195,1141.68,64.6039,0,0.000885,0,0
0:4:25.591,1143.26,64.6935,0,0.000885,0,0
0:4:25.988,1144.44,64.7625,0,0.000885,0,0
0:4:26.396,1146.37,64.8728,0,0.000885,0,0
0:4:26.794,1148.37,64.9831,0,0.000885,0,0
0:4:27.191,1150.37,65.1003,0,0.000885,0,0
0:4:27.587,1152.48,65.2175,0,0.000885,0,0
0:4:27.985,1153.83,65.2934,0,0.000885,0,0
0:4:28.395,1155.18,65.3692,0,0.000885,0,0
0:4:28.802,1156.82,65.4657,0,0.000885,0,0
0:4:29.205,1159.17,65.5967,0,0.000885,0,0
0:4:29.606,1161.17,65.707,0,0.000885,0,0
0:4:30.008,1162.99,65.8105,0,0.000885,0,0
0:4:30.406,1164.46,65.8932,0,0.000885,0,0
0:4:30.801,1166.27,65.9966,0,0.000885,0,0
0:4:31.195,1167.92,66.0931,0,0.000885,0,0
0:4:31.591,1170.03,66.2104,0,0.000885,0,0
0:4:31.991,1171.55,66.2931,0,0.000885,0,0
0:4:32.388,1172.67,66.362,0,0.000885,0,0
0:4:32.783,1174.2,66.4448,0,0.000885,0,0
0:4:33.180,1176.37,66.5689,0,0.000885,0,0
0:4:33.582,1178.54,66.693,0,0.000885,0,0
0:4:33.989,1180.13,66.7826,0,0.000885,0,0
0:4:34.391,1181.77,66.8723,0,0.000885,0,0
0:4:34.793,1183.53,66.9757,0,0.000885,0,0
0:4:35.203,1185.12,67.0653,0,0.000885,0,0
0:4:35.599,1187.4,67.1963,0,0.000885,0,0
0:4:35.997,1189.58,67.3135,0,0.000885,0,0
0:4:36.394,1191.28,67.41,0,0.000885,0,0
0:4:36.790,1192.69,67.4928,0,0.000885,0,0
0:4:37.187,1194.1,67.5686,0,0.000885,0,0
0:4:37.586,1195.86,67.672,0,0.000885,0,0
0:4:37.993,1197.74,67.7755,0,0.000885,0,0
0:4:38.389,1199.97,67.9065,0,0.000885,0,0
0:4:38.795,1201.38,67.9823,0,0.000885,0,0
0:4:39.199,1203.43,68.0995,0,0.000885,0,0
0:4:39.603,1205.25,68.2029,0,0.000885,0,0
0:4:40.007,1206.89,68.2995,0,0.000885,0,0
0:4:40.411,1208.54,68.3891,0,0.000885,0,0
0:4:40.808,1210.47,68.4994,0,0.000885,0,0
0:4:41.204,1212.29,68.6028,0,0.000885,0,0
0:4:41.605,1214.23,68.7132,0,0.000885,0,0
0:4:42.000,1216.05,68.8166,0,0.000885,0,0
0:4:42.394,1217.22,68.8786,0,0.000885,0,0
0:4:42.800,1218.51,68.9545,0,0.000885,0,0
0:4:43.199,1220.81,69.0855,0,0.000885,0,0
0:4:43.609,1222.27,69.1682,0,0.000885,0,0
0:4:44.014,1224.15,69.2716,0,0.000885,0,0
0:4:44.417,1225.97,69.375,0,0.000885,0,0
0:4:44.820,1227.62,69.4716,0,0.000885,0,0
0:4:45.221,1230.02,69.6026,0,0.000885,0,0
0:4:45.621,1231.55,69.6922,0,0.000885,0,0
0:4:46.018,1233.37,69.7956,0,0.000885,0,0
0:4:46.412,1234.84,69.8784,0,0.000885,0,0
0:4:46.810,1236.48,69.968,0,0.000885,0,0
0:4:47.210,1238.18,70.0645,0,0.000885,0,0
0:4:47.607,1240,70.1679,0,0.000885,0,0
0:4:48.001,1242.17,70.2921,0,0.000885,0,0
0:4:48.408,1244.35,70.4162,0,0.000885,0,0
0:4:48.811,1245.46,70.4782,0,0.000885,0,0
0:4:49.217,1247.81,70.6092,0,0.000885,0,0
0:4:49.618,1249.22,70.6919,0,0.000885,0,0
0:4:50.022,1251.27,70.8092,0,0.000885,0,0
0:4:50.420,1252.74,70.8919,0,0.000885,0,0
0:4:50.818,1254.62,70.9953,0,0.000885,0,0
0:4:51.217,1256.85,71.1263,0,0.000885,0,0
0:4:51.612,1258.26,71.2022,0,0.000885,0,0
0:4:52.006,1259.72,71.2849,0,0.000885,0,0
0:4:52.405,1260.72,71.3401,0,0.000885,0,0
0:4:52.803,1263.18,71.4848,0,0.000885,0,0
0:4:53.200,1265.18,71.5952,0,0.000885,0,0
0:4:53.607,1266.47,71.671,0,0.000885,0,0
0:4:54.010,1268.47,71.7813,0,0.000885,0,0
0:4:54.411,1270.52,71.8985,0,0.000885,0,0
0:4:54.813,1271.58,71.9537,0,0.000885,0,0
0:4:55.210,1273.57,72.0709,0,0.000885,0,0
0:4:55.606,1275.69,72.1881,0,0.000885,0,0
0:4:55.999,1277.57,72.2984,0,0.000885,0,0
0:4:56.399,1279.62,72.4087,0,0.000885,0,0
0:4:56.810,1281.15,72.4984,0,0.000885,0,0
0:4:57.204,1282.91,72.5949,0,0.000885,0,0
0:4:57.597,1284.5,72.6845,0,0.000885,0,0
0:4:57.995,1285.61,72.7535,0,0.000885,0,0
0:4:58.396,1287.78,72.8707,0,0.000885,0,0
0:4:58.800,1290.13,73.0086,0,0.000885,0,0
0:4:59.205,1292.07,73.1189,0,0.000885,0,0
0:4:59.607,1293.65,73.2085,0,0.000885,0,0
0:5:0.008,1295.88,73.3326,0,0.000885,0,0
0:5:0.404,1297.58,73.4292,0,0.000885,0,0
0:5:0.811,1298.81,73.4981,0,0.000885,0,0
0:5:1.205,1300.52,73.5946,0,0.000885,0,0
0:5:1.600,1301.69,73.6636,0,0.000885,0,0
0:5:2.001,1304.04,73.7946,0,0.000885,0,0
0:5:2.397,1305.74,73.8911,0,0.000885,0,0
0:5:2.802,1307.39,73.9807,0,0.000885,0,0
0:5:3.197,1309.09,74.0773,0,0.000885,0,0
0:5:3.599,1310.67,74.1669,0,0.000885,0,0
0:5:4.007,1312.38,74.2634,0,0.000885,0,0
0:5:4.410,1313.84,74.3462,0,0.000885,0,0
0:5:4.813,1316.07,74.4772,0,0.000885,0,0
0:5:5.211,1317.78,74.5737,0,0.000885,0,0
0:5:5.609,1320.01,74.6978,0,0.000885,0,0
0:5:6.002,1322.12,74.815,0,0.000885,0,0
0:5:6.398,1323.88,74.9184,0,0.000885,0,0
0:5:6.795,1325.29,74.9943,0,0.000885,0,0
0:5:7.195,1327.22,75.1046,0,0.000885,0,0
0:5:7.591,1328.81,75.1942,0,0.000885,0,0
0:5:7.988,1330.4,75.2839,0,0.000885,0,0
0:5:8.391,1332.69,75.4149,0,0.000885,0,0
0:5:8.796,1334.39,75.5114,0,0.000885,0,0
0:5:9.199,1335.8,75.5872,0,0.000885,0,0
0:5:9.606,1337.79,75.7044,0,0.000885,0,0
0:5:9.997,1338.79,75.7596,0,0.000885,0,0
0:5:10.395,1340.49,75.8561,0,0.000885,0,0
0:5:10.793,1342.72,75.9802,0,0.000885,0,0
0:5:11.192,1344.66,76.0905,0,0.000885,0,0
0:5:11.588,1346.25,76.1802,0,0.000885,0,0
0:5:12.001,1348.06,76.2836,0,0.000885,0,0
0:5:12.401,1349.94,76.3939,0,0.000885,0,0
0:5:12.800,1351.76,76.4973,0,0.000885,0,0
0:5:13.196,1353.29,76.5801,0,0.000885,0,0
0:5:13.600,1355.05,76.6835,0,0.000885,0,0
0:5:14.006,1356.99,76.7869,0,0.000885,0,0
0:5:14.409,1358.75,76.8903,0,0.000885,0,0
0:5:14.812,1360.33,76.98,0,0.000885,0,0
0:5:15.209,1362.5,77.1041,0,0.000885,0,0
0:5:15.602,1364.32,77.2075,0,0.000885,0,0
0:5:15.999,1366.32,77.3178,0,0.000885,0,0
0:5:16.399,1367.9,77.4074,0,0.000885,0,0
0:5:16.796,1369.67,77.504,0,0.000885,0,0
0:5:17.200,1370.84,77.5729,0,0.000885,0,0
0:5:17.599,1373.13,77.7039,0,0.000885,0,0
0:5:17.998,1374.95,77.8073,0,0.000885,0,0
0:5:18.394,1376.42,77.8901,0,0.000885,0,0
0:5:18.799,1378.24,77.9935,0,0.000885,0,0
0:5:19.202,1380.35,78.1107,0,0.000885,0,0
0:5:19.603,1382.23,78.221,0,0.000885,0,0
0:5:20.009,1383.46,78.29,0,0.000885,0,0
0:5:20.402,1384.52,78.3451,0,0.000885,0,0
0:5:20.798,1386.57,78.4623,0,0.000885,0,0
0:5:21.203,1388.45,78.5727,0,0.000885,0,0
0:5:21.602,1391.21,78.7243,0,0.000885,0,0
0:5:22.013,1392.38,78.7933,0,0.000885,0,0
0:5:22.408,1394.32,78.9036,0,0.000885,0,0
0:5:22.802,1395.32,78.9588,0,0.000885,0,0
0:5:23.213,1397.37,79.076,0,0.000885,0,0
0:5:23.612,1399.43,79.1932,0,0.000885,0,0
0:5:24.016,1401.36,79.3035,0,0.000885,0,0
0:5:24.420,1403.07,79.4,0,0.000885,0,0
0:5:24.822,1404.83,79.4966,0,0.000885,0,0
0:5:25.223,1406.65,79.6,0,0.000885,0,0
0:5:25.621,1408.12,79.6827,0,0.000885,0,0
0:5:26.015,1409.35,79.7517,0,0.000885,0,0
0:5:26.412,1411.7,79.8827,0,0.000885,0,0
0:5:26.810,1413.45,79.9861,0,0.000885,0,0
0:5:27.210,1415.04,80.0757,0,0.000885,0,0
0:5:27.616,1417.33,80.2067,0,0.000885,0,0
0:5:28.009,1419.09,80.3032,0,0.000885,0,0
0:5:28.412,1420.74,80.3998,0,0.000885,0,0
0:5:28.817,1422.26,80.4825,0,0.000885,0,0
0:5:29.220,1424.43,80.6066,0,0.000885,0,0
0:5:29.622,1426.72,80.7376,0,0.000885,0,0
0:5:30.018,1428.25,80.8203,0,0.000885,0,0
0:5:30.417,1429.77,80.91,0,0.000885,0,0
0:5:30.816,1430.83,80.9651,0,0.000885,0,0
0:5:31.211,1432.3,81.0548,0,0.000885,0,0
0:5:31.605,1434.35,81.1651,0,0.000885,0,0
0:5:32.003,1436.17,81.2685,0,0.000885,0,0
0:5:32.402,1438.23,81.3857,0,0.000885,0,0
0:5:32.800,1440.17,81.496,0,0.000885,0,0
0:5:33.203,1441.86,81.5926,0,0.000885,0,0
0:5:33.609,1442.92,81.6546,0,0.000885,0,0
0:5:34.013,1445.33,81.7856,0,0.000885,0,0
0:5:34.417,1447.21,81.8959,0,0.000885,0,0
0:5:34.820,1448.97,81.9925,0,0.000885,0,0
0:5:35.216,1450.85,82.1028,0,0.000885,0,0
0:5:35.613,1452.43,82.1924,0,0.000885,0,0
0:5:36.013,1453.78,82.2682,0,0.000885,0,0
0:5:36.409,1455.89,82.3855,0,0.000885,0,0
0:5:36.813,1457.66,82.4889,0,0.000885,0,0
0:5:37.210,1458.95,82.5578,0,0.000885,0,0
0:5:37.609,1461.06,82.6819,0,0.000885,0,0
0:5:38.008,1463.11,82.7922,0,0.000885,0,0
0:5:38.401,1465.35,82.9232,0,0.000885,0,0
0:5:38.805,1467.4,83.0405,0,0.000885,0,0
0:5:39.211,1468.99,83.1301,0,0.000885,0,0
0:5:39.613,1470.86,83.2335,0,0.000885,0,0
0:5:40.015,1472.51,83.33,0,0.000885,0,0
0:5:40.412,1473.21,83.3645,0,0.000885,0,0
0:5:40.806,1474.79,83.4541,0,0.000885,0,0
0:5:41.206,1476.85,83.5714,0,0.000885,0,0
0:5:41.604,1478.32,83.6541,0,0.000885,0,0
0:5:42.012,1480.61,83.7851,0,0.000885,0,0
0:5:42.405,1482.32,83.8816,0,0.000885,0,0
0:5:42.802,1484.08,83.985,0,0.000885,0,0
0:5:43.204,1488.33,84.2195,0,0.000885,0,0
0:5:43.612,1489.86,84.3091,0,0.000885,0,0
0:5:44.014,1490.33,84.3367,0,0.000885,0,0
0:5:44.416,1491.68,84.4125,0,0.000885,0,0
0:5:44.816,1492.8,84.4746,0,0.000885,0,0
0:5:45.216,1494.8,84.5918,0,0.000885,0,0
0:5:45.612,1496.15,84.6676,0,0.000885,0,0
0:5:46.015,1497.81,84.7573,0,0.000885,0,0
0:5:46.412,1499.75,84.8676,0,0.000885,0,0
0:5:46.812,1501.87,84.9917,0,0.000885,0,0
0:5:47.209,1503.75,85.0951,0,0.000885,0,0
0:5:47.603,1505.52,85.1916,0,0.000885,0,0
0:5:48.010,1507.58,85.3088,0,0.000885,0,0
0:5:48.411,1509.52,85.4191,0,0.000885,0,0
0:5:48.817,1511.11,85.5088,0,0.000885,0,0
0:5:49.220,1513.17,85.626,0,0.000885,0,0
0:5:49.622,1514.88,85.7225,0,0.000885,0,0
0:5:50.020,1515.59,85.7639,0,0.000885,0,0
0:5:50.419,1517.47,85.8742,0,0.000885,0,0
0:5:50.817,1519.53,85.9845,0,0.000885,0,0
0:5:51.211,1521.12,86.081,0,0.000885,0,0
0:5:51.606,1523.12,86.1914,0,0.000885,0,0
0:5:52.006,1525.01,86.2948,0,0.000885,0,0
0:5:52.404,1526.78,86.3982,0,0.000885,0,0
0:5:52.800,1528.42,86.4878,0,0.000885,0,0
0:5:53.194,1530.19,86.5913,0,0.000885,0,0
0:5:53.597,1531.37,86.6602,0,0.000885,0,0
0:5:54.003,1533.6,86.7843,0,0.000885,0,0
0:5:54.406,1535.55,86.8946,0,0.000885,0,0
0:5:54.808,1537.31,86.9912,0,0.000885,0,0
0:5:55.204,1539.08,87.0946,0,0.000885,0,0
0:5:55.604,1540.79,87.1911,0,0.000885,0,0
0:5:56.003,1542.73,87.3014,0,0.000885,0,0
0:5:56.397,1545.03,87.4324,0,0.000885,0,0
0:5:56.802,1546.62,87.522,0,0.000885,0,0
0:5:57.201,1548.44,87.6255,0,0.000885,0,0
0:5:57.599,1549.15,87.6668,0,0.000885,0,0
0:5:57.996,1551.09,87.7772,0,0.000885,0,0
0:5:58.392,1552.63,87.8599,0,0.000885,0,0
0:5:58.794,1554.28,87.9564,0,0.000885,0,0
0:5:59.200,1556.1,88.0598,0,0.000885,0,0
0:5:59.603,1557.87,88.1564,0,0.000885,0,0
0:6:0.004,1560.16,88.2874,0,0.000885,0,0
0:6:0.411,1562.05,88.3908,0,0.000885,0,0
0:6:0.808,1563.81,88.4942,0,0.000885,0,0
0:6:1.207,1565.64,88.5976,0,0.000885,0,0
0:6:1.604,1567.11,88.6804,0,0.000885,0,0
0:6:2.006,1569.05,88.7907,0,0.000885,0,0
0:6:2.415,1570.7,88.8803,0,0.000885,0,0
0:6:2.813,1572.17,88.9699,0,0.000885,0,0
0:6:3.213,1573.76,89.0596,0,0.000885,0,0
0:6:3.617,1575.65,89.163,0,0.000885,0,0
0:6:4.021,1577.59,89.2733,0,0.000885,0,0
0:6:4.424,1579.36,89.3767,0,0.000885,0,0
0:6:4.827,1581.53,89.4939,0,0.000885,0,0
0:6:5.224,1583.24,89.5905,0,0.000885,0,0
0:6:5.619,1585.31,89.7077,0,0.000885,0,0
0:6:6.014,1586.78,89.7904,0,0.000885,0,0
0:6:6.414,1588.95,89.9145,0,0.000885,0,0
0:6:6.813,1590.49,90.0042,0,0.000885,0,0
0:6:7.204,1591.96,90.0869,0,0.000885,0,0
0:6:7.601,1593.78,90.1903,0,0.000885,0,0
0:6:7.999,1595.2,90.2731,0,0.000885,0,0
0:6:8.407,1596.67,90.3558,0,0.000885,0,0
0:6:8.815,1598.61,90.4661,0,0.000885,0,0
0:6:9.218,1600.5,90.5695,0,0.000885,0,0
0:6:9.621,1602.56,90.6867,0,0.000885,0,0
0:6:10.022,1604.38,90.7902,0,0.000885,0,0
0:6:10.421,1606.68,90.9212,0,0.000885,0,0
0:6:10.817,1607.97,90.9901,0,0.000885,0,0
0:6:11.209,1609.74,91.0935,0,0.000885,0,0
0:6:11.608,1611.63,91.197,0,0.000885,0,0
0:6:12.020,1613.21,91.2866,0,0.000885,0,0
0:6:12.416,1615.1,91.3969,0,0.000885,0,0
0:6:12.809,1616.57,91.4796,0,0.000885,0,0
0:6:13.205,1618.63,91.5969,0,0.000885,0,0
0:6:13.607,1620.1,91.6796,0,0.000885,0,0
0:6:14.014,1622.11,91.7899,0,0.000885,0,0
0:6:14.418,1623.93,91.8933,0,0.000885,0,0
0:6:14.819,1625.34,91.9761,0,0.000885,0,0
0:6:15.218,1627.05,92.0726,0,0.000885,0,0
0:6:15.617,1628.82,92.1691,0,0.000885,0,0
0:6:16.014,1630.88,92.2863,0,0.000885,0,0
0:6:16.407,1632.47,92.376,0,0.000885,0,0
0:6:16.804,1634.06,92.4656,0,0.000885,0,0
0:6:17.204,1635.65,92.5621,0,0.000885,0,0
0:6:17.601,1637.59,92.6655,0,0.000885,0,0
0:6:17.996,1638.95,92.7483,0,0.000885,0,0
0:6:18.401,1640.71,92.8448,0,0.000885,0,0
0:6:18.805,1642.66,92.9551,0,0.000885,0,0
0:6:19.207,1644.13,93.0379,0,0.000885,0,0
0:6:19.610,1646.01,93.1482,0,0.000885,0,0
0:6:20.005,1647.78,93.2447,0,0.000885,0,0
0:6:20.402,1648.84,93.3068,0,0.000885,0,0
0:6:20.801,1651.37,93.4515,0,0.000885,0,0
0:6:21.198,1653.08,93.5481,0,0.000885,0,0
0:6:21.603,1655.43,93.6791,0,0.000885,0,0
0:6:21.998,1657.43,93.7894,0,0.000885,0,0
0:6:22.399,1659.26,93.8928,0,0.000885,0,0
0:6:22.798,1661.03,93.9962,0,0.000885,0,0
0:6:23.216,1662.79,94.0928,0,0.000885,0,0
0:6:23.619,1664.44,94.1893,0,0.000885,0,0
0:6:24.022,1666.33,94.2927,0,0.000885,0,0
0:6:24.426,1667.68,94.3685,0,0.000885,0,0
0:6:24.827,1669.16,94.4582,0,0.000885,0,0
0:6:25.224,1671.16,94.5685,0,0.000885,0,0
0:6:25.619,1671.33,94.5754,0,0.000885,0,0
0:6:26.019,1672.98,94.6719,0,0.000885,0,0
0:6:26.416,1672.34,94.6374,0,0.000885,0,0
0:6:26.810,1669.04,94.4513,0,0.000885,0,0
0:6:27.214,1669.27,94.4582,0,0.000885,0,0
0:6:27.609,1668.98,94.4444,0,0.000885,0,0
0:6:28.007,1667.8,94.3754,0,0.000885,0,0
0:6:28.403,1624.46,91.9278,0,0.000885,0,0
0:6:28.807,1587.66,89.8456,0,0.000885,0,0
0:6:29.209,1577.77,89.2802,0,0.000885,0,0
0:6:29.611,1406.35,79.5862,0,0.000885,0,0
0:6:29.662,1406.35,79.5862,0,0.000885,0,0