File: DataFile2021-06-30_070245.csv
Test ID:,Date Tested:,Time:,Test Type:,Diameter Avg. (mm):,Cyl. Corr. Factor:,Height (mm):,Age (days):,Weight (kN):,Break Type:,Ramp Rate (MPa/s):,Load at Break (kN):,Stress at Break (MPa):
12,6/30/2021,07:02,Cylinder,100,1,200,0,3.6,3,0.25,1122.95,142.98
Sample Time,Load (kN),Stress (MPa),Long. Strain,Trans. Strain,Chan1 Deflection (mm),Chan2 Deflection (mm)
0:0:4.786,5.7471,0.730844,0,0.000885,0,0
0:0:5.281,6.5122,0.827371,0,0.000885,0,0
0:0:5.779,6.68568,0.848055,0,0.000885,0,0
0:0:6.276,7.86001,0.99974,0,0.000885,0,0
0:0:6.775,8.79858,1.11695,0,0.000885,0,0
0:0:7.272,10.0886,1.28242,0,0.000885,0,0
0:0:7.768,10.2042,1.29621,0,0.000885,0,0
0:0:8.266,11.9657,1.52374,0,0.000885,0,0
0:0:8.762,13.0199,1.65474,0,0.000885,0,0
0:0:9.260,13.7228,1.74437,0,0.000885,0,0
0:0:9.755,14.7192,1.87537,0,0.000885,0,0
0:0:10.253,15.72,1.99948,0,0.000885,0,0
0:0:10.761,16.1871,2.06153,0,0.000885,0,0
0:0:11.266,17.4192,2.22011,0,0.000885,0,0
0:0:11.771,18.945,2.41317,0,0.000885,0,0
0:0:12.270,19.9414,2.53727,0,0.000885,0,0
0:0:12.768,21.4093,2.72343,0,0.000885,0,0
0:0:13.267,22.1699,2.81996,0,0.000885,0,0
0:0:13.762,22.9306,2.91648,0,0.000885,0,0
0:0:14.261,23.9314,3.04748,0,0.000885,0,0
0:0:14.759,24.87,3.16469,0,0.000885,0,0
0:0:15.263,24.9278,3.17159,0,0.000885,0,0
0:0:15.770,26.6271,3.39222,0,0.000885,0,0
0:0:16.274,27.5078,3.50254,0,0.000885,0,0
0:0:16.773,28.6199,3.64733,0,0.000885,0,0
0:0:17.271,29.6163,3.77143,0,0.000885,0,0
0:0:17.768,30.9107,3.93691,0,0.000885,0,0
0:0:18.267,32.0227,4.0748,0,0.000885,0,0
0:0:18.764,32.6677,4.15754,0,0.000885,0,0
0:0:19.261,33.6641,4.28854,0,0.000885,0,0
0:0:19.759,34.8385,4.43333,0,0.000885,0,0
0:0:20.263,35.5991,4.52986,0,0.000885,0,0
0:0:20.771,36.3064,4.61949,0,0.000885,0,0
0:0:21.274,38.0634,4.84701,0,0.000885,0,0
0:0:21.774,38.6506,4.92286,0,0.000885,0,0
0:0:22.272,39.4735,5.02628,0,0.000885,0,0
0:0:22.772,40.292,5.1297,0,0.000885,0,0
0:0:23.268,41.582,5.29517,0,0.000885,0,0
0:0:23.767,42.5206,5.41238,0,0.000885,0,0
0:0:24.266,43.4591,5.53649,0,0.000885,0,0
0:0:24.764,44.282,5.63991,0,0.000885,0,0
0:0:25.263,45.2784,5.76402,0,0.000885,0,0
0:0:25.771,46.4528,5.9157,0,0.000885,0,0
0:0:26.276,47.507,6.0467,0,0.000885,0,0
0:0:26.780,48.7392,6.20528,0,0.000885,0,0
0:0:27.276,48.9126,6.22597,0,0.000885,0,0
0:0:27.774,50.3227,6.40523,0,0.000885,0,0
0:0:28.272,51.2035,6.52244,0,0.000885,0,0
0:0:28.768,51.9063,6.61207,0,0.000885,0,0
0:0:29.268,53.1963,6.77065,0,0.000885,0,0
0:0:29.763,53.9569,6.86718,0,0.000885,0,0
0:0:30.261,55.1313,7.01886,0,0.000885,0,0
0:0:30.769,56.657,7.21192,0,0.000885,0,0
0:0:31.273,57.3598,7.30155,0,0.000885,0,0
0:0:31.778,58.2406,7.41876,0,0.000885,0,0
0:0:32.277,59.4727,7.57044,0,0.000885,0,0
0:0:32.772,60.527,7.70834,0,0.000885,0,0
0:0:33.269,61.0563,7.77039,0,0.000885,0,0
0:0:33.765,61.8748,7.88071,0,0.000885,0,0
0:0:34.263,63.4005,8.07376,0,0.000885,0,0
0:0:34.759,64.2813,8.18408,0,0.000885,0,0
0:0:35.265,65.1042,8.2875,0,0.000885,0,0
0:0:35.770,65.5712,8.34955,0,0.000885,0,0
0:0:36.275,67.3906,8.57708,0,0.000885,0,0
0:0:36.773,67.742,8.62534,0,0.000885,0,0
0:0:37.272,69.032,8.79082,0,0.000885,0,0
0:0:37.769,70.2641,8.94939,0,0.000885,0,0
0:0:38.266,71.4963,9.10108,0,0.000885,0,0
0:0:38.765,71.8477,9.14934,0,0.000885,0,0
0:0:39.261,72.9597,9.28724,0,0.000885,0,0
0:0:39.760,73.667,9.37687,0,0.000885,0,0
0:0:40.261,74.8369,9.52855,0,0.000885,0,0
0:0:40.769,75.6598,9.63198,0,0.000885,0,0
0:0:41.273,76.6562,9.76298,0,0.000885,0,0
0:0:41.775,77.5948,9.88019,0,0.000885,0,0
0:0:42.272,78.5912,10.0043,0,0.000885,0,0
0:0:42.771,80.1747,10.2111,0,0.000885,0,0
0:0:43.268,80.6463,10.2663,0,0.000885,0,0
0:0:43.765,81.4647,10.3697,0,0.000885,0,0
0:0:44.263,82.8748,10.549,0,0.000885,0,0
0:0:44.761,83.8712,10.68,0,0.000885,0,0
0:0:45.259,84.4584,10.7558,0,0.000885,0,0
0:0:45.768,85.864,10.9351,0,0.000885,0,0
0:0:46.273,86.8604,11.0592,0,0.000885,0,0
0:0:46.776,87.4476,11.135,0,0.000885,0,0
0:0:47.274,88.7954,11.3074,0,0.000885,0,0
0:0:47.773,89.8541,11.4384,0,0.000885,0,0
0:0:48.271,91.0862,11.597,0,0.000885,0,0
0:0:48.767,91.7891,11.6866,0,0.000885,0,0
0:0:49.265,92.3139,11.7556,0,0.000885,0,0
0:0:49.763,93.724,11.9348,0,0.000885,0,0
0:0:50.261,94.5425,12.0382,0,0.000885,0,0
0:0:50.767,95.659,12.183,0,0.000885,0,0
0:0:51.273,96.5976,12.3002,0,0.000885,0,0
0:0:51.777,97.0068,12.3485,0,0.000885,0,0
0:0:52.274,98.239,12.5071,0,0.000885,0,0
0:0:52.772,99.529,12.6726,0,0.000885,0,0
0:0:53.270,100.352,12.776,0,0.000885,0,0
0:0:53.767,101.584,12.9346,0,0.000885,0,0
0:0:54.265,102.46,13.0449,0,0.000885,0,0
0:0:54.761,103.225,13.1414,0,0.000885,0,0
0:0:55.269,104.4,13.2931,0,0.000885,0,0
0:0:55.773,105.338,13.4103,0,0.000885,0,0
0:0:56.278,106.272,13.5344,0,0.000885,0,0
0:0:56.776,107.095,13.6378,0,0.000885,0,0
0:0:57.273,108.27,13.7826,0,0.000885,0,0
0:0:57.771,109.088,13.8929,0,0.000885,0,0
0:0:58.268,110.089,14.017,0,0.000885,0,0
0:0:58.766,111.201,14.1618,0,0.000885,0,0
0:0:59.263,112.491,14.3204,0,0.000885,0,0
0:0:59.761,113.136,14.4031,0,0.000885,0,0
0:1:0.264,113.665,14.4721,0,0.000885,0,0
0:1:0.771,114.662,14.5962,0,0.000885,0,0
0:1:1.276,116.067,14.7755,0,0.000885,0,0
0:1:1.778,117.006,14.8996,0,0.000885,0,0
0:1:2.275,117.829,15.003,0,0.000885,0,0
0:1:2.773,119.355,15.196,0,0.000885,0,0
0:1:3.270,119.764,15.2512,0,0.000885,0,0
0:1:3.768,121.054,15.4098,0,0.000885,0,0
0:1:4.268,121.699,15.4925,0,0.000885,0,0
0:1:4.763,122.637,15.6166,0,0.000885,0,0
0:1:5.265,123.87,15.7683,0,0.000885,0,0
0:1:5.773,125.395,15.9683,0,0.000885,0,0
0:1:6.277,126.57,16.113,0,0.000885,0,0
0:1:6.778,126.979,16.1682,0,0.000885,0,0
0:1:7.276,127.975,16.2923,0,0.000885,0,0
0:1:7.773,128.563,16.3682,0,0.000885,0,0
0:1:8.272,129.265,16.4578,0,0.000885,0,0
0:1:8.769,130.555,16.6233,0,0.000885,0,0
0:1:9.266,131.552,16.7474,0,0.000885,0,0
0:1:9.762,133.135,16.9542,0,0.000885,0,0
0:1:10.261,133.9,17.0507,0,0.000885,0,0
0:1:10.768,134.839,17.1679,0,0.000885,0,0
0:1:11.274,135.778,17.2852,0,0.000885,0,0
0:1:11.779,136.302,17.3541,0,0.000885,0,0
0:1:12.276,137.655,17.5265,0,0.000885,0,0
0:1:12.774,138.945,17.6919,0,0.000885,0,0
0:1:13.271,139.705,17.7885,0,0.000885,0,0
0:1:13.772,140.76,17.9195,0,0.000885,0,0
0:1:14.268,141.992,18.0781,0,0.000885,0,0
0:1:14.766,142.637,18.1608,0,0.000885,0,0
0:1:15.262,143.517,18.2711,0,0.000885,0,0
0:1:15.770,144.634,18.4159,0,0.000885,0,0
0:1:16.275,145.746,18.5538,0,0.000885,0,0
0:1:16.778,146.449,18.6434,0,0.000885,0,0
0:1:17.276,147.156,18.7331,0,0.000885,0,0
0:1:17.773,148.095,18.8572,0,0.000885,0,0
0:1:18.273,149.385,19.0226,0,0.000885,0,0
0:1:18.769,150.732,19.195,0,0.000885,0,0
0:1:19.267,151.844,19.3329,0,0.000885,0,0
0:1:19.764,152.316,19.395,0,0.000885,0,0
0:1:20.261,153.606,19.5604,0,0.000885,0,0
0:1:20.768,154.193,19.6294,0,0.000885,0,0
0:1:21.274,155.012,19.7397,0,0.000885,0,0
0:1:21.779,156.012,19.8638,0,0.000885,0,0
0:1:22.277,157.24,20.0224,0,0.000885,0,0
0:1:22.773,158.592,20.1947,0,0.000885,0,0
0:1:23.271,159.411,20.2982,0,0.000885,0,0
0:1:23.767,160.585,20.443,0,0.000885,0,0
0:1:24.265,160.937,20.4912,0,0.000885,0,0
0:1:24.760,161.875,20.6084,0,0.000885,0,0
0:1:25.266,163.281,20.7877,0,0.000885,0,0
0:1:25.771,164.162,20.9049,0,0.000885,0,0
0:1:26.275,164.985,21.0083,0,0.000885,0,0
0:1:26.774,166.51,21.2014,0,0.000885,0,0
0:1:27.271,166.862,21.2427,0,0.000885,0,0
0:1:27.769,168.032,21.3944,0,0.000885,0,0
0:1:28.269,169.264,21.553,0,0.000885,0,0
0:1:28.766,170.202,21.6702,0,0.000885,0,0
0:1:29.264,171.025,21.7736,0,0.000885,0,0
0:1:29.762,171.906,21.8909,0,0.000885,0,0
0:1:30.263,172.902,22.015,0,0.000885,0,0
0:1:30.770,174.135,22.1735,0,0.000885,0,0
0:1:31.275,175.131,22.2976,0,0.000885,0,0
0:1:31.776,175.66,22.3666,0,0.000885,0,0
0:1:32.272,176.772,22.5045,0,0.000885,0,0
0:1:32.770,177.653,22.6217,0,0.000885,0,0
0:1:33.268,178.827,22.7665,0,0.000885,0,0
0:1:33.767,179.882,22.9044,0,0.000885,0,0
0:1:34.264,180.7,23.0078,0,0.000885,0,0
0:1:34.763,181.639,23.125,0,0.000885,0,0
0:1:35.259,182.871,23.2836,0,0.000885,0,0
0:1:35.767,183.809,23.4008,0,0.000885,0,0
0:1:36.271,184.339,23.4698,0,0.000885,0,0
0:1:36.776,186.274,23.718,0,0.000885,0,0
0:1:37.275,186.745,23.78,0,0.000885,0,0
0:1:37.770,187.973,23.9317,0,0.000885,0,0
0:1:38.268,188.502,24.0007,0,0.000885,0,0
0:1:38.764,189.85,24.173,0,0.000885,0,0
0:1:39.262,190.379,24.242,0,0.000885,0,0
0:1:39.758,191.554,24.3868,0,0.000885,0,0
0:1:40.264,192.43,24.504,0,0.000885,0,0
0:1:40.767,193.898,24.6901,0,0.000885,0,0
0:1:41.269,194.485,24.766,0,0.000885,0,0
0:1:41.762,195.366,24.8763,0,0.000885,0,0
0:1:42.257,196.829,25.0624,0,0.000885,0,0
0:1:42.750,197.888,25.1934,0,0.000885,0,0
0:1:43.244,198.884,25.3244,0,0.000885,0,0
0:1:43.736,199.414,25.3865,0,0.000885,0,0
0:1:44.232,200.526,25.5313,0,0.000885,0,0
0:1:44.725,201.229,25.6209,0,0.000885,0,0
0:1:45.224,202.167,25.7381,0,0.000885,0,0
0:1:45.727,203.577,25.9174,0,0.000885,0,0
0:1:46.228,205.099,26.1173,0,0.000885,0,0
0:1:46.726,205.686,26.1863,0,0.000885,0,0
0:1:47.218,206.215,26.2552,0,0.000885,0,0
0:1:47.712,207.914,26.4759,0,0.000885,0,0
0:1:48.205,208.266,26.5172,0,0.000885,0,0
0:1:48.700,208.973,26.6069,0,0.000885,0,0
0:1:49.194,210.085,26.7517,0,0.000885,0,0
0:1:49.697,210.966,26.862,0,0.000885,0,0
0:1:50.200,212.082,26.9999,0,0.000885,0,0
0:1:50.704,213.079,27.1309,0,0.000885,0,0
0:1:51.205,213.955,27.2412,0,0.000885,0,0
0:1:51.706,215.072,27.386,0,0.000885,0,0
0:1:52.200,216.01,27.5032,0,0.000885,0,0
0:1:52.694,217.594,27.7031,0,0.000885,0,0
0:1:53.188,217.594,27.7031,0,0.000885,0,0
0:1:53.681,218.296,27.7928,0,0.000885,0,0
0:1:54.174,219.764,27.9789,0,0.000885,0,0
0:1:54.667,220.467,28.0686,0,0.000885,0,0
0:1:55.172,222.051,28.2754,0,0.000885,0,0
0:1:55.674,223.519,28.4616,0,0.000885,0,0
0:1:56.174,224.279,28.5581,0,0.000885,0,0
0:1:56.669,225.16,28.6684,0,0.000885,0,0
0:1:57.164,225.979,28.7718,0,0.000885,0,0
0:1:57.657,226.686,28.8615,0,0.000885,0,0
0:1:58.152,226.979,28.9028,0,0.000885,0,0
0:1:58.646,228.794,29.1303,0,0.000885,0,0
0:1:59.142,229.791,29.2613,0,0.000885,0,0
0:1:59.634,230.436,29.3372,0,0.000885,0,0
0:2:0.132,231.904,29.5302,0,0.000885,0,0
0:2:0.637,233.194,29.6888,0,0.000885,0,0
0:2:1.136,233.603,29.744,0,0.000885,0,0
0:2:1.635,234.541,29.8612,0,0.000885,0,0
0:2:2.129,235.422,29.9784,0,0.000885,0,0
0:2:2.623,236.125,30.068,0,0.000885,0,0
0:2:3.114,237.357,30.2197,0,0.000885,0,0
0:2:3.621,238.354,30.3507,0,0.000885,0,0
0:2:4.111,239.292,30.4679,0,0.000885,0,0
0:2:4.607,240.293,30.592,0,0.000885,0,0
0:2:5.100,241.814,30.792,0,0.000885,0,0
0:2:5.603,242.521,30.8816,0,0.000885,0,0
0:2:6.105,243.518,31.0057,0,0.000885,0,0
0:2:6.607,244.866,31.1781,0,0.000885,0,0
0:2:7.110,245.395,31.247,0,0.000885,0,0
0:2:7.604,246.743,31.4194,0,0.000885,0,0
0:2:8.096,247.503,31.5159,0,0.000885,0,0
0:2:8.590,247.917,31.5642,0,0.000885,0,0
0:2:9.083,248.856,31.6883,0,0.000885,0,0
0:2:9.576,250.319,31.8745,0,0.000885,0,0
0:2:10.081,251.316,31.9986,0,0.000885,0,0
0:2:10.581,251.961,32.0813,0,0.000885,0,0
0:2:11.082,253.193,32.2399,0,0.000885,0,0
0:2:11.575,253.9,32.3295,0,0.000885,0,0
0:2:12.069,255.07,32.4743,0,0.000885,0,0
0:2:12.562,256.008,32.5984,0,0.000885,0,0
0:2:13.056,256.711,32.688,0,0.000885,0,0
0:2:13.549,258.121,32.8673,0,0.000885,0,0
0:2:14.044,259.233,33.0052,0,0.000885,0,0
0:2:14.537,259.999,33.1017,0,0.000885,0,0
0:2:15.033,261.289,33.2672,0,0.000885,0,0
0:2:15.537,261.876,33.343,0,0.000885,0,0
0:2:16.040,262.814,33.4603,0,0.000885,0,0
0:2:16.541,264.046,33.6188,0,0.000885,0,0
0:2:17.035,264.923,33.7292,0,0.000885,0,0
0:2:17.529,265.63,33.8188,0,0.000885,0,0
0:2:18.032,266.626,33.9498,0,0.000885,0,0
0:2:18.525,267.681,34.0808,0,0.000885,0,0
0:2:19.020,268.797,34.2256,0,0.000885,0,0
0:2:19.509,270.087,34.391,0,0.000885,0,0
0:2:20.024,270.848,34.4876,0,0.000885,0,0
0:2:20.528,271.964,34.6255,0,0.000885,0,0
0:2:21.030,272.667,34.7151,0,0.000885,0,0
0:2:21.532,273.312,34.7978,0,0.000885,0,0
0:2:22.026,274.544,34.9564,0,0.000885,0,0
0:2:22.519,275.421,35.0667,0,0.000885,0,0
0:2:23.022,276.653,35.2253,0,0.000885,0,0
0:2:23.526,278.299,35.4322,0,0.000885,0,0
0:2:24.027,278.178,35.4184,0,0.000885,0,0
0:2:24.522,279.117,35.5356,0,0.000885,0,0
0:2:25.025,280.291,35.6873,0,0.000885,0,0
0:2:25.526,281.23,35.8045,0,0.000885,0,0
0:2:26.026,281.875,35.8872,0,0.000885,0,0
0:2:26.520,283.574,36.1078,0,0.000885,0,0
0:2:27.025,284.806,36.2595,0,0.000885,0,0
0:2:27.526,285.687,36.3767,0,0.000885,0,0
0:2:28.023,286.741,36.5077,0,0.000885,0,0
0:2:28.515,287.68,36.6318,0,0.000885,0,0
0:2:29.021,288.912,36.7835,0,0.000885,0,0
0:2:29.523,289.384,36.8456,0,0.000885,0,0
0:2:30.025,290.38,36.9697,0,0.000885,0,0
0:2:30.527,291.198,37.08,0,0.000885,0,0
0:2:31.028,292.257,37.211,0,0.000885,0,0
0:2:31.525,293.427,37.3627,0,0.000885,0,0
0:2:32.020,293.605,37.3834,0,0.000885,0,0
0:2:32.523,295.131,37.5764,0,0.000885,0,0
0:2:33.028,296.007,37.6867,0,0.000885,0,0
0:2:33.521,297.008,37.8177,0,0.000885,0,0
0:2:34.025,298.178,37.9625,0,0.000885,0,0
0:2:34.517,299.352,38.1142,0,0.000885,0,0
0:2:35.016,300.468,38.259,0,0.000885,0,0
0:2:35.517,301.407,38.3762,0,0.000885,0,0
0:2:36.017,302.052,38.459,0,0.000885,0,0
0:2:36.520,302.991,38.5762,0,0.000885,0,0
0:2:37.022,303.693,38.6658,0,0.000885,0,0
0:2:37.516,305.041,38.8382,0,0.000885,0,0
0:2:38.009,305.98,38.9554,0,0.000885,0,0
0:2:38.504,307.212,39.114,0,0.000885,0,0
0:2:38.998,307.857,39.1967,0,0.000885,0,0
0:2:39.493,309.263,39.376,0,0.000885,0,0
0:2:39.989,309.97,39.4656,0,0.000885,0,0
0:2:40.494,310.731,39.5621,0,0.000885,0,0
0:2:40.993,311.669,39.6862,0,0.000885,0,0
0:2:41.495,313.075,39.8655,0,0.000885,0,0
0:2:41.991,313.955,39.9758,0,0.000885,0,0
0:2:42.484,314.543,40.0516,0,0.000885,0,0
0:2:42.977,315.423,40.162,0,0.000885,0,0
0:2:43.471,316.304,40.2723,0,0.000885,0,0
0:2:43.965,317.532,40.4309,0,0.000885,0,0
0:2:44.458,319.058,40.6239,0,0.000885,0,0
0:2:44.952,320.116,40.7549,0,0.000885,0,0
0:2:45.456,320.761,40.8376,0,0.000885,0,0
0:2:45.957,322.167,41.0169,0,0.000885,0,0
0:2:46.457,322.99,41.1272,0,0.000885,0,0
0:2:46.951,323.515,41.1893,0,0.000885,0,0
0:2:47.447,324.338,41.2927,0,0.000885,0,0
0:2:47.940,325.098,41.3961,0,0.000885,0,0
0:2:48.435,326.215,41.534,0,0.000885,0,0
0:2:48.928,327.033,41.6374,0,0.000885,0,0
0:2:49.422,328.15,41.7822,0,0.000885,0,0
0:2:49.926,329.498,41.9546,0,0.000885,0,0
0:2:50.428,330.73,42.1132,0,0.000885,0,0
0:2:50.929,331.784,42.2442,0,0.000885,0,0
0:2:51.423,332.723,42.3614,0,0.000885,0,0
0:2:51.926,333.897,42.5131,0,0.000885,0,0
0:2:52.430,334.075,42.5338,0,0.000885,0,0
0:2:52.923,335.013,42.6579,0,0.000885,0,0
0:2:53.426,336.183,42.8027,0,0.000885,0,0
0:2:53.918,337.122,42.9268,0,0.000885,0,0
0:2:54.414,338.474,43.0922,0,0.000885,0,0
0:2:54.915,339.35,43.2094,0,0.000885,0,0
0:2:55.416,339.938,43.2853,0,0.000885,0,0
0:2:55.916,340.992,43.4163,0,0.000885,0,0
0:2:56.411,341.873,43.5266,0,0.000885,0,0
0:2:56.914,343.163,43.6921,0,0.000885,0,0
0:2:57.417,344.043,43.8024,0,0.000885,0,0
0:2:57.924,345.453,43.9817,0,0.000885,0,0
0:2:58.415,346.392,44.1058,0,0.000885,0,0
0:2:58.909,347.326,44.223,0,0.000885,0,0
0:2:59.412,347.798,44.285,0,0.000885,0,0
0:2:59.909,348.91,44.4229,0,0.000885,0,0
0:3:0.412,349.79,44.5401,0,0.000885,0,0
0:3:0.914,350.729,44.6573,0,0.000885,0,0
0:3:1.414,351.961,44.8159,0,0.000885,0,0
0:3:1.918,353.487,45.009,0,0.000885,0,0
0:3:2.422,353.78,45.0434,0,0.000885,0,0
0:3:2.925,354.777,45.1744,0,0.000885,0,0
0:3:3.431,356.182,45.3537,0,0.000885,0,0
0:3:3.923,356.596,45.402,0,0.000885,0,0
0:3:4.426,357.886,45.5675,0,0.000885,0,0
0:3:4.928,358.825,45.6847,0,0.000885,0,0
0:3:5.433,360.057,45.8432,0,0.000885,0,0
0:3:5.934,361.289,46.0018,0,0.000885,0,0
0:3:6.435,362.107,46.1052,0,0.000885,0,0
0:3:6.930,362.988,46.2156,0,0.000885,0,0
0:3:7.432,363.927,46.3397,0,0.000885,0,0
0:3:7.926,364.923,46.4638,0,0.000885,0,0
0:3:8.418,365.804,46.5741,0,0.000885,0,0
0:3:8.933,366.685,46.6844,0,0.000885,0,0
0:3:9.427,367.503,46.7947,0,0.000885,0,0
0:3:9.931,369.029,46.9878,0,0.000885,0,0
0:3:10.432,369.967,47.105,0,0.000885,0,0
0:3:10.933,370.377,47.1601,0,0.000885,0,0
0:3:11.425,371.729,47.3325,0,0.000885,0,0
0:3:11.929,372.841,47.4704,0,0.000885,0,0
0:3:12.431,373.78,47.5945,0,0.000885,0,0
0:3:12.926,375.07,47.7531,0,0.000885,0,0
0:3:13.428,375.421,47.8014,0,0.000885,0,0
0:3:13.932,376.417,47.9255,0,0.000885,0,0
0:3:14.426,377.77,48.0978,0,0.000885,0,0
0:3:14.927,378.588,48.2012,0,0.000885,0,0
0:3:15.431,379.411,48.3047,0,0.000885,0,0
0:3:15.932,379.82,48.3598,0,0.000885,0,0
0:3:16.429,381.23,48.5391,0,0.000885,0,0
0:3:16.933,382.694,48.7252,0,0.000885,0,0
0:3:17.427,383.517,48.8287,0,0.000885,0,0
0:3:17.930,384.335,48.9321,0,0.000885,0,0
0:3:18.424,385.394,49.07,0,0.000885,0,0
0:3:18.929,386.8,49.2493,0,0.000885,0,0
0:3:19.420,387.68,49.3596,0,0.000885,0,0
0:3:19.935,388.499,49.463,0,0.000885,0,0
0:3:20.440,389.5,49.594,0,0.000885,0,0
0:3:20.941,390.318,49.6974,0,0.000885,0,0
0:3:21.444,391.435,49.8422,0,0.000885,0,0
0:3:21.937,392.311,49.9525,0,0.000885,0,0
0:3:22.431,393.37,50.0835,0,0.000885,0,0
0:3:22.933,394.015,50.1663,0,0.000885,0,0
0:3:23.427,395.011,50.2973,0,0.000885,0,0
0:3:23.918,395.834,50.4007,0,0.000885,0,0
0:3:24.425,397.066,50.5524,0,0.000885,0,0
0:3:24.927,398.414,50.7247,0,0.000885,0,0
0:3:25.430,398.823,50.7799,0,0.000885,0,0
0:3:25.931,400.171,50.9523,0,0.000885,0,0
0:3:26.433,401.167,51.0764,0,0.000885,0,0
0:3:26.927,401.99,51.1798,0,0.000885,0,0
0:3:27.430,402.987,51.3108,0,0.000885,0,0
0:3:27.934,403.867,51.4211,0,0.000885,0,0
0:3:28.427,405.393,51.6142,0,0.000885,0,0
0:3:28.931,405.98,51.69,0,0.000885,0,0
0:3:29.423,406.799,51.7934,0,0.000885,0,0
0:3:29.927,407.737,51.9175,0,0.000885,0,0
0:3:30.429,408.502,52.014,0,0.000885,0,0
0:3:30.930,410.144,52.2209,0,0.000885,0,0
0:3:31.434,411.14,52.345,0,0.000885,0,0
0:3:31.929,412.43,52.5105,0,0.000885,0,0
0:3:32.431,413.133,52.6001,0,0.000885,0,0
0:3:32.935,414.014,52.7104,0,0.000885,0,0
0:3:33.427,414.601,52.7863,0,0.000885,0,0
0:3:33.931,415.304,52.8759,0,0.000885,0,0
0:3:34.435,416.185,52.9931,0,0.000885,0,0
0:3:34.938,417.71,53.1862,0,0.000885,0,0
0:3:35.441,418.529,53.2896,0,0.000885,0,0
0:3:35.943,420.29,53.5102,0,0.000885,0,0
0:3:36.436,420.935,53.5929,0,0.000885,0,0
0:3:36.929,422.047,53.7377,0,0.000885,0,0
0:3:37.433,423.106,53.8687,0,0.000885,0,0
0:3:37.927,423.982,53.9859,0,0.000885,0,0
0:3:38.432,424.863,54.0963,0,0.000885,0,0
0:3:38.924,425.628,54.1928,0,0.000885,0,0
0:3:39.419,426.447,54.2962,0,0.000885,0,0
0:3:39.928,427.621,54.4479,0,0.000885,0,0
0:3:40.432,427.914,54.4824,0,0.000885,0,0
0:3:40.932,429.614,54.703,0,0.000885,0,0
0:3:41.430,430.73,54.8409,0,0.000885,0,0
0:3:41.933,431.549,54.9443,0,0.000885,0,0
0:3:42.428,432.487,55.0684,0,0.000885,0,0
0:3:42.931,433.252,55.165,0,0.000885,0,0
0:3:43.434,434.778,55.358,0,0.000885,0,0
0:3:43.928,435.129,55.3994,0,0.000885,0,0
0:3:44.431,436.651,55.5993,0,0.000885,0,0
0:3:44.927,437.358,55.689,0,0.000885,0,0
0:3:45.432,438.59,55.8406,0,0.000885,0,0
0:3:45.932,439.173,55.9165,0,0.000885,0,0
0:3:46.431,440.641,56.1026,0,0.000885,0,0
0:3:46.927,441.112,56.1647,0,0.000885,0,0
0:3:47.430,442.282,56.3164,0,0.000885,0,0
0:3:47.934,443.457,56.4612,0,0.000885,0,0
0:3:48.428,444.044,56.537,0,0.000885,0,0
0:3:48.933,445.334,56.7025,0,0.000885,0,0
0:3:49.436,446.508,56.8542,0,0.000885,0,0
0:3:49.939,448.207,57.0679,0,0.000885,0,0
0:3:50.444,447.972,57.0403,0,0.000885,0,0
0:3:50.945,449.497,57.2334,0,0.000885,0,0
0:3:51.446,450.258,57.3299,0,0.000885,0,0
0:3:51.941,451.196,57.4471,0,0.000885,0,0
0:3:52.435,452.135,57.5712,0,0.000885,0,0
0:3:52.938,452.664,57.6333,0,0.000885,0,0
0:3:53.431,453.781,57.7781,0,0.000885,0,0
0:3:53.923,455.596,58.0056,0,0.000885,0,0
0:3:54.429,455.832,58.0401,0,0.000885,0,0
0:3:54.932,456.712,58.1504,0,0.000885,0,0
0:3:55.433,458.411,58.3641,0,0.000885,0,0
0:3:55.935,459.114,58.4538,0,0.000885,0,0
0:3:56.435,460.115,58.5848,0,0.000885,0,0
0:3:56.930,460.934,58.6882,0,0.000885,0,0
0:3:57.434,461.814,58.7985,0,0.000885,0,0
0:3:57.936,462.869,58.9364,0,0.000885,0,0
0:3:58.429,464.159,59.1019,0,0.000885,0,0
0:3:58.932,464.924,59.1984,0,0.000885,0,0
0:3:59.435,465.978,59.3294,0,0.000885,0,0
0:3:59.939,466.681,59.419,0,0.000885,0,0
0:4:0.441,467.446,59.5155,0,0.000885,0,0
0:4:0.942,468.678,59.6741,0,0.000885,0,0
0:4:1.434,470.026,59.8465,0,0.000885,0,0
0:4:1.929,470.844,59.9499,0,0.000885,0,0
0:4:2.431,471.667,60.0533,0,0.000885,0,0
0:4:2.936,473.073,60.2326,0,0.000885,0,0
0:4:3.429,473.544,60.2947,0,0.000885,0,0
0:4:3.922,474.892,60.467,0,0.000885,0,0
0:4:4.425,475.951,60.598,0,0.000885,0,0
0:4:4.922,476.654,60.6877,0,0.000885,0,0
0:4:5.425,477.944,60.8531,0,0.000885,0,0
0:4:5.925,478.531,60.929,0,0.000885,0,0
0:4:6.433,478.998,60.991,0,0.000885,0,0
0:4:6.927,480.524,61.1841,0,0.000885,0,0
0:4:7.431,481.756,61.3358,0,0.000885,0,0
0:4:7.935,482.459,61.4254,0,0.000885,0,0
0:4:8.427,483.691,61.584,0,0.000885,0,0
0:4:8.934,484.394,61.6736,0,0.000885,0,0
0:4:9.437,485.919,61.8667,0,0.000885,0,0
0:4:9.931,486.622,61.9563,0,0.000885,0,0
0:4:10.436,487.681,62.0942,0,0.000885,0,0
0:4:10.938,488.557,62.2045,0,0.000885,0,0
0:4:11.437,488.971,62.2597,0,0.000885,0,0
0:4:11.932,490.434,62.4458,0,0.000885,0,0
0:4:12.437,491.373,62.563,0,0.000885,0,0
0:4:12.941,492.076,62.6527,0,0.000885,0,0
0:4:13.433,492.956,62.763,0,0.000885,0,0
0:4:13.937,494.246,62.9284,0,0.000885,0,0
0:4:14.431,495.714,63.1146,0,0.000885,0,0
0:4:14.933,496.417,63.2042,0,0.000885,0,0
0:4:15.437,497.12,63.2939,0,0.000885,0,0
0:4:15.938,498.824,63.5145,0,0.000885,0,0
0:4:16.441,499.411,63.5835,0,0.000885,0,0
0:4:16.934,500.229,63.6938,0,0.000885,0,0
0:4:17.437,500.874,63.7765,0,0.000885,0,0
0:4:17.939,502.106,63.9282,0,0.000885,0,0
0:4:18.432,503.045,64.0523,0,0.000885,0,0
0:4:18.935,504.277,64.204,0,0.000885,0,0
0:4:19.438,505.509,64.3626,0,0.000885,0,0
0:4:19.942,506.563,64.5005,0,0.000885,0,0
0:4:20.445,507.208,64.5832,0,0.000885,0,0
0:4:20.945,507.853,64.659,0,0.000885,0,0
0:4:21.450,509.028,64.8107,0,0.000885,0,0
0:4:21.945,510.082,64.9486,0,0.000885,0,0
0:4:22.437,511.256,65.0934,0,0.000885,0,0
0:4:22.933,512.311,65.2313,0,0.000885,0,0
0:4:23.433,513.133,65.3347,0,0.000885,0,0
0:4:23.937,513.836,65.4244,0,0.000885,0,0
0:4:24.441,514.481,65.5071,0,0.000885,0,0
0:4:24.938,516.065,65.707,0,0.000885,0,0
0:4:25.442,517.061,65.8311,0,0.000885,0,0
0:4:25.942,517.706,65.9139,0,0.000885,0,0
0:4:26.441,518.938,66.0725,0,0.000885,0,0
0:4:26.935,519.935,66.2035,0,0.000885,0,0
0:4:27.439,520.873,66.3207,0,0.000885,0,0
0:4:27.932,521.99,66.4586,0,0.000885,0,0
0:4:28.437,522.519,66.5275,0,0.000885,0,0
0:4:28.939,523.573,66.6654,0,0.000885,0,0
0:4:29.433,524.512,66.7826,0,0.000885,0,0
0:4:29.936,525.624,66.9274,0,0.000885,0,0
0:4:30.442,526.914,67.086,0,0.000885,0,0
0:4:30.943,527.853,67.2101,0,0.000885,0,0
0:4:31.445,528.911,67.3411,0,0.000885,0,0
0:4:31.938,529.614,67.4307,0,0.000885,0,0
0:4:32.434,530.081,67.4928,0,0.000885,0,0
0:4:32.934,531.313,67.6514,0,0.000885,0,0
0:4:33.439,532.839,67.8444,0,0.000885,0,0
0:4:33.932,533.956,67.9823,0,0.000885,0,0
0:4:34.437,534.774,68.0926,0,0.000885,0,0
0:4:34.939,535.303,68.1547,0,0.000885,0,0
0:4:35.441,536.478,68.3064,0,0.000885,0,0
0:4:35.942,537.768,68.4718,0,0.000885,0,0
0:4:36.434,538.706,68.589,0,0.000885,0,0
0:4:36.937,539.583,68.6994,0,0.000885,0,0
0:4:37.441,540.993,68.8786,0,0.000885,0,0
0:4:37.934,541.344,68.9269,0,0.000885,0,0
0:4:38.438,542.398,69.0579,0,0.000885,0,0
0:4:38.933,543.515,69.2027,0,0.000885,0,0
0:4:39.435,544.978,69.3888,0,0.000885,0,0
0:4:39.933,545.272,69.4233,0,0.000885,0,0
0:4:40.436,546.331,69.5612,0,0.000885,0,0
0:4:40.939,547.327,69.6853,0,0.000885,0,0
0:4:41.435,548.145,69.7956,0,0.000885,0,0
0:4:41.927,549.026,69.9059,0,0.000885,0,0
0:4:42.444,550.201,70.0507,0,0.000885,0,0
0:4:42.938,551.255,70.1886,0,0.000885,0,0
0:4:43.429,552.251,70.3127,0,0.000885,0,0
0:4:43.936,552.958,70.4024,0,0.000885,0,0
0:4:44.438,554.306,70.5747,0,0.000885,0,0
0:4:44.933,555.187,70.6851,0,0.000885,0,0
0:4:45.438,556.357,70.8367,0,0.000885,0,0
0:4:45.941,557.473,70.9815,0,0.000885,0,0
0:4:46.439,558.118,71.0643,0,0.000885,0,0
0:4:46.944,559.351,71.2159,0,0.000885,0,0
0:4:47.437,560.169,71.3263,0,0.000885,0,0
0:4:47.941,560.934,71.4228,0,0.000885,0,0
0:4:48.434,562.224,71.5814,0,0.000885,0,0
0:4:48.937,563.456,71.7399,0,0.000885,0,0
0:4:49.429,563.981,71.8089,0,0.000885,0,0
0:4:49.923,564.688,71.8985,0,0.000885,0,0
0:4:50.427,565.921,72.0571,0,0.000885,0,0
0:4:50.928,567.268,72.2295,0,0.000885,0,0
0:4:51.429,567.971,72.3191,0,0.000885,0,0
0:4:51.944,568.852,72.4294,0,0.000885,0,0
0:4:52.438,570.258,72.6087,0,0.000885,0,0
0:4:52.939,570.671,72.657,0,0.000885,0,0
0:4:53.444,571.548,72.7742,0,0.000885,0,0
0:4:53.948,572.958,72.9534,0,0.000885,0,0
0:4:54.439,573.954,73.0775,0,0.000885,0,0
0:4:54.944,575.066,73.2223,0,0.000885,0,0
0:4:55.446,576.125,73.3533,0,0.000885,0,0
0:4:55.948,576.418,73.3947,0,0.000885,0,0
0:4:56.441,577.766,73.5602,0,0.000885,0,0
0:4:56.935,578.998,73.7187,0,0.000885,0,0
0:4:57.437,579.585,73.7946,0,0.000885,0,0
0:4:57.942,580.698,73.9394,0,0.000885,0,0
0:4:58.444,581.814,74.0773,0,0.000885,0,0
0:4:58.938,582.459,74.16,0,0.000885,0,0
0:4:59.443,583.691,74.3186,0,0.000885,0,0
0:4:59.938,584.63,74.4358,0,0.000885,0,0
0:5:0.443,585.742,74.5806,0,0.000885,0,0
0:5:0.944,587.152,74.7599,0,0.000885,0,0
0:5:1.443,587.441,74.7943,0,0.000885,0,0
0:5:1.936,588.615,74.946,0,0.000885,0,0
0:5:2.442,589.905,75.1115,0,0.000885,0,0
0:5:2.937,590.025,75.1253,0,0.000885,0,0
0:5:3.444,591.609,75.3252,0,0.000885,0,0
0:5:3.939,592.605,75.4562,0,0.000885,0,0
0:5:4.446,593.606,75.5803,0,0.000885,0,0
0:5:4.942,593.958,75.6217,0,0.000885,0,0
0:5:5.449,595.426,75.8148,0,0.000885,0,0
0:5:5.951,596.542,75.9526,0,0.000885,0,0
0:5:6.453,597.303,76.0492,0,0.000885,0,0
0:5:6.951,598.713,76.2284,0,0.000885,0,0
0:5:7.445,599.473,76.325,0,0.000885,0,0
0:5:7.942,600.532,76.4629,0,0.000885,0,0
0:5:8.437,601.293,76.5594,0,0.000885,0,0
0:5:8.944,602.116,76.6628,0,0.000885,0,0
0:5:9.438,602.761,76.7455,0,0.000885,0,0
0:5:9.933,603.935,76.8972,0,0.000885,0,0
0:5:10.443,605.639,77.111,0,0.000885,0,0
0:5:10.946,606.755,77.2558,0,0.000885,0,0
0:5:11.449,607.222,77.3109,0,0.000885,0,0
0:5:11.946,608.281,77.4488,0,0.000885,0,0
0:5:12.440,609.393,77.5936,0,0.000885,0,0
0:5:12.938,610.216,77.697,0,0.000885,0,0
0:5:13.444,611.332,77.8349,0,0.000885,0,0
0:5:13.941,612.329,77.9659,0,0.000885,0,0
0:5:14.433,612.858,78.0349,0,0.000885,0,0
0:5:14.942,613.855,78.159,0,0.000885,0,0
0:5:15.446,615.029,78.3107,0,0.000885,0,0
0:5:15.949,616.439,78.4899,0,0.000885,0,0
0:5:16.446,617.204,78.5864,0,0.000885,0,0
0:5:16.942,618.143,78.7037,0,0.000885,0,0
0:5:17.438,619.433,78.8691,0,0.000885,0,0
0:5:17.943,619.962,78.9381,0,0.000885,0,0
0:5:18.439,621.194,79.0898,0,0.000885,0,0
0:5:18.933,622.017,79.2001,0,0.000885,0,0
0:5:19.430,622.72,79.2897,0,0.000885,0,0
0:5:19.938,624.188,79.4759,0,0.000885,0,0
0:5:20.444,625.011,79.5793,0,0.000885,0,0
0:5:20.945,626.007,79.7034,0,0.000885,0,0
0:5:21.442,627.004,79.8344,0,0.000885,0,0
0:5:21.948,627.649,79.9171,0,0.000885,0,0
0:5:22.445,628.765,80.055,0,0.000885,0,0
0:5:22.941,629.472,80.1447,0,0.000885,0,0
0:5:23.438,630.936,80.3308,0,0.000885,0,0
0:5:23.944,632.11,80.4825,0,0.000885,0,0
0:5:24.439,632.11,80.4825,0,0.000885,0,0
0:5:24.944,633.698,80.6824,0,0.000885,0,0
0:5:25.448,634.579,80.7997,0,0.000885,0,0
0:5:25.952,635.869,80.9582,0,0.000885,0,0
0:5:26.449,636.692,81.0686,0,0.000885,0,0
0:5:26.945,637.572,81.1789,0,0.000885,0,0
0:5:27.440,638.16,81.2547,0,0.000885,0,0
0:5:27.948,639.272,81.3926,0,0.000885,0,0
0:5:28.444,640.797,81.5857,0,0.000885,0,0
0:5:28.942,641.62,81.696,0,0.000885,0,0
0:5:29.445,642.501,81.8063,0,0.000885,0,0
0:5:29.945,643.44,81.9235,0,0.000885,0,0
0:5:30.452,644.672,82.0821,0,0.000885,0,0
0:5:30.955,645.321,82.1648,0,0.000885,0,0
0:5:31.455,646.26,82.282,0,0.000885,0,0
0:5:31.952,647.434,82.4337,0,0.000885,0,0
0:5:32.448,648.373,82.5509,0,0.000885,0,0
0:5:32.945,649.547,82.7026,0,0.000885,0,0
0:5:33.442,650.721,82.8543,0,0.000885,0,0
0:5:33.948,651.891,82.9991,0,0.000885,0,0
0:5:34.442,652.185,83.0405,0,0.000885,0,0
0:5:34.948,653.186,83.1646,0,0.000885,0,0
0:5:35.455,654.476,83.33,0,0.000885,0,0
0:5:35.959,655.179,83.4197,0,0.000885,0,0
0:5:36.461,655.828,83.5024,0,0.000885,0,0
0:5:36.958,657.118,83.6679,0,0.000885,0,0
0:5:37.454,657.941,83.7713,0,0.000885,0,0
0:5:37.949,659.524,83.9712,0,0.000885,0,0
0:5:38.446,660.463,84.0954,0,0.000885,0,0
0:5:38.941,660.814,84.1367,0,0.000885,0,0
0:5:39.449,662.402,84.3367,0,0.000885,0,0
0:5:39.954,663.221,84.447,0,0.000885,0,0
0:5:40.459,664.222,84.5711,0,0.000885,0,0
0:5:40.960,665.276,84.709,0,0.000885,0,0
0:5:41.456,666.215,84.8262,0,0.000885,0,0
0:5:41.952,667.447,84.9848,0,0.000885,0,0
0:5:42.448,668.096,85.0675,0,0.000885,0,0
0:5:42.944,668.915,85.1709,0,0.000885,0,0
0:5:43.440,670.089,85.3157,0,0.000885,0,0
0:5:43.944,671.148,85.4536,0,0.000885,0,0
0:5:44.443,671.908,85.5501,0,0.000885,0,0
0:5:44.945,672.909,85.6743,0,0.000885,0,0
0:5:45.451,674.084,85.8259,0,0.000885,0,0
0:5:45.952,674.728,85.9087,0,0.000885,0,0
0:5:46.450,676.018,86.0741,0,0.000885,0,0
0:5:46.947,677.308,86.2396,0,0.000885,0,0
0:5:47.442,678.016,86.3293,0,0.000885,0,0
0:5:47.949,678.954,86.4465,0,0.000885,0,0
0:5:48.445,679.835,86.5568,0,0.000885,0,0
0:5:48.942,680.716,86.674,0,0.000885,0,0
0:5:49.447,682.064,86.8464,0,0.000885,0,0
0:5:49.946,683.002,86.9636,0,0.000885,0,0
0:5:50.453,684.003,87.0877,0,0.000885,0,0
0:5:50.956,684.47,87.1497,0,0.000885,0,0
0:5:51.459,685.644,87.3014,0,0.000885,0,0
0:5:51.956,686.645,87.4255,0,0.000885,0,0
0:5:52.453,687.464,87.5289,0,0.000885,0,0
0:5:52.949,688.287,87.6324,0,0.000885,0,0
0:5:53.445,689.99,87.853,0,0.000885,0,0
0:5:53.937,690.987,87.9771,0,0.000885,0,0
0:5:54.447,691.632,88.0598,0,0.000885,0,0
0:5:54.942,692.984,88.2322,0,0.000885,0,0
0:5:55.447,694.158,88.3839,0,0.000885,0,0
0:5:55.952,694.568,88.4322,0,0.000885,0,0
0:5:56.453,695.448,88.5494,0,0.000885,0,0
0:5:56.950,696.329,88.6597,0,0.000885,0,0
0:5:57.447,697.446,88.8045,0,0.000885,0,0
0:5:57.952,698.384,88.9217,0,0.000885,0,0
0:5:58.449,699.616,89.0803,0,0.000885,0,0
0:5:58.944,700.377,89.1768,0,0.000885,0,0
0:5:59.437,701.729,89.3492,0,0.000885,0,0
0:5:59.947,702.432,89.4388,0,0.000885,0,0
0:6:0.449,703.784,89.6112,0,0.000885,0,0
0:6:0.952,704.665,89.7215,0,0.000885,0,0
0:6:1.448,705.719,89.8525,0,0.000885,0,0
0:6:1.944,706.427,89.9421,0,0.000885,0,0
0:6:2.449,707.245,90.0524,0,0.000885,0,0
0:6:2.944,708.246,90.1765,0,0.000885,0,0
0:6:3.451,709.772,90.3696,0,0.000885,0,0
0:6:3.948,709.772,90.3696,0,0.000885,0,0
0:6:4.444,711.355,90.5695,0,0.000885,0,0
0:6:4.945,712.352,90.7005,0,0.000885,0,0
0:6:5.449,713.232,90.8108,0,0.000885,0,0
0:6:5.954,714.407,90.9625,0,0.000885,0,0
0:6:6.453,715.23,91.066,0,0.000885,0,0
0:6:6.949,716.64,91.2452,0,0.000885,0,0
0:6:7.445,717.458,91.3486,0,0.000885,0,0
0:6:7.951,718.165,91.4383,0,0.000885,0,0
0:6:8.447,719.398,91.5969,0,0.000885,0,0
0:6:8.944,720.278,91.7072,0,0.000885,0,0
0:6:9.448,720.981,91.7968,0,0.000885,0,0
0:6:9.947,722.276,91.9623,0,0.000885,0,0
0:6:10.454,722.921,92.045,0,0.000885,0,0
0:6:10.956,723.45,92.114,0,0.000885,0,0
0:6:11.459,724.913,92.3001,0,0.000885,0,0
0:6:11.956,726.088,92.4518,0,0.000885,0,0
0:6:12.452,727.44,92.6173,0,0.000885,0,0
0:6:12.948,728.201,92.7207,0,0.000885,0,0
0:6:13.446,729.553,92.8862,0,0.000885,0,0
0:6:13.950,730.14,92.962,0,0.000885,0,0
0:6:14.447,730.607,93.0241,0,0.000885,0,0
0:6:14.953,731.901,93.1895,0,0.000885,0,0
0:6:15.459,732.72,93.293,0,0.000885,0,0
0:6:15.960,733.836,93.4378,0,0.000885,0,0
0:6:16.463,734.775,93.555,0,0.000885,0,0
0:6:16.962,736.007,93.7135,0,0.000885,0,0
0:6:17.457,736.95,93.8308,0,0.000885,0,0
0:6:17.953,737.889,93.948,0,0.000885,0,0
0:6:18.448,738.707,94.0583,0,0.000885,0,0
0:6:18.954,739.944,94.21,0,0.000885,0,0
0:6:19.450,741.056,94.3548,0,0.000885,0,0
0:6:19.946,741.879,94.4582,0,0.000885,0,0
0:6:20.451,742.817,94.5754,0,0.000885,0,0
0:6:20.955,743.818,94.7064,0,0.000885,0,0
0:6:21.458,744.988,94.8581,0,0.000885,0,0
0:6:21.955,745.517,94.9201,0,0.000885,0,0
0:6:22.450,746.576,95.058,0,0.000885,0,0
0:6:22.947,747.924,95.2304,0,0.000885,0,0
0:6:23.452,748.275,95.2718,0,0.000885,0,0
0:6:23.948,749.743,95.4579,0,0.000885,0,0
0:6:24.454,750.744,95.5889,0,0.000885,0,0
0:6:24.950,751.856,95.7268,0,0.000885,0,0
0:6:25.455,752.563,95.8164,0,0.000885,0,0
0:6:25.960,753.324,95.913,0,0.000885,0,0
0:6:26.463,755.028,96.1336,0,0.000885,0,0
0:6:26.958,755.264,96.1612,0,0.000885,0,0
0:6:27.455,756.202,96.2853,0,0.000885,0,0
0:6:27.951,757.786,96.4852,0,0.000885,0,0
0:6:28.448,758.724,96.6024,0,0.000885,0,0
0:6:28.952,759.196,96.6645,0,0.000885,0,0
0:6:29.449,760.428,96.8231,0,0.000885,0,0
0:6:29.955,761.602,96.9679,0,0.000885,0,0
0:6:30.459,762.367,97.0644,0,0.000885,0,0
0:6:30.962,763.773,97.2437,0,0.000885,0,0
0:6:31.458,764.538,97.3471,0,0.000885,0,0
0:6:31.953,765.125,97.416,0,0.000885,0,0
0:6:32.450,766.651,97.616,0,0.000885,0,0
0:6:32.945,767.354,97.7056,0,0.000885,0,0
0:6:33.452,768.292,97.8228,0,0.000885,0,0
0:6:33.947,769.409,97.9676,0,0.000885,0,0
0:6:34.442,770.29,98.0779,0,0.000885,0,0
0:6:34.947,770.819,98.1469,0,0.000885,0,0
0:6:35.452,772.051,98.2986,0,0.000885,0,0
0:6:35.955,773.519,98.4847,0,0.000885,0,0
0:6:36.454,774.28,98.5812,0,0.000885,0,0
0:6:36.950,775.103,98.6916,0,0.000885,0,0
0:6:37.447,776.455,98.8639,0,0.000885,0,0
0:6:37.953,777.216,98.9605,0,0.000885,0,0
0:6:38.448,777.918,99.0501,0,0.000885,0,0
0:6:38.946,779.213,99.2156,0,0.000885,0,0
0:6:39.452,779.8,99.2845,0,0.000885,0,0
0:6:39.951,780.739,99.4086,0,0.000885,0,0
0:6:40.457,782.38,99.6155,0,0.000885,0,0
0:6:40.960,782.909,99.6844,0,0.000885,0,0
0:6:41.462,783.79,99.7947,0,0.000885,0,0
0:6:41.956,784.435,99.8775,0,0.000885,0,0
0:6:42.453,785.667,100.036,0,0.000885,0,0
0:6:42.949,786.962,100.202,0,0.000885,0,0
0:6:43.455,787.842,100.312,0,0.000885,0,0
0:6:43.950,789.074,100.47,0,0.000885,0,0
0:6:44.446,790.071,100.595,0,0.000885,0,0
0:6:44.951,790.658,100.67,0,0.000885,0,0
0:6:45.458,791.89,100.829,0,0.000885,0,0
0:6:45.962,792.891,100.953,0,0.000885,0,0
0:6:46.465,794.123,101.112,0,0.000885,0,0
0:6:46.961,795.004,101.222,0,0.000885,0,0
0:6:47.457,795.649,101.305,0,0.000885,0,0
0:6:47.953,797.584,101.553,0,0.000885,0,0
0:6:48.449,797.935,101.594,0,0.000885,0,0
0:6:48.953,798.349,101.649,0,0.000885,0,0
0:6:49.448,799.639,101.815,0,0.000885,0,0
0:6:49.954,800.52,101.925,0,0.000885,0,0
0:6:50.457,801.516,102.049,0,0.000885,0,0
0:6:50.960,802.223,102.139,0,0.000885,0,0
0:6:51.456,803.691,102.332,0,0.000885,0,0
0:6:51.953,804.981,102.491,0,0.000885,0,0
0:6:52.449,806.098,102.635,0,0.000885,0,0
0:6:52.943,806.156,102.642,0,0.000885,0,0
0:6:53.451,807.566,102.822,0,0.000885,0,0
0:6:53.949,808.504,102.939,0,0.000885,0,0
0:6:54.443,809.736,103.097,0,0.000885,0,0
0:6:54.954,810.559,103.201,0,0.000885,0,0
0:6:55.460,811.436,103.318,0,0.000885,0,0
0:6:55.962,812.259,103.421,0,0.000885,0,0
0:6:56.462,813.904,103.628,0,0.000885,0,0
0:6:56.959,814.256,103.676,0,0.000885,0,0
0:6:57.456,815.43,103.821,0,0.000885,0,0
0:6:57.953,817.072,104.035,0,0.000885,0,0
0:6:58.447,817.25,104.056,0,0.000885,0,0
0:6:58.953,818.424,104.207,0,0.000885,0,0
0:6:59.449,819.184,104.304,0,0.000885,0,0
0:6:59.942,819.714,104.366,0,0.000885,0,0
0:7:0.449,820.71,104.497,0,0.000885,0,0
0:7:0.954,822.823,104.766,0,0.000885,0,0
0:7:1.456,823.704,104.876,0,0.000885,0,0
0:7:1.952,824.233,104.945,0,0.000885,0,0
0:7:2.457,824.878,105.028,0,0.000885,0,0
0:7:2.952,825.937,105.159,0,0.000885,0,0
0:7:3.448,826.933,105.29,0,0.000885,0,0
0:7:3.954,828.637,105.504,0,0.000885,0,0
0:7:4.449,829.518,105.621,0,0.000885,0,0
0:7:4.954,829.985,105.676,0,0.000885,0,0
0:7:5.458,831.337,105.848,0,0.000885,0,0
0:7:5.962,832.04,105.938,0,0.000885,0,0
0:7:6.458,832.747,106.028,0,0.000885,0,0
0:7:6.955,833.921,106.179,0,0.000885,0,0
0:7:7.451,835.091,106.324,0,0.000885,0,0
0:7:7.945,835.914,106.434,0,0.000885,0,0
0:7:8.453,836.853,106.552,0,0.000885,0,0
0:7:8.949,837.796,106.669,0,0.000885,0,0
0:7:9.444,838.85,106.807,0,0.000885,0,0
0:7:9.946,840.024,106.958,0,0.000885,0,0
0:7:10.455,841.314,107.117,0,0.000885,0,0
0:7:10.957,842.022,107.207,0,0.000885,0,0
0:7:11.455,842.96,107.331,0,0.000885,0,0
0:7:11.953,844.072,107.469,0,0.000885,0,0
0:7:12.450,844.895,107.579,0,0.000885,0,0
0:7:12.946,845.367,107.634,0,0.000885,0,0
0:7:13.452,846.657,107.8,0,0.000885,0,0
0:7:13.949,848.182,107.993,0,0.000885,0,0
0:7:14.443,848.948,108.089,0,0.000885,0,0
0:7:14.952,850.18,108.248,0,0.000885,0,0
0:7:15.457,851.118,108.365,0,0.000885,0,0
0:7:15.960,851.763,108.448,0,0.000885,0,0
0:7:16.462,852.177,108.503,0,0.000885,0,0
0:7:16.959,853.525,108.675,0,0.000885,0,0
0:7:17.456,855.108,108.875,0,0.000885,0,0
0:7:17.950,855.816,108.965,0,0.000885,0,0
0:7:18.445,856.634,109.068,0,0.000885,0,0
0:7:18.952,857.635,109.199,0,0.000885,0,0
0:7:19.445,858.164,109.261,0,0.000885,0,0
0:7:19.952,859.161,109.392,0,0.000885,0,0
0:7:20.457,861.038,109.634,0,0.000885,0,0
0:7:20.962,861.683,109.716,0,0.000885,0,0
0:7:21.463,862.448,109.813,0,0.000885,0,0
0:7:21.959,863.502,109.944,0,0.000885,0,0
0:7:22.456,864.325,110.047,0,0.000885,0,0
0:7:22.952,865.321,110.178,0,0.000885,0,0
0:7:23.458,866.789,110.364,0,0.000885,0,0
0:7:23.952,868.142,110.537,0,0.000885,0,0
0:7:24.446,868.315,110.557,0,0.000885,0,0
0:7:24.954,869.258,110.675,0,0.000885,0,0
0:7:25.459,870.548,110.84,0,0.000885,0,0
0:7:25.962,871.251,110.93,0,0.000885,0,0
0:7:26.456,872.252,111.061,0,0.000885,0,0
0:7:26.954,873.364,111.199,0,0.000885,0,0
0:7:27.447,874.596,111.357,0,0.000885,0,0
0:7:27.945,875.125,111.426,0,0.000885,0,0
0:7:28.453,876.126,111.55,0,0.000885,0,0
0:7:28.948,878.003,111.792,0,0.000885,0,0
0:7:29.455,878.533,111.861,0,0.000885,0,0
0:7:29.954,879.058,111.923,0,0.000885,0,0
0:7:30.460,880.058,112.054,0,0.000885,0,0
0:7:30.963,881.113,112.185,0,0.000885,0,0
0:7:31.465,881.936,112.295,0,0.000885,0,0
0:7:31.961,883.11,112.44,0,0.000885,0,0
0:7:32.457,884.164,112.578,0,0.000885,0,0
0:7:32.953,885.107,112.695,0,0.000885,0,0
0:7:33.448,886.277,112.846,0,0.000885,0,0
0:7:33.955,887.451,112.991,0,0.000885,0,0
0:7:34.448,888.216,113.088,0,0.000885,0,0
0:7:34.956,889.213,113.219,0,0.000885,0,0
0:7:35.461,889.92,113.308,0,0.000885,0,0
0:7:35.967,891.388,113.495,0,0.000885,0,0
0:7:36.468,891.797,113.55,0,0.000885,0,0
0:7:36.966,892.914,113.688,0,0.000885,0,0
0:7:37.462,894.088,113.839,0,0.000885,0,0
0:7:37.956,894.849,113.936,0,0.000885,0,0
0:7:38.453,896.317,114.122,0,0.000885,0,0
0:7:38.947,897.019,114.212,0,0.000885,0,0
0:7:39.455,897.375,114.26,0,0.000885,0,0
0:7:39.960,898.901,114.453,0,0.000885,0,0
0:7:40.464,899.955,114.584,0,0.000885,0,0
0:7:40.969,901.072,114.729,0,0.000885,0,0
0:7:41.472,901.775,114.818,0,0.000885,0,0
0:7:41.971,902.54,114.915,0,0.000885,0,0
0:7:42.467,904.123,115.115,0,0.000885,0,0
0:7:42.962,904.533,115.17,0,0.000885,0,0
0:7:43.457,905.769,115.329,0,0.000885,0,0
0:7:43.952,906.943,115.473,0,0.000885,0,0
0:7:44.446,907.646,115.563,0,0.000885,0,0
0:7:44.954,908.821,115.715,0,0.000885,0,0
0:7:45.456,909.644,115.818,0,0.000885,0,0
0:7:45.960,910.168,115.887,0,0.000885,0,0
0:7:46.457,911.463,116.053,0,0.000885,0,0
0:7:46.953,912.575,116.19,0,0.000885,0,0
0:7:47.447,913.34,116.287,0,0.000885,0,0
0:7:47.944,914.572,116.446,0,0.000885,0,0
0:7:48.449,916.098,116.639,0,0.000885,0,0
0:7:48.945,916.685,116.714,0,0.000885,0,0
0:7:49.453,917.917,116.873,0,0.000885,0,0
0:7:49.958,918.976,117.004,0,0.000885,0,0
0:7:50.463,919.443,117.066,0,0.000885,0,0
0:7:50.966,919.914,117.128,0,0.000885,0,0
0:7:51.463,921.089,117.28,0,0.000885,0,0
0:7:51.958,922.437,117.445,0,0.000885,0,0
0:7:52.455,923.375,117.569,0,0.000885,0,0
0:7:52.949,924.318,117.687,0,0.000885,0,0
0:7:53.446,925.372,117.825,0,0.000885,0,0
0:7:53.954,926.489,117.962,0,0.000885,0,0
0:7:54.449,927.076,118.038,0,0.000885,0,0
0:7:54.950,928.073,118.169,0,0.000885,0,0
0:7:55.458,929.069,118.293,0,0.000885,0,0
0:7:55.960,930.306,118.452,0,0.000885,0,0
0:7:56.459,931.302,118.576,0,0.000885,0,0
0:7:56.956,932.183,118.686,0,0.000885,0,0
0:7:57.463,933.766,118.893,0,0.000885,0,0
0:7:57.959,934.411,118.976,0,0.000885,0,0
0:7:58.457,935.763,119.148,0,0.000885,0,0
0:7:58.950,936.524,119.245,0,0.000885,0,0
0:7:59.458,937.169,119.328,0,0.000885,0,0
0:7:59.957,938.05,119.438,0,0.000885,0,0
0:8:0.463,939.051,119.562,0,0.000885,0,0
0:8:0.964,939.754,119.652,0,0.000885,0,0
0:8:1.466,940.986,119.81,0,0.000885,0,0
0:8:1.964,942.218,119.969,0,0.000885,0,0
0:8:2.459,942.925,120.058,0,0.000885,0,0
0:8:2.957,943.864,120.176,0,0.000885,0,0
0:8:3.451,945.447,120.376,0,0.000885,0,0
0:8:3.958,946.212,120.472,0,0.000885,0,0
0:8:4.464,946.8,120.548,0,0.000885,0,0
0:8:4.960,947.796,120.679,0,0.000885,0,0
0:8:5.465,948.912,120.817,0,0.000885,0,0
0:8:5.970,950.087,120.969,0,0.000885,0,0
0:8:6.472,951.025,121.086,0,0.000885,0,0
0:8:6.968,951.964,121.21,0,0.000885,0,0
0:8:7.464,952.845,121.32,0,0.000885,0,0
0:8:7.961,954.077,121.479,0,0.000885,0,0
0:8:8.456,954.722,121.561,0,0.000885,0,0
0:8:8.950,955.838,121.699,0,0.000885,0,0
0:8:9.446,956.893,121.837,0,0.000885,0,0
0:8:9.951,957.658,121.934,0,0.000885,0,0
0:8:10.460,958.89,122.092,0,0.000885,0,0
0:8:10.963,959.948,122.223,0,0.000885,0,0
0:8:11.467,960.358,122.279,0,0.000885,0,0
0:8:11.962,962.061,122.492,0,0.000885,0,0
0:8:12.458,962.586,122.561,0,0.000885,0,0
0:8:12.951,963.587,122.685,0,0.000885,0,0
0:8:13.459,964.641,122.823,0,0.000885,0,0
0:8:13.952,965.464,122.927,0,0.000885,0,0
0:8:14.449,966.461,123.051,0,0.000885,0,0
0:8:14.955,967.519,123.189,0,0.000885,0,0
0:8:15.462,969.223,123.402,0,0.000885,0,0
0:8:15.964,969.984,123.499,0,0.000885,0,0
0:8:16.460,970.686,123.589,0,0.000885,0,0
0:8:16.957,971.923,123.747,0,0.000885,0,0
0:8:17.461,972.332,123.802,0,0.000885,0,0
0:8:17.959,973.449,123.94,0,0.000885,0,0
0:8:18.465,974.854,124.119,0,0.000885,0,0
0:8:18.962,975.442,124.195,0,0.000885,0,0
0:8:19.458,976.616,124.347,0,0.000885,0,0
0:8:19.958,977.732,124.492,0,0.000885,0,0
0:8:20.464,978.262,124.554,0,0.000885,0,0
0:8:20.967,978.671,124.609,0,0.000885,0,0
0:8:21.469,980.726,124.871,0,0.000885,0,0
0:8:21.966,981.607,124.981,0,0.000885,0,0
0:8:22.460,982.252,125.064,0,0.000885,0,0
0:8:22.956,983.368,125.209,0,0.000885,0,0
0:8:23.462,984.365,125.333,0,0.000885,0,0
0:8:23.958,985.481,125.478,0,0.000885,0,0
0:8:24.462,986.126,125.56,0,0.000885,0,0
0:8:24.960,987.536,125.74,0,0.000885,0,0
0:8:25.464,988.417,125.85,0,0.000885,0,0
0:8:25.968,989.298,125.96,0,0.000885,0,0
0:8:26.470,990.179,126.071,0,0.000885,0,0
0:8:26.967,990.939,126.167,0,0.000885,0,0
0:8:27.463,991.642,126.257,0,0.000885,0,0
0:8:27.959,992.816,126.408,0,0.000885,0,0
0:8:28.457,994.814,126.664,0,0.000885,0,0
0:8:28.960,995.401,126.739,0,0.000885,0,0
0:8:29.457,995.694,126.774,0,0.000885,0,0
0:8:29.962,997.278,126.981,0,0.000885,0,0
0:8:30.465,998.159,127.091,0,0.000885,0,0
0:8:30.968,998.866,127.181,0,0.000885,0,0
0:8:31.464,1000.16,127.346,0,0.000885,0,0
0:8:31.960,1000.8,127.429,0,0.000885,0,0
0:8:32.454,1001.86,127.56,0,0.000885,0,0
0:8:32.950,1002.56,127.65,0,0.000885,0,0
0:8:33.458,1004.56,127.905,0,0.000885,0,0
0:8:33.963,1004.91,127.946,0,0.000885,0,0
0:8:34.460,1006.03,128.091,0,0.000885,0,0
0:8:34.964,1007.08,128.229,0,0.000885,0,0
0:8:35.470,1007.78,128.318,0,0.000885,0,0
0:8:35.972,1008.79,128.442,0,0.000885,0,0
0:8:36.470,1009.6,128.546,0,0.000885,0,0
0:8:36.968,1011.01,128.725,0,0.000885,0,0
0:8:37.464,1011.54,128.794,0,0.000885,0,0
0:8:37.962,1012.42,128.904,0,0.000885,0,0
0:8:38.458,1013.54,129.049,0,0.000885,0,0
0:8:38.953,1015.12,129.249,0,0.000885,0,0
0:8:39.449,1015.53,129.304,0,0.000885,0,0
0:8:39.955,1016.89,129.477,0,0.000885,0,0
0:8:40.463,1017.94,129.608,0,0.000885,0,0
0:8:40.966,1018.41,129.67,0,0.000885,0,0
0:8:41.469,1019.41,129.794,0,0.000885,0,0
0:8:41.967,1020.52,129.939,0,0.000885,0,0
0:8:42.463,1021.58,130.07,0,0.000885,0,0
0:8:42.956,1022.58,130.201,0,0.000885,0,0
0:8:43.464,1023.7,130.338,0,0.000885,0,0
0:8:43.959,1024.57,130.456,0,0.000885,0,0
0:8:44.456,1025.87,130.614,0,0.000885,0,0
0:8:44.951,1026.98,130.759,0,0.000885,0,0
0:8:45.455,1027.63,130.842,0,0.000885,0,0
0:8:45.961,1028.62,130.966,0,0.000885,0,0
0:8:46.464,1029.56,131.09,0,0.000885,0,0
0:8:46.963,1030.33,131.187,0,0.000885,0,0
0:8:47.460,1031.44,131.324,0,0.000885,0,0
0:8:47.954,1032.97,131.524,0,0.000885,0,0
0:8:48.462,1033.55,131.593,0,0.000885,0,0
0:8:48.966,1033.73,131.621,0,0.000885,0,0
0:8:49.463,1034.85,131.759,0,0.000885,0,0
0:8:49.956,1036.61,131.986,0,0.000885,0,0
0:8:50.465,1037.37,132.083,0,0.000885,0,0
0:8:50.968,1038.31,132.2,0,0.000885,0,0
0:8:51.471,1039.07,132.297,0,0.000885,0,0
0:8:51.969,1040.36,132.462,0,0.000885,0,0
0:8:52.464,1041.07,132.552,0,0.000885,0,0
0:8:52.960,1042.07,132.683,0,0.000885,0,0
0:8:53.465,1043.36,132.841,0,0.000885,0,0
0:8:53.961,1043.89,132.91,0,0.000885,0,0
0:8:54.457,1045.12,133.069,0,0.000885,0,0
0:8:54.963,1046.11,133.193,0,0.000885,0,0
0:8:55.469,1047,133.31,0,0.000885,0,0
0:8:55.970,1047.94,133.427,0,0.000885,0,0
0:8:56.467,1049.4,133.614,0,0.000885,0,0
0:8:56.964,1050.11,133.703,0,0.000885,0,0
0:8:57.460,1050.75,133.786,0,0.000885,0,0
0:8:57.955,1052.04,133.951,0,0.000885,0,0
0:8:58.451,1052.52,134.013,0,0.000885,0,0
0:8:58.948,1054.1,134.213,0,0.000885,0,0
0:8:59.445,1055.39,134.379,0,0.000885,0,0
0:8:59.950,1056.04,134.462,0,0.000885,0,0
0:9:0.455,1057.04,134.586,0,0.000885,0,0
0:9:0.957,1057.33,134.62,0,0.000885,0,0
0:9:1.455,1059.38,134.882,0,0.000885,0,0
0:9:1.961,1059.91,134.951,0,0.000885,0,0
0:9:2.458,1060.97,135.089,0,0.000885,0,0
0:9:2.954,1061.79,135.192,0,0.000885,0,0
0:9:3.450,1062.55,135.289,0,0.000885,0,0
0:9:3.966,1064.08,135.482,0,0.000885,0,0
0:9:4.464,1064.66,135.558,0,0.000885,0,0
0:9:4.967,1066.19,135.751,0,0.000885,0,0
0:9:5.471,1067.25,135.889,0,0.000885,0,0
0:9:5.974,1070.3,136.275,0,0.000885,0,0
0:9:6.474,1070.54,136.302,0,0.000885,0,0
0:9:6.969,1070.54,136.302,0,0.000885,0,0
0:9:7.465,1070.42,136.289,0,0.000885,0,0
0:9:7.961,1070.77,136.337,0,0.000885,0,0
0:9:8.456,1071.53,136.433,0,0.000885,0,0
0:9:8.964,1073.18,136.64,0,0.000885,0,0
0:9:9.459,1074.41,136.799,0,0.000885,0,0
0:9:9.957,1075.53,136.937,0,0.000885,0,0
0:9:10.463,1076.17,137.02,0,0.000885,0,0
0:9:10.967,1077.81,137.233,0,0.000885,0,0
0:9:11.469,1079.4,137.433,0,0.000885,0,0
0:9:11.966,1079.63,137.461,0,0.000885,0,0
0:9:12.470,1080.46,137.571,0,0.000885,0,0
0:9:12.968,1081.81,137.737,0,0.000885,0,0
0:9:13.465,1082.69,137.854,0,0.000885,0,0
0:9:13.959,1083.86,137.999,0,0.000885,0,0
0:9:14.465,1084.21,138.047,0,0.000885,0,0
0:9:14.969,1084.57,138.088,0,0.000885,0,0
0:9:15.476,1084.92,138.136,0,0.000885,0,0
0:9:15.979,1086.44,138.33,0,0.000885,0,0
0:9:16.483,1088.56,138.598,0,0.000885,0,0
0:9:16.977,1089.08,138.667,0,0.000885,0,0
0:9:17.475,1090.37,138.833,0,0.000885,0,0
0:9:17.970,1091.61,138.985,0,0.000885,0,0
0:9:18.468,1092.61,139.116,0,0.000885,0,0
0:9:18.963,1094.01,139.295,0,0.000885,0,0
0:9:19.456,1094.48,139.357,0,0.000885,0,0
0:9:19.964,1094.89,139.405,0,0.000885,0,0
0:9:20.469,1095.9,139.536,0,0.000885,0,0
0:9:20.970,1097.01,139.674,0,0.000885,0,0
0:9:21.468,1098.36,139.846,0,0.000885,0,0
0:9:21.963,1099.12,139.943,0,0.000885,0,0
0:9:22.456,1100.06,140.067,0,0.000885,0,0
0:9:22.963,1101,140.184,0,0.000885,0,0
0:9:23.459,1102.06,140.315,0,0.000885,0,0
0:9:23.955,1102.94,140.432,0,0.000885,0,0
0:9:24.452,1104.52,140.632,0,0.000885,0,0
0:9:24.964,1105.23,140.722,0,0.000885,0,0
0:9:25.469,1105.93,140.812,0,0.000885,0,0
0:9:25.972,1107.05,140.956,0,0.000885,0,0
0:9:26.469,1106.17,140.839,0,0.000885,0,0
0:9:26.966,1105.58,140.763,0,0.000885,0,0
0:9:27.458,1106.11,140.832,0,0.000885,0,0
0:9:27.956,1109.22,141.232,0,0.000885,0,0
0:9:28.464,1111.1,141.467,0,0.000885,0,0
0:9:28.959,1113.15,141.729,0,0.000885,0,0
0:9:29.455,1114.68,141.929,0,0.000885,0,0
0:9:29.952,1115.62,142.046,0,0.000885,0,0
0:9:30.458,1116.73,142.184,0,0.000885,0,0
0:9:30.964,1118.2,142.377,0,0.000885,0,0
0:9:31.463,1117.61,142.301,0,0.000885,0,0
0:9:31.968,1116.97,142.218,0,0.000885,0,0
0:9:32.472,1109.86,141.315,0,0.000885,0,0
0:9:32.966,1112.15,141.605,0,0.000885,0,0
0:9:33.471,1115.5,142.032,0,0.000885,0,0
0:9:33.965,1120.31,142.646,0,0.000885,0,0
0:9:34.464,1123.37,143.032,0,0.000885,0,0
0:9:34.854,1075.53,136.937,0,0.000885,0,0