File: DataFile2021-06-29_063604.csv
Test ID:,Date Tested:,Time:,Test Type:,Diameter Avg. (mm):,Cyl. Corr. Factor:,Height (mm):,Age (days):,Weight (kN):,Break Type:,Ramp Rate (MPa/s):,Load at Break (kN):,Stress at Break (MPa):
12,6/29/2021,06:36,Cylinder,100,1,200,0,3.6,3,0.25,759.37,96.69
Sample Time,Load (kN),Stress (MPa),Long. Strain,Trans. Strain,Chan1 Deflection (mm),Chan2 Deflection (mm)
0:0:17.092,7.15719,0.910108,0,0.000885,0,0
0:0:17.487,13.8429,1.76506,0,0.000885,0,0
0:0:17.883,13.3135,1.69611,0,0.000885,0,0
0:0:18.281,12.4328,1.58579,0,0.000885,0,0
0:0:18.679,12.1392,1.54443,0,0.000885,0,0
0:0:19.076,11.3786,1.4479,0,0.000885,0,0
0:0:19.470,11.1428,1.42032,0,0.000885,0,0
0:0:19.866,11.4364,1.45479,0,0.000885,0,0
0:0:20.266,11.4364,1.45479,0,0.000885,0,0
0:0:20.662,12.2015,1.55132,0,0.000885,0,0
0:0:21.056,12.3171,1.56511,0,0.000885,0,0
0:0:21.451,12.4328,1.58579,0,0.000885,0,0
0:0:21.850,13.3714,1.70301,0,0.000885,0,0
0:0:22.248,13.9585,1.77885,0,0.000885,0,0
0:0:22.655,14.7192,1.87537,0,0.000885,0,0
0:0:23.060,16.0136,2.04085,0,0.000885,0,0
0:0:23.461,16.9522,2.15806,0,0.000885,0,0
0:0:23.865,18.1799,2.31664,0,0.000885,0,0
0:0:24.265,19.2386,2.44764,0,0.000885,0,0
0:0:24.661,20.4707,2.60622,0,0.000885,0,0
0:0:25.058,21.4671,2.73032,0,0.000885,0,0
0:0:25.458,22.4057,2.85443,0,0.000885,0,0
0:0:25.859,23.0507,2.93717,0,0.000885,0,0
0:0:26.254,23.8113,3.03369,0,0.000885,0,0
0:0:26.650,24.4563,3.11643,0,0.000885,0,0
0:0:27.050,25.2792,3.21985,0,0.000885,0,0
0:0:27.450,25.6885,3.26811,0,0.000885,0,0
0:0:27.856,26.3335,3.35085,0,0.000885,0,0
0:0:28.260,27.0363,3.44048,0,0.000885,0,0
0:0:28.664,27.7436,3.53012,0,0.000885,0,0
0:0:29.065,28.74,3.66112,0,0.000885,0,0
0:0:29.464,29.2648,3.72317,0,0.000885,0,0
0:0:29.859,29.9721,3.8128,0,0.000885,0,0
0:0:30.256,30.7906,3.92312,0,0.000885,0,0
0:0:30.657,31.4934,4.01275,0,0.000885,0,0
0:0:31.057,32.3742,4.12306,0,0.000885,0,0
0:0:31.455,33.5485,4.27475,0,0.000885,0,0
0:0:31.850,34.367,4.37817,0,0.000885,0,0
0:0:32.249,35.3055,4.49538,0,0.000885,0,0
0:0:32.652,36.0706,4.59191,0,0.000885,0,0
0:0:33.059,36.7734,4.68154,0,0.000885,0,0
0:0:33.463,37.6542,4.79186,0,0.000885,0,0
0:0:33.867,38.1213,4.85391,0,0.000885,0,0
0:0:34.266,38.5349,4.90907,0,0.000885,0,0
0:0:34.666,39.5313,5.03317,0,0.000885,0,0
0:0:35.063,40.4699,5.15038,0,0.000885,0,0
0:0:35.460,41.2306,5.24691,0,0.000885,0,0
0:0:35.858,42.1691,5.37102,0,0.000885,0,0
0:0:36.259,42.8141,5.45375,0,0.000885,0,0
0:0:36.657,43.8105,5.57786,0,0.000885,0,0
0:0:37.052,44.3977,5.6537,0,0.000885,0,0
0:0:37.457,45.2206,5.75712,0,0.000885,0,0
0:0:37.863,46.0391,5.86054,0,0.000885,0,0
0:0:38.268,47.2134,6.01223,0,0.000885,0,0
0:0:38.671,47.8006,6.08807,0,0.000885,0,0
0:0:39.067,48.5612,6.1846,0,0.000885,0,0
0:0:39.466,49.1484,6.26044,0,0.000885,0,0
0:0:39.866,49.6199,6.3156,0,0.000885,0,0
0:0:40.263,50.3806,6.41212,0,0.000885,0,0
0:0:40.661,51.0834,6.50176,0,0.000885,0,0
0:0:41.057,52.0798,6.63276,0,0.000885,0,0
0:0:41.457,52.7248,6.71549,0,0.000885,0,0
0:0:41.858,53.4899,6.81202,0,0.000885,0,0
0:0:42.254,54.6642,6.95681,0,0.000885,0,0
0:0:42.659,55.4827,7.06713,0,0.000885,0,0
0:0:43.064,56.3056,7.17055,0,0.000885,0,0
0:0:43.467,57.2442,7.28776,0,0.000885,0,0
0:0:43.872,57.5956,7.33602,0,0.000885,0,0
0:0:44.268,58.7076,7.47392,0,0.000885,0,0
0:0:44.666,59.059,7.52218,0,0.000885,0,0
0:0:45.065,60.2912,7.67386,0,0.000885,0,0
0:0:45.465,60.7627,7.73592,0,0.000885,0,0
0:0:45.862,61.4655,7.82555,0,0.000885,0,0
0:0:46.258,62.8712,8.00481,0,0.000885,0,0
0:0:46.654,63.4583,8.08066,0,0.000885,0,0
0:0:47.056,64.1656,8.17029,0,0.000885,0,0
0:0:47.452,64.8106,8.25302,0,0.000885,0,0
0:0:47.859,65.6291,8.35645,0,0.000885,0,0
0:0:48.264,66.2162,8.43229,0,0.000885,0,0
0:0:48.667,67.097,8.5426,0,0.000885,0,0
0:0:49.072,68.209,8.68739,0,0.000885,0,0
0:0:49.469,68.9163,8.77703,0,0.000885,0,0
0:0:49.865,69.9705,8.90803,0,0.000885,0,0
0:0:50.261,70.144,8.92871,0,0.000885,0,0
0:0:50.661,71.0248,9.04592,0,0.000885,0,0
0:0:51.060,71.7898,9.14245,0,0.000885,0,0
0:0:51.458,72.7863,9.26655,0,0.000885,0,0
0:0:51.854,73.1377,9.31482,0,0.000885,0,0
0:0:52.256,74.0184,9.42513,0,0.000885,0,0
0:0:52.654,74.8369,9.52855,0,0.000885,0,0
0:0:53.061,76.1269,9.69403,0,0.000885,0,0
0:0:53.464,76.7719,9.77677,0,0.000885,0,0
0:0:53.868,77.4791,9.8664,0,0.000885,0,0
0:0:54.271,78.1241,9.94913,0,0.000885,0,0
0:0:54.669,78.9426,10.0526,0,0.000885,0,0
0:0:55.065,79.5876,10.1353,0,0.000885,0,0
0:0:55.464,80.2326,10.218,0,0.000885,0,0
0:0:55.865,81.3491,10.3559,0,0.000885,0,0
0:0:56.264,82.2877,10.48,0,0.000885,0,0
0:0:56.661,83.2262,10.5972,0,0.000885,0,0
0:0:57.056,83.4575,10.6248,0,0.000885,0,0
0:0:57.460,84.4584,10.7558,0,0.000885,0,0
0:0:57.868,85.6905,10.9075,0,0.000885,0,0
0:0:58.272,86.2154,10.9765,0,0.000885,0,0
0:0:58.673,86.8026,11.0523,0,0.000885,0,0
0:0:59.068,87.5632,11.1488,0,0.000885,0,0
0:0:59.470,88.3862,11.2522,0,0.000885,0,0
0:0:59.870,89.4404,11.3901,0,0.000885,0,0
0:1:0.265,90.0854,11.4729,0,0.000885,0,0
0:1:0.662,90.9083,11.5763,0,0.000885,0,0
0:1:1.059,91.3175,11.6246,0,0.000885,0,0
0:1:1.460,92.0826,11.7211,0,0.000885,0,0
0:1:1.860,93.2525,11.8728,0,0.000885,0,0
0:1:2.254,93.6662,11.9279,0,0.000885,0,0
0:1:2.659,94.4847,12.0314,0,0.000885,0,0
0:1:3.064,95.014,12.1003,0,0.000885,0,0
0:1:3.467,96.0682,12.2313,0,0.000885,0,0
0:1:3.871,97.2426,12.383,0,0.000885,0,0
0:1:4.267,97.8297,12.4588,0,0.000885,0,0
0:1:4.664,98.3591,12.5209,0,0.000885,0,0
0:1:5.066,99.3555,12.6519,0,0.000885,0,0
0:1:5.464,100.116,12.7484,0,0.000885,0,0
0:1:5.861,100.997,12.8587,0,0.000885,0,0
0:1:6.257,101.584,12.9346,0,0.000885,0,0
0:1:6.657,102.754,13.0862,0,0.000885,0,0
0:1:7.058,103.11,13.1276,0,0.000885,0,0
0:1:7.454,103.341,13.1552,0,0.000885,0,0
0:1:7.861,104.458,13.3,0,0.000885,0,0
0:1:8.265,105.921,13.4861,0,0.000885,0,0
0:1:8.669,106.802,13.5965,0,0.000885,0,0
0:1:9.072,107.153,13.6447,0,0.000885,0,0
0:1:9.469,107.976,13.7481,0,0.000885,0,0
0:1:9.866,108.563,13.824,0,0.000885,0,0
0:1:10.266,109.208,13.9067,0,0.000885,0,0
0:1:10.663,110.027,14.0101,0,0.000885,0,0
0:1:11.060,111.259,14.1687,0,0.000885,0,0
0:1:11.456,111.846,14.2377,0,0.000885,0,0
0:1:11.855,112.785,14.3618,0,0.000885,0,0
0:1:12.257,113.781,14.4859,0,0.000885,0,0
0:1:12.663,114.368,14.5617,0,0.000885,0,0
0:1:13.067,115.543,14.7134,0,0.000885,0,0
0:1:13.470,116.539,14.8375,0,0.000885,0,0
0:1:13.872,116.361,14.8168,0,0.000885,0,0
0:1:14.271,117.651,14.9823,0,0.000885,0,0
0:1:14.667,118.474,15.0857,0,0.000885,0,0
0:1:15.062,119.061,15.1616,0,0.000885,0,0
0:1:15.463,119.764,15.2512,0,0.000885,0,0
0:1:15.862,120.587,15.3546,0,0.000885,0,0
0:1:16.261,120.818,15.3822,0,0.000885,0,0
0:1:16.657,121.819,15.5132,0,0.000885,0,0
0:1:17.053,122.58,15.6097,0,0.000885,0,0
0:1:17.456,123.692,15.7476,0,0.000885,0,0
0:1:17.863,124.75,15.8855,0,0.000885,0,0
0:1:18.266,125.631,15.9958,0,0.000885,0,0
0:1:18.669,125.747,16.0096,0,0.000885,0,0
0:1:19.068,126.859,16.1544,0,0.000885,0,0
0:1:19.468,126.979,16.1682,0,0.000885,0,0
0:1:19.867,127.74,16.2647,0,0.000885,0,0
0:1:20.262,128.736,16.3888,0,0.000885,0,0
0:1:20.659,129.968,16.5474,0,0.000885,0,0
0:1:21.060,130.965,16.6784,0,0.000885,0,0
0:1:21.458,131.436,16.7336,0,0.000885,0,0
0:1:21.856,132.139,16.8232,0,0.000885,0,0
0:1:22.252,133.255,16.968,0,0.000885,0,0
0:1:22.656,134.252,17.0921,0,0.000885,0,0
0:1:23.062,134.603,17.1404,0,0.000885,0,0
0:1:23.466,135.484,17.2507,0,0.000885,0,0
0:1:23.870,136.596,17.3955,0,0.000885,0,0
0:1:24.267,137.361,17.492,0,0.000885,0,0
0:1:24.665,138.357,17.6161,0,0.000885,0,0
0:1:25.067,138.531,17.6368,0,0.000885,0,0
0:1:25.462,139.354,17.7402,0,0.000885,0,0
0:1:25.858,139.647,17.7816,0,0.000885,0,0
0:1:26.259,140.528,17.8919,0,0.000885,0,0
0:1:26.659,141.289,17.9884,0,0.000885,0,0
0:1:27.057,142.695,18.1677,0,0.000885,0,0
0:1:27.453,143.517,18.2711,0,0.000885,0,0
0:1:27.858,144.047,18.3401,0,0.000885,0,0
0:1:28.264,144.807,18.4366,0,0.000885,0,0
0:1:28.666,145.862,18.5745,0,0.000885,0,0
0:1:29.071,146.569,18.6641,0,0.000885,0,0
0:1:29.467,146.92,18.7055,0,0.000885,0,0
0:1:29.865,147.975,18.8434,0,0.000885,0,0
0:1:30.266,148.855,18.9537,0,0.000885,0,0
0:1:30.663,149.736,19.064,0,0.000885,0,0
0:1:31.059,150.612,19.1743,0,0.000885,0,0
0:1:31.455,151.2,19.2502,0,0.000885,0,0
0:1:31.855,152.374,19.4018,0,0.000885,0,0
0:1:32.254,152.845,19.4639,0,0.000885,0,0
0:1:32.659,152.961,19.4777,0,0.000885,0,0
0:1:33.064,154.073,19.6156,0,0.000885,0,0
0:1:33.468,155.012,19.7397,0,0.000885,0,0
0:1:33.872,156.422,19.919,0,0.000885,0,0
0:1:34.269,156.947,19.981,0,0.000885,0,0
0:1:34.667,157.947,20.112,0,0.000885,0,0
0:1:35.062,158.241,20.1465,0,0.000885,0,0
0:1:35.461,159.117,20.2568,0,0.000885,0,0
0:1:35.862,159.882,20.3533,0,0.000885,0,0
0:1:36.258,160.349,20.4154,0,0.000885,0,0
0:1:36.655,161.582,20.574,0,0.000885,0,0
0:1:37.054,161.875,20.6084,0,0.000885,0,0
0:1:37.454,162.636,20.705,0,0.000885,0,0
0:1:37.861,163.517,20.8222,0,0.000885,0,0
0:1:38.264,164.513,20.9463,0,0.000885,0,0
0:1:38.666,164.864,20.9945,0,0.000885,0,0
0:1:39.067,165.923,21.1255,0,0.000885,0,0
0:1:39.466,166.977,21.2634,0,0.000885,0,0
0:1:39.863,167.622,21.3393,0,0.000885,0,0
0:1:40.258,168.267,21.422,0,0.000885,0,0
0:1:40.656,168.97,21.5116,0,0.000885,0,0
0:1:41.058,170.144,21.6633,0,0.000885,0,0
0:1:41.463,170.91,21.7599,0,0.000885,0,0
0:1:41.859,171.434,21.8288,0,0.000885,0,0
0:1:42.257,172.724,21.9943,0,0.000885,0,0
0:1:42.660,173.49,22.0908,0,0.000885,0,0
0:1:43.066,174.602,22.2287,0,0.000885,0,0
0:1:43.471,175.011,22.2839,0,0.000885,0,0
0:1:43.874,175.776,22.3804,0,0.000885,0,0
0:1:44.273,176.714,22.4976,0,0.000885,0,0
0:1:44.671,177.359,22.5803,0,0.000885,0,0
0:1:45.070,177.475,22.5941,0,0.000885,0,0
0:1:45.466,178.356,22.7113,0,0.000885,0,0
0:1:45.862,179.179,22.8148,0,0.000885,0,0
0:1:46.263,180.411,22.9733,0,0.000885,0,0
0:1:46.662,180.994,23.0423,0,0.000885,0,0
0:1:47.057,181.701,23.1319,0,0.000885,0,0
0:1:47.463,182.577,23.2491,0,0.000885,0,0
0:1:47.867,183.342,23.3456,0,0.000885,0,0
0:1:48.271,184.748,23.5249,0,0.000885,0,0
0:1:48.673,184.984,23.5525,0,0.000885,0,0
0:1:49.071,185.513,23.6214,0,0.000885,0,0
0:1:49.466,186.567,23.7524,0,0.000885,0,0
0:1:49.867,187.448,23.8696,0,0.000885,0,0
0:1:50.265,187.799,23.911,0,0.000885,0,0
0:1:50.662,188.796,24.0351,0,0.000885,0,0
0:1:51.059,190.202,24.2144,0,0.000885,0,0
0:1:51.459,190.615,24.2695,0,0.000885,0,0
0:1:51.858,191.318,24.3592,0,0.000885,0,0
0:1:52.263,192.021,24.4488,0,0.000885,0,0
0:1:52.669,192.55,24.5178,0,0.000885,0,0
0:1:53.073,193.489,24.635,0,0.000885,0,0
0:1:53.472,194.369,24.7453,0,0.000885,0,0
0:1:53.873,195.539,24.897,0,0.000885,0,0
0:1:54.266,195.482,24.8901,0,0.000885,0,0
0:1:54.660,196.42,25.0073,0,0.000885,0,0
0:1:55.057,197.594,25.159,0,0.000885,0,0
0:1:55.453,198.649,25.29,0,0.000885,0,0
0:1:55.859,198.764,25.3107,0,0.000885,0,0
0:1:56.250,199.529,25.4072,0,0.000885,0,0
0:1:56.644,200.526,25.5313,0,0.000885,0,0
0:1:57.050,201.229,25.6209,0,0.000885,0,0
0:1:57.447,202.403,25.7726,0,0.000885,0,0
0:1:57.853,203.226,25.876,0,0.000885,0,0
0:1:58.251,204.102,25.9863,0,0.000885,0,0
0:1:58.653,204.809,26.076,0,0.000885,0,0
0:1:59.051,205.277,26.138,0,0.000885,0,0
0:1:59.447,206.157,26.2483,0,0.000885,0,0
0:1:59.850,207.212,26.3862,0,0.000885,0,0
0:2:0.243,207.447,26.4138,0,0.000885,0,0
0:2:0.640,208.679,26.5724,0,0.000885,0,0
0:2:1.038,209.089,26.6207,0,0.000885,0,0
0:2:1.440,210.379,26.7861,0,0.000885,0,0
0:2:1.835,211.081,26.8758,0,0.000885,0,0
0:2:2.240,211.789,26.9654,0,0.000885,0,0
0:2:2.641,212.082,26.9999,0,0.000885,0,0
0:2:3.043,213.016,27.124,0,0.000885,0,0
0:2:3.443,214.075,27.255,0,0.000885,0,0
0:2:3.843,214.72,27.3377,0,0.000885,0,0
0:2:4.249,215.423,27.4273,0,0.000885,0,0
0:2:4.646,216.068,27.5101,0,0.000885,0,0
0:2:5.051,216.949,27.6204,0,0.000885,0,0
0:2:5.457,217.594,27.7031,0,0.000885,0,0
0:2:5.860,218.123,27.7721,0,0.000885,0,0
0:2:6.256,219.471,27.9445,0,0.000885,0,0
0:2:6.651,220.645,28.0961,0,0.000885,0,0
0:2:7.046,221.348,28.1858,0,0.000885,0,0
0:2:7.459,222.109,28.2823,0,0.000885,0,0
0:2:7.863,222.696,28.3512,0,0.000885,0,0
0:2:8.265,223.577,28.4685,0,0.000885,0,0
0:2:8.665,224.457,28.5788,0,0.000885,0,0
0:2:9.067,224.982,28.6477,0,0.000885,0,0
0:2:9.462,225.627,28.7305,0,0.000885,0,0
0:2:9.857,226.45,28.8339,0,0.000885,0,0
0:2:10.250,227.211,28.9304,0,0.000885,0,0
0:2:10.645,227.976,29.0269,0,0.000885,0,0
0:2:11.041,228.794,29.1303,0,0.000885,0,0
0:2:11.432,229.617,29.2338,0,0.000885,0,0
0:2:11.830,230.614,29.3648,0,0.000885,0,0
0:2:12.228,231.437,29.4682,0,0.000885,0,0
0:2:12.632,231.904,29.5302,0,0.000885,0,0
0:2:13.033,232.549,29.6061,0,0.000885,0,0
0:2:13.432,233.545,29.7371,0,0.000885,0,0
0:2:13.829,234.368,29.8405,0,0.000885,0,0
0:2:14.227,234.955,29.9164,0,0.000885,0,0
0:2:14.619,236.009,30.0474,0,0.000885,0,0
0:2:15.013,236.539,30.1163,0,0.000885,0,0
0:2:15.409,237.184,30.199,0,0.000885,0,0
0:2:15.808,238.296,30.3438,0,0.000885,0,0
0:2:16.205,239.003,30.4335,0,0.000885,0,0
0:2:16.596,239.47,30.4886,0,0.000885,0,0
0:2:16.989,240.876,30.6679,0,0.000885,0,0
0:2:17.391,240.996,30.6817,0,0.000885,0,0
0:2:17.796,242.17,30.8334,0,0.000885,0,0
0:2:18.198,243.046,30.9437,0,0.000885,0,0
0:2:18.599,243.518,31.0057,0,0.000885,0,0
0:2:18.993,244.514,31.1298,0,0.000885,0,0
0:2:19.391,245.337,31.2401,0,0.000885,0,0
0:2:19.788,245.92,31.3091,0,0.000885,0,0
0:2:20.183,246.801,31.4263,0,0.000885,0,0
0:2:20.576,247.624,31.5297,0,0.000885,0,0
0:2:20.970,248.211,31.6056,0,0.000885,0,0
0:2:21.369,248.914,31.6952,0,0.000885,0,0
0:2:21.764,249.794,31.8055,0,0.000885,0,0
0:2:22.158,250.671,31.9158,0,0.000885,0,0
0:2:22.561,251.378,32.0055,0,0.000885,0,0
0:2:22.964,252.316,32.1227,0,0.000885,0,0
0:2:23.364,252.668,32.1709,0,0.000885,0,0
0:2:23.766,253.722,32.3019,0,0.000885,0,0
0:2:24.160,254.425,32.3916,0,0.000885,0,0
0:2:24.563,255.07,32.4743,0,0.000885,0,0
0:2:24.960,256.066,32.6053,0,0.000885,0,0
0:2:25.352,256.831,32.7018,0,0.000885,0,0
0:2:25.760,258.121,32.8673,0,0.000885,0,0
0:2:26.161,258.588,32.9225,0,0.000885,0,0
0:2:26.558,259.296,33.0121,0,0.000885,0,0
0:2:26.953,260.292,33.1431,0,0.000885,0,0
0:2:27.347,261.053,33.2396,0,0.000885,0,0
0:2:27.750,261.818,33.3362,0,0.000885,0,0
0:2:28.152,262.227,33.3844,0,0.000885,0,0
0:2:28.551,263.166,33.5085,0,0.000885,0,0
0:2:28.952,263.926,33.605,0,0.000885,0,0
0:2:29.358,264.571,33.6878,0,0.000885,0,0
0:2:29.760,265.861,33.8533,0,0.000885,0,0
0:2:30.165,265.919,33.8602,0,0.000885,0,0
0:2:30.563,267.151,34.0118,0,0.000885,0,0
0:2:30.960,267.859,34.1015,0,0.000885,0,0
0:2:31.349,268.855,34.2325,0,0.000885,0,0
0:2:31.754,269.322,34.2945,0,0.000885,0,0
0:2:32.163,270.145,34.3979,0,0.000885,0,0
0:2:32.559,270.67,34.46,0,0.000885,0,0
0:2:32.963,271.786,34.6048,0,0.000885,0,0
0:2:33.364,272.431,34.6875,0,0.000885,0,0
0:2:33.765,273.548,34.8323,0,0.000885,0,0
0:2:34.166,274.131,34.9013,0,0.000885,0,0
0:2:34.560,275.069,35.0254,0,0.000885,0,0
0:2:34.951,275.598,35.0874,0,0.000885,0,0
0:2:35.358,276.595,35.2184,0,0.000885,0,0
0:2:35.753,277.591,35.3425,0,0.000885,0,0
0:2:36.148,278.236,35.4253,0,0.000885,0,0
0:2:36.543,279.117,35.5356,0,0.000885,0,0
0:2:36.937,279.704,35.6114,0,0.000885,0,0
0:2:37.336,280.171,35.6735,0,0.000885,0,0
0:2:37.740,281.403,35.8321,0,0.000885,0,0
0:2:38.142,282.578,35.9768,0,0.000885,0,0
0:2:38.541,283.049,36.0389,0,0.000885,0,0
0:2:38.937,283.926,36.1492,0,0.000885,0,0
0:2:39.335,284.513,36.2251,0,0.000885,0,0
0:2:39.740,285.509,36.3492,0,0.000885,0,0
0:2:40.142,286.038,36.4181,0,0.000885,0,0
0:2:40.535,286.683,36.5008,0,0.000885,0,0
0:2:40.933,287.444,36.5974,0,0.000885,0,0
0:2:41.331,288.325,36.7077,0,0.000885,0,0
0:2:41.724,289.148,36.818,0,0.000885,0,0
0:2:42.117,289.793,36.9007,0,0.000885,0,0
0:2:42.519,290.673,37.0111,0,0.000885,0,0
0:2:42.922,291.55,37.1214,0,0.000885,0,0
0:2:43.323,292.724,37.2731,0,0.000885,0,0
0:2:43.722,293.547,37.3765,0,0.000885,0,0
0:2:44.116,294.25,37.4661,0,0.000885,0,0
0:2:44.515,294.837,37.542,0,0.000885,0,0
0:2:44.912,295.362,37.604,0,0.000885,0,0
0:2:45.305,296.185,37.7143,0,0.000885,0,0
0:2:45.698,296.772,37.7833,0,0.000885,0,0
0:2:46.093,297.533,37.8798,0,0.000885,0,0
0:2:46.490,298.062,37.9487,0,0.000885,0,0
0:2:46.887,299.058,38.0797,0,0.000885,0,0
0:2:47.278,300.175,38.2176,0,0.000885,0,0
0:2:47.679,300.468,38.259,0,0.000885,0,0
0:2:48.083,301.465,38.3831,0,0.000885,0,0
0:2:48.484,302.283,38.4865,0,0.000885,0,0
0:2:48.885,302.928,38.5693,0,0.000885,0,0
0:2:49.280,304.103,38.721,0,0.000885,0,0
0:2:49.678,304.863,38.8175,0,0.000885,0,0
0:2:50.076,306.095,38.9761,0,0.000885,0,0
0:2:50.469,306.509,39.0243,0,0.000885,0,0
0:2:50.862,307.092,39.1002,0,0.000885,0,0
0:2:51.267,308.324,39.2587,0,0.000885,0,0
0:2:51.664,308.56,39.2863,0,0.000885,0,0
0:2:52.060,309.383,39.3897,0,0.000885,0,0
0:2:52.463,310.259,39.507,0,0.000885,0,0
0:2:52.865,311.198,39.6242,0,0.000885,0,0
0:2:53.265,311.669,39.6862,0,0.000885,0,0
0:2:53.666,312.43,39.7827,0,0.000885,0,0
0:2:54.056,313.253,39.8862,0,0.000885,0,0
0:2:54.462,314.013,39.9827,0,0.000885,0,0
0:2:54.856,314.836,40.0861,0,0.000885,0,0
0:2:55.254,316.242,40.2654,0,0.000885,0,0
0:2:55.649,316.771,40.3343,0,0.000885,0,0
0:2:56.063,317.474,40.424,0,0.000885,0,0
0:2:56.467,318.355,40.5343,0,0.000885,0,0
0:2:56.865,318.706,40.5756,0,0.000885,0,0
0:2:57.261,319.703,40.7066,0,0.000885,0,0
0:2:57.665,320.348,40.7894,0,0.000885,0,0
0:2:58.067,321.464,40.9273,0,0.000885,0,0
0:2:58.467,322.109,41.01,0,0.000885,0,0
0:2:58.869,322.696,41.0859,0,0.000885,0,0
0:2:59.262,323.399,41.1755,0,0.000885,0,0
0:2:59.664,324.16,41.272,0,0.000885,0,0
0:3:0.057,325.161,41.403,0,0.000885,0,0
0:3:0.455,325.45,41.4375,0,0.000885,0,0
0:3:0.862,326.388,41.5547,0,0.000885,0,0
0:3:1.252,327.447,41.6926,0,0.000885,0,0
0:3:1.655,328.15,41.7822,0,0.000885,0,0
0:3:2.052,328.679,41.8512,0,0.000885,0,0
0:3:2.449,329.324,41.9339,0,0.000885,0,0
0:3:2.854,330.2,42.0442,0,0.000885,0,0
0:3:3.255,331.259,42.1752,0,0.000885,0,0
0:3:3.656,331.846,42.2511,0,0.000885,0,0
0:3:4.056,333.136,42.4165,0,0.000885,0,0
0:3:4.451,334.248,42.5613,0,0.000885,0,0
0:3:4.844,334.893,42.6372,0,0.000885,0,0
0:3:5.239,335.538,42.7199,0,0.000885,0,0
0:3:5.636,336.303,42.8164,0,0.000885,0,0
0:3:6.034,337.415,42.9612,0,0.000885,0,0
0:3:6.426,338.238,43.0647,0,0.000885,0,0
0:3:6.820,338.296,43.0715,0,0.000885,0,0
0:3:7.222,339.528,43.2301,0,0.000885,0,0
0:3:7.626,340.173,43.3129,0,0.000885,0,0
0:3:8.026,341.228,43.4439,0,0.000885,0,0
0:3:8.427,341.873,43.5266,0,0.000885,0,0
0:3:8.822,342.286,43.5818,0,0.000885,0,0
0:3:9.219,342.695,43.63,0,0.000885,0,0
0:3:9.614,343.634,43.7541,0,0.000885,0,0
0:3:10.008,344.452,43.8576,0,0.000885,0,0
0:3:10.403,345.04,43.9334,0,0.000885,0,0
0:3:10.799,345.92,44.0437,0,0.000885,0,0
0:3:11.195,346.681,44.1402,0,0.000885,0,0
0:3:11.589,347.74,44.2781,0,0.000885,0,0
0:3:11.981,348.736,44.4022,0,0.000885,0,0
0:3:12.383,349.265,44.4712,0,0.000885,0,0
0:3:12.785,350.613,44.6436,0,0.000885,0,0
0:3:13.187,351.258,44.7263,0,0.000885,0,0
0:3:13.588,351.432,44.747,0,0.000885,0,0
0:3:13.982,352.548,44.8849,0,0.000885,0,0
0:3:14.381,353.251,44.9745,0,0.000885,0,0
0:3:14.776,353.545,45.0159,0,0.000885,0,0
0:3:15.169,354.247,45.1055,0,0.000885,0,0
0:3:15.563,355.422,45.2503,0,0.000885,0,0
0:3:15.957,356.538,45.3951,0,0.000885,0,0
0:3:16.367,357.535,45.5192,0,0.000885,0,0
0:3:16.769,358.002,45.5812,0,0.000885,0,0
0:3:17.162,358.473,45.6433,0,0.000885,0,0
0:3:17.563,359.528,45.7743,0,0.000885,0,0
0:3:17.968,360.582,45.9122,0,0.000885,0,0
0:3:18.367,360.644,45.9191,0,0.000885,0,0
0:3:18.769,362.107,46.1052,0,0.000885,0,0
0:3:19.161,362.81,46.1949,0,0.000885,0,0
0:3:19.557,363.633,46.2983,0,0.000885,0,0
0:3:19.966,364.336,46.3879,0,0.000885,0,0
0:3:20.358,364.865,46.4569,0,0.000885,0,0
0:3:20.751,365.746,46.5672,0,0.000885,0,0
0:3:21.147,366.743,46.6982,0,0.000885,0,0
0:3:21.543,367.094,46.7396,0,0.000885,0,0
0:3:21.940,367.912,46.843,0,0.000885,0,0
0:3:22.343,368.851,46.9671,0,0.000885,0,0
0:3:22.744,369.79,47.0843,0,0.000885,0,0
0:3:23.145,370.497,47.1739,0,0.000885,0,0
0:3:23.546,371.315,47.2774,0,0.000885,0,0
0:3:23.959,371.845,47.3463,0,0.000885,0,0
0:3:24.362,372.783,47.4635,0,0.000885,0,0
0:3:24.756,373.37,47.5394,0,0.000885,0,0
0:3:25.154,374.776,47.7186,0,0.000885,0,0
0:3:25.549,375.248,47.7807,0,0.000885,0,0
0:3:25.941,375.772,47.8427,0,0.000885,0,0
0:3:26.337,376.769,47.9737,0,0.000885,0,0
0:3:26.733,377.707,48.0909,0,0.000885,0,0
0:3:27.129,378.179,48.153,0,0.000885,0,0
0:3:27.533,378.588,48.2012,0,0.000885,0,0
0:3:27.934,379.411,48.3047,0,0.000885,0,0
0:3:28.334,380.465,48.4426,0,0.000885,0,0
0:3:28.736,381.52,48.5736,0,0.000885,0,0
0:3:29.129,382.578,48.7115,0,0.000885,0,0
0:3:29.524,383.045,48.7735,0,0.000885,0,0
0:3:29.919,383.69,48.8563,0,0.000885,0,0
0:3:30.318,384.513,48.9597,0,0.000885,0,0
0:3:30.711,385.274,49.0562,0,0.000885,0,0
0:3:31.105,385.745,49.1114,0,0.000885,0,0
0:3:31.500,386.684,49.2355,0,0.000885,0,0
0:3:31.898,387.738,49.3665,0,0.000885,0,0
0:3:32.292,388.499,49.463,0,0.000885,0,0
0:3:32.696,389.437,49.5871,0,0.000885,0,0
0:3:33.098,389.909,49.6423,0,0.000885,0,0
0:3:33.498,390.732,49.7526,0,0.000885,0,0
0:3:33.899,391.435,49.8422,0,0.000885,0,0
0:3:34.294,392.604,49.987,0,0.000885,0,0
0:3:34.688,393.37,50.0835,0,0.000885,0,0
0:3:35.081,394.25,50.2007,0,0.000885,0,0
0:3:35.479,394.66,50.249,0,0.000885,0,0
0:3:35.877,395.714,50.3869,0,0.000885,0,0
0:3:36.270,395.892,50.4076,0,0.000885,0,0
0:3:36.673,396.888,50.5317,0,0.000885,0,0
0:3:37.074,397.885,50.6627,0,0.000885,0,0
0:3:37.478,398.53,50.7454,0,0.000885,0,0
0:3:37.880,399.352,50.8488,0,0.000885,0,0
0:3:38.282,399.997,50.9316,0,0.000885,0,0
0:3:38.676,400.7,51.0212,0,0.000885,0,0
0:3:39.075,401.461,51.1177,0,0.000885,0,0
0:3:39.471,402.52,51.2487,0,0.000885,0,0
0:3:39.866,403.165,51.3315,0,0.000885,0,0
0:3:40.256,404.045,51.4418,0,0.000885,0,0
0:3:40.664,404.628,51.5176,0,0.000885,0,0
0:3:41.060,405.745,51.6624,0,0.000885,0,0
0:3:41.454,406.741,51.7865,0,0.000885,0,0
0:3:41.857,407.328,51.8624,0,0.000885,0,0
0:3:42.258,407.737,51.9175,0,0.000885,0,0
0:3:42.661,408.209,51.9727,0,0.000885,0,0
0:3:43.064,409.321,52.1175,0,0.000885,0,0
0:3:43.461,410.789,52.3036,0,0.000885,0,0
0:3:43.865,410.731,52.2967,0,0.000885,0,0
0:3:44.264,411.963,52.4553,0,0.000885,0,0
0:3:44.659,412.666,52.5449,0,0.000885,0,0
0:3:45.053,413.72,52.6759,0,0.000885,0,0
0:3:45.446,414.365,52.7587,0,0.000885,0,0
0:3:45.843,415.01,52.8414,0,0.000885,0,0
0:3:46.241,415.655,52.9242,0,0.000885,0,0
0:3:46.636,416.358,53.0138,0,0.000885,0,0
0:3:47.029,417.59,53.1724,0,0.000885,0,0
0:3:47.431,418.942,53.3378,0,0.000885,0,0
0:3:47.833,419.232,53.3792,0,0.000885,0,0
0:3:48.233,419.997,53.4757,0,0.000885,0,0
0:3:48.633,420.464,53.5378,0,0.000885,0,0
0:3:49.027,421.522,53.6688,0,0.000885,0,0
0:3:49.424,422.11,53.7446,0,0.000885,0,0
0:3:49.821,422.634,53.8136,0,0.000885,0,0
0:3:50.214,423.279,53.8963,0,0.000885,0,0
0:3:50.609,424.338,54.0273,0,0.000885,0,0
0:3:51.004,425.099,54.1238,0,0.000885,0,0
0:3:51.401,426.037,54.248,0,0.000885,0,0
0:3:51.799,426.624,54.3169,0,0.000885,0,0
0:3:52.203,427.679,54.4548,0,0.000885,0,0
0:3:52.603,428.208,54.5237,0,0.000885,0,0
0:3:53.003,428.911,54.6134,0,0.000885,0,0
0:3:53.402,429.849,54.7306,0,0.000885,0,0
0:3:53.799,430.788,54.8478,0,0.000885,0,0
0:3:54.188,431.433,54.9305,0,0.000885,0,0
0:3:54.582,431.784,54.9788,0,0.000885,0,0
0:3:54.981,432.901,55.1167,0,0.000885,0,0
0:3:55.376,433.484,55.1925,0,0.000885,0,0
0:3:55.770,434.716,55.3511,0,0.000885,0,0
0:3:56.172,434.894,55.3718,0,0.000885,0,0
0:3:56.571,436.006,55.5166,0,0.000885,0,0
0:3:56.969,436.477,55.5717,0,0.000885,0,0
0:3:57.373,437.825,55.7441,0,0.000885,0,0
0:3:57.774,438.764,55.8682,0,0.000885,0,0
0:3:58.172,438.999,55.8958,0,0.000885,0,0
0:3:58.571,439.88,56.0061,0,0.000885,0,0
0:3:58.963,440.467,56.082,0,0.000885,0,0
0:3:59.357,441.695,56.2405,0,0.000885,0,0
0:3:59.753,442.634,56.3577,0,0.000885,0,0
0:4:0.149,442.754,56.3715,0,0.000885,0,0
0:4:0.544,443.924,56.5232,0,0.000885,0,0
0:4:0.939,444.569,56.606,0,0.000885,0,0
0:4:1.333,445.098,56.6749,0,0.000885,0,0
0:4:1.729,446.272,56.8197,0,0.000885,0,0
0:4:2.125,447.091,56.9231,0,0.000885,0,0
0:4:2.528,447.736,57.0059,0,0.000885,0,0
0:4:2.930,448.029,57.0472,0,0.000885,0,0
0:4:3.330,449.497,57.2334,0,0.000885,0,0
0:4:3.731,450.142,57.3161,0,0.000885,0,0
0:4:4.126,450.845,57.4057,0,0.000885,0,0
0:4:4.520,451.196,57.4471,0,0.000885,0,0
0:4:4.914,452.549,57.6195,0,0.000885,0,0
0:4:5.312,453.074,57.6884,0,0.000885,0,0
0:4:5.709,454.484,57.8677,0,0.000885,0,0
0:4:6.101,454.657,57.8884,0,0.000885,0,0
0:4:6.493,455.832,58.0401,0,0.000885,0,0
0:4:6.897,456.654,58.1435,0,0.000885,0,0
0:4:7.302,457.357,58.2331,0,0.000885,0,0
0:4:7.704,458.354,58.3572,0,0.000885,0,0
0:4:8.102,458.999,58.44,0,0.000885,0,0
0:4:8.498,459.701,58.5296,0,0.000885,0,0
0:4:8.897,460.404,58.6192,0,0.000885,0,0
0:4:9.291,460.934,58.6882,0,0.000885,0,0
0:4:9.684,461.699,58.7847,0,0.000885,0,0
0:4:10.078,462.695,58.9088,0,0.000885,0,0
0:4:10.474,463.398,58.9984,0,0.000885,0,0
0:4:10.873,464.159,59.1019,0,0.000885,0,0
0:4:11.274,465.275,59.2398,0,0.000885,0,0
0:4:11.668,465.626,59.288,0,0.000885,0,0
0:4:12.070,466.156,59.3501,0,0.000885,0,0
0:4:12.473,467.326,59.5018,0,0.000885,0,0
0:4:12.874,467.971,59.5845,0,0.000885,0,0
0:4:13.274,469.087,59.7293,0,0.000885,0,0
0:4:13.669,469.732,59.8051,0,0.000885,0,0
0:4:14.067,470.493,59.9085,0,0.000885,0,0
0:4:14.459,471.489,60.0327,0,0.000885,0,0
0:4:14.875,472.197,60.1223,0,0.000885,0,0
0:4:15.268,473.366,60.274,0,0.000885,0,0
0:4:15.661,473.838,60.3291,0,0.000885,0,0
0:4:16.059,474.247,60.3843,0,0.000885,0,0
0:4:16.462,474.776,60.4532,0,0.000885,0,0
0:4:16.865,476.009,60.6049,0,0.000885,0,0
0:4:17.268,476.654,60.6877,0,0.000885,0,0
0:4:17.672,477.179,60.7566,0,0.000885,0,0
0:4:18.072,478.117,60.8738,0,0.000885,0,0
0:4:18.473,478.589,60.9359,0,0.000885,0,0
0:4:18.865,479.407,61.0393,0,0.000885,0,0
0:4:19.274,480.817,61.2185,0,0.000885,0,0
0:4:19.670,481.347,61.2875,0,0.000885,0,0
0:4:20.074,482.401,61.4185,0,0.000885,0,0
0:4:20.477,483.281,61.5357,0,0.000885,0,0
0:4:20.871,484.042,61.6322,0,0.000885,0,0
0:4:21.270,484.514,61.6874,0,0.000885,0,0
0:4:21.662,485.274,61.7839,0,0.000885,0,0
0:4:22.064,486.035,61.8873,0,0.000885,0,0
0:4:22.469,486.974,62.0046,0,0.000885,0,0
0:4:22.869,487.912,62.1218,0,0.000885,0,0
0:4:23.270,488.206,62.1631,0,0.000885,0,0
0:4:23.662,489.264,62.2941,0,0.000885,0,0
0:4:24.064,490.141,62.4044,0,0.000885,0,0
0:4:24.471,491.079,62.5286,0,0.000885,0,0
0:4:24.869,491.786,62.6182,0,0.000885,0,0
0:4:25.261,492.721,62.7354,0,0.000885,0,0
0:4:25.655,492.956,62.763,0,0.000885,0,0
0:4:26.059,493.37,62.8181,0,0.000885,0,0
0:4:26.464,494.66,62.9836,0,0.000885,0,0
0:4:26.875,495.421,63.0801,0,0.000885,0,0
0:4:27.278,496.595,63.2249,0,0.000885,0,0
0:4:27.680,496.889,63.2663,0,0.000885,0,0
0:4:28.080,497.827,63.3835,0,0.000885,0,0
0:4:28.480,498.352,63.4525,0,0.000885,0,0
0:4:28.875,499.936,63.6524,0,0.000885,0,0
0:4:29.269,500.701,63.7489,0,0.000885,0,0
0:4:29.671,501.461,63.8455,0,0.000885,0,0
0:4:30.070,501.813,63.8937,0,0.000885,0,0
0:4:30.476,502.694,64.004,0,0.000885,0,0
0:4:30.878,503.161,64.0661,0,0.000885,0,0
0:4:31.271,504.219,64.1971,0,0.000885,0,0
0:4:31.665,505.1,64.3143,0,0.000885,0,0
0:4:32.064,505.861,64.4108,0,0.000885,0,0
0:4:32.470,506.684,64.5142,0,0.000885,0,0
0:4:32.872,507.035,64.5556,0,0.000885,0,0
0:4:33.272,508.325,64.7211,0,0.000885,0,0
0:4:33.671,509.143,64.8245,0,0.000885,0,0
0:4:34.066,510.496,64.9969,0,0.000885,0,0
0:4:34.461,510.963,65.0589,0,0.000885,0,0
0:4:34.854,511.434,65.121,0,0.000885,0,0
0:4:35.249,511.959,65.183,0,0.000885,0,0
0:4:35.647,512.662,65.2727,0,0.000885,0,0
0:4:36.043,513.543,65.383,0,0.000885,0,0
0:4:36.437,514.188,65.4657,0,0.000885,0,0
0:4:36.831,515.068,65.5829,0,0.000885,0,0
0:4:37.233,515.54,65.6381,0,0.000885,0,0
0:4:37.637,516.594,65.776,0,0.000885,0,0
0:4:38.039,517.648,65.907,0,0.000885,0,0
0:4:38.440,518.645,66.038,0,0.000885,0,0
0:4:38.834,519.174,66.1,0,0.000885,0,0
0:4:39.229,519.761,66.1759,0,0.000885,0,0
0:4:39.627,520.758,66.3069,0,0.000885,0,0
0:4:40.021,521.461,66.3965,0,0.000885,0,0
0:4:40.413,521.932,66.4517,0,0.000885,0,0
0:4:40.810,522.986,66.5896,0,0.000885,0,0
0:4:41.206,523.28,66.624,0,0.000885,0,0
0:4:41.602,524.686,66.8033,0,0.000885,0,0
0:4:42.004,524.979,66.8447,0,0.000885,0,0
0:4:42.406,526.269,67.0101,0,0.000885,0,0
0:4:42.807,527.208,67.1274,0,0.000885,0,0
0:4:43.209,527.501,67.1618,0,0.000885,0,0
0:4:43.603,528.56,67.2997,0,0.000885,0,0
0:4:43.995,528.969,67.348,0,0.000885,0,0
0:4:44.388,530.317,67.5204,0,0.000885,0,0
0:4:44.786,530.553,67.5548,0,0.000885,0,0
0:4:45.183,531.727,67.6996,0,0.000885,0,0
0:4:45.575,532.546,67.803,0,0.000885,0,0
0:4:45.967,533.017,67.8651,0,0.000885,0,0
0:4:46.362,533.484,67.9271,0,0.000885,0,0
0:4:46.760,534.365,68.0375,0,0.000885,0,0
0:4:47.163,535.477,68.1823,0,0.000885,0,0
0:4:47.563,535.597,68.196,0,0.000885,0,0
0:4:47.963,537.06,68.3822,0,0.000885,0,0
0:4:48.361,537.941,68.4925,0,0.000885,0,0
0:4:48.758,538.938,68.6166,0,0.000885,0,0
0:4:49.161,539.467,68.6856,0,0.000885,0,0
0:4:49.553,540.112,68.7683,0,0.000885,0,0
0:4:49.967,540.348,68.7959,0,0.000885,0,0
0:4:50.364,542.047,69.0165,0,0.000885,0,0
0:4:50.772,542.456,69.0648,0,0.000885,0,0
0:4:51.175,543.395,69.1889,0,0.000885,0,0
0:4:51.578,543.866,69.244,0,0.000885,0,0
0:4:51.980,544.627,69.3475,0,0.000885,0,0
0:4:52.384,545.334,69.4371,0,0.000885,0,0
0:4:52.784,545.917,69.506,0,0.000885,0,0
0:4:53.184,547.327,69.6853,0,0.000885,0,0
0:4:53.578,547.856,69.7543,0,0.000885,0,0
0:4:53.974,548.911,69.8922,0,0.000885,0,0
0:4:54.369,549.32,69.9404,0,0.000885,0,0
0:4:54.776,550.552,70.099,0,0.000885,0,0
0:4:55.167,550.846,70.1335,0,0.000885,0,0
0:4:55.563,551.958,70.2783,0,0.000885,0,0
0:4:55.968,552.607,70.361,0,0.000885,0,0
0:4:56.375,553.541,70.4782,0,0.000885,0,0
0:4:56.768,553.897,70.5265,0,0.000885,0,0
0:4:57.172,554.773,70.6368,0,0.000885,0,0
0:4:57.575,555.125,70.6782,0,0.000885,0,0
0:4:57.974,556.005,70.7954,0,0.000885,0,0
0:4:58.375,556.886,70.9057,0,0.000885,0,0
0:4:58.778,558.176,71.0712,0,0.000885,0,0
0:4:59.173,558.941,71.1677,0,0.000885,0,0
0:4:59.566,560.111,71.3125,0,0.000885,0,0
0:4:59.964,560.814,71.4021,0,0.000885,0,0
0:5:0.369,561.873,71.54,0,0.000885,0,0
0:5:0.774,562.575,71.6296,0,0.000885,0,0
0:5:1.166,562.985,71.6848,0,0.000885,0,0
0:5:1.574,563.923,71.802,0,0.000885,0,0
0:5:1.969,564.626,71.8916,0,0.000885,0,0
0:5:2.374,565.627,72.0157,0,0.000885,0,0
0:5:2.776,566.623,72.1467,0,0.000885,0,0
0:5:3.175,566.917,72.1812,0,0.000885,0,0
0:5:3.575,568.087,72.3329,0,0.000885,0,0
0:5:3.980,568.852,72.4294,0,0.000885,0,0
0:5:4.374,569.497,72.5122,0,0.000885,0,0
0:5:4.776,570.2,72.6018,0,0.000885,0,0
0:5:5.173,570.729,72.6707,0,0.000885,0,0
0:5:5.567,571.138,72.719,0,0.000885,0,0
0:5:5.973,572.37,72.8776,0,0.000885,0,0
0:5:6.366,573.193,72.981,0,0.000885,0,0
0:5:6.765,573.718,73.05,0,0.000885,0,0
0:5:7.169,574.657,73.1672,0,0.000885,0,0
0:5:7.573,575.36,73.2568,0,0.000885,0,0
0:5:7.970,575.947,73.3326,0,0.000885,0,0
0:5:8.375,577.121,73.4843,0,0.000885,0,0
0:5:8.782,578.118,73.6084,0,0.000885,0,0
0:5:9.179,578.469,73.6498,0,0.000885,0,0
0:5:9.574,579.643,73.8015,0,0.000885,0,0
0:5:9.974,580.053,73.8566,0,0.000885,0,0
0:5:10.380,580.991,73.9739,0,0.000885,0,0
0:5:10.778,581.814,74.0773,0,0.000885,0,0
0:5:11.171,582.868,74.2152,0,0.000885,0,0
0:5:11.575,583.985,74.3531,0,0.000885,0,0
0:5:11.978,584.394,74.4082,0,0.000885,0,0
0:5:12.381,585.155,74.5047,0,0.000885,0,0
0:5:12.781,585.862,74.5944,0,0.000885,0,0
0:5:13.181,586.387,74.6633,0,0.000885,0,0
0:5:13.575,587.152,74.7599,0,0.000885,0,0
0:5:13.980,588.028,74.8702,0,0.000885,0,0
0:5:14.376,589.029,74.9943,0,0.000885,0,0
0:5:14.782,589.554,75.0632,0,0.000885,0,0
0:5:15.178,590.613,75.2011,0,0.000885,0,0
0:5:15.571,591.08,75.2563,0,0.000885,0,0
0:5:15.970,592.138,75.3942,0,0.000885,0,0
0:5:16.367,592.726,75.47,0,0.000885,0,0
0:5:16.762,593.606,75.5803,0,0.000885,0,0
0:5:17.166,593.842,75.6079,0,0.000885,0,0
0:5:17.569,594.723,75.7251,0,0.000885,0,0
0:5:17.972,596.013,75.8837,0,0.000885,0,0
0:5:18.374,596.836,75.994,0,0.000885,0,0
0:5:18.778,597.596,76.0905,0,0.000885,0,0
0:5:19.175,598.419,76.194,0,0.000885,0,0
0:5:19.583,599.184,76.2905,0,0.000885,0,0
0:5:19.982,599.767,76.3663,0,0.000885,0,0
0:5:20.378,600.296,76.4353,0,0.000885,0,0
0:5:20.782,601.471,76.5801,0,0.000885,0,0
0:5:21.179,601.706,76.6145,0,0.000885,0,0
0:5:21.580,602.939,76.7662,0,0.000885,0,0
0:5:21.986,603.704,76.8628,0,0.000885,0,0
0:5:22.389,604.642,76.9869,0,0.000885,0,0
0:5:22.790,605.523,77.0972,0,0.000885,0,0
0:5:23.188,606.11,77.173,0,0.000885,0,0
0:5:23.588,607.049,77.2902,0,0.000885,0,0
0:5:23.982,607.872,77.3937,0,0.000885,0,0
0:5:24.377,608.632,77.4902,0,0.000885,0,0
0:5:24.783,609.22,77.566,0,0.000885,0,0
0:5:25.182,609.629,77.6212,0,0.000885,0,0
0:5:25.579,610.51,77.7315,0,0.000885,0,0
0:5:25.983,611.568,77.8694,0,0.000885,0,0
0:5:26.379,612.329,77.9659,0,0.000885,0,0
0:5:26.782,613.503,78.1107,0,0.000885,0,0
0:5:27.188,614.09,78.1865,0,0.000885,0,0
0:5:27.591,614.971,78.3038,0,0.000885,0,0
0:5:27.993,615.558,78.3727,0,0.000885,0,0
0:5:28.389,616.381,78.483,0,0.000885,0,0
0:5:28.790,616.968,78.552,0,0.000885,0,0
0:5:29.187,617.791,78.6623,0,0.000885,0,0
0:5:29.581,618.436,78.745,0,0.000885,0,0
0:5:29.977,619.433,78.8691,0,0.000885,0,0
0:5:30.384,620.198,78.9657,0,0.000885,0,0
0:5:30.782,620.958,79.0622,0,0.000885,0,0
0:5:31.178,621.723,79.1587,0,0.000885,0,0
0:5:31.581,622.956,79.3173,0,0.000885,0,0
0:5:31.983,623.658,79.4069,0,0.000885,0,0
0:5:32.388,624.424,79.5034,0,0.000885,0,0
0:5:32.792,625.069,79.5862,0,0.000885,0,0
0:5:33.194,625.891,79.6896,0,0.000885,0,0
0:5:33.590,626.83,79.8137,0,0.000885,0,0
0:5:33.990,627.181,79.8551,0,0.000885,0,0
0:5:34.387,627.884,79.9447,0,0.000885,0,0
0:5:34.782,628.885,80.0688,0,0.000885,0,0
0:5:35.177,629.414,80.1378,0,0.000885,0,0
0:5:35.584,630.291,80.2481,0,0.000885,0,0
0:5:35.984,631.407,80.3929,0,0.000885,0,0
0:5:36.380,632.346,80.5101,0,0.000885,0,0
0:5:36.784,632.639,80.5514,0,0.000885,0,0
0:5:37.185,633.64,80.6756,0,0.000885,0,0
0:5:37.590,634.637,80.8066,0,0.000885,0,0
0:5:37.993,635.166,80.8686,0,0.000885,0,0
0:5:38.397,636.105,80.9927,0,0.000885,0,0
0:5:38.791,636.928,81.0961,0,0.000885,0,0
0:5:39.190,637.688,81.1927,0,0.000885,0,0
0:5:39.589,638.395,81.2823,0,0.000885,0,0
0:5:39.984,639.565,81.434,0,0.000885,0,0
0:5:40.381,640.33,81.5305,0,0.000885,0,0
0:5:40.784,640.74,81.5788,0,0.000885,0,0
0:5:41.183,641.153,81.6339,0,0.000885,0,0
0:5:41.581,642.621,81.8201,0,0.000885,0,0
0:5:41.987,643.266,81.9028,0,0.000885,0,0
0:5:42.389,643.56,81.9373,0,0.000885,0,0
0:5:42.792,644.614,82.0752,0,0.000885,0,0
0:5:43.194,645.086,82.1372,0,0.000885,0,0
0:5:43.592,646.14,82.2682,0,0.000885,0,0
0:5:43.986,646.905,82.3648,0,0.000885,0,0
0:5:44.382,647.786,82.482,0,0.000885,0,0
0:5:44.781,648.195,82.5302,0,0.000885,0,0
0:5:45.180,649.254,82.6681,0,0.000885,0,0
0:5:45.586,649.956,82.7578,0,0.000885,0,0
0:5:45.980,650.664,82.8474,0,0.000885,0,0
0:5:46.378,651.54,82.9577,0,0.000885,0,0
0:5:46.780,652.363,83.0611,0,0.000885,0,0
0:5:47.186,653.422,83.199,0,0.000885,0,0
0:5:47.589,654.124,83.2887,0,0.000885,0,0
0:5:47.992,654.769,83.3645,0,0.000885,0,0
0:5:48.391,655.592,83.4748,0,0.000885,0,0
0:5:48.790,656.651,83.6058,0,0.000885,0,0
0:5:49.185,657.234,83.6817,0,0.000885,0,0
0:5:49.580,657.821,83.7575,0,0.000885,0,0
0:5:49.980,659.057,83.9161,0,0.000885,0,0
0:5:50.378,659.582,83.9781,0,0.000885,0,0
0:5:50.784,660.641,84.116,0,0.000885,0,0
0:5:51.180,661.286,84.1988,0,0.000885,0,0
0:5:51.585,662.167,84.3091,0,0.000885,0,0
0:5:51.987,662.87,84.3987,0,0.000885,0,0
0:5:52.393,663.341,84.4608,0,0.000885,0,0
0:5:52.797,663.87,84.5297,0,0.000885,0,0
0:5:53.199,664.867,84.6538,0,0.000885,0,0
0:5:53.599,665.396,84.7228,0,0.000885,0,0
0:5:53.999,666.508,84.8607,0,0.000885,0,0
0:5:54.394,667.567,84.9986,0,0.000885,0,0
0:5:54.789,667.918,85.0399,0,0.000885,0,0
0:5:55.186,668.741,85.1434,0,0.000885,0,0
0:5:55.584,669.622,85.2606,0,0.000885,0,0
0:5:55.982,670.445,85.364,0,0.000885,0,0
0:5:56.387,671.677,85.5226,0,0.000885,0,0
0:5:56.791,672.558,85.6329,0,0.000885,0,0
0:5:57.195,673.025,85.6949,0,0.000885,0,0
0:5:57.598,673.732,85.7846,0,0.000885,0,0
0:5:58.002,674.613,85.8949,0,0.000885,0,0
0:5:58.398,675.431,85.9983,0,0.000885,0,0
0:5:58.793,676.139,86.0879,0,0.000885,0,0
0:5:59.193,677.077,86.2052,0,0.000885,0,0
0:5:59.592,678.016,86.3293,0,0.000885,0,0
0:5:59.988,678.483,86.3844,0,0.000885,0,0
0:6:0.384,678.954,86.4465,0,0.000885,0,0
0:6:0.782,680.244,86.6119,0,0.000885,0,0
0:6:1.179,680.422,86.6326,0,0.000885,0,0
0:6:1.587,681.361,86.7567,0,0.000885,0,0
0:6:1.992,682.477,86.8946,0,0.000885,0,0
0:6:2.395,683.007,86.9636,0,0.000885,0,0
0:6:2.798,684.59,87.1635,0,0.000885,0,0
0:6:3.201,685.177,87.2394,0,0.000885,0,0
0:6:3.594,685.413,87.2669,0,0.000885,0,0
0:6:3.989,686.174,87.3635,0,0.000885,0,0
0:6:4.389,687.29,87.5083,0,0.000885,0,0
0:6:4.788,687.877,87.5841,0,0.000885,0,0
0:6:5.185,688.522,87.6668,0,0.000885,0,0
0:6:5.576,689.639,87.8047,0,0.000885,0,0
0:6:5.985,690.342,87.8944,0,0.000885,0,0
0:6:6.382,690.813,87.9564,0,0.000885,0,0
0:6:6.781,691.516,88.0461,0,0.000885,0,0
0:6:7.185,692.397,88.1564,0,0.000885,0,0
0:6:7.589,693.278,88.2736,0,0.000885,0,0
0:6:7.991,693.98,88.3632,0,0.000885,0,0
0:6:8.395,694.803,88.4666,0,0.000885,0,0
0:6:8.790,695.8,88.5907,0,0.000885,0,0
0:6:9.186,696.565,88.6873,0,0.000885,0,0
0:6:9.582,697.681,88.8321,0,0.000885,0,0
0:6:9.983,698.326,88.9148,0,0.000885,0,0
0:6:10.380,698.678,88.9562,0,0.000885,0,0
0:6:10.783,699.438,89.0527,0,0.000885,0,0
0:6:11.190,699.968,89.1216,0,0.000885,0,0
0:6:11.588,701.026,89.2595,0,0.000885,0,0
0:6:11.988,701.907,89.3698,0,0.000885,0,0
0:6:12.392,702.726,89.4733,0,0.000885,0,0
0:6:12.795,703.433,89.5629,0,0.000885,0,0
0:6:13.199,704.078,89.6456,0,0.000885,0,0
0:6:13.602,704.487,89.7008,0,0.000885,0,0
0:6:13.999,705.719,89.8525,0,0.000885,0,0
0:6:14.394,706.836,89.9973,0,0.000885,0,0
0:6:14.790,707.952,90.1421,0,0.000885,0,0
0:6:15.189,708.482,90.2041,0,0.000885,0,0
0:6:15.587,709.242,90.3006,0,0.000885,0,0
0:6:15.983,709.887,90.3834,0,0.000885,0,0
0:6:16.377,710.181,90.4247,0,0.000885,0,0
0:6:16.782,711.533,90.5971,0,0.000885,0,0
0:6:17.188,712.414,90.7074,0,0.000885,0,0
0:6:17.591,713.41,90.8315,0,0.000885,0,0
0:6:17.991,713.53,90.8522,0,0.000885,0,0
0:6:18.386,714.585,90.9832,0,0.000885,0,0
0:6:18.786,715.701,91.128,0,0.000885,0,0
0:6:19.185,716.462,91.2245,0,0.000885,0,0
0:6:19.577,717.107,91.3073,0,0.000885,0,0
0:6:19.985,717.578,91.3624,0,0.000885,0,0
0:6:20.380,718.459,91.4796,0,0.000885,0,0
0:6:20.791,719.518,91.6106,0,0.000885,0,0
0:6:21.187,719.633,91.6244,0,0.000885,0,0
0:6:21.582,720.63,91.7554,0,0.000885,0,0
0:6:21.985,721.395,91.852,0,0.000885,0,0
0:6:22.390,722.391,91.9761,0,0.000885,0,0
0:6:22.793,723.036,92.0588,0,0.000885,0,0
0:6:23.198,724.388,92.2312,0,0.000885,0,0
0:6:23.592,724.624,92.2587,0,0.000885,0,0
0:6:23.989,724.976,92.307,0,0.000885,0,0
0:6:24.389,725.914,92.4242,0,0.000885,0,0
0:6:24.785,726.444,92.4932,0,0.000885,0,0
0:6:25.190,727.734,92.6586,0,0.000885,0,0
0:6:25.585,728.908,92.8103,0,0.000885,0,0
0:6:25.984,729.437,92.8724,0,0.000885,0,0
0:6:26.382,730.14,92.962,0,0.000885,0,0
0:6:26.787,730.843,93.0516,0,0.000885,0,0
0:6:27.191,731.786,93.1757,0,0.000885,0,0
0:6:27.595,732.546,93.2723,0,0.000885,0,0
0:6:27.999,733.663,93.4102,0,0.000885,0,0
0:6:28.403,734.192,93.4791,0,0.000885,0,0
0:6:28.799,735.131,93.5963,0,0.000885,0,0
0:6:29.194,736.305,93.748,0,0.000885,0,0
0:6:29.591,736.537,93.7756,0,0.000885,0,0
0:6:29.991,737.244,93.8652,0,0.000885,0,0
0:6:30.388,737.595,93.9135,0,0.000885,0,0
0:6:30.782,739.005,94.0928,0,0.000885,0,0
0:6:31.178,739.357,94.141,0,0.000885,0,0
0:6:31.582,740.473,94.2789,0,0.000885,0,0
0:6:31.988,741.35,94.3892,0,0.000885,0,0
0:6:32.390,741.821,94.4513,0,0.000885,0,0
0:6:32.793,742.88,94.5892,0,0.000885,0,0
0:6:33.190,743.231,94.6305,0,0.000885,0,0
0:6:33.590,744.285,94.7684,0,0.000885,0,0
0:6:33.987,744.93,94.8443,0,0.000885,0,0
0:6:34.382,745.695,94.9477,0,0.000885,0,0
0:6:34.789,746.634,95.0649,0,0.000885,0,0
0:6:35.189,747.63,95.189,0,0.000885,0,0
0:6:35.585,748.395,95.2855,0,0.000885,0,0
0:6:35.989,749.161,95.389,0,0.000885,0,0
0:6:36.384,749.921,95.4855,0,0.000885,0,0
0:6:36.786,750.451,95.5475,0,0.000885,0,0
0:6:37.192,750.918,95.6096,0,0.000885,0,0
0:6:37.595,752.092,95.7613,0,0.000885,0,0
0:6:37.997,752.857,95.8578,0,0.000885,0,0
0:6:38.394,753.911,95.9888,0,0.000885,0,0
0:6:38.793,754.498,96.0647,0,0.000885,0,0
0:6:39.190,755.028,96.1336,0,0.000885,0,0
0:6:39.584,755.499,96.1957,0,0.000885,0,0
0:6:39.990,756.202,96.2853,0,0.000885,0,0
0:6:40.389,757.199,96.4094,0,0.000885,0,0
0:6:40.787,758.199,96.5335,0,0.000885,0,0
0:6:41.180,758.079,96.5197,0,0.000885,0,0
0:6:41.585,759.138,96.6576,0,0.000885,0,0
0:6:41.989,759.254,96.6714,0,0.000885,0,0
0:6:42.394,757.964,96.5059,0,0.000885,0,0
0:6:42.795,756.731,96.3473,0,0.000885,0,0
0:6:43.195,757.728,96.4783,0,0.000885,0,0
0:6:43.388,756.967,96.3818,0,0.000885,0,0