File: DataFile2021-06-29_070857.csv
Test ID:,Date Tested:,Time:,Test Type:,Diameter Avg. (mm):,Cyl. Corr. Factor:,Height (mm):,Age (days):,Weight (kN):,Break Type:,Ramp Rate (MPa/s):,Load at Break (kN):,Stress at Break (MPa):
12,6/29/2021,07:08,Cylinder,100,1,200,0,3.6,3,0.23,334.25,42.56
Sample Time,Load (kN),Stress (MPa),Long. Strain,Trans. Strain,Chan1 Deflection (mm),Chan2 Deflection (mm)
0:0:18.911,6.68568,0.848055,0,0.000885,0,0
0:0:19.107,11.3786,1.4479,0,0.000885,0,0
0:0:19.305,17.0678,2.17185,0,0.000885,0,0
0:0:19.506,17.2413,2.19253,0,0.000885,0,0
0:0:19.701,16.3027,2.07532,0,0.000885,0,0
0:0:19.903,16.4807,2.09601,0,0.000885,0,0
0:0:20.109,16.0714,2.04774,0,0.000885,0,0
0:0:20.309,15.7778,2.00637,0,0.000885,0,0
0:0:20.508,15.72,1.99948,0,0.000885,0,0
0:0:20.703,15.8935,2.02706,0,0.000885,0,0
0:0:20.906,15.6577,1.99258,0,0.000885,0,0
0:0:21.111,15.4843,1.9719,0,0.000885,0,0
0:0:21.321,15.72,1.99948,0,0.000885,0,0
0:0:21.529,15.5999,1.98569,0,0.000885,0,0
0:0:21.726,15.2485,1.94432,0,0.000885,0,0
0:0:21.928,15.3063,1.95122,0,0.000885,0,0
0:0:22.124,15.4264,1.96501,0,0.000885,0,0
0:0:22.323,14.9549,1.90295,0,0.000885,0,0
0:0:22.518,15.1907,1.93743,0,0.000885,0,0
0:0:22.727,15.3686,1.95811,0,0.000885,0,0
0:0:22.929,15.1907,1.93743,0,0.000885,0,0
0:0:23.124,15.1907,1.93743,0,0.000885,0,0
0:0:23.323,15.0127,1.90985,0,0.000885,0,0
0:0:23.522,14.9549,1.90295,0,0.000885,0,0
0:0:23.715,15.075,1.91674,0,0.000885,0,0
0:0:23.917,15.0127,1.90985,0,0.000885,0,0
0:0:24.115,15.3063,1.95122,0,0.000885,0,0
0:0:24.323,15.4843,1.9719,0,0.000885,0,0
0:0:24.525,16.0714,2.04774,0,0.000885,0,0
0:0:24.727,16.4807,2.09601,0,0.000885,0,0
0:0:24.929,17.0678,2.17185,0,0.000885,0,0
0:0:25.132,17.01,2.16495,0,0.000885,0,0
0:0:25.333,17.1257,2.17874,0,0.000885,0,0
0:0:25.534,17.8285,2.26838,0,0.000885,0,0
0:0:25.734,17.8863,2.27527,0,0.000885,0,0
0:0:25.936,18.4156,2.34422,0,0.000885,0,0
0:0:26.137,19.0028,2.42006,0,0.000885,0,0
0:0:26.335,19.2964,2.45453,0,0.000885,0,0
0:0:26.536,19.59,2.4959,0,0.000885,0,0
0:0:26.730,20.4084,2.59932,0,0.000885,0,0
0:0:26.932,20.8221,2.64759,0,0.000885,0,0
0:0:27.132,21.347,2.71653,0,0.000885,0,0
0:0:27.329,21.992,2.79927,0,0.000885,0,0
0:0:27.531,22.8728,2.90959,0,0.000885,0,0
0:0:27.727,23.2864,2.96475,0,0.000885,0,0
0:0:27.927,23.1663,2.95096,0,0.000885,0,0
0:0:28.128,23.6378,3.00611,0,0.000885,0,0
0:0:28.325,23.9893,3.05438,0,0.000885,0,0
0:0:28.527,24.4563,3.11643,0,0.000885,0,0
0:0:28.731,24.4563,3.11643,0,0.000885,0,0
0:0:28.931,24.87,3.16469,0,0.000885,0,0
0:0:29.132,25.5728,3.25433,0,0.000885,0,0
0:0:29.328,26.3913,3.35775,0,0.000885,0,0
0:0:29.531,26.7427,3.40601,0,0.000885,0,0
0:0:29.733,26.7427,3.40601,0,0.000885,0,0
0:0:29.937,27.1564,3.45427,0,0.000885,0,0
0:0:30.140,27.5656,3.50943,0,0.000885,0,0
0:0:30.342,27.917,3.55769,0,0.000885,0,0
0:0:30.542,27.9749,3.56459,0,0.000885,0,0
0:0:30.742,28.5042,3.62664,0,0.000885,0,0
0:0:30.944,28.562,3.63354,0,0.000885,0,0
0:0:31.145,28.8556,3.67491,0,0.000885,0,0
0:0:31.341,29.5006,3.75764,0,0.000885,0,0
0:0:31.544,29.7942,3.79212,0,0.000885,0,0
0:0:31.741,30.2034,3.84727,0,0.000885,0,0
0:0:31.940,30.8484,3.93001,0,0.000885,0,0
0:0:32.141,31.3778,3.99206,0,0.000885,0,0
0:0:32.338,31.9071,4.06101,0,0.000885,0,0
0:0:32.541,32.3163,4.11617,0,0.000885,0,0
0:0:32.739,32.432,4.12996,0,0.000885,0,0
0:0:32.936,32.9613,4.19891,0,0.000885,0,0
0:0:33.138,33.1393,4.21959,0,0.000885,0,0
0:0:33.333,33.4328,4.25407,0,0.000885,0,0
0:0:33.535,34.0778,4.3368,0,0.000885,0,0
0:0:33.734,34.7228,4.41954,0,0.000885,0,0
0:0:33.932,34.8963,4.44022,0,0.000885,0,0
0:0:34.134,35.6614,4.54365,0,0.000885,0,0
0:0:34.337,35.777,4.55743,0,0.000885,0,0
0:0:34.541,36.4799,4.64707,0,0.000885,0,0
0:0:34.743,36.3064,4.61949,0,0.000885,0,0
0:0:34.943,37.0092,4.70912,0,0.000885,0,0
0:0:35.145,36.8313,4.68843,0,0.000885,0,0
0:0:35.345,37.5964,4.78496,0,0.000885,0,0
0:0:35.547,37.5341,4.77807,0,0.000885,0,0
0:0:35.748,38.4727,4.90217,0,0.000885,0,0
0:0:35.944,38.5928,4.91596,0,0.000885,0,0
0:0:36.147,38.9442,4.95733,0,0.000885,0,0
0:0:36.344,39.1221,4.97801,0,0.000885,0,0
0:0:36.542,39.5892,5.04007,0,0.000885,0,0
0:0:36.743,39.9984,5.09523,0,0.000885,0,0
0:0:36.940,40.1763,5.11591,0,0.000885,0,0
0:0:37.143,41.3507,5.26759,0,0.000885,0,0
0:0:37.338,41.7599,5.31586,0,0.000885,0,0
0:0:37.538,42.4049,5.39859,0,0.000885,0,0
0:0:37.740,42.6985,5.43307,0,0.000885,0,0
0:0:37.936,43.2856,5.50891,0,0.000885,0,0
0:0:38.137,43.2856,5.50891,0,0.000885,0,0
0:0:38.334,43.6949,5.56407,0,0.000885,0,0
0:0:38.531,43.9885,5.59854,0,0.000885,0,0
0:0:38.732,43.9885,5.59854,0,0.000885,0,0
0:0:38.929,44.2242,5.63302,0,0.000885,0,0
0:0:39.129,45.2206,5.75712,0,0.000885,0,0
0:0:39.331,44.9849,5.72954,0,0.000885,0,0
0:0:39.536,45.6877,5.81918,0,0.000885,0,0
0:0:39.739,45.6299,5.81228,0,0.000885,0,0
0:0:39.942,46.5684,5.92949,0,0.000885,0,0
0:0:40.143,46.6841,5.94328,0,0.000885,0,0
0:0:40.345,47.6227,6.06049,0,0.000885,0,0
0:0:40.546,47.5648,6.0536,0,0.000885,0,0
0:0:40.749,48.3299,6.15012,0,0.000885,0,0
0:0:40.947,48.5034,6.1777,0,0.000885,0,0
0:0:41.145,48.9749,6.23286,0,0.000885,0,0
0:0:41.347,49.4998,6.30181,0,0.000885,0,0
0:0:41.541,49.6777,6.32249,0,0.000885,0,0
0:0:41.743,50.5585,6.4397,0,0.000885,0,0
0:0:41.942,50.6163,6.4466,0,0.000885,0,0
0:0:42.139,50.9099,6.48107,0,0.000885,0,0
0:0:42.340,50.8521,6.47418,0,0.000885,0,0
0:0:42.536,51.4971,6.55691,0,0.000885,0,0
0:0:42.736,51.6705,6.5776,0,0.000885,0,0
0:0:42.938,52.6669,6.7086,0,0.000885,0,0
0:0:43.133,52.8449,6.72928,0,0.000885,0,0
0:0:43.336,53.3119,6.79134,0,0.000885,0,0
0:0:43.531,53.8413,6.85339,0,0.000885,0,0
0:0:43.730,54.2505,6.90855,0,0.000885,0,0
0:0:43.932,54.3706,6.92234,0,0.000885,0,0
0:0:44.128,54.8955,6.99128,0,0.000885,0,0
0:0:44.330,54.9533,6.99818,0,0.000885,0,0
0:0:44.531,55.367,7.04644,0,0.000885,0,0
0:0:44.736,56.1277,7.14986,0,0.000885,0,0
0:0:44.939,56.4791,7.19123,0,0.000885,0,0
0:0:45.141,57.1241,7.27397,0,0.000885,0,0
0:0:45.344,57.3598,7.30155,0,0.000885,0,0
0:0:45.545,57.5377,7.32913,0,0.000885,0,0
0:0:45.746,58.1205,7.39807,0,0.000885,0,0
0:0:45.948,58.5341,7.45323,0,0.000885,0,0
0:0:46.145,58.592,7.46013,0,0.000885,0,0
0:0:46.345,58.7699,7.48081,0,0.000885,0,0
0:0:46.545,59.4149,7.56355,0,0.000885,0,0
0:0:46.740,59.9976,7.63939,0,0.000885,0,0
0:0:46.943,60.2912,7.67386,0,0.000885,0,0
0:0:47.141,60.8784,7.74971,0,0.000885,0,0
0:0:47.340,61.1719,7.79108,0,0.000885,0,0
0:0:47.541,61.9949,7.8945,0,0.000885,0,0
0:0:47.737,62.1105,7.90829,0,0.000885,0,0
0:0:47.939,62.1105,7.90829,0,0.000885,0,0
0:0:48.136,62.2884,7.92897,0,0.000885,0,0
0:0:48.334,62.8133,7.99792,0,0.000885,0,0
0:0:48.536,63.1647,8.03929,0,0.000885,0,0
0:0:48.731,63.872,8.12892,0,0.000885,0,0
0:0:48.933,64.2234,8.17718,0,0.000885,0,0
0:0:49.131,64.2813,8.18408,0,0.000885,0,0
0:0:49.329,64.7483,8.24613,0,0.000885,0,0
0:0:49.532,65.2198,8.30129,0,0.000885,0,0
0:0:49.733,66.3319,8.44608,0,0.000885,0,0
0:0:49.937,66.1584,8.42539,0,0.000885,0,0
0:0:50.140,67.2126,8.55639,0,0.000885,0,0
0:0:50.341,67.3327,8.57018,0,0.000885,0,0
0:0:50.542,67.9154,8.64603,0,0.000885,0,0
0:0:50.743,68.0355,8.65982,0,0.000885,0,0
0:0:50.945,68.3291,8.70118,0,0.000885,0,0
0:0:51.146,68.0934,8.66671,0,0.000885,0,0
0:0:51.340,68.7962,8.75634,0,0.000885,0,0
0:0:51.543,68.854,8.77013,0,0.000885,0,0
0:0:51.742,69.7348,8.88045,0,0.000885,0,0
0:0:51.939,70.3219,8.95629,0,0.000885,0,0
0:0:52.141,70.6733,8.99766,0,0.000885,0,0
0:0:52.335,70.5577,8.98387,0,0.000885,0,0
0:0:52.536,70.9091,9.02524,0,0.000885,0,0
0:0:52.736,71.3762,9.08729,0,0.000885,0,0
0:0:52.932,72.0212,9.17003,0,0.000885,0,0
0:0:53.134,72.1991,9.19071,0,0.000885,0,0
0:0:53.329,73.2533,9.32861,0,0.000885,0,0
0:0:53.529,72.9597,9.28724,0,0.000885,0,0
0:0:53.731,73.3734,9.3424,0,0.000885,0,0
0:0:53.927,74.3698,9.4665,0,0.000885,0,0
0:0:54.129,74.4276,9.4734,0,0.000885,0,0
0:0:54.331,74.7791,9.52166,0,0.000885,0,0
0:0:54.535,75.8333,9.65266,0,0.000885,0,0
0:0:54.736,75.7755,9.64577,0,0.000885,0,0
0:0:54.938,76.0112,9.68024,0,0.000885,0,0
0:0:55.140,76.4783,9.7354,0,0.000885,0,0
0:0:55.342,76.9498,9.79745,0,0.000885,0,0
0:0:55.543,76.6562,9.76298,0,0.000885,0,0
0:0:55.744,77.4168,9.8595,0,0.000885,0,0
0:0:55.940,78.1819,9.95603,0,0.000885,0,0
0:0:56.141,78.1241,9.94913,0,0.000885,0,0
0:0:56.339,78.3554,9.97671,0,0.000885,0,0
0:0:56.536,78.8848,10.0457,0,0.000885,0,0
0:0:56.739,80.0013,10.1836,0,0.000885,0,0
0:0:56.937,80.584,10.2594,0,0.000885,0,0
0:0:57.135,80.5262,10.2525,0,0.000885,0,0
0:0:57.336,80.2904,10.2249,0,0.000885,0,0
0:0:57.531,81.5226,10.3766,0,0.000885,0,0
0:0:57.733,81.7005,10.4042,0,0.000885,0,0
0:0:57.931,81.4647,10.3697,0,0.000885,0,0
0:0:58.129,81.874,10.4249,0,0.000885,0,0
0:0:58.330,82.2298,10.4662,0,0.000885,0,0
0:0:58.521,82.6969,10.5283,0,0.000885,0,0
0:0:58.726,82.9326,10.5559,0,0.000885,0,0
0:0:58.926,83.6933,10.6593,0,0.000885,0,0
0:0:59.120,83.8712,10.68,0,0.000885,0,0
0:0:59.322,84.752,10.7903,0,0.000885,0,0
0:0:59.527,85.219,10.8523,0,0.000885,0,0
0:0:59.731,85.397,10.873,0,0.000885,0,0
0:0:59.933,86.042,10.9558,0,0.000885,0,0
0:1:0.135,86.4512,11.004,0,0.000885,0,0
0:1:0.337,86.509,11.0178,0,0.000885,0,0
0:1:0.539,87.5632,11.1488,0,0.000885,0,0
0:1:0.741,87.154,11.0937,0,0.000885,0,0
0:1:0.940,88.5018,11.266,0,0.000885,0,0
0:1:1.138,88.5018,11.266,0,0.000885,0,0
0:1:1.340,88.5641,11.2729,0,0.000885,0,0
0:1:1.535,88.2082,11.2316,0,0.000885,0,0
0:1:1.734,88.7376,11.3005,0,0.000885,0,0
0:1:1.935,89.4404,11.3901,0,0.000885,0,0
0:1:2.130,90.4412,11.5142,0,0.000885,0,0
0:1:2.332,90.379,11.5073,0,0.000885,0,0
0:1:2.531,91.1441,11.6039,0,0.000885,0,0
0:1:2.727,91.3175,11.6246,0,0.000885,0,0
0:1:2.930,91.3754,11.6315,0,0.000885,0,0
0:1:3.126,91.9047,11.7004,0,0.000885,0,0
0:1:3.327,92.7855,11.8107,0,0.000885,0,0
0:1:3.527,93.1369,11.859,0,0.000885,0,0
0:1:3.731,92.9011,11.8314,0,0.000885,0,0
0:1:3.934,93.724,11.9348,0,0.000885,0,0
0:1:4.129,94.369,12.0176,0,0.000885,0,0
0:1:4.330,94.4268,12.0245,0,0.000885,0,0
0:1:4.532,94.8984,12.0796,0,0.000885,0,0
0:1:4.735,95.1297,12.1141,0,0.000885,0,0
0:1:4.938,95.1297,12.1141,0,0.000885,0,0
0:1:5.141,95.7747,12.1968,0,0.000885,0,0
0:1:5.342,96.1261,12.2382,0,0.000885,0,0
0:1:5.544,96.8333,12.3278,0,0.000885,0,0
0:1:5.746,97.0068,12.3485,0,0.000885,0,0
0:1:5.949,97.4783,12.4106,0,0.000885,0,0
0:1:6.146,98.3591,12.5209,0,0.000885,0,0
0:1:6.344,99.2932,12.645,0,0.000885,0,0
0:1:6.545,98.884,12.5898,0,0.000885,0,0
0:1:6.741,98.8261,12.5829,0,0.000885,0,0
0:1:6.941,99.1775,12.6243,0,0.000885,0,0
0:1:7.141,100.41,12.7829,0,0.000885,0,0
0:1:7.337,100.877,12.8449,0,0.000885,0,0
0:1:7.539,100.939,12.8518,0,0.000885,0,0
0:1:7.736,101.464,12.9208,0,0.000885,0,0
0:1:7.935,101.935,12.9759,0,0.000885,0,0
0:1:8.136,101.878,12.969,0,0.000885,0,0
0:1:8.330,101.233,12.8863,0,0.000885,0,0
0:1:8.532,102.46,13.0449,0,0.000885,0,0
0:1:8.730,102.403,13.038,0,0.000885,0,0
0:1:8.928,103.635,13.1966,0,0.000885,0,0
0:1:9.130,103.577,13.1897,0,0.000885,0,0
0:1:9.333,104.106,13.2517,0,0.000885,0,0
0:1:9.535,104.751,13.3345,0,0.000885,0,0
0:1:9.738,105.338,13.4103,0,0.000885,0,0
0:1:9.940,105.69,13.4586,0,0.000885,0,0
0:1:10.142,106.215,13.5206,0,0.000885,0,0
0:1:10.343,106.744,13.5896,0,0.000885,0,0
0:1:10.545,105.983,13.493,0,0.000885,0,0
0:1:10.746,107.038,13.6309,0,0.000885,0,0
0:1:10.941,107.389,13.6723,0,0.000885,0,0
0:1:11.142,107.389,13.6723,0,0.000885,0,0
0:1:11.339,108.034,13.755,0,0.000885,0,0
0:1:11.538,109.088,13.8929,0,0.000885,0,0
0:1:11.739,109.382,13.9274,0,0.000885,0,0
0:1:11.935,110.089,14.017,0,0.000885,0,0
0:1:12.136,109.853,13.9895,0,0.000885,0,0
0:1:12.333,110.734,14.0998,0,0.000885,0,0
0:1:12.531,110.32,14.0446,0,0.000885,0,0
0:1:12.732,110.614,14.086,0,0.000885,0,0
0:1:12.928,111.201,14.1618,0,0.000885,0,0
0:1:13.129,111.846,14.2377,0,0.000885,0,0
0:1:13.329,112.024,14.2653,0,0.000885,0,0
0:1:13.535,111.962,14.2584,0,0.000885,0,0
0:1:13.737,112.963,14.3825,0,0.000885,0,0
0:1:13.933,113.256,14.4169,0,0.000885,0,0
0:1:14.134,113.665,14.4721,0,0.000885,0,0
0:1:14.336,114.368,14.5617,0,0.000885,0,0
0:1:14.539,114.368,14.5617,0,0.000885,0,0
0:1:14.742,115.191,14.6651,0,0.000885,0,0
0:1:14.945,115.774,14.741,0,0.000885,0,0
0:1:15.147,116.597,14.8444,0,0.000885,0,0
0:1:15.348,116.067,14.7755,0,0.000885,0,0
0:1:15.550,115.307,14.6789,0,0.000885,0,0
0:1:15.751,116.481,14.8306,0,0.000885,0,0
0:1:15.949,116.948,14.8927,0,0.000885,0,0
0:1:16.148,117.829,15.003,0,0.000885,0,0
0:1:16.350,118.71,15.1133,0,0.000885,0,0
0:1:16.544,118.532,15.0926,0,0.000885,0,0
0:1:16.745,119.119,15.1685,0,0.000885,0,0
0:1:16.941,118.941,15.1409,0,0.000885,0,0
0:1:17.140,120.058,15.2857,0,0.000885,0,0
0:1:17.342,119.355,15.196,0,0.000885,0,0
0:1:17.537,120.293,15.3133,0,0.000885,0,0
0:1:17.737,119.59,15.2236,0,0.000885,0,0
0:1:17.937,120.525,15.3477,0,0.000885,0,0
0:1:18.134,120.938,15.396,0,0.000885,0,0
0:1:18.336,121.935,15.527,0,0.000885,0,0
0:1:18.533,122.873,15.6442,0,0.000885,0,0
0:1:18.731,122.931,15.6511,0,0.000885,0,0
0:1:18.933,123.927,15.7821,0,0.000885,0,0
0:1:19.129,123.812,15.7614,0,0.000885,0,0
0:1:19.330,124.279,15.8235,0,0.000885,0,0
0:1:19.531,123.812,15.7614,0,0.000885,0,0
0:1:19.735,123.87,15.7683,0,0.000885,0,0
0:1:19.938,124.866,15.8993,0,0.000885,0,0
0:1:20.141,125.569,15.9889,0,0.000885,0,0
0:1:20.342,125.511,15.982,0,0.000885,0,0
0:1:20.543,125.983,16.0372,0,0.000885,0,0
0:1:20.745,126.628,16.1199,0,0.000885,0,0
0:1:20.948,127.74,16.2647,0,0.000885,0,0
0:1:21.142,127.037,16.1751,0,0.000885,0,0
0:1:21.344,128.327,16.3406,0,0.000885,0,0
0:1:21.544,128.505,16.3613,0,0.000885,0,0
0:1:21.740,129.381,16.4716,0,0.000885,0,0
0:1:21.942,129.675,16.5129,0,0.000885,0,0
0:1:22.139,129.617,16.506,0,0.000885,0,0
0:1:22.338,130.204,16.575,0,0.000885,0,0
0:1:22.540,130.026,16.5543,0,0.000885,0,0
0:1:22.734,130.262,16.5888,0,0.000885,0,0
0:1:22.936,130.382,16.6026,0,0.000885,0,0
0:1:23.134,131.142,16.6991,0,0.000885,0,0
0:1:23.330,132.317,16.8439,0,0.000885,0,0
0:1:23.532,131.787,16.7818,0,0.000885,0,0
0:1:23.728,132.962,16.9266,0,0.000885,0,0
0:1:23.928,132.081,16.8163,0,0.000885,0,0
0:1:24.124,132.962,16.9266,0,0.000885,0,0
0:1:24.333,133.371,16.9818,0,0.000885,0,0
0:1:24.533,133.487,16.9956,0,0.000885,0,0
0:1:24.736,134.074,17.0714,0,0.000885,0,0
0:1:24.939,135.306,17.23,0,0.000885,0,0
0:1:25.142,135.657,17.2714,0,0.000885,0,0
0:1:25.343,135.6,17.2645,0,0.000885,0,0
0:1:25.545,135.951,17.3127,0,0.000885,0,0
0:1:25.746,135.778,17.2852,0,0.000885,0,0
0:1:25.947,136.654,17.4024,0,0.000885,0,0
0:1:26.149,137.01,17.4437,0,0.000885,0,0
0:1:26.345,138.006,17.5747,0,0.000885,0,0
0:1:26.547,138.709,17.6575,0,0.000885,0,0
0:1:26.746,138.882,17.6851,0,0.000885,0,0
0:1:26.942,138.709,17.6575,0,0.000885,0,0
0:1:27.144,139.821,17.8023,0,0.000885,0,0
0:1:27.339,140.528,17.8919,0,0.000885,0,0
0:1:27.539,140.466,17.885,0,0.000885,0,0
0:1:27.739,139.883,17.8092,0,0.000885,0,0
0:1:27.934,140.408,17.8781,0,0.000885,0,0
0:1:28.136,139.821,17.8023,0,0.000885,0,0
0:1:28.331,140.995,17.9539,0,0.000885,0,0
0:1:28.531,141.64,18.0367,0,0.000885,0,0
0:1:28.732,141.76,18.0505,0,0.000885,0,0
0:1:28.925,142.815,18.1815,0,0.000885,0,0
0:1:29.130,143.108,18.2228,0,0.000885,0,0
0:1:29.331,144.105,18.3469,0,0.000885,0,0
0:1:29.535,144.572,18.409,0,0.000885,0,0
0:1:29.738,144.985,18.4573,0,0.000885,0,0
0:1:29.940,144.928,18.4504,0,0.000885,0,0
0:1:30.142,144.865,18.4435,0,0.000885,0,0
0:1:30.343,145.279,18.4986,0,0.000885,0,0
0:1:30.546,146.569,18.6641,0,0.000885,0,0
0:1:30.746,146.569,18.6641,0,0.000885,0,0
0:1:30.942,147.272,18.7537,0,0.000885,0,0
0:1:31.143,147.036,18.7193,0,0.000885,0,0
0:1:31.341,147.094,18.7262,0,0.000885,0,0
0:1:31.538,147.917,18.8365,0,0.000885,0,0
0:1:31.740,148.562,18.9123,0,0.000885,0,0
0:1:31.936,148.152,18.8641,0,0.000885,0,0
0:1:32.136,148.62,18.9261,0,0.000885,0,0
0:1:32.338,149.91,19.0847,0,0.000885,0,0
0:1:32.531,149.91,19.0847,0,0.000885,0,0
0:1:32.732,150.612,19.1743,0,0.000885,0,0
0:1:32.938,149.91,19.0847,0,0.000885,0,0
0:1:33.137,150.675,19.1812,0,0.000885,0,0
0:1:33.339,150.675,19.1812,0,0.000885,0,0
0:1:33.533,151.435,19.2846,0,0.000885,0,0
0:1:33.735,151.787,19.326,0,0.000885,0,0
0:1:33.933,152.374,19.4018,0,0.000885,0,0
0:1:34.132,152.961,19.4777,0,0.000885,0,0
0:1:34.335,153.842,19.588,0,0.000885,0,0
0:1:34.537,153.957,19.6018,0,0.000885,0,0
0:1:34.740,154.251,19.6432,0,0.000885,0,0
0:1:34.943,154.193,19.6294,0,0.000885,0,0
0:1:35.145,154.78,19.7052,0,0.000885,0,0
0:1:35.347,155.599,19.8086,0,0.000885,0,0
0:1:35.546,155.95,19.8569,0,0.000885,0,0
0:1:35.749,156.128,19.8776,0,0.000885,0,0
0:1:35.949,156.831,19.9672,0,0.000885,0,0
0:1:36.144,158.005,20.1189,0,0.000885,0,0
0:1:36.345,158.121,20.1327,0,0.000885,0,0
0:1:36.542,158.472,20.1741,0,0.000885,0,0
0:1:36.741,158.179,20.1396,0,0.000885,0,0
0:1:36.942,158.415,20.1672,0,0.000885,0,0
0:1:37.136,158.179,20.1396,0,0.000885,0,0
0:1:37.337,158.766,20.2154,0,0.000885,0,0
0:1:37.537,159.411,20.2982,0,0.000885,0,0
0:1:37.733,159.469,20.3051,0,0.000885,0,0
0:1:37.935,159.705,20.3326,0,0.000885,0,0
0:1:38.130,160.643,20.4567,0,0.000885,0,0
0:1:38.330,161.408,20.5533,0,0.000885,0,0
0:1:38.532,161.933,20.6153,0,0.000885,0,0
0:1:38.736,161.524,20.5671,0,0.000885,0,0
0:1:38.939,162.284,20.6636,0,0.000885,0,0
0:1:39.135,162.929,20.7463,0,0.000885,0,0
0:1:39.334,163.93,20.8704,0,0.000885,0,0
0:1:39.535,163.517,20.8222,0,0.000885,0,0
0:1:39.737,164.633,20.9601,0,0.000885,0,0
0:1:39.940,164.397,20.9325,0,0.000885,0,0
0:1:40.143,164.575,20.9532,0,0.000885,0,0
0:1:40.344,164.749,20.9739,0,0.000885,0,0
0:1:40.546,165.803,21.1117,0,0.000885,0,0
0:1:40.747,165.981,21.1324,0,0.000885,0,0
0:1:40.949,165.803,21.1117,0,0.000885,0,0
0:1:41.148,167.213,21.291,0,0.000885,0,0
0:1:41.345,166.742,21.229,0,0.000885,0,0
0:1:41.547,167.387,21.3117,0,0.000885,0,0
0:1:41.742,167.507,21.3255,0,0.000885,0,0
0:1:41.942,168.325,21.4289,0,0.000885,0,0
0:1:42.140,169.264,21.553,0,0.000885,0,0
0:1:42.336,168.912,21.5047,0,0.000885,0,0
0:1:42.537,169.206,21.5461,0,0.000885,0,0
0:1:42.734,170.554,21.7185,0,0.000885,0,0
0:1:42.933,169.909,21.6357,0,0.000885,0,0
0:1:43.134,170.322,21.684,0,0.000885,0,0
0:1:43.325,170.496,21.7116,0,0.000885,0,0
0:1:43.530,171.377,21.8219,0,0.000885,0,0
0:1:43.726,172.431,21.9529,0,0.000885,0,0
0:1:43.936,172.373,21.946,0,0.000885,0,0
0:1:44.137,172.431,21.9529,0,0.000885,0,0
0:1:44.341,173.312,22.0701,0,0.000885,0,0
0:1:44.544,173.49,22.0908,0,0.000885,0,0
0:1:44.747,174.014,22.1597,0,0.000885,0,0
0:1:44.947,174.722,22.2494,0,0.000885,0,0
0:1:45.149,175.131,22.2976,0,0.000885,0,0
0:1:45.350,175.073,22.2908,0,0.000885,0,0
0:1:45.551,175.834,22.3873,0,0.000885,0,0
0:1:45.750,176.012,22.408,0,0.000885,0,0
0:1:45.947,175.949,22.4011,0,0.000885,0,0
0:1:46.150,176.479,22.47,0,0.000885,0,0
0:1:46.345,176.363,22.4562,0,0.000885,0,0
0:1:46.545,177.533,22.601,0,0.000885,0,0
0:1:46.745,178.298,22.7044,0,0.000885,0,0
0:1:46.940,177.595,22.6148,0,0.000885,0,0
0:1:47.143,178.472,22.7251,0,0.000885,0,0
0:1:47.339,178.885,22.7734,0,0.000885,0,0
0:1:47.537,179.001,22.7941,0,0.000885,0,0
0:1:47.739,179.588,22.863,0,0.000885,0,0
0:1:47.934,179.882,22.9044,0,0.000885,0,0
0:1:48.135,180.411,22.9733,0,0.000885,0,0
0:1:48.331,180.878,23.0285,0,0.000885,0,0
0:1:48.538,181.759,23.1388,0,0.000885,0,0
0:1:48.740,181.701,23.1319,0,0.000885,0,0
0:1:48.935,182.168,23.194,0,0.000885,0,0
0:1:49.136,182.64,23.256,0,0.000885,0,0
0:1:49.337,183.285,23.3388,0,0.000885,0,0
0:1:49.540,183.809,23.4008,0,0.000885,0,0
0:1:49.742,183.4,23.3525,0,0.000885,0,0
0:1:49.945,184.397,23.4766,0,0.000885,0,0
0:1:50.147,183.987,23.4284,0,0.000885,0,0
0:1:50.348,184.575,23.4973,0,0.000885,0,0
0:1:50.548,184.69,23.518,0,0.000885,0,0
0:1:50.750,185.219,23.5801,0,0.000885,0,0
0:1:50.948,185.864,23.6628,0,0.000885,0,0
0:1:51.144,185.629,23.6352,0,0.000885,0,0
0:1:51.346,186.977,23.8076,0,0.000885,0,0
0:1:51.541,187.973,23.9317,0,0.000885,0,0
0:1:51.741,187.506,23.8765,0,0.000885,0,0
0:1:51.940,187.679,23.8972,0,0.000885,0,0
0:1:52.135,187.622,23.8903,0,0.000885,0,0
0:1:52.337,188.796,24.0351,0,0.000885,0,0
0:1:52.535,189.383,24.111,0,0.000885,0,0
0:1:52.733,189.619,24.1454,0,0.000885,0,0
0:1:52.932,189.677,24.1523,0,0.000885,0,0
0:1:53.126,189.912,24.1799,0,0.000885,0,0
0:1:53.327,190.264,24.2282,0,0.000885,0,0
0:1:53.526,190.967,24.3178,0,0.000885,0,0
0:1:53.737,191.26,24.3523,0,0.000885,0,0
0:1:53.938,192.314,24.4833,0,0.000885,0,0
0:1:54.132,192.492,24.5109,0,0.000885,0,0
0:1:54.333,192.492,24.5109,0,0.000885,0,0
0:1:54.535,192.902,24.5591,0,0.000885,0,0
0:1:54.737,193.137,24.5936,0,0.000885,0,0
0:1:54.939,193.489,24.635,0,0.000885,0,0
0:1:55.139,194.307,24.7384,0,0.000885,0,0
0:1:55.340,195.13,24.8418,0,0.000885,0,0
0:1:55.539,194.721,24.7935,0,0.000885,0,0
0:1:55.740,195.659,24.9108,0,0.000885,0,0
0:1:55.940,195.482,24.8901,0,0.000885,0,0
0:1:56.137,196.184,24.9797,0,0.000885,0,0
0:1:56.336,196.949,25.0762,0,0.000885,0,0
0:1:56.534,197.768,25.1797,0,0.000885,0,0
0:1:56.726,197.71,25.1728,0,0.000885,0,0
0:1:56.925,198.239,25.2417,0,0.000885,0,0
0:1:57.132,198.004,25.2072,0,0.000885,0,0
0:1:57.339,199.351,25.3796,0,0.000885,0,0
0:1:57.539,198.475,25.2693,0,0.000885,0,0
0:1:57.733,199.645,25.421,0,0.000885,0,0
0:1:57.933,199,25.3382,0,0.000885,0,0
0:1:58.138,200.117,25.4761,0,0.000885,0,0
0:1:58.333,200.174,25.4899,0,0.000885,0,0
0:1:58.534,200.526,25.5313,0,0.000885,0,0
0:1:58.738,201.349,25.6347,0,0.000885,0,0
0:1:58.936,201.113,25.6071,0,0.000885,0,0
0:1:59.135,202.403,25.7726,0,0.000885,0,0
0:1:59.338,201.816,25.6968,0,0.000885,0,0
0:1:59.539,202.519,25.7864,0,0.000885,0,0
0:1:59.739,203.342,25.8898,0,0.000885,0,0
0:1:59.942,203.226,25.876,0,0.000885,0,0
0:2:0.143,204.044,25.9794,0,0.000885,0,0
0:2:0.345,204.689,26.0622,0,0.000885,0,0
0:2:0.544,204.516,26.0415,0,0.000885,0,0
0:2:0.745,204.983,26.0967,0,0.000885,0,0
0:2:0.945,205.219,26.1311,0,0.000885,0,0
0:2:1.147,205.864,26.2139,0,0.000885,0,0
0:2:1.340,206.393,26.2759,0,0.000885,0,0
0:2:1.540,207.269,26.3931,0,0.000885,0,0
0:2:1.736,207.096,26.3656,0,0.000885,0,0
0:2:1.933,207.505,26.4207,0,0.000885,0,0
0:2:2.133,208.092,26.4966,0,0.000885,0,0
0:2:2.336,208.559,26.5517,0,0.000885,0,0
0:2:2.537,208.853,26.5931,0,0.000885,0,0
0:2:2.733,210.027,26.7448,0,0.000885,0,0
0:2:2.927,209.267,26.6413,0,0.000885,0,0
0:2:3.128,209.618,26.6896,0,0.000885,0,0
0:2:3.333,209.969,26.731,0,0.000885,0,0
0:2:3.532,210.788,26.8413,0,0.000885,0,0
0:2:3.729,211.789,26.9654,0,0.000885,0,0
0:2:3.936,211.553,26.9378,0,0.000885,0,0
0:2:4.137,211.611,26.9447,0,0.000885,0,0
0:2:4.337,212.082,26.9999,0,0.000885,0,0
0:2:4.539,213.079,27.1309,0,0.000885,0,0
0:2:4.741,212.607,27.0688,0,0.000885,0,0
0:2:4.942,213.252,27.1516,0,0.000885,0,0
0:2:5.141,214.311,27.2894,0,0.000885,0,0
0:2:5.340,213.137,27.1378,0,0.000885,0,0
0:2:5.541,214.311,27.2894,0,0.000885,0,0
0:2:5.740,214.894,27.3584,0,0.000885,0,0
0:2:5.935,215.307,27.4136,0,0.000885,0,0
0:2:6.135,215.481,27.4342,0,0.000885,0,0
0:2:6.333,215.774,27.4756,0,0.000885,0,0
0:2:6.527,216.068,27.5101,0,0.000885,0,0
0:2:6.727,216.361,27.5515,0,0.000885,0,0
0:2:6.923,217.242,27.6618,0,0.000885,0,0
0:2:7.121,217.594,27.7031,0,0.000885,0,0
0:2:7.320,218.123,27.7721,0,0.000885,0,0
0:2:7.515,218.354,27.7997,0,0.000885,0,0
0:2:7.714,218.941,27.8755,0,0.000885,0,0
0:2:7.911,219.177,27.9031,0,0.000885,0,0
0:2:8.107,219.351,27.9307,0,0.000885,0,0
0:2:8.308,220.174,28.0341,0,0.000885,0,0
0:2:8.503,220.352,28.0548,0,0.000885,0,0
0:2:8.702,220.583,28.0823,0,0.000885,0,0
0:2:8.899,221.17,28.1582,0,0.000885,0,0
0:2:9.095,221.584,28.2133,0,0.000885,0,0
0:2:9.295,221.993,28.2616,0,0.000885,0,0
0:2:9.496,222.287,28.303,0,0.000885,0,0
0:2:9.699,222.932,28.3857,0,0.000885,0,0
0:2:9.901,224.164,28.5443,0,0.000885,0,0
0:2:10.100,223.986,28.5167,0,0.000885,0,0
0:2:10.301,225.16,28.6684,0,0.000885,0,0
0:2:10.501,224.279,28.5581,0,0.000885,0,0
0:2:10.701,225.16,28.6684,0,0.000885,0,0
0:2:10.901,226.156,28.7925,0,0.000885,0,0
0:2:11.095,225.685,28.7373,0,0.000885,0,0
0:2:11.293,226.099,28.7856,0,0.000885,0,0
0:2:11.491,225.863,28.758,0,0.000885,0,0
0:2:11.688,226.859,28.8821,0,0.000885,0,0
0:2:11.888,226.45,28.8339,0,0.000885,0,0
0:2:12.083,227.74,28.9993,0,0.000885,0,0
0:2:12.281,228.091,29.0407,0,0.000885,0,0
0:2:12.479,227.331,28.9442,0,0.000885,0,0
0:2:12.673,228.149,29.0476,0,0.000885,0,0
0:2:12.875,229.088,29.1717,0,0.000885,0,0
0:2:13.071,229.266,29.1924,0,0.000885,0,0
0:2:13.268,229.502,29.22,0,0.000885,0,0
0:2:13.468,229.733,29.2476,0,0.000885,0,0
0:2:13.663,230.262,29.3165,0,0.000885,0,0
0:2:13.862,230.965,29.4061,0,0.000885,0,0
0:2:14.059,230.907,29.3992,0,0.000885,0,0
0:2:14.254,231.788,29.5096,0,0.000885,0,0
0:2:14.454,231.846,29.5165,0,0.000885,0,0
0:2:14.656,232.958,29.6612,0,0.000885,0,0
0:2:14.859,233.078,29.675,0,0.000885,0,0
0:2:15.061,233.314,29.7095,0,0.000885,0,0
0:2:15.262,233.545,29.7371,0,0.000885,0,0
0:2:15.461,233.896,29.7785,0,0.000885,0,0
0:2:15.662,234.132,29.8129,0,0.000885,0,0
0:2:15.861,234.835,29.9026,0,0.000885,0,0
0:2:16.061,235.836,30.0267,0,0.000885,0,0
0:2:16.256,235.894,30.0336,0,0.000885,0,0
0:2:16.455,236.245,30.0818,0,0.000885,0,0
0:2:16.651,236.832,30.1577,0,0.000885,0,0
0:2:16.849,236.187,30.0749,0,0.000885,0,0
0:2:17.050,237.477,30.2335,0,0.000885,0,0
0:2:17.243,238.18,30.3231,0,0.000885,0,0
0:2:17.442,237.241,30.2059,0,0.000885,0,0
0:2:17.639,238.238,30.33,0,0.000885,0,0
0:2:17.835,238.064,30.3094,0,0.000885,0,0
0:2:18.036,238.709,30.3921,0,0.000885,0,0
0:2:18.240,239.764,30.53,0,0.000885,0,0
0:2:18.438,240.293,30.592,0,0.000885,0,0
0:2:18.637,240.351,30.5989,0,0.000885,0,0
0:2:18.829,241.169,30.7092,0,0.000885,0,0
0:2:19.030,241.583,30.7575,0,0.000885,0,0
0:2:19.229,241.054,30.6886,0,0.000885,0,0
0:2:19.434,242.05,30.8196,0,0.000885,0,0
0:2:19.635,241.992,30.8127,0,0.000885,0,0
0:2:19.836,243.104,30.9506,0,0.000885,0,0
0:2:20.035,242.695,30.9023,0,0.000885,0,0
0:2:20.236,242.753,30.9092,0,0.000885,0,0
0:2:20.437,243.927,31.0609,0,0.000885,0,0
0:2:20.637,244.043,31.0747,0,0.000885,0,0
0:2:20.840,244.808,31.1712,0,0.000885,0,0
0:2:21.039,245.275,31.2264,0,0.000885,0,0
0:2:21.237,244.808,31.1712,0,0.000885,0,0
0:2:21.441,245.275,31.2264,0,0.000885,0,0
0:2:21.641,245.689,31.2815,0,0.000885,0,0
0:2:21.836,245.982,31.316,0,0.000885,0,0
0:2:22.035,246.271,31.3574,0,0.000885,0,0
0:2:22.236,246.921,31.4401,0,0.000885,0,0
0:2:22.427,248.091,31.5849,0,0.000885,0,0
0:2:22.628,249.029,31.709,0,0.000885,0,0
0:2:22.825,248.678,31.6607,0,0.000885,0,0
0:2:23.019,249.559,31.7779,0,0.000885,0,0
0:2:23.220,250.083,31.84,0,0.000885,0,0
0:2:23.416,249.674,31.7917,0,0.000885,0,0
0:2:23.614,250.261,31.8676,0,0.000885,0,0
0:2:23.821,250.083,31.84,0,0.000885,0,0
0:2:24.017,250.671,31.9158,0,0.000885,0,0
0:2:24.217,251.436,32.0124,0,0.000885,0,0
0:2:24.419,252.432,32.1434,0,0.000885,0,0
0:2:24.621,252.374,32.1365,0,0.000885,0,0
0:2:24.821,252.726,32.1778,0,0.000885,0,0
0:2:25.021,252.316,32.1227,0,0.000885,0,0
0:2:25.220,252.961,32.2054,0,0.000885,0,0
0:2:25.420,254.074,32.3502,0,0.000885,0,0
0:2:25.621,254.776,32.4398,0,0.000885,0,0
0:2:25.820,254.954,32.4605,0,0.000885,0,0
0:2:26.014,254.661,32.426,0,0.000885,0,0
0:2:26.213,254.776,32.4398,0,0.000885,0,0
0:2:26.412,255.773,32.5639,0,0.000885,0,0
0:2:26.618,256.186,32.6191,0,0.000885,0,0
0:2:26.819,255.893,32.5846,0,0.000885,0,0
0:2:27.021,256.48,32.6536,0,0.000885,0,0
0:2:27.219,257.125,32.7363,0,0.000885,0,0
0:2:27.419,257.298,32.757,0,0.000885,0,0
0:2:27.613,257.419,32.7777,0,0.000885,0,0
0:2:27.815,258.473,32.9087,0,0.000885,0,0
0:2:28.011,258.766,32.95,0,0.000885,0,0
0:2:28.208,259.469,33.0397,0,0.000885,0,0
0:2:28.407,258.94,32.9707,0,0.000885,0,0
0:2:28.602,259.647,33.0604,0,0.000885,0,0
0:2:28.801,259.763,33.0742,0,0.000885,0,0
0:2:28.998,260.292,33.1431,0,0.000885,0,0
0:2:29.194,260.466,33.1638,0,0.000885,0,0
0:2:29.394,261.404,33.281,0,0.000885,0,0
0:2:29.595,262.049,33.3637,0,0.000885,0,0
0:2:29.798,263.166,33.5085,0,0.000885,0,0
0:2:29.999,262.401,33.412,0,0.000885,0,0
0:2:30.199,263.459,33.543,0,0.000885,0,0
0:2:30.400,263.984,33.6119,0,0.000885,0,0
0:2:30.600,264.162,33.6326,0,0.000885,0,0
0:2:30.800,264.046,33.6188,0,0.000885,0,0
0:2:31.000,265.043,33.7429,0,0.000885,0,0
0:2:31.194,264.923,33.7292,0,0.000885,0,0
0:2:31.395,264.985,33.736,0,0.000885,0,0
0:2:31.590,266.039,33.8739,0,0.000885,0,0
0:2:31.788,266.391,33.9153,0,0.000885,0,0
0:2:31.988,266.742,33.9636,0,0.000885,0,0
0:2:32.182,266.858,33.9774,0,0.000885,0,0
0:2:32.381,267.036,33.998,0,0.000885,0,0
0:2:32.579,267.796,34.0946,0,0.000885,0,0
0:2:32.775,267.974,34.1222,0,0.000885,0,0
0:2:32.977,268.152,34.1428,0,0.000885,0,0
0:2:33.172,268.971,34.2463,0,0.000885,0,0
0:2:33.370,269.028,34.2532,0,0.000885,0,0
0:2:33.569,269.206,34.2738,0,0.000885,0,0
0:2:33.764,269.851,34.3566,0,0.000885,0,0
0:2:33.964,270.145,34.3979,0,0.000885,0,0
0:2:34.166,270.67,34.46,0,0.000885,0,0
0:2:34.369,271.141,34.522,0,0.000885,0,0
0:2:34.569,271.435,34.5634,0,0.000885,0,0
0:2:34.771,272.022,34.6324,0,0.000885,0,0
0:2:34.971,272.431,34.6875,0,0.000885,0,0
0:2:35.172,272.961,34.7565,0,0.000885,0,0
0:2:35.371,272.961,34.7565,0,0.000885,0,0
0:2:35.572,273.486,34.8185,0,0.000885,0,0
0:2:35.765,274.366,34.9357,0,0.000885,0,0
0:2:35.964,274.953,35.0116,0,0.000885,0,0
0:2:36.165,275.011,35.0185,0,0.000885,0,0
0:2:36.358,274.776,34.984,0,0.000885,0,0
0:2:36.559,275.305,35.0529,0,0.000885,0,0
0:2:36.753,276.008,35.1426,0,0.000885,0,0
0:2:36.951,275.656,35.1012,0,0.000885,0,0
0:2:37.151,276.359,35.1839,0,0.000885,0,0
0:2:37.346,277.004,35.2667,0,0.000885,0,0
0:2:37.546,277.943,35.3908,0,0.000885,0,0
0:2:37.741,277.943,35.3908,0,0.000885,0,0
0:2:37.937,278.414,35.4459,0,0.000885,0,0
0:2:38.138,279.117,35.5356,0,0.000885,0,0
0:2:38.342,279.295,35.5632,0,0.000885,0,0
0:2:38.542,279.82,35.6252,0,0.000885,0,0
0:2:38.740,279.704,35.6114,0,0.000885,0,0
0:2:38.942,279.526,35.5907,0,0.000885,0,0
0:2:39.143,280.407,35.7011,0,0.000885,0,0
0:2:39.344,280.758,35.7493,0,0.000885,0,0
0:2:39.547,281.581,35.8527,0,0.000885,0,0
0:2:39.747,281.581,35.8527,0,0.000885,0,0
0:2:39.949,281.466,35.8389,0,0.000885,0,0
0:2:40.150,282.226,35.9355,0,0.000885,0,0
0:2:40.348,282.756,36.0044,0,0.000885,0,0
0:2:40.549,282.813,36.0113,0,0.000885,0,0
0:2:40.749,283.632,36.1147,0,0.000885,0,0
0:2:40.943,284.513,36.2251,0,0.000885,0,0
0:2:41.144,284.691,36.2457,0,0.000885,0,0
0:2:41.341,285.1,36.3009,0,0.000885,0,0
0:2:41.537,285.629,36.3698,0,0.000885,0,0
0:2:41.738,286.39,36.4664,0,0.000885,0,0
0:2:41.940,286.39,36.4664,0,0.000885,0,0
0:2:42.140,286.799,36.5146,0,0.000885,0,0
0:2:42.338,286.39,36.4664,0,0.000885,0,0
0:2:42.531,286.919,36.5284,0,0.000885,0,0
0:2:42.730,287.68,36.6318,0,0.000885,0,0
0:2:42.927,288.325,36.7077,0,0.000885,0,0
0:2:43.123,287.916,36.6594,0,0.000885,0,0
0:2:43.323,288.503,36.7353,0,0.000885,0,0
0:2:43.518,289.263,36.8318,0,0.000885,0,0
0:2:43.718,289.673,36.8801,0,0.000885,0,0
0:2:43.916,290.028,36.9283,0,0.000885,0,0
0:2:44.111,290.496,36.9904,0,0.000885,0,0
0:2:44.312,290.905,37.0386,0,0.000885,0,0
0:2:44.512,290.967,37.0455,0,0.000885,0,0
0:2:44.712,291.492,37.1145,0,0.000885,0,0
0:2:44.914,291.906,37.1696,0,0.000885,0,0
0:2:45.115,292.257,37.211,0,0.000885,0,0
0:2:45.316,292.431,37.2317,0,0.000885,0,0
0:2:45.516,292.902,37.2937,0,0.000885,0,0
0:2:45.716,293.721,37.3972,0,0.000885,0,0
0:2:45.916,294.25,37.4661,0,0.000885,0,0
0:2:46.128,293.778,37.4041,0,0.000885,0,0
0:2:46.329,294.779,37.5351,0,0.000885,0,0
0:2:46.537,295.131,37.5764,0,0.000885,0,0
0:2:46.746,295.833,37.6661,0,0.000885,0,0
0:2:46.944,296.007,37.6867,0,0.000885,0,0
0:2:47.139,296.185,37.7143,0,0.000885,0,0
0:2:47.340,296.772,37.7833,0,0.000885,0,0
0:2:47.544,297.008,37.8177,0,0.000885,0,0
0:2:47.743,297.301,37.8522,0,0.000885,0,0
0:2:47.943,298.24,37.9694,0,0.000885,0,0
0:2:48.137,298.413,37.997,0,0.000885,0,0
0:2:48.337,298.471,38.0039,0,0.000885,0,0
0:2:48.541,298.823,38.0453,0,0.000885,0,0
0:2:48.741,299.294,38.1073,0,0.000885,0,0
0:2:48.941,299.236,38.1004,0,0.000885,0,0
0:2:49.143,299.588,38.1418,0,0.000885,0,0
0:2:49.344,300.526,38.2659,0,0.000885,0,0
0:2:49.545,301.229,38.3555,0,0.000885,0,0
0:2:49.745,300.878,38.3073,0,0.000885,0,0
0:2:49.945,301.696,38.4107,0,0.000885,0,0
0:2:50.146,301.932,38.4452,0,0.000885,0,0
0:2:50.347,302.577,38.5279,0,0.000885,0,0
0:2:50.544,303.28,38.6175,0,0.000885,0,0
0:2:50.740,302.991,38.5762,0,0.000885,0,0
0:2:50.941,303.925,38.7003,0,0.000885,0,0
0:2:51.145,303.867,38.6865,0,0.000885,0,0
0:2:51.345,304.454,38.7623,0,0.000885,0,0
0:2:51.543,305.099,38.8451,0,0.000885,0,0
0:2:51.738,305.802,38.9347,0,0.000885,0,0
0:2:51.939,305.864,38.9416,0,0.000885,0,0
0:2:52.144,306.567,39.0312,0,0.000885,0,0
0:2:52.341,306.447,39.0174,0,0.000885,0,0
0:2:52.539,306.918,39.0795,0,0.000885,0,0
0:2:52.745,307.679,39.176,0,0.000885,0,0
0:2:52.946,307.973,39.2105,0,0.000885,0,0
0:2:53.140,307.563,39.1622,0,0.000885,0,0
0:2:53.340,308.618,39.2932,0,0.000885,0,0
0:2:53.538,308.911,39.3346,0,0.000885,0,0
0:2:53.742,309.676,39.4311,0,0.000885,0,0
0:2:53.943,309.614,39.4242,0,0.000885,0,0
0:2:54.142,310.028,39.4725,0,0.000885,0,0
0:2:54.345,310.321,39.5139,0,0.000885,0,0
0:2:54.547,310.437,39.5276,0,0.000885,0,0
0:2:54.747,311.198,39.6242,0,0.000885,0,0
0:2:54.947,311.843,39.7069,0,0.000885,0,0
0:2:55.147,311.669,39.6862,0,0.000885,0,0
0:2:55.348,312.136,39.7414,0,0.000885,0,0
0:2:55.549,312.665,39.8103,0,0.000885,0,0
0:2:55.743,313.075,39.8655,0,0.000885,0,0
0:2:55.944,313.72,39.9413,0,0.000885,0,0
0:2:56.142,313.546,39.9206,0,0.000885,0,0
0:2:56.339,314.307,40.0172,0,0.000885,0,0
0:2:56.539,314.836,40.0861,0,0.000885,0,0
0:2:56.743,314.836,40.0861,0,0.000885,0,0
0:2:56.942,315.188,40.1344,0,0.000885,0,0
0:2:57.141,315.89,40.2171,0,0.000885,0,0
0:2:57.334,316.184,40.2585,0,0.000885,0,0
0:2:57.537,316.887,40.3481,0,0.000885,0,0
0:2:57.740,316.771,40.3343,0,0.000885,0,0
0:2:57.939,317.301,40.3964,0,0.000885,0,0
0:2:58.137,317.416,40.4171,0,0.000885,0,0
0:2:58.333,318.413,40.5412,0,0.000885,0,0
0:2:58.533,318.706,40.5756,0,0.000885,0,0
0:2:58.739,318.533,40.555,0,0.000885,0,0
0:2:58.938,319.645,40.6998,0,0.000885,0,0
0:2:59.137,319.587,40.6929,0,0.000885,0,0
0:2:59.340,321.055,40.879,0,0.000885,0,0
0:2:59.541,320.641,40.8239,0,0.000885,0,0
0:2:59.741,321.17,40.8928,0,0.000885,0,0
0:2:59.941,320.935,40.8652,0,0.000885,0,0
0:3:0.142,321.58,40.948,0,0.000885,0,0
0:3:0.341,321.873,40.9824,0,0.000885,0,0
0:3:0.542,322.576,41.0721,0,0.000885,0,0
0:3:0.739,322.638,41.079,0,0.000885,0,0
0:3:0.934,323.105,41.141,0,0.000885,0,0
0:3:1.144,323.457,41.1824,0,0.000885,0,0
0:3:1.341,324.102,41.2651,0,0.000885,0,0
0:3:1.541,324.338,41.2927,0,0.000885,0,0
0:3:1.738,325.45,41.4375,0,0.000885,0,0
0:3:1.946,325.276,41.4168,0,0.000885,0,0
0:3:2.144,326.037,41.5133,0,0.000885,0,0
0:3:2.347,325.921,41.4995,0,0.000885,0,0
0:3:2.547,326.682,41.5961,0,0.000885,0,0
0:3:2.744,326.682,41.5961,0,0.000885,0,0
0:3:2.940,327.563,41.7064,0,0.000885,0,0
0:3:3.140,327.153,41.6512,0,0.000885,0,0
0:3:3.332,328.501,41.8236,0,0.000885,0,0
0:3:3.532,327.914,41.7547,0,0.000885,0,0
0:3:3.729,327.914,41.7547,0,0.000885,0,0
0:3:3.926,328.501,41.8236,0,0.000885,0,0
0:3:4.125,329.204,41.9132,0,0.000885,0,0
0:3:4.327,329.675,41.9753,0,0.000885,0,0
0:3:4.529,329.675,41.9753,0,0.000885,0,0
0:3:4.729,330.143,42.0373,0,0.000885,0,0
0:3:4.931,330.788,42.1201,0,0.000885,0,0
0:3:5.129,330.73,42.1132,0,0.000885,0,0
0:3:5.329,331.081,42.1545,0,0.000885,0,0
0:3:5.531,331.846,42.2511,0,0.000885,0,0
0:3:5.730,332.255,42.3062,0,0.000885,0,0
0:3:5.926,332.958,42.3959,0,0.000885,0,0
0:3:6.127,333.016,42.4028,0,0.000885,0,0
0:3:6.321,333.781,42.4993,0,0.000885,0,0
0:3:6.519,333.723,42.4924,0,0.000885,0,0
0:3:6.719,334.075,42.5338,0,0.000885,0,0
0:3:6.914,334.19,42.5475,0,0.000885,0,0
0:3:7.114,334.368,42.5751,0,0.000885,0,0
0:3:7.310,334.075,42.5338,0,0.000885,0,0
0:3:7.507,334.248,42.5613,0,0.000885,0,0
0:3:7.707,334.484,42.5889,0,0.000885,0,0
0:3:7.902,334.19,42.5475,0,0.000885,0,0
0:3:8.101,334.484,42.5889,0,0.000885,0,0
0:3:8.297,334.426,42.582,0,0.000885,0,0
0:3:8.493,334.075,42.5338,0,0.000885,0,0
0:3:8.693,334.248,42.5613,0,0.000885,0,0
0:3:8.888,333.955,42.52,0,0.000885,0,0
0:3:9.087,333.603,42.4786,0,0.000885,0,0
0:3:9.287,333.016,42.4028,0,0.000885,0,0
0:3:9.489,332.549,42.3407,0,0.000885,0,0
0:3:9.690,332.14,42.2924,0,0.000885,0,0
0:3:9.890,330.788,42.1201,0,0.000885,0,0
0:3:10.090,329.146,41.9063,0,0.000885,0,0
0:3:10.289,325.276,41.4168,0,0.000885,0,0
0:3:10.490,323.457,41.1824,0,0.000885,0,0
0:3:10.690,316.887,40.3481,0,0.000885,0,0
0:3:10.886,311.433,39.6517,0,0.000885,0,0
0:3:11.084,300.348,38.2383,0,0.000885,0,0
0:3:11.282,296.363,37.735,0,0.000885,0,0
0:3:11.478,288.97,36.7904,0,0.000885,0,0
0:3:11.677,283.752,36.1285,0,0.000885,0,0
0:3:11.873,271.435,34.5634,0,0.000885,0,0
0:3:12.068,264.104,33.6257,0,0.000885,0,0
0:3:12.269,246.627,31.3987,0,0.000885,0,0
0:3:12.394,246.627,31.3987,0,0.000885,0,0