File: DataFile2021-06-08_072940.csv
Test ID:,Date Tested:,Time:,Test Type:,Diameter Avg. (mm):,Cyl. Corr. Factor:,Height (mm):,Age (days):,Weight (kN):,Break Type:,Ramp Rate (MPa/s):,Load at Break (kN):,Stress at Break (MPa):
12,6/8/2021,07:29,Cylinder,100,1,200,0,3.6,3,0.22,236.54,30.12
Sample Time,Load (kN),Stress (MPa),Long. Strain,Trans. Strain,Chan1 Deflection (mm),Chan2 Deflection (mm)
0:0:20.731,5.8672,0.744634,0,0.000885,0,0
0:0:20.926,9.73716,1.24106,0,0.000885,0,0
0:0:21.126,13.6649,1.73748,0,0.000885,0,0
0:0:21.326,13.4292,1.7099,0,0.000885,0,0
0:0:21.519,12.9043,1.64095,0,0.000885,0,0
0:0:21.720,12.6107,1.60648,0,0.000885,0,0
0:0:21.915,12.2015,1.55132,0,0.000885,0,0
0:0:22.115,11.9657,1.52374,0,0.000885,0,0
0:0:22.315,12.0235,1.53064,0,0.000885,0,0
0:0:22.509,11.6721,1.48927,0,0.000885,0,0
0:0:22.710,11.8456,1.50995,0,0.000885,0,0
0:0:22.916,11.4364,1.45479,0,0.000885,0,0
0:0:23.127,11.4942,1.46169,0,0.000885,0,0
0:0:23.328,11.4942,1.46169,0,0.000885,0,0
0:0:23.532,11.552,1.46858,0,0.000885,0,0
0:0:23.733,11.4942,1.46169,0,0.000885,0,0
0:0:23.930,11.9079,1.51685,0,0.000885,0,0
0:0:24.127,11.6143,1.47548,0,0.000885,0,0
0:0:24.328,11.4942,1.46169,0,0.000885,0,0
0:0:24.524,11.8456,1.50995,0,0.000885,0,0
0:0:24.721,12.8465,1.63406,0,0.000885,0,0
0:0:24.919,12.2015,1.55132,0,0.000885,0,0
0:0:25.116,12.5529,1.59958,0,0.000885,0,0
0:0:25.317,13.4292,1.7099,0,0.000885,0,0
0:0:25.514,13.1356,1.67543,0,0.000885,0,0
0:0:25.713,13.7228,1.74437,0,0.000885,0,0
0:0:25.912,14.1364,1.79953,0,0.000885,0,0
0:0:26.107,14.7814,1.88227,0,0.000885,0,0
0:0:26.309,15.075,1.91674,0,0.000885,0,0
0:0:26.511,15.72,1.99948,0,0.000885,0,0
0:0:26.714,15.8935,2.02706,0,0.000885,0,0
0:0:26.916,16.365,2.08222,0,0.000885,0,0
0:0:27.118,17.1835,2.18564,0,0.000885,0,0
0:0:27.319,17.5972,2.2408,0,0.000885,0,0
0:0:27.521,17.7706,2.26148,0,0.000885,0,0
0:0:27.725,18.1799,2.31664,0,0.000885,0,0
0:0:27.926,19.2386,2.44764,0,0.000885,0,0
0:0:28.121,19.8257,2.52348,0,0.000885,0,0
0:0:28.325,19.5321,2.48901,0,0.000885,0,0
0:0:28.532,20.5864,2.62001,0,0.000885,0,0
0:0:28.730,20.5864,2.62001,0,0.000885,0,0
0:0:28.933,21.4671,2.73032,0,0.000885,0,0
0:0:29.127,22.2278,2.82685,0,0.000885,0,0
0:0:29.328,22.7571,2.8958,0,0.000885,0,0
0:0:29.528,23.5177,2.99232,0,0.000885,0,0
0:0:29.725,23.4599,2.98543,0,0.000885,0,0
0:0:29.927,24.1049,3.06817,0,0.000885,0,0
0:0:30.121,24.6343,3.13711,0,0.000885,0,0
0:0:30.320,24.7499,3.1509,0,0.000885,0,0
0:0:30.521,24.9857,3.17848,0,0.000885,0,0
0:0:30.718,25.2214,3.21296,0,0.000885,0,0
0:0:30.919,25.7463,3.27501,0,0.000885,0,0
0:0:31.120,25.8664,3.29569,0,0.000885,0,0
0:0:31.327,26.4536,3.36464,0,0.000885,0,0
0:0:31.530,26.8628,3.4198,0,0.000885,0,0
0:0:31.732,26.9785,3.43359,0,0.000885,0,0
0:0:31.933,27.7436,3.53012,0,0.000885,0,0
0:0:32.133,27.5656,3.50943,0,0.000885,0,0
0:0:32.335,28.4464,3.61975,0,0.000885,0,0
0:0:32.537,28.2684,3.59906,0,0.000885,0,0
0:0:32.732,28.6821,3.65422,0,0.000885,0,0
0:0:32.931,28.6821,3.65422,0,0.000885,0,0
0:0:33.133,29.0914,3.70248,0,0.000885,0,0
0:0:33.328,29.3271,3.73696,0,0.000885,0,0
0:0:33.531,29.9721,3.8128,0,0.000885,0,0
0:0:33.728,30.3235,3.86106,0,0.000885,0,0
0:0:33.927,30.9107,3.93691,0,0.000885,0,0
0:0:34.129,31.3199,3.98517,0,0.000885,0,0
0:0:34.325,31.787,4.04722,0,0.000885,0,0
0:0:34.526,31.9071,4.06101,0,0.000885,0,0
0:0:34.734,32.5521,4.14375,0,0.000885,0,0
0:0:34.932,33.0191,4.2058,0,0.000885,0,0
0:0:35.133,33.6063,4.28164,0,0.000885,0,0
0:0:35.330,34.1357,4.3437,0,0.000885,0,0
0:0:35.531,34.2513,4.36438,0,0.000885,0,0
0:0:35.729,34.4871,4.39196,0,0.000885,0,0
0:0:35.926,34.8385,4.43333,0,0.000885,0,0
0:0:36.128,35.3055,4.49538,0,0.000885,0,0
0:0:36.330,35.8349,4.56433,0,0.000885,0,0
0:0:36.534,36.3064,4.61949,0,0.000885,0,0
0:0:36.736,36.7734,4.68154,0,0.000885,0,0
0:0:36.939,37.1827,4.7367,0,0.000885,0,0
0:0:37.141,37.4184,4.76428,0,0.000885,0,0
0:0:37.342,38.1213,4.85391,0,0.000885,0,0
0:0:37.543,38.4148,4.88838,0,0.000885,0,0
0:0:37.745,38.9442,4.95733,0,0.000885,0,0
0:0:37.939,39.1799,4.9918,0,0.000885,0,0
0:0:38.142,39.5892,5.04007,0,0.000885,0,0
0:0:38.339,40.1185,5.10902,0,0.000885,0,0
0:0:38.538,40.5277,5.15728,0,0.000885,0,0
0:0:38.739,40.5277,5.15728,0,0.000885,0,0
0:0:38.934,41.2306,5.24691,0,0.000885,0,0
0:0:39.135,41.4085,5.27449,0,0.000885,0,0
0:0:39.335,42.1113,5.36412,0,0.000885,0,0
0:0:39.532,42.4627,5.40549,0,0.000885,0,0
0:0:39.733,42.2892,5.38481,0,0.000885,0,0
0:0:39.928,42.9342,5.46754,0,0.000885,0,0
0:0:40.128,42.9342,5.46754,0,0.000885,0,0
0:0:40.329,43.7527,5.57096,0,0.000885,0,0
0:0:40.526,43.9306,5.59165,0,0.000885,0,0
0:0:40.729,44.0463,5.60544,0,0.000885,0,0
0:0:40.934,44.6913,5.68817,0,0.000885,0,0
0:0:41.133,45.3941,5.77781,0,0.000885,0,0
0:0:41.335,45.6299,5.81228,0,0.000885,0,0
0:0:41.539,45.8078,5.83296,0,0.000885,0,0
0:0:41.741,46.1592,5.87433,0,0.000885,0,0
0:0:41.944,46.8042,5.95707,0,0.000885,0,0
0:0:42.146,47.0355,5.99154,0,0.000885,0,0
0:0:42.348,47.4492,6.03981,0,0.000885,0,0
0:0:42.550,47.8584,6.09497,0,0.000885,0,0
0:0:42.752,48.5034,6.1777,0,0.000885,0,0
0:0:42.950,48.9749,6.23286,0,0.000885,0,0
0:0:43.149,49.6199,6.3156,0,0.000885,0,0
0:0:43.351,49.7356,6.32939,0,0.000885,0,0
0:0:43.547,50.2649,6.39833,0,0.000885,0,0
0:0:43.749,50.3227,6.40523,0,0.000885,0,0
0:0:43.948,50.9099,6.48107,0,0.000885,0,0
0:0:44.144,51.0834,6.50176,0,0.000885,0,0
0:0:44.346,51.377,6.54312,0,0.000885,0,0
0:0:44.543,51.8485,6.59828,0,0.000885,0,0
0:0:44.744,52.5513,6.68791,0,0.000885,0,0
0:0:44.944,52.7248,6.71549,0,0.000885,0,0
0:0:45.139,53.3119,6.79134,0,0.000885,0,0
0:0:45.341,53.6633,6.8327,0,0.000885,0,0
0:0:45.539,53.8991,6.86028,0,0.000885,0,0
0:0:45.739,54.5441,6.94302,0,0.000885,0,0
0:0:45.941,54.8377,6.98439,0,0.000885,0,0
0:0:46.145,55.2469,7.03265,0,0.000885,0,0
0:0:46.348,55.4827,7.06713,0,0.000885,0,0
0:0:46.551,56.012,7.12918,0,0.000885,0,0
0:0:46.754,56.5992,7.20502,0,0.000885,0,0
0:0:46.955,56.657,7.21192,0,0.000885,0,0
0:0:47.157,56.8928,7.24639,0,0.000885,0,0
0:0:47.360,57.4755,7.31534,0,0.000885,0,0
0:0:47.558,57.5956,7.33602,0,0.000885,0,0
0:0:47.756,57.8892,7.3705,0,0.000885,0,0
0:0:47.957,58.0626,7.39118,0,0.000885,0,0
0:0:48.154,58.8277,7.48771,0,0.000885,0,0
0:0:48.354,59.2948,7.54976,0,0.000885,0,0
0:0:48.555,59.7663,7.61181,0,0.000885,0,0
0:0:48.750,59.9976,7.63939,0,0.000885,0,0
0:0:48.952,60.8205,7.74281,0,0.000885,0,0
0:0:49.150,60.9362,7.7566,0,0.000885,0,0
0:0:49.350,61.5812,7.83934,0,0.000885,0,0
0:0:49.550,62.1683,7.91518,0,0.000885,0,0
0:0:49.746,62.2884,7.92897,0,0.000885,0,0
0:0:49.948,62.6977,7.98413,0,0.000885,0,0
0:0:50.146,63.5206,8.08755,0,0.000885,0,0
0:0:50.344,63.5784,8.09445,0,0.000885,0,0
0:0:50.546,63.4005,8.07376,0,0.000885,0,0
0:0:50.741,64.2234,8.17718,0,0.000885,0,0
0:0:50.942,64.6327,8.23234,0,0.000885,0,0
0:0:51.143,64.7483,8.24613,0,0.000885,0,0
0:0:51.347,65.2777,8.30818,0,0.000885,0,0
0:0:51.550,65.807,8.37713,0,0.000885,0,0
0:0:51.752,65.807,8.37713,0,0.000885,0,0
0:0:51.953,66.5676,8.47366,0,0.000885,0,0
0:0:52.155,67.2126,8.55639,0,0.000885,0,0
0:0:52.357,67.6219,8.61155,0,0.000885,0,0
0:0:52.559,67.564,8.60466,0,0.000885,0,0
0:0:52.756,68.2713,8.69429,0,0.000885,0,0
0:0:52.956,68.7962,8.75634,0,0.000885,0,0
0:0:53.157,69.032,8.79082,0,0.000885,0,0
0:0:53.353,68.854,8.77013,0,0.000885,0,0
0:0:53.556,69.3255,8.82529,0,0.000885,0,0
0:0:53.753,69.6769,8.87355,0,0.000885,0,0
0:0:53.950,70.4376,8.97008,0,0.000885,0,0
0:0:54.152,70.6155,8.99076,0,0.000885,0,0
0:0:54.348,70.9091,9.02524,0,0.000885,0,0
0:0:54.549,71.2605,9.0735,0,0.000885,0,0
0:0:54.749,71.7276,9.13555,0,0.000885,0,0
0:0:54.945,72.3726,9.21829,0,0.000885,0,0
0:0:55.146,72.5505,9.23897,0,0.000885,0,0
0:0:55.345,72.9019,9.28034,0,0.000885,0,0
0:0:55.543,73.2533,9.32861,0,0.000885,0,0
0:0:55.745,73.8983,9.41134,0,0.000885,0,0
0:0:55.941,74.5433,9.49408,0,0.000885,0,0
0:0:56.143,75.0148,9.54924,0,0.000885,0,0
0:0:56.345,75.2506,9.58371,0,0.000885,0,0
0:0:56.550,75.7176,9.63887,0,0.000885,0,0
0:0:56.753,76.1891,9.70092,0,0.000885,0,0
0:0:56.955,76.5984,9.75608,0,0.000885,0,0
0:0:57.157,76.892,9.79056,0,0.000885,0,0
0:0:57.359,77.359,9.85261,0,0.000885,0,0
0:0:57.560,77.537,9.87329,0,0.000885,0,0
0:0:57.763,77.4168,9.8595,0,0.000885,0,0
0:0:57.957,77.8884,9.91466,0,0.000885,0,0
0:0:58.159,78.8848,10.0457,0,0.000885,0,0
0:0:58.357,78.8269,10.0388,0,0.000885,0,0
0:0:58.558,79.294,10.0939,0,0.000885,0,0
0:0:58.759,79.5876,10.1353,0,0.000885,0,0
0:0:58.955,80.3527,10.2318,0,0.000885,0,0
0:0:59.156,80.9398,10.3077,0,0.000885,0,0
0:0:59.355,81.3491,10.3559,0,0.000885,0,0
0:0:59.553,81.5226,10.3766,0,0.000885,0,0
0:0:59.755,81.8161,10.418,0,0.000885,0,0
0:0:59.949,82.0519,10.4456,0,0.000885,0,0
0:1:0.150,82.1097,10.4525,0,0.000885,0,0
0:1:0.348,83.2262,10.5972,0,0.000885,0,0
0:1:0.546,83.3997,10.6179,0,0.000885,0,0
0:1:0.749,83.5776,10.6386,0,0.000885,0,0
0:1:0.945,83.9869,10.6938,0,0.000885,0,0
0:1:1.146,84.6319,10.7765,0,0.000885,0,0
0:1:1.348,84.8676,10.8041,0,0.000885,0,0
0:1:1.553,85.5704,10.8937,0,0.000885,0,0
0:1:1.754,85.864,10.9351,0,0.000885,0,0
0:1:1.957,86.3934,10.9971,0,0.000885,0,0
0:1:2.159,86.3934,10.9971,0,0.000885,0,0
0:1:2.361,86.8026,11.0523,0,0.000885,0,0
0:1:2.563,87.154,11.0937,0,0.000885,0,0
0:1:2.765,87.3898,11.1281,0,0.000885,0,0
0:1:2.963,87.8568,11.1833,0,0.000885,0,0
0:1:3.163,88.7954,11.3074,0,0.000885,0,0
0:1:3.363,89.089,11.3419,0,0.000885,0,0
0:1:3.559,89.3826,11.3832,0,0.000885,0,0
0:1:3.761,89.5027,11.397,0,0.000885,0,0
0:1:3.960,90.1477,11.4798,0,0.000885,0,0
0:1:4.158,90.4412,11.5142,0,0.000885,0,0
0:1:4.359,90.6147,11.5349,0,0.000885,0,0
0:1:4.554,91.024,11.5901,0,0.000885,0,0
0:1:4.756,91.4376,11.6452,0,0.000885,0,0
0:1:4.955,92.0248,11.7142,0,0.000885,0,0
0:1:5.153,92.1983,11.7418,0,0.000885,0,0
0:1:5.354,92.5497,11.7831,0,0.000885,0,0
0:1:5.549,92.8433,11.8245,0,0.000885,0,0
0:1:5.751,93.7819,11.9417,0,0.000885,0,0
0:1:5.950,94.7204,12.0589,0,0.000885,0,0
0:1:6.147,94.5425,12.0382,0,0.000885,0,0
0:1:6.349,95.014,12.1003,0,0.000885,0,0
0:1:6.552,95.7747,12.1968,0,0.000885,0,0
0:1:6.756,95.9526,12.2175,0,0.000885,0,0
0:1:6.959,96.0104,12.2244,0,0.000885,0,0
0:1:7.160,96.3618,12.2727,0,0.000885,0,0
0:1:7.362,96.7132,12.314,0,0.000885,0,0
0:1:7.563,96.7132,12.314,0,0.000885,0,0
0:1:7.765,97.6518,12.4312,0,0.000885,0,0
0:1:7.965,97.7096,12.4381,0,0.000885,0,0
0:1:8.163,98.1811,12.5002,0,0.000885,0,0
0:1:8.366,98.5904,12.5554,0,0.000885,0,0
0:1:8.561,99.0619,12.6105,0,0.000885,0,0
0:1:8.761,99.2354,12.6381,0,0.000885,0,0
0:1:8.961,99.7069,12.6932,0,0.000885,0,0
0:1:9.158,99.9426,12.7277,0,0.000885,0,0
0:1:9.360,100.588,12.8036,0,0.000885,0,0
0:1:9.558,101.29,12.8932,0,0.000885,0,0
0:1:9.756,101.464,12.9208,0,0.000885,0,0
0:1:9.957,101.993,12.9828,0,0.000885,0,0
0:1:10.153,102.051,12.9966,0,0.000885,0,0
0:1:10.355,102.287,13.0242,0,0.000885,0,0
0:1:10.554,102.932,13.1069,0,0.000885,0,0
0:1:10.751,103.692,13.2035,0,0.000885,0,0
0:1:10.953,103.986,13.2379,0,0.000885,0,0
0:1:11.157,104.222,13.2724,0,0.000885,0,0
0:1:11.359,104.337,13.2862,0,0.000885,0,0
0:1:11.563,104.809,13.3414,0,0.000885,0,0
0:1:11.765,105.103,13.3827,0,0.000885,0,0
0:1:11.967,105.805,13.4724,0,0.000885,0,0
0:1:12.169,106.45,13.5551,0,0.000885,0,0
0:1:12.371,106.393,13.5482,0,0.000885,0,0
0:1:12.572,106.686,13.5827,0,0.000885,0,0
0:1:12.767,107.331,13.6654,0,0.000885,0,0
0:1:12.969,107.505,13.6861,0,0.000885,0,0
0:1:13.167,108.092,13.7619,0,0.000885,0,0
0:1:13.365,108.563,13.824,0,0.000885,0,0
0:1:13.568,108.795,13.8516,0,0.000885,0,0
0:1:13.763,109.208,13.9067,0,0.000885,0,0
0:1:13.965,109.795,13.9826,0,0.000885,0,0
0:1:14.163,110.027,14.0101,0,0.000885,0,0
0:1:14.361,110.734,14.0998,0,0.000885,0,0
0:1:14.562,110.672,14.0929,0,0.000885,0,0
0:1:14.758,110.908,14.1205,0,0.000885,0,0
0:1:14.960,111.673,14.217,0,0.000885,0,0
0:1:15.158,112.14,14.279,0,0.000885,0,0
0:1:15.355,112.611,14.3411,0,0.000885,0,0
0:1:15.557,112.9,14.3756,0,0.000885,0,0
0:1:15.756,113.545,14.4583,0,0.000885,0,0
0:1:15.955,113.608,14.4652,0,0.000885,0,0
0:1:16.157,114.19,14.541,0,0.000885,0,0
0:1:16.361,114.546,14.5824,0,0.000885,0,0
0:1:16.563,114.898,14.6307,0,0.000885,0,0
0:1:16.765,115.307,14.6789,0,0.000885,0,0
0:1:16.967,115.894,14.7548,0,0.000885,0,0
0:1:17.169,116.01,14.7686,0,0.000885,0,0
0:1:17.370,116.188,14.7961,0,0.000885,0,0
0:1:17.572,117.006,14.8996,0,0.000885,0,0
0:1:17.770,117.651,14.9823,0,0.000885,0,0
0:1:17.969,117.829,15.003,0,0.000885,0,0
0:1:18.171,118.416,15.0788,0,0.000885,0,0
0:1:18.366,118.358,15.0719,0,0.000885,0,0
0:1:18.568,118.768,15.1202,0,0.000885,0,0
0:1:18.767,118.652,15.1064,0,0.000885,0,0
0:1:18.963,119.88,15.265,0,0.000885,0,0
0:1:19.165,119.822,15.2581,0,0.000885,0,0
0:1:19.361,119.88,15.265,0,0.000885,0,0
0:1:19.560,120.409,15.3339,0,0.000885,0,0
0:1:19.761,120.88,15.3891,0,0.000885,0,0
0:1:19.956,121.054,15.4098,0,0.000885,0,0
0:1:20.158,121.347,15.4512,0,0.000885,0,0
0:1:20.356,122.108,15.5477,0,0.000885,0,0
0:1:20.555,122.522,15.6028,0,0.000885,0,0
0:1:20.758,123.167,15.6787,0,0.000885,0,0
0:1:20.952,123.282,15.6994,0,0.000885,0,0
0:1:21.154,123.576,15.7338,0,0.000885,0,0
0:1:21.356,123.927,15.7821,0,0.000885,0,0
0:1:21.560,124.866,15.8993,0,0.000885,0,0
0:1:21.763,125.28,15.9476,0,0.000885,0,0
0:1:21.965,125.453,15.9752,0,0.000885,0,0
0:1:22.168,125.983,16.0372,0,0.000885,0,0
0:1:22.369,126.334,16.0855,0,0.000885,0,0
0:1:22.572,127.095,16.182,0,0.000885,0,0
0:1:22.773,127.215,16.1958,0,0.000885,0,0
0:1:22.969,127.388,16.2165,0,0.000885,0,0
0:1:23.171,128.385,16.3475,0,0.000885,0,0
0:1:23.369,127.74,16.2647,0,0.000885,0,0
0:1:23.565,128.678,16.3819,0,0.000885,0,0
0:1:23.768,129.03,16.4302,0,0.000885,0,0
0:1:23.964,129.381,16.4716,0,0.000885,0,0
0:1:24.164,129.617,16.506,0,0.000885,0,0
0:1:24.366,129.968,16.5474,0,0.000885,0,0
0:1:24.560,130.32,16.5957,0,0.000885,0,0
0:1:24.762,130.849,16.6577,0,0.000885,0,0
0:1:24.960,131.436,16.7336,0,0.000885,0,0
0:1:25.158,131.142,16.6991,0,0.000885,0,0
0:1:25.360,131.845,16.7887,0,0.000885,0,0
0:1:25.557,132.317,16.8439,0,0.000885,0,0
0:1:25.757,133.607,17.0094,0,0.000885,0,0
0:1:25.956,133.077,16.9473,0,0.000885,0,0
0:1:26.153,133.607,17.0094,0,0.000885,0,0
0:1:26.356,134.132,17.0783,0,0.000885,0,0
0:1:26.557,134.719,17.1542,0,0.000885,0,0
0:1:26.761,135.012,17.1886,0,0.000885,0,0
0:1:26.964,135.306,17.23,0,0.000885,0,0
0:1:27.167,135.893,17.3058,0,0.000885,0,0
0:1:27.369,135.951,17.3127,0,0.000885,0,0
0:1:27.570,135.893,17.3058,0,0.000885,0,0
0:1:27.771,136.832,17.4231,0,0.000885,0,0
0:1:27.972,136.947,17.4368,0,0.000885,0,0
0:1:28.167,137.241,17.4713,0,0.000885,0,0
0:1:28.369,138.006,17.5747,0,0.000885,0,0
0:1:28.569,138.18,17.5954,0,0.000885,0,0
0:1:28.765,138.767,17.6713,0,0.000885,0,0
0:1:28.967,139.06,17.7057,0,0.000885,0,0
0:1:29.163,139.705,17.7885,0,0.000885,0,0
0:1:29.363,139.999,17.8229,0,0.000885,0,0
0:1:29.564,139.821,17.8023,0,0.000885,0,0
0:1:29.760,140.644,17.9057,0,0.000885,0,0
0:1:29.962,141.698,18.0436,0,0.000885,0,0
0:1:30.159,141.876,18.0643,0,0.000885,0,0
0:1:30.357,142.227,18.1056,0,0.000885,0,0
0:1:30.559,142.463,18.1401,0,0.000885,0,0
0:1:30.754,142.463,18.1401,0,0.000885,0,0
0:1:30.957,143.108,18.2228,0,0.000885,0,0
0:1:31.160,143.402,18.2573,0,0.000885,0,0
0:1:31.363,143.753,18.3056,0,0.000885,0,0
0:1:31.567,144.398,18.3883,0,0.000885,0,0
0:1:31.770,144.456,18.3952,0,0.000885,0,0
0:1:31.971,144.634,18.4159,0,0.000885,0,0
0:1:32.172,145.51,18.5262,0,0.000885,0,0
0:1:32.373,145.804,18.5676,0,0.000885,0,0
0:1:32.575,146.333,18.6296,0,0.000885,0,0
0:1:32.770,146.449,18.6434,0,0.000885,0,0
0:1:32.971,146.8,18.6917,0,0.000885,0,0
0:1:33.171,147.623,18.7951,0,0.000885,0,0
0:1:33.366,147.739,18.8089,0,0.000885,0,0
0:1:33.569,147.917,18.8365,0,0.000885,0,0
0:1:33.767,148.677,18.933,0,0.000885,0,0
0:1:33.968,149.029,18.9744,0,0.000885,0,0
0:1:34.168,149.736,19.064,0,0.000885,0,0
0:1:34.363,149.967,19.0916,0,0.000885,0,0
0:1:34.566,150.203,19.1261,0,0.000885,0,0
0:1:34.764,150.555,19.1674,0,0.000885,0,0
0:1:34.962,151.2,19.2502,0,0.000885,0,0
0:1:35.164,151.32,19.264,0,0.000885,0,0
0:1:35.359,151.844,19.3329,0,0.000885,0,0
0:1:35.561,152.783,19.4501,0,0.000885,0,0
0:1:35.760,152.552,19.4225,0,0.000885,0,0
0:1:35.956,152.667,19.4363,0,0.000885,0,0
0:1:36.158,153.255,19.5122,0,0.000885,0,0
0:1:36.361,153.197,19.5053,0,0.000885,0,0
0:1:36.564,154.073,19.6156,0,0.000885,0,0
0:1:36.768,154.193,19.6294,0,0.000885,0,0
0:1:36.969,154.896,19.719,0,0.000885,0,0
0:1:37.171,155.247,19.7673,0,0.000885,0,0
0:1:37.373,155.835,19.8431,0,0.000885,0,0
0:1:37.575,155.657,19.8224,0,0.000885,0,0
0:1:37.775,156.364,19.9121,0,0.000885,0,0
0:1:37.970,156.657,19.9465,0,0.000885,0,0
0:1:38.173,157.24,20.0224,0,0.000885,0,0
0:1:38.370,157.476,20.05,0,0.000885,0,0
0:1:38.568,157.476,20.05,0,0.000885,0,0
0:1:38.770,158.592,20.1947,0,0.000885,0,0
0:1:38.966,159.002,20.243,0,0.000885,0,0
0:1:39.168,159.18,20.2637,0,0.000885,0,0
0:1:39.367,159.237,20.2775,0,0.000885,0,0
0:1:39.563,160.114,20.3878,0,0.000885,0,0
0:1:39.766,160.234,20.4016,0,0.000885,0,0
0:1:39.963,160.821,20.4774,0,0.000885,0,0
0:1:40.162,160.821,20.4774,0,0.000885,0,0
0:1:40.362,162.227,20.6567,0,0.000885,0,0
0:1:40.557,162.053,20.636,0,0.000885,0,0
0:1:40.759,161.991,20.6222,0,0.000885,0,0
0:1:40.955,162.756,20.7256,0,0.000885,0,0
0:1:41.156,163.165,20.7739,0,0.000885,0,0
0:1:41.358,163.401,20.8015,0,0.000885,0,0
0:1:41.562,164.455,20.9394,0,0.000885,0,0
0:1:41.766,164.864,20.9945,0,0.000885,0,0
0:1:41.968,164.513,20.9463,0,0.000885,0,0
0:1:42.170,165.278,21.0428,0,0.000885,0,0
0:1:42.370,165.63,21.0911,0,0.000885,0,0
0:1:42.572,165.278,21.0428,0,0.000885,0,0
0:1:42.774,166.275,21.1738,0,0.000885,0,0
0:1:42.973,166.626,21.2152,0,0.000885,0,0
0:1:43.169,166.448,21.1945,0,0.000885,0,0
0:1:43.370,167.271,21.2979,0,0.000885,0,0
0:1:43.568,167.271,21.2979,0,0.000885,0,0
0:1:43.768,167.68,21.3531,0,0.000885,0,0
0:1:43.967,168.094,21.4013,0,0.000885,0,0
0:1:44.164,168.797,21.491,0,0.000885,0,0
0:1:44.367,169.09,21.5323,0,0.000885,0,0
0:1:44.566,169.971,21.6426,0,0.000885,0,0
0:1:44.763,169.971,21.6426,0,0.000885,0,0
0:1:44.964,170.91,21.7599,0,0.000885,0,0
0:1:45.159,171.025,21.7736,0,0.000885,0,0
0:1:45.361,171.377,21.8219,0,0.000885,0,0
0:1:45.560,171.786,21.8702,0,0.000885,0,0
0:1:45.757,172.079,21.9115,0,0.000885,0,0
0:1:45.959,172.782,22.0012,0,0.000885,0,0
0:1:46.162,173.312,22.0701,0,0.000885,0,0
0:1:46.366,173.369,22.077,0,0.000885,0,0
0:1:46.568,173.49,22.0908,0,0.000885,0,0
0:1:46.770,174.135,22.1735,0,0.000885,0,0
0:1:46.972,174.78,22.2563,0,0.000885,0,0
0:1:47.173,175.131,22.2976,0,0.000885,0,0
0:1:47.374,175.131,22.2976,0,0.000885,0,0
0:1:47.575,176.012,22.408,0,0.000885,0,0
0:1:47.770,176.363,22.4562,0,0.000885,0,0
0:1:47.973,176.479,22.47,0,0.000885,0,0
0:1:48.169,176.888,22.5252,0,0.000885,0,0
0:1:48.369,177.533,22.6079,0,0.000885,0,0
0:1:48.571,177.653,22.6217,0,0.000885,0,0
0:1:48.766,177.711,22.6286,0,0.000885,0,0
0:1:48.968,178.004,22.6631,0,0.000885,0,0
0:1:49.167,178.592,22.7389,0,0.000885,0,0
0:1:49.362,178.943,22.7803,0,0.000885,0,0
0:1:49.565,179.939,22.9113,0,0.000885,0,0
0:1:49.761,179.646,22.8699,0,0.000885,0,0
0:1:49.962,180.055,22.9251,0,0.000885,0,0
0:1:50.161,180.994,23.0423,0,0.000885,0,0
0:1:50.358,181.35,23.0905,0,0.000885,0,0
0:1:50.561,181.465,23.1043,0,0.000885,0,0
0:1:50.758,181.874,23.1595,0,0.000885,0,0
0:1:50.959,182.11,23.1871,0,0.000885,0,0
0:1:51.161,182.64,23.256,0,0.000885,0,0
0:1:51.365,183.342,23.3456,0,0.000885,0,0
0:1:51.568,183.752,23.3939,0,0.000885,0,0
0:1:51.771,183.987,23.4284,0,0.000885,0,0
0:1:51.973,184.223,23.456,0,0.000885,0,0
0:1:52.174,184.103,23.4422,0,0.000885,0,0
0:1:52.375,184.984,23.5525,0,0.000885,0,0
0:1:52.576,185.744,23.649,0,0.000885,0,0
0:1:52.775,185.807,23.6559,0,0.000885,0,0
0:1:52.975,186.332,23.7249,0,0.000885,0,0
0:1:53.177,186.452,23.7386,0,0.000885,0,0
0:1:53.371,187.212,23.8352,0,0.000885,0,0
0:1:53.573,187.27,23.8421,0,0.000885,0,0
0:1:53.771,187.506,23.8765,0,0.000885,0,0
0:1:53.969,187.799,23.911,0,0.000885,0,0
0:1:54.171,188.502,24.0007,0,0.000885,0,0
0:1:54.368,188.854,24.0489,0,0.000885,0,0
0:1:54.568,188.912,24.0558,0,0.000885,0,0
0:1:54.767,189.441,24.1179,0,0.000885,0,0
0:1:54.965,190.264,24.2282,0,0.000885,0,0
0:1:55.168,190.495,24.2558,0,0.000885,0,0
0:1:55.363,190.731,24.2833,0,0.000885,0,0
0:1:55.562,190.909,24.304,0,0.000885,0,0
0:1:55.764,191.669,24.4074,0,0.000885,0,0
0:1:55.959,192.079,24.4557,0,0.000885,0,0
0:1:56.161,192.372,24.4971,0,0.000885,0,0
0:1:56.362,193.08,24.5867,0,0.000885,0,0
0:1:56.564,193.431,24.6281,0,0.000885,0,0
0:1:56.767,193.724,24.6625,0,0.000885,0,0
0:1:56.967,193.898,24.6901,0,0.000885,0,0
0:1:57.168,194.601,24.7798,0,0.000885,0,0
0:1:57.367,194.837,24.8073,0,0.000885,0,0
0:1:57.568,195.188,24.8556,0,0.000885,0,0
0:1:57.769,195.717,24.9177,0,0.000885,0,0
0:1:57.964,196.362,25.0004,0,0.000885,0,0
0:1:58.162,196.536,25.0211,0,0.000885,0,0
0:1:58.363,197.007,25.0831,0,0.000885,0,0
0:1:58.555,196.829,25.0624,0,0.000885,0,0
0:1:58.756,197.181,25.1038,0,0.000885,0,0
0:1:58.951,197.181,25.1038,0,0.000885,0,0
0:1:59.148,198.182,25.2348,0,0.000885,0,0
0:1:59.348,198.239,25.2417,0,0.000885,0,0
0:1:59.544,198.827,25.3175,0,0.000885,0,0
0:1:59.743,199.12,25.352,0,0.000885,0,0
0:1:59.941,199.529,25.4072,0,0.000885,0,0
0:2:0.136,200.468,25.5244,0,0.000885,0,0
0:2:0.336,200.526,25.5313,0,0.000885,0,0
0:2:0.531,200.877,25.5795,0,0.000885,0,0
0:2:0.729,201.113,25.6071,0,0.000885,0,0
0:2:0.929,201.874,25.7037,0,0.000885,0,0
0:2:1.131,202.167,25.7381,0,0.000885,0,0
0:2:1.335,203.048,25.8553,0,0.000885,0,0
0:2:1.534,202.87,25.8278,0,0.000885,0,0
0:2:1.735,203.693,25.9381,0,0.000885,0,0
0:2:1.934,203.751,25.945,0,0.000885,0,0
0:2:2.133,204.222,26.0001,0,0.000885,0,0
0:2:2.333,204.809,26.076,0,0.000885,0,0
0:2:2.531,205.57,26.1725,0,0.000885,0,0
0:2:2.736,205.512,26.1656,0,0.000885,0,0
0:2:2.937,205.979,26.2277,0,0.000885,0,0
0:2:3.130,206.215,26.2552,0,0.000885,0,0
0:2:3.329,206.744,26.3242,0,0.000885,0,0
0:2:3.528,206.744,26.3242,0,0.000885,0,0
0:2:3.722,206.918,26.3449,0,0.000885,0,0
0:2:3.923,207.389,26.4069,0,0.000885,0,0
0:2:4.128,207.683,26.4414,0,0.000885,0,0
0:2:4.324,208.386,26.531,0,0.000885,0,0
0:2:4.525,208.737,26.5793,0,0.000885,0,0
0:2:4.728,209.267,26.6413,0,0.000885,0,0
0:2:4.929,209.618,26.6896,0,0.000885,0,0
0:2:5.126,210.143,26.7586,0,0.000885,0,0
0:2:5.322,210.379,26.7861,0,0.000885,0,0
0:2:5.522,210.557,26.8068,0,0.000885,0,0
0:2:5.717,211.024,26.8689,0,0.000885,0,0
0:2:5.917,211.847,26.9723,0,0.000885,0,0
0:2:6.117,211.789,26.9654,0,0.000885,0,0
0:2:6.321,212.314,27.0343,0,0.000885,0,0
0:2:6.522,212.549,27.0619,0,0.000885,0,0
0:2:6.723,212.901,27.1102,0,0.000885,0,0
0:2:6.923,213.079,27.1309,0,0.000885,0,0
0:2:7.123,213.666,27.2067,0,0.000885,0,0
0:2:7.322,213.372,27.1653,0,0.000885,0,0
0:2:7.522,213.955,27.2412,0,0.000885,0,0
0:2:7.726,214.836,27.3515,0,0.000885,0,0
0:2:7.925,214.836,27.3515,0,0.000885,0,0
0:2:8.125,215.249,27.4067,0,0.000885,0,0
0:2:8.327,215.481,27.4342,0,0.000885,0,0
0:2:8.529,216.126,27.517,0,0.000885,0,0
0:2:8.725,216.304,27.5377,0,0.000885,0,0
0:2:8.922,216.655,27.5859,0,0.000885,0,0
0:2:9.122,216.833,27.6066,0,0.000885,0,0
0:2:9.316,217.829,27.7376,0,0.000885,0,0
0:2:9.515,218.123,27.7721,0,0.000885,0,0
0:2:9.712,218.768,27.8548,0,0.000885,0,0
0:2:9.917,218.354,27.7997,0,0.000885,0,0
0:2:10.118,218.999,27.8824,0,0.000885,0,0
0:2:10.322,219.293,27.9238,0,0.000885,0,0
0:2:10.521,219.764,27.9789,0,0.000885,0,0
0:2:10.718,220.231,28.041,0,0.000885,0,0
0:2:10.915,221.112,28.1513,0,0.000885,0,0
0:2:11.115,221.29,28.172,0,0.000885,0,0
0:2:11.315,222.166,28.2892,0,0.000885,0,0
0:2:11.518,221.873,28.2478,0,0.000885,0,0
0:2:11.719,222.696,28.3512,0,0.000885,0,0
0:2:11.920,222.989,28.3926,0,0.000885,0,0
0:2:12.120,223.283,28.4271,0,0.000885,0,0
0:2:12.319,223.519,28.4616,0,0.000885,0,0
0:2:12.519,223.456,28.4547,0,0.000885,0,0
0:2:12.719,224.044,28.5236,0,0.000885,0,0
0:2:12.922,224.689,28.6063,0,0.000885,0,0
0:2:13.122,224.279,28.5581,0,0.000885,0,0
0:2:13.319,224.982,28.6477,0,0.000885,0,0
0:2:13.517,225.396,28.696,0,0.000885,0,0
0:2:13.717,225.334,28.6891,0,0.000885,0,0
0:2:13.929,225.396,28.696,0,0.000885,0,0
0:2:14.129,225.747,28.7442,0,0.000885,0,0
0:2:14.327,226.392,28.827,0,0.000885,0,0
0:2:14.531,227.037,28.9097,0,0.000885,0,0
0:2:14.732,227.153,28.9235,0,0.000885,0,0
0:2:14.938,226.917,28.889,0,0.000885,0,0
0:2:15.137,228.149,29.0476,0,0.000885,0,0
0:2:15.336,227.856,29.0131,0,0.000885,0,0
0:2:15.529,228.385,29.0821,0,0.000885,0,0
0:2:15.729,227.976,29.0269,0,0.000885,0,0
0:2:15.935,228.443,29.089,0,0.000885,0,0
0:2:16.132,228.501,29.0959,0,0.000885,0,0
0:2:16.332,228.852,29.1372,0,0.000885,0,0
0:2:16.538,228.914,29.1441,0,0.000885,0,0
0:2:16.737,228.736,29.1235,0,0.000885,0,0
0:2:16.937,228.972,29.151,0,0.000885,0,0
0:2:17.139,229.324,29.1993,0,0.000885,0,0
0:2:17.338,229.381,29.2062,0,0.000885,0,0
0:2:17.538,229.853,29.2682,0,0.000885,0,0
0:2:17.740,230.147,29.3027,0,0.000885,0,0
0:2:17.944,230.849,29.3924,0,0.000885,0,0
0:2:18.143,231.259,29.4475,0,0.000885,0,0
0:2:18.342,231.437,29.4682,0,0.000885,0,0
0:2:18.537,232.082,29.5509,0,0.000885,0,0
0:2:18.738,232.375,29.5854,0,0.000885,0,0
0:2:18.933,233.194,29.6888,0,0.000885,0,0
0:2:19.129,233.314,29.7095,0,0.000885,0,0
0:2:19.329,233.723,29.7578,0,0.000885,0,0
0:2:19.532,234.484,29.8543,0,0.000885,0,0
0:2:19.735,234.955,29.9164,0,0.000885,0,0
0:2:19.930,234.955,29.9164,0,0.000885,0,0
0:2:20.127,235.894,30.0336,0,0.000885,0,0
0:2:20.327,236.187,30.0749,0,0.000885,0,0
0:2:20.524,236.77,30.1439,0,0.000885,0,0
0:2:20.722,236.539,30.1163,0,0.000885,0,0
0:2:20.920,236.481,30.1094,0,0.000885,0,0
0:2:21.113,236.009,30.0474,0,0.000885,0,0
0:2:21.314,236.067,30.0542,0,0.000885,0,0
0:2:21.511,236.009,30.0474,0,0.000885,0,0
0:2:21.714,235.894,30.0336,0,0.000885,0,0
0:2:21.916,235.186,29.9439,0,0.000885,0,0
0:2:22.116,234.074,29.806,0,0.000885,0,0
0:2:22.315,233.603,29.744,0,0.000885,0,0
0:2:22.516,233.371,29.7164,0,0.000885,0,0
0:2:22.715,232.313,29.5785,0,0.000885,0,0
0:2:22.916,231.846,29.5165,0,0.000885,0,0
0:2:23.129,231.085,29.4199,0,0.000885,0,0
0:2:23.329,230.792,29.3855,0,0.000885,0,0
0:2:23.536,229.502,29.22,0,0.000885,0,0
0:2:23.731,228.852,29.1372,0,0.000885,0,0
0:2:23.931,227.153,28.9235,0,0.000885,0,0
0:2:24.136,226.214,28.7994,0,0.000885,0,0
0:2:24.332,224.337,28.565,0,0.000885,0,0
0:2:24.530,222.989,28.3926,0,0.000885,0,0
0:2:24.736,219.88,27.9927,0,0.000885,0,0
0:2:24.937,217.651,27.71,0,0.000885,0,0
0:2:25.130,213.897,27.2343,0,0.000885,0,0
0:2:25.327,211.904,26.9792,0,0.000885,0,0
0:2:25.527,207.389,26.4069,0,0.000885,0,0
0:2:25.722,205.099,26.1173,0,0.000885,0,0
0:2:25.921,202.99,25.8484,0,0.000885,0,0
0:2:26.121,199.12,25.352,0,0.000885,0,0
0:2:26.323,197.007,25.0831,0,0.000885,0,0
0:2:26.523,193.017,24.5729,0,0.000885,0,0
0:2:26.724,191.376,24.3661,0,0.000885,0,0
0:2:26.925,187.154,23.8283,0,0.000885,0,0
0:2:27.126,185.162,23.5732,0,0.000885,0,0
0:2:27.327,180.527,22.9871,0,0.000885,0,0
0:2:27.529,177.889,22.6493,0,0.000885,0,0
0:2:27.746,171.786,21.8702,0,0.000885,0,0
0:2:27.947,168.325,21.4289,0,0.000885,0,0