File: DataFile2021-06-30_063644.csv
Test ID:,Date Tested:,Time:,Test Type:,Diameter Avg. (mm):,Cyl. Corr. Factor:,Height (mm):,Age (days):,Weight (kN):,Break Type:,Ramp Rate (MPa/s):,Load at Break (kN):,Stress at Break (MPa):
12,6/30/2021,06:36,Cylinder,100,1,200,0,3.6,4,0.24,470.32,59.88
Sample Time,Load (kN),Stress (MPa),Long. Strain,Trans. Strain,Chan1 Deflection (mm),Chan2 Deflection (mm)
0:0:18.538,6.86361,0.875634,0,0.000885,0,0
0:0:18.835,13.785,1.75816,0,0.000885,0,0
0:0:19.134,15.075,1.91674,0,0.000885,0,0
0:0:19.439,14.43,1.83401,0,0.000885,0,0
0:0:19.740,13.5493,1.72369,0,0.000885,0,0
0:0:20.037,13.5493,1.72369,0,0.000885,0,0
0:0:20.333,13.4915,1.71679,0,0.000885,0,0
0:0:20.632,13.0778,1.66853,0,0.000885,0,0
0:0:20.937,13.1979,1.68232,0,0.000885,0,0
0:0:21.236,13.0778,1.66853,0,0.000885,0,0
0:0:21.528,13.1356,1.67543,0,0.000885,0,0
0:0:21.828,12.8465,1.63406,0,0.000885,0,0
0:0:22.127,13.3135,1.69611,0,0.000885,0,0
0:0:22.432,12.9621,1.64785,0,0.000885,0,0
0:0:22.732,13.1979,1.68232,0,0.000885,0,0
0:0:23.036,13.6071,1.73058,0,0.000885,0,0
0:0:23.336,14.43,1.83401,0,0.000885,0,0
0:0:23.633,13.785,1.75816,0,0.000885,0,0
0:0:23.935,14.6035,1.86158,0,0.000885,0,0
0:0:24.238,14.7192,1.87537,0,0.000885,0,0
0:0:24.542,15.8935,2.02706,0,0.000885,0,0
0:0:24.845,16.8321,2.14427,0,0.000885,0,0
0:0:25.147,17.8863,2.27527,0,0.000885,0,0
0:0:25.447,18.767,2.39248,0,0.000885,0,0
0:0:25.749,19.6478,2.5028,0,0.000885,0,0
0:0:26.044,20.3506,2.59243,0,0.000885,0,0
0:0:26.345,21.4093,2.72343,0,0.000885,0,0
0:0:26.642,21.992,2.79927,0,0.000885,0,0
0:0:26.940,22.5213,2.86822,0,0.000885,0,0
0:0:27.241,22.7571,2.8958,0,0.000885,0,0
0:0:27.535,22.9929,2.93027,0,0.000885,0,0
0:0:27.836,23.8113,3.03369,0,0.000885,0,0
0:0:28.134,23.9314,3.04748,0,0.000885,0,0
0:0:28.433,24.5141,3.12333,0,0.000885,0,0
0:0:28.729,25.515,3.24743,0,0.000885,0,0
0:0:29.035,25.8041,3.2888,0,0.000885,0,0
0:0:29.340,26.2756,3.34396,0,0.000885,0,0
0:0:29.642,27.272,3.47496,0,0.000885,0,0
0:0:29.944,27.5078,3.50254,0,0.000885,0,0
0:0:30.248,28.4464,3.61975,0,0.000885,0,0
0:0:30.545,29.0914,3.70248,0,0.000885,0,0
0:0:30.847,29.4428,3.75075,0,0.000885,0,0
0:0:31.143,29.5584,3.76454,0,0.000885,0,0
0:0:31.443,30.4392,3.87485,0,0.000885,0,0
0:0:31.741,31.1998,3.97138,0,0.000885,0,0
0:0:32.039,31.3199,3.98517,0,0.000885,0,0
0:0:32.340,32.1384,4.09549,0,0.000885,0,0
0:0:32.635,32.9035,4.19201,0,0.000885,0,0
0:0:32.935,33.7842,4.30233,0,0.000885,0,0
0:0:33.233,34.6027,4.40575,0,0.000885,0,0
0:0:33.529,35.0164,4.46091,0,0.000885,0,0
0:0:33.829,35.7192,4.55054,0,0.000885,0,0
0:0:34.136,35.9505,4.57812,0,0.000885,0,0
0:0:34.439,36.8313,4.68843,0,0.000885,0,0
0:0:34.742,37.0092,4.70912,0,0.000885,0,0
0:0:35.045,37.4184,4.76428,0,0.000885,0,0
0:0:35.347,38.2992,4.87459,0,0.000885,0,0
0:0:35.645,38.9442,4.95733,0,0.000885,0,0
0:0:35.945,39.0598,4.97112,0,0.000885,0,0
0:0:36.242,40.1185,5.10902,0,0.000885,0,0
0:0:36.541,40.292,5.1297,0,0.000885,0,0
0:0:36.840,41.2884,5.25381,0,0.000885,0,0
0:0:37.135,41.8177,5.32275,0,0.000885,0,0
0:0:37.437,42.4627,5.40549,0,0.000885,0,0
0:0:37.742,43.2856,5.50891,0,0.000885,0,0
0:0:38.042,43.1655,5.49512,0,0.000885,0,0
0:0:38.340,43.6949,5.56407,0,0.000885,0,0
0:0:38.638,44.9849,5.72954,0,0.000885,0,0
0:0:38.939,45.7455,5.82607,0,0.000885,0,0
0:0:39.243,46.0391,5.86054,0,0.000885,0,0
0:0:39.547,46.7464,5.95018,0,0.000885,0,0
0:0:39.848,47.2134,6.01223,0,0.000885,0,0
0:0:40.150,47.507,6.0467,0,0.000885,0,0
0:0:40.452,48.0942,6.12254,0,0.000885,0,0
0:0:40.749,48.6813,6.19839,0,0.000885,0,0
0:0:41.051,49.0906,6.25354,0,0.000885,0,0
0:0:41.346,49.6777,6.32249,0,0.000885,0,0
0:0:41.646,50.732,6.46039,0,0.000885,0,0
0:0:41.946,51.2613,6.52934,0,0.000885,0,0
0:0:42.242,52.3155,6.66034,0,0.000885,0,0
0:0:42.543,52.6091,6.7017,0,0.000885,0,0
0:0:42.839,53.1385,6.76376,0,0.000885,0,0
0:0:43.140,53.2541,6.77755,0,0.000885,0,0
0:0:43.437,53.8413,6.85339,0,0.000885,0,0
0:0:43.735,54.1927,6.90165,0,0.000885,0,0
0:0:44.036,55.4827,7.06713,0,0.000885,0,0
0:0:44.340,55.8919,7.11539,0,0.000885,0,0
0:0:44.646,56.7727,7.22571,0,0.000885,0,0
0:0:44.947,57.302,7.29465,0,0.000885,0,0
0:0:45.250,57.8892,7.3705,0,0.000885,0,0
0:0:45.552,58.1205,7.39807,0,0.000885,0,0
0:0:45.848,58.9434,7.50839,0,0.000885,0,0
0:0:46.148,59.8241,7.61871,0,0.000885,0,0
0:0:46.444,59.9976,7.63939,0,0.000885,0,0
0:0:46.745,60.7627,7.73592,0,0.000885,0,0
0:0:47.043,61.2298,7.79797,0,0.000885,0,0
0:0:47.342,61.937,7.8876,0,0.000885,0,0
0:0:47.643,62.3463,7.93587,0,0.000885,0,0
0:0:47.938,63.0491,8.0255,0,0.000885,0,0
0:0:48.241,63.6363,8.10134,0,0.000885,0,0
0:0:48.535,63.9877,8.1496,0,0.000885,0,0
0:0:48.839,64.8684,8.25992,0,0.000885,0,0
0:0:49.142,65.1042,8.2875,0,0.000885,0,0
0:0:49.446,66.0383,8.4116,0,0.000885,0,0
0:0:49.749,66.3319,8.44608,0,0.000885,0,0
0:0:50.051,66.7456,8.50124,0,0.000885,0,0
0:0:50.353,67.5062,8.59776,0,0.000885,0,0
0:0:50.651,68.209,8.68739,0,0.000885,0,0
0:0:50.949,69.499,8.84597,0,0.000885,0,0
0:0:51.248,69.7926,8.88734,0,0.000885,0,0
0:0:51.542,69.8549,8.89424,0,0.000885,0,0
0:0:51.844,70.7312,9.00455,0,0.000885,0,0
0:0:52.138,71.1449,9.05971,0,0.000885,0,0
0:0:52.441,71.6119,9.11487,0,0.000885,0,0
0:0:52.738,72.0834,9.17692,0,0.000885,0,0
0:0:53.031,72.9019,9.28034,0,0.000885,0,0
0:0:53.336,73.4312,9.34929,0,0.000885,0,0
0:0:53.628,73.8983,9.41134,0,0.000885,0,0
0:0:53.932,75.0726,9.55613,0,0.000885,0,0
0:0:54.239,75.424,9.6044,0,0.000885,0,0
0:0:54.544,76.1891,9.70092,0,0.000885,0,0
0:0:54.845,76.6562,9.76298,0,0.000885,0,0
0:0:55.149,77.3012,9.84571,0,0.000885,0,0
0:0:55.450,78.2398,9.96292,0,0.000885,0,0
0:0:55.745,78.4755,9.9905,0,0.000885,0,0
0:0:56.044,78.4177,9.98361,0,0.000885,0,0
0:0:56.341,78.7691,10.0319,0,0.000885,0,0
0:0:56.640,79.7077,10.1491,0,0.000885,0,0
0:0:56.941,80.6463,10.2663,0,0.000885,0,0
0:0:57.232,81.7583,10.4111,0,0.000885,0,0
0:0:57.532,82.2298,10.4662,0,0.000885,0,0
0:0:57.841,82.6391,10.5214,0,0.000885,0,0
0:0:58.141,83.1061,10.5835,0,0.000885,0,0
0:0:58.439,83.7511,10.6662,0,0.000885,0,0
0:0:58.737,84.107,10.7076,0,0.000885,0,0
0:0:59.038,84.3961,10.7489,0,0.000885,0,0
0:0:59.342,84.9833,10.8179,0,0.000885,0,0
0:0:59.646,86.2733,10.9833,0,0.000885,0,0
0:0:59.947,86.6247,11.0316,0,0.000885,0,0
0:1:0.249,87.5054,11.1419,0,0.000885,0,0
0:1:0.552,87.9769,11.204,0,0.000885,0,0
0:1:0.846,88.3862,11.2522,0,0.000885,0,0
0:1:1.148,89.089,11.3419,0,0.000885,0,0
0:1:1.443,89.8541,11.4384,0,0.000885,0,0
0:1:1.742,90.4412,11.5142,0,0.000885,0,0
0:1:2.042,90.3211,11.5005,0,0.000885,0,0
0:1:2.339,91.2597,11.6177,0,0.000885,0,0
0:1:2.639,91.8469,11.6935,0,0.000885,0,0
0:1:2.936,92.2561,11.7487,0,0.000885,0,0
0:1:3.233,92.7276,11.8038,0,0.000885,0,0
0:1:3.530,93.8975,11.9555,0,0.000885,0,0
0:1:3.839,94.1911,11.99,0,0.000885,0,0
0:1:4.141,94.7783,12.0658,0,0.000885,0,0
0:1:4.444,95.2498,12.1279,0,0.000885,0,0
0:1:4.749,96.0104,12.2244,0,0.000885,0,0
0:1:5.051,96.6554,12.3071,0,0.000885,0,0
0:1:5.354,97.1269,12.3692,0,0.000885,0,0
0:1:5.656,97.9454,12.4726,0,0.000885,0,0
0:1:5.952,98.2968,12.514,0,0.000885,0,0
0:1:6.254,98.7683,12.576,0,0.000885,0,0
0:1:6.551,99.4711,12.6657,0,0.000885,0,0
0:1:6.849,99.5868,12.6795,0,0.000885,0,0
0:1:7.146,100.997,12.8587,0,0.000885,0,0
0:1:7.444,101.464,12.9208,0,0.000885,0,0
0:1:7.747,102.171,13.0104,0,0.000885,0,0
0:1:8.041,102.46,13.0449,0,0.000885,0,0
0:1:8.342,102.696,13.0725,0,0.000885,0,0
0:1:8.639,103.168,13.1345,0,0.000885,0,0
0:1:8.943,104.337,13.2862,0,0.000885,0,0
0:1:9.249,104.982,13.3689,0,0.000885,0,0
0:1:9.552,105.69,13.4586,0,0.000885,0,0
0:1:9.853,105.863,13.4793,0,0.000885,0,0
0:1:10.156,106.86,13.6034,0,0.000885,0,0
0:1:10.456,107.625,13.6999,0,0.000885,0,0
0:1:10.755,107.918,13.7413,0,0.000885,0,0
0:1:11.051,108.621,13.8309,0,0.000885,0,0
0:1:11.352,108.443,13.8102,0,0.000885,0,0
0:1:11.649,109.56,13.9481,0,0.000885,0,0
0:1:11.949,109.911,13.9964,0,0.000885,0,0
0:1:12.246,110.792,14.1067,0,0.000885,0,0
0:1:12.544,110.908,14.1205,0,0.000885,0,0
0:1:12.845,111.788,14.2308,0,0.000885,0,0
0:1:13.140,112.669,14.348,0,0.000885,0,0
0:1:13.443,113.256,14.4169,0,0.000885,0,0
0:1:13.739,113.781,14.4859,0,0.000885,0,0
0:1:14.043,114.132,14.5341,0,0.000885,0,0
0:1:14.346,115.191,14.6651,0,0.000885,0,0
0:1:14.651,115.716,14.7341,0,0.000885,0,0
0:1:14.952,116.539,14.8375,0,0.000885,0,0
0:1:15.256,117.006,14.8996,0,0.000885,0,0
0:1:15.555,116.948,14.8927,0,0.000885,0,0
0:1:15.853,117.713,14.9892,0,0.000885,0,0
0:1:16.151,118.007,15.0237,0,0.000885,0,0
0:1:16.451,118.883,15.134,0,0.000885,0,0
0:1:16.745,119.648,15.2305,0,0.000885,0,0
0:1:17.048,120.115,15.2926,0,0.000885,0,0
0:1:17.344,120.587,15.3546,0,0.000885,0,0
0:1:17.644,121.174,15.4305,0,0.000885,0,0
0:1:17.941,121.405,15.458,0,0.000885,0,0
0:1:18.239,121.699,15.4925,0,0.000885,0,0
0:1:18.538,123.34,15.7063,0,0.000885,0,0
0:1:18.832,124.048,15.7959,0,0.000885,0,0
0:1:19.133,124.693,15.8786,0,0.000885,0,0
0:1:19.440,125.275,15.9476,0,0.000885,0,0
0:1:19.743,125.102,15.9269,0,0.000885,0,0
0:1:20.046,125.102,15.9269,0,0.000885,0,0
0:1:20.348,126.801,16.1475,0,0.000885,0,0
0:1:20.651,127.152,16.1889,0,0.000885,0,0
0:1:20.946,127.74,16.2647,0,0.000885,0,0
0:1:21.249,128.972,16.4233,0,0.000885,0,0
0:1:21.545,129.03,16.4302,0,0.000885,0,0
0:1:21.842,129.207,16.4509,0,0.000885,0,0
0:1:22.143,129.737,16.5198,0,0.000885,0,0
0:1:22.439,130.675,16.637,0,0.000885,0,0
0:1:22.741,131.32,16.7198,0,0.000885,0,0
0:1:23.046,132.081,16.8163,0,0.000885,0,0
0:1:23.346,132.432,16.8646,0,0.000885,0,0
0:1:23.645,132.962,16.9266,0,0.000885,0,0
0:1:23.949,133.958,17.0576,0,0.000885,0,0
0:1:24.254,134.367,17.1059,0,0.000885,0,0
0:1:24.556,134.719,17.1542,0,0.000885,0,0
0:1:24.858,135.248,17.2231,0,0.000885,0,0
0:1:25.160,136.245,17.3472,0,0.000885,0,0
0:1:25.458,136.716,17.4093,0,0.000885,0,0
0:1:25.759,137.477,17.5058,0,0.000885,0,0
0:1:26.053,137.712,17.5334,0,0.000885,0,0
0:1:26.354,138.122,17.5885,0,0.000885,0,0
0:1:26.653,138.825,17.6782,0,0.000885,0,0
0:1:26.951,139.999,17.8229,0,0.000885,0,0
0:1:27.251,140.235,17.8574,0,0.000885,0,0
0:1:27.546,140.822,17.9264,0,0.000885,0,0
0:1:27.848,141.289,17.9884,0,0.000885,0,0
0:1:28.143,142.343,18.1263,0,0.000885,0,0
0:1:28.443,142.695,18.1677,0,0.000885,0,0
0:1:28.743,142.93,18.1953,0,0.000885,0,0
0:1:29.046,143.927,18.3263,0,0.000885,0,0
0:1:29.350,143.869,18.3194,0,0.000885,0,0
0:1:29.654,144.807,18.4366,0,0.000885,0,0
0:1:29.956,145.279,18.4986,0,0.000885,0,0
0:1:30.259,145.982,18.5883,0,0.000885,0,0
0:1:30.556,146.449,18.6434,0,0.000885,0,0
0:1:30.856,147.801,18.8158,0,0.000885,0,0
0:1:31.153,148.152,18.8641,0,0.000885,0,0
0:1:31.454,148.504,18.9054,0,0.000885,0,0
0:1:31.749,149.029,18.9744,0,0.000885,0,0
0:1:32.050,149.736,19.064,0,0.000885,0,0
0:1:32.348,149.91,19.0847,0,0.000885,0,0
0:1:32.644,150.261,19.133,0,0.000885,0,0
0:1:32.945,151.084,19.2364,0,0.000885,0,0
0:1:33.241,151.965,19.3467,0,0.000885,0,0
0:1:33.542,152.552,19.4225,0,0.000885,0,0
0:1:33.847,152.845,19.4639,0,0.000885,0,0
0:1:34.150,153.779,19.5811,0,0.000885,0,0
0:1:34.453,154.718,19.6983,0,0.000885,0,0
0:1:34.757,155.012,19.7397,0,0.000885,0,0
0:1:35.061,155.892,19.85,0,0.000885,0,0
0:1:35.365,156.364,19.9121,0,0.000885,0,0
0:1:35.664,156.595,19.9396,0,0.000885,0,0
0:1:35.963,157.182,20.0155,0,0.000885,0,0
0:1:36.261,158.063,20.1258,0,0.000885,0,0
0:1:36.563,158.65,20.2016,0,0.000885,0,0
0:1:36.857,159.117,20.2568,0,0.000885,0,0
0:1:37.160,159.705,20.3326,0,0.000885,0,0
0:1:37.456,159.825,20.3464,0,0.000885,0,0
0:1:37.754,160.643,20.4567,0,0.000885,0,0
0:1:38.053,161.288,20.5326,0,0.000885,0,0
0:1:38.350,161.639,20.5809,0,0.000885,0,0
0:1:38.653,162.52,20.6912,0,0.000885,0,0
0:1:38.949,163.165,20.7739,0,0.000885,0,0
0:1:39.251,164.104,20.8911,0,0.000885,0,0
0:1:39.556,164.633,20.9601,0,0.000885,0,0
0:1:39.859,165.042,21.0152,0,0.000885,0,0
0:1:40.161,165.22,21.0359,0,0.000885,0,0
0:1:40.463,166.804,21.2359,0,0.000885,0,0
0:1:40.764,167.565,21.3324,0,0.000885,0,0
0:1:41.062,166.804,21.2359,0,0.000885,0,0
0:1:41.359,167.622,21.3393,0,0.000885,0,0
0:1:41.661,168.152,21.4082,0,0.000885,0,0
0:1:41.956,168.681,21.4772,0,0.000885,0,0
0:1:42.258,169.793,21.622,0,0.000885,0,0
0:1:42.555,170.789,21.7461,0,0.000885,0,0
0:1:42.854,170.674,21.7323,0,0.000885,0,0
0:1:43.151,170.967,21.7667,0,0.000885,0,0
0:1:43.450,172.079,21.9115,0,0.000885,0,0
0:1:43.750,172.079,21.9115,0,0.000885,0,0
0:1:44.055,172.902,22.015,0,0.000885,0,0
0:1:44.359,173.605,22.1046,0,0.000885,0,0
0:1:44.662,174.486,22.2149,0,0.000885,0,0
0:1:44.964,174.659,22.2356,0,0.000885,0,0
0:1:45.266,175.304,22.3183,0,0.000885,0,0
0:1:45.563,175.834,22.3873,0,0.000885,0,0
0:1:45.866,176.599,22.4838,0,0.000885,0,0
0:1:46.162,177.244,22.5665,0,0.000885,0,0
0:1:46.460,177.417,22.5872,0,0.000885,0,0
0:1:46.758,178.12,22.6769,0,0.000885,0,0
0:1:47.057,179.294,22.8285,0,0.000885,0,0
0:1:47.356,179.53,22.8561,0,0.000885,0,0
0:1:47.652,180.055,22.9251,0,0.000885,0,0
0:1:47.954,181.172,23.0699,0,0.000885,0,0
0:1:48.251,181.874,23.1595,0,0.000885,0,0
0:1:48.548,182.404,23.2215,0,0.000885,0,0
0:1:48.846,182.755,23.2698,0,0.000885,0,0
0:1:49.150,183.049,23.3043,0,0.000885,0,0
0:1:49.454,183.987,23.4284,0,0.000885,0,0
0:1:49.756,184.69,23.518,0,0.000885,0,0
0:1:50.058,184.806,23.5318,0,0.000885,0,0
0:1:50.361,185.162,23.5732,0,0.000885,0,0
0:1:50.657,185.864,23.6628,0,0.000885,0,0
0:1:50.960,186.389,23.7318,0,0.000885,0,0
0:1:51.256,186.683,23.7662,0,0.000885,0,0
0:1:51.554,187.857,23.9179,0,0.000885,0,0
0:1:51.853,188.387,23.9869,0,0.000885,0,0
0:1:52.149,188.974,24.0627,0,0.000885,0,0
0:1:52.452,189.325,24.1041,0,0.000885,0,0
0:1:52.746,190.322,24.2351,0,0.000885,0,0
0:1:53.047,191.202,24.3454,0,0.000885,0,0
0:1:53.345,192.141,24.4626,0,0.000885,0,0
0:1:53.642,192.257,24.4764,0,0.000885,0,0
0:1:53.938,193.017,24.5729,0,0.000885,0,0
0:1:54.243,193.369,24.6212,0,0.000885,0,0
0:1:54.546,193.724,24.6625,0,0.000885,0,0
0:1:54.844,194.076,24.7108,0,0.000885,0,0
0:1:55.145,194.663,24.7867,0,0.000885,0,0
0:1:55.446,195.597,24.9039,0,0.000885,0,0
0:1:55.738,196.656,25.0418,0,0.000885,0,0
0:1:56.037,196.304,24.9935,0,0.000885,0,0
0:1:56.343,197.123,25.0969,0,0.000885,0,0
0:1:56.650,197.537,25.1521,0,0.000885,0,0
0:1:56.947,197.888,25.1934,0,0.000885,0,0
0:1:57.238,198.827,25.3175,0,0.000885,0,0
0:1:57.539,199.414,25.3865,0,0.000885,0,0
0:1:57.831,200.117,25.4761,0,0.000885,0,0
0:1:58.130,200.762,25.5589,0,0.000885,0,0
0:1:58.434,201.055,25.6002,0,0.000885,0,0
0:1:58.729,202.345,25.7657,0,0.000885,0,0
0:1:59.028,202.99,25.8484,0,0.000885,0,0
0:1:59.329,202.754,25.814,0,0.000885,0,0
0:1:59.631,203.577,25.9174,0,0.000885,0,0
0:1:59.931,204.747,26.0691,0,0.000885,0,0
0:2:0.232,205.334,26.1449,0,0.000885,0,0
0:2:0.532,205.806,26.207,0,0.000885,0,0
0:2:0.826,206.273,26.2621,0,0.000885,0,0
0:2:1.124,206.509,26.2966,0,0.000885,0,0
0:2:1.429,207.269,26.3931,0,0.000885,0,0
0:2:1.734,208.034,26.4897,0,0.000885,0,0
0:2:2.033,208.15,26.5034,0,0.000885,0,0
0:2:2.334,208.559,26.5517,0,0.000885,0,0
0:2:2.634,210.205,26.7654,0,0.000885,0,0
0:2:2.936,209.849,26.7172,0,0.000885,0,0
0:2:3.232,210.557,26.8068,0,0.000885,0,0
0:2:3.529,211.259,26.8964,0,0.000885,0,0
0:2:3.834,211.847,26.9723,0,0.000885,0,0
0:2:4.134,212.198,27.0206,0,0.000885,0,0
0:2:4.436,212.727,27.0826,0,0.000885,0,0
0:2:4.739,213.31,27.1584,0,0.000885,0,0
0:2:5.038,213.897,27.2343,0,0.000885,0,0
0:2:5.337,214.894,27.3584,0,0.000885,0,0
0:2:5.639,215.307,27.4136,0,0.000885,0,0
0:2:5.934,215.952,27.4963,0,0.000885,0,0
0:2:6.232,216.771,27.5997,0,0.000885,0,0
0:2:6.528,217.767,27.7238,0,0.000885,0,0
0:2:6.833,218.003,27.7583,0,0.000885,0,0
0:2:7.134,218.59,27.8341,0,0.000885,0,0
0:2:7.435,218.884,27.8686,0,0.000885,0,0
0:2:7.733,219.351,27.9307,0,0.000885,0,0
0:2:8.029,220.289,28.0479,0,0.000885,0,0
0:2:8.334,220.761,28.1099,0,0.000885,0,0
0:2:8.632,221.815,28.2409,0,0.000885,0,0
0:2:8.926,221.873,28.2478,0,0.000885,0,0
0:2:9.226,222.344,28.3099,0,0.000885,0,0
0:2:9.531,223.812,28.496,0,0.000885,0,0
0:2:9.833,224.573,28.5926,0,0.000885,0,0
0:2:10.132,224.573,28.5926,0,0.000885,0,0
0:2:10.433,224.924,28.6408,0,0.000885,0,0
0:2:10.733,224.809,28.6201,0,0.000885,0,0
0:2:11.048,226.214,28.7994,0,0.000885,0,0
0:2:11.345,226.508,28.8408,0,0.000885,0,0
0:2:11.640,227.446,28.958,0,0.000885,0,0
0:2:11.943,227.918,29.02,0,0.000885,0,0
0:2:12.244,228.443,29.089,0,0.000885,0,0
0:2:12.535,229.266,29.1924,0,0.000885,0,0
0:2:12.833,229.675,29.2407,0,0.000885,0,0
0:2:13.128,229.969,29.282,0,0.000885,0,0
0:2:13.424,230.32,29.3234,0,0.000885,0,0
0:2:13.723,231.201,29.4406,0,0.000885,0,0
0:2:14.026,232.197,29.5647,0,0.000885,0,0
0:2:14.327,232.375,29.5854,0,0.000885,0,0
0:2:14.628,232.842,29.6475,0,0.000885,0,0
0:2:14.926,233.429,29.7233,0,0.000885,0,0
0:2:15.227,234.132,29.8129,0,0.000885,0,0
0:2:15.522,235.186,29.9439,0,0.000885,0,0
0:2:15.822,235.6,29.9991,0,0.000885,0,0
0:2:16.114,235.951,30.0405,0,0.000885,0,0
0:2:16.413,236.187,30.0749,0,0.000885,0,0
0:2:16.709,237.477,30.2335,0,0.000885,0,0
0:2:17.004,237.944,30.2956,0,0.000885,0,0
0:2:17.302,238.709,30.3921,0,0.000885,0,0
0:2:17.597,239.234,30.461,0,0.000885,0,0
0:2:17.897,239.821,30.5369,0,0.000885,0,0
0:2:18.189,240.524,30.6265,0,0.000885,0,0
0:2:18.487,240.818,30.661,0,0.000885,0,0
0:2:18.784,241.289,30.723,0,0.000885,0,0
0:2:19.085,242.17,30.8334,0,0.000885,0,0
0:2:19.386,242.637,30.8954,0,0.000885,0,0
0:2:19.686,243.282,30.9781,0,0.000885,0,0
0:2:19.985,243.634,31.0195,0,0.000885,0,0
0:2:20.283,244.043,31.0747,0,0.000885,0,0
0:2:20.580,244.279,31.1023,0,0.000885,0,0
0:2:20.877,245.101,31.2057,0,0.000885,0,0
0:2:21.171,246.098,31.3367,0,0.000885,0,0
0:2:21.470,246.859,31.4332,0,0.000885,0,0
0:2:21.763,246.979,31.447,0,0.000885,0,0
0:2:22.062,247.388,31.4953,0,0.000885,0,0
0:2:22.356,248.091,31.5849,0,0.000885,0,0
0:2:22.654,248.856,31.6883,0,0.000885,0,0
0:2:22.952,249.265,31.7366,0,0.000885,0,0
0:2:23.246,250.261,31.8676,0,0.000885,0,0
0:2:23.547,251.084,31.971,0,0.000885,0,0
0:2:23.850,251.2,31.9848,0,0.000885,0,0
0:2:24.151,252.432,32.1434,0,0.000885,0,0
0:2:24.455,252.961,32.2054,0,0.000885,0,0
0:2:24.754,253.722,32.3019,0,0.000885,0,0
0:2:25.055,254.425,32.3916,0,0.000885,0,0
0:2:25.354,254.251,32.3709,0,0.000885,0,0
0:2:25.654,254.603,32.4191,0,0.000885,0,0
0:2:25.948,254.954,32.4605,0,0.000885,0,0
0:2:26.245,255.484,32.5295,0,0.000885,0,0
0:2:26.540,256.186,32.6191,0,0.000885,0,0
0:2:26.842,256.947,32.7156,0,0.000885,0,0
0:2:27.141,257.712,32.8121,0,0.000885,0,0
0:2:27.433,258.121,32.8673,0,0.000885,0,0
0:2:27.733,258.94,32.9707,0,0.000885,0,0
0:2:28.027,259.118,32.9914,0,0.000885,0,0
0:2:28.326,260.172,33.1293,0,0.000885,0,0
0:2:28.632,260.586,33.1776,0,0.000885,0,0
0:2:28.935,261.168,33.2534,0,0.000885,0,0
0:2:29.236,261.64,33.3155,0,0.000885,0,0
0:2:29.535,262.285,33.3982,0,0.000885,0,0
0:2:29.835,262.752,33.4534,0,0.000885,0,0
0:2:30.134,263.401,33.5361,0,0.000885,0,0
0:2:30.430,263.984,33.6119,0,0.000885,0,0
0:2:30.728,264.513,33.6809,0,0.000885,0,0
0:2:31.021,265.336,33.7843,0,0.000885,0,0
0:2:31.320,265.861,33.8533,0,0.000885,0,0
0:2:31.614,266.391,33.9153,0,0.000885,0,0
0:2:31.912,267.036,33.998,0,0.000885,0,0
0:2:32.206,267.387,34.0463,0,0.000885,0,0
0:2:32.501,267.623,34.0739,0,0.000885,0,0
0:2:32.801,268.797,34.2256,0,0.000885,0,0
0:2:33.093,269.206,34.2738,0,0.000885,0,0
0:2:33.393,270.025,34.3842,0,0.000885,0,0
0:2:33.688,270.439,34.4324,0,0.000885,0,0
0:2:33.990,271.084,34.5152,0,0.000885,0,0
0:2:34.294,272.316,34.6737,0,0.000885,0,0
0:2:34.595,272.547,34.7013,0,0.000885,0,0
0:2:34.894,273.018,34.7634,0,0.000885,0,0
0:2:35.193,273.254,34.7909,0,0.000885,0,0
0:2:35.492,274.131,34.9013,0,0.000885,0,0
0:2:35.789,274.66,34.9702,0,0.000885,0,0
0:2:36.083,275.305,35.0529,0,0.000885,0,0
0:2:36.381,275.598,35.0874,0,0.000885,0,0
0:2:36.675,275.892,35.1288,0,0.000885,0,0
0:2:36.975,276.595,35.2184,0,0.000885,0,0
0:2:37.268,277.418,35.3218,0,0.000885,0,0
0:2:37.564,278.414,35.4459,0,0.000885,0,0
0:2:37.863,279.237,35.5563,0,0.000885,0,0
0:2:38.156,279.646,35.6045,0,0.000885,0,0
0:2:38.455,279.646,35.6045,0,0.000885,0,0
0:2:38.748,280.701,35.7424,0,0.000885,0,0
0:2:39.048,280.994,35.7769,0,0.000885,0,0
0:2:39.352,281.639,35.8596,0,0.000885,0,0
0:2:39.653,282.404,35.9562,0,0.000885,0,0
0:2:39.954,283.223,36.0596,0,0.000885,0,0
0:2:40.254,283.81,36.1354,0,0.000885,0,0
0:2:40.555,284.103,36.1699,0,0.000885,0,0
0:2:40.847,284.633,36.2388,0,0.000885,0,0
0:2:41.143,284.864,36.2733,0,0.000885,0,0
0:2:41.451,285.981,36.4112,0,0.000885,0,0
0:2:41.754,286.096,36.425,0,0.000885,0,0
0:2:42.053,286.568,36.4871,0,0.000885,0,0
0:2:42.349,287.328,36.5836,0,0.000885,0,0
0:2:42.647,288.445,36.7284,0,0.000885,0,0
0:2:42.950,288.445,36.7284,0,0.000885,0,0
0:2:43.247,289.557,36.8663,0,0.000885,0,0
0:2:43.554,289.673,36.8801,0,0.000885,0,0
0:2:43.855,290.202,36.949,0,0.000885,0,0
0:2:44.157,290.967,37.0455,0,0.000885,0,0
0:2:44.457,291.67,37.1352,0,0.000885,0,0
0:2:44.758,292.488,37.2386,0,0.000885,0,0
0:2:45.058,292.666,37.2662,0,0.000885,0,0
0:2:45.353,293.253,37.3351,0,0.000885,0,0
0:2:45.653,294.014,37.4385,0,0.000885,0,0
0:2:45.943,294.659,37.5144,0,0.000885,0,0
0:2:46.243,295.188,37.5833,0,0.000885,0,0
0:2:46.548,296.069,37.6936,0,0.000885,0,0
0:2:46.842,296.3,37.7281,0,0.000885,0,0
0:2:47.150,297.359,37.8591,0,0.000885,0,0
0:2:47.443,297.475,37.8729,0,0.000885,0,0
0:2:47.742,298.062,37.9487,0,0.000885,0,0
0:2:48.035,298.591,38.0177,0,0.000885,0,0
0:2:48.334,299.236,38.1004,0,0.000885,0,0
0:2:48.629,300.113,38.2107,0,0.000885,0,0
0:2:48.931,300.526,38.2659,0,0.000885,0,0
0:2:49.234,300.993,38.3211,0,0.000885,0,0
0:2:49.534,301.581,38.3969,0,0.000885,0,0
0:2:49.835,302.226,38.4796,0,0.000885,0,0
0:2:50.135,302.928,38.5693,0,0.000885,0,0
0:2:50.431,303.458,38.6382,0,0.000885,0,0
0:2:50.731,304.103,38.721,0,0.000885,0,0
0:2:51.033,304.218,38.7347,0,0.000885,0,0
0:2:51.341,305.157,38.852,0,0.000885,0,0
0:2:51.649,306.038,38.9692,0,0.000885,0,0
0:2:51.943,306.861,39.0726,0,0.000885,0,0
0:2:52.240,307.27,39.1209,0,0.000885,0,0
0:2:52.533,308.151,39.2381,0,0.000885,0,0
0:2:52.834,308.386,39.2656,0,0.000885,0,0
0:2:53.137,308.738,39.307,0,0.000885,0,0
0:2:53.433,309.031,39.3484,0,0.000885,0,0
0:2:53.730,310.201,39.4932,0,0.000885,0,0
0:2:54.032,310.553,39.5414,0,0.000885,0,0
0:2:54.333,311.14,39.6173,0,0.000885,0,0
0:2:54.635,311.198,39.6242,0,0.000885,0,0
0:2:54.935,312.256,39.7552,0,0.000885,0,0
0:2:55.236,312.781,39.8241,0,0.000885,0,0
0:2:55.530,313.31,39.8931,0,0.000885,0,0
0:2:55.830,313.782,39.9551,0,0.000885,0,0
0:2:56.132,314.778,40.0792,0,0.000885,0,0
0:2:56.430,315.188,40.1344,0,0.000885,0,0
0:2:56.734,315.833,40.2102,0,0.000885,0,0
0:2:57.031,316.362,40.2792,0,0.000885,0,0
0:2:57.329,316.713,40.3274,0,0.000885,0,0
0:2:57.632,317.416,40.4171,0,0.000885,0,0
0:2:57.933,318.297,40.5274,0,0.000885,0,0
0:2:58.227,318.591,40.5619,0,0.000885,0,0
0:2:58.524,319.529,40.686,0,0.000885,0,0
0:2:58.822,319.76,40.7135,0,0.000885,0,0
0:2:59.123,320.348,40.7894,0,0.000885,0,0
0:2:59.425,321.113,40.8859,0,0.000885,0,0
0:2:59.725,321.406,40.9204,0,0.000885,0,0
0:3:0.026,322.403,41.0514,0,0.000885,0,0
0:3:0.326,322.99,41.1272,0,0.000885,0,0
0:3:0.620,322.99,41.1272,0,0.000885,0,0
0:3:0.921,323.808,41.2306,0,0.000885,0,0
0:3:1.213,324.805,41.3548,0,0.000885,0,0
0:3:1.512,325.218,41.4099,0,0.000885,0,0
0:3:1.806,325.628,41.4582,0,0.000885,0,0
0:3:2.101,326.451,41.5616,0,0.000885,0,0
0:3:2.402,327.269,41.6719,0,0.000885,0,0
0:3:2.695,327.741,41.7271,0,0.000885,0,0
0:3:2.993,328.15,41.7822,0,0.000885,0,0
0:3:3.287,328.973,41.8857,0,0.000885,0,0
0:3:3.588,329.262,41.9201,0,0.000885,0,0
0:3:3.892,330.085,42.0304,0,0.000885,0,0
0:3:4.192,329.907,42.0029,0,0.000885,0,0
0:3:4.493,331.023,42.1477,0,0.000885,0,0
0:3:4.794,331.433,42.2028,0,0.000885,0,0
0:3:5.092,332.255,42.3062,0,0.000885,0,0
0:3:5.390,333.31,42.4372,0,0.000885,0,0
0:3:5.683,333.31,42.4372,0,0.000885,0,0
0:3:5.982,334.075,42.5338,0,0.000885,0,0
0:3:6.275,334.658,42.6096,0,0.000885,0,0
0:3:6.573,334.6,42.6027,0,0.000885,0,0
0:3:6.870,335.832,42.7613,0,0.000885,0,0
0:3:7.164,336.535,42.8509,0,0.000885,0,0
0:3:7.463,337.242,42.9405,0,0.000885,0,0
0:3:7.756,337.825,43.0164,0,0.000885,0,0
0:3:8.055,337.767,43.0026,0,0.000885,0,0
0:3:8.349,338.474,43.0922,0,0.000885,0,0
0:3:8.651,339.408,43.2163,0,0.000885,0,0
0:3:8.953,339.586,43.237,0,0.000885,0,0
0:3:9.255,340.231,43.3198,0,0.000885,0,0
0:3:9.555,340.876,43.4025,0,0.000885,0,0
0:3:9.855,341.641,43.499,0,0.000885,0,0
0:3:10.154,342.46,43.6024,0,0.000885,0,0
0:3:10.449,342.638,43.6231,0,0.000885,0,0
0:3:10.754,343.163,43.6921,0,0.000885,0,0
0:3:11.053,343.807,43.7748,0,0.000885,0,0
0:3:11.345,344.337,43.8438,0,0.000885,0,0
0:3:11.643,345.04,43.9334,0,0.000885,0,0
0:3:11.939,345.391,43.9748,0,0.000885,0,0
0:3:12.235,346.392,44.1058,0,0.000885,0,0
0:3:12.533,346.743,44.1471,0,0.000885,0,0
0:3:12.836,347.682,44.2712,0,0.000885,0,0
0:3:13.136,348.265,44.3402,0,0.000885,0,0
0:3:13.430,348.443,44.3678,0,0.000885,0,0
0:3:13.731,349.03,44.4367,0,0.000885,0,0
0:3:14.034,349.675,44.5194,0,0.000885,0,0
0:3:14.335,350.671,44.6504,0,0.000885,0,0
0:3:14.636,350.671,44.6504,0,0.000885,0,0
0:3:14.935,351.61,44.7677,0,0.000885,0,0
0:3:15.242,351.961,44.8159,0,0.000885,0,0
0:3:15.552,352.606,44.8987,0,0.000885,0,0
0:3:15.853,352.9,44.9331,0,0.000885,0,0
0:3:16.153,353.896,45.0572,0,0.000885,0,0
0:3:16.444,354.074,45.0848,0,0.000885,0,0
0:3:16.744,355.244,45.2296,0,0.000885,0,0
0:3:17.039,355.831,45.3055,0,0.000885,0,0
0:3:17.335,356.476,45.3882,0,0.000885,0,0
0:3:17.633,356.77,45.4227,0,0.000885,0,0
0:3:17.936,357.183,45.4778,0,0.000885,0,0
0:3:18.235,358.122,45.595,0,0.000885,0,0
0:3:18.539,358.589,45.6571,0,0.000885,0,0
0:3:18.837,359.234,45.7398,0,0.000885,0,0
0:3:19.141,359.528,45.7743,0,0.000885,0,0
0:3:19.442,359.879,45.8226,0,0.000885,0,0
0:3:19.742,360.875,45.9467,0,0.000885,0,0
0:3:20.043,361.462,46.0225,0,0.000885,0,0
0:3:20.340,362.228,46.119,0,0.000885,0,0
0:3:20.646,362.752,46.188,0,0.000885,0,0
0:3:20.941,363.397,46.2707,0,0.000885,0,0
0:3:21.239,364.163,46.3672,0,0.000885,0,0
0:3:21.533,364.394,46.3948,0,0.000885,0,0
0:3:21.832,364.865,46.4569,0,0.000885,0,0
0:3:22.124,365.568,46.5465,0,0.000885,0,0
0:3:22.423,366.449,46.6568,0,0.000885,0,0
0:3:22.719,366.978,46.7258,0,0.000885,0,0
0:3:23.013,367.445,46.7878,0,0.000885,0,0
0:3:23.310,367.912,46.843,0,0.000885,0,0
0:3:23.613,368.384,46.905,0,0.000885,0,0
0:3:23.914,368.62,46.9326,0,0.000885,0,0
0:3:24.215,369.496,47.0429,0,0.000885,0,0
0:3:24.515,370.497,47.1739,0,0.000885,0,0
0:3:24.816,370.964,47.236,0,0.000885,0,0
0:3:25.110,371.315,47.2774,0,0.000885,0,0
0:3:25.408,372.138,47.3808,0,0.000885,0,0
0:3:25.701,373.019,47.4911,0,0.000885,0,0
0:3:26.000,373.25,47.5256,0,0.000885,0,0
0:3:26.295,373.78,47.5945,0,0.000885,0,0
0:3:26.591,374.247,47.6497,0,0.000885,0,0
0:3:26.890,374.776,47.7186,0,0.000885,0,0
0:3:27.182,375.363,47.7945,0,0.000885,0,0
0:3:27.482,376.186,47.8979,0,0.000885,0,0
0:3:27.775,376.595,47.9461,0,0.000885,0,0
0:3:28.073,377.005,48.0013,0,0.000885,0,0
0:3:28.369,377.298,48.0358,0,0.000885,0,0
0:3:28.670,378.53,48.1944,0,0.000885,0,0
0:3:28.973,379.06,48.2633,0,0.000885,0,0
0:3:29.273,379.411,48.3047,0,0.000885,0,0
0:3:29.574,380.056,48.3874,0,0.000885,0,0
0:3:29.874,380.995,48.5115,0,0.000885,0,0
0:3:30.170,381.52,48.5736,0,0.000885,0,0
0:3:30.468,382.578,48.7115,0,0.000885,0,0
0:3:30.761,382.752,48.7321,0,0.000885,0,0
0:3:31.062,383.281,48.8011,0,0.000885,0,0
0:3:31.354,383.81,48.87,0,0.000885,0,0
0:3:31.652,384.398,48.9459,0,0.000885,0,0
0:3:31.957,385.043,49.0217,0,0.000885,0,0
0:3:32.253,385.803,49.1251,0,0.000885,0,0
0:3:32.551,385.981,49.1458,0,0.000885,0,0
0:3:32.841,386.857,49.2561,0,0.000885,0,0
0:3:33.142,387.622,49.3527,0,0.000885,0,0
0:3:33.443,388.032,49.4078,0,0.000885,0,0
0:3:33.744,388.499,49.463,0,0.000885,0,0
0:3:34.046,389.206,49.5526,0,0.000885,0,0
0:3:34.347,389.851,49.6354,0,0.000885,0,0
0:3:34.646,390.554,49.725,0,0.000885,0,0
0:3:34.945,390.963,49.7801,0,0.000885,0,0
0:3:35.243,391.666,49.8698,0,0.000885,0,0
0:3:35.537,391.786,49.8836,0,0.000885,0,0
0:3:35.843,392.195,49.9387,0,0.000885,0,0
0:3:36.140,392.489,49.9732,0,0.000885,0,0
0:3:36.444,393.37,50.0835,0,0.000885,0,0
0:3:36.744,393.837,50.1456,0,0.000885,0,0
0:3:37.037,394.953,50.2835,0,0.000885,0,0
0:3:37.335,395.247,50.3248,0,0.000885,0,0
0:3:37.641,396.243,50.4489,0,0.000885,0,0
0:3:37.944,396.479,50.4834,0,0.000885,0,0
0:3:38.242,397.591,50.6213,0,0.000885,0,0
0:3:38.545,398.236,50.704,0,0.000885,0,0
0:3:38.845,398.823,50.7799,0,0.000885,0,0
0:3:39.146,398.939,50.7937,0,0.000885,0,0
0:3:39.449,399.877,50.9109,0,0.000885,0,0
0:3:39.747,399.82,50.904,0,0.000885,0,0
0:3:40.047,400.878,51.0419,0,0.000885,0,0
0:3:40.347,401.109,51.0695,0,0.000885,0,0
0:3:40.641,401.697,51.1453,0,0.000885,0,0
0:3:40.939,402.635,51.2625,0,0.000885,0,0
0:3:41.245,402.987,51.3108,0,0.000885,0,0
0:3:41.540,403.983,51.4349,0,0.000885,0,0
0:3:41.840,404.628,51.5176,0,0.000885,0,0
0:3:42.143,405.509,51.6279,0,0.000885,0,0
0:3:42.442,405.745,51.6624,0,0.000885,0,0
0:3:42.747,406.332,51.7383,0,0.000885,0,0
0:3:43.042,406.799,51.7934,0,0.000885,0,0
0:3:43.340,407.27,51.8555,0,0.000885,0,0
0:3:43.643,408.147,51.9658,0,0.000885,0,0
0:3:43.944,408.56,52.0209,0,0.000885,0,0
0:3:44.245,409.027,52.0761,0,0.000885,0,0
0:3:44.544,409.441,52.1313,0,0.000885,0,0
0:3:44.844,410.202,52.2278,0,0.000885,0,0
0:3:45.140,410.611,52.2829,0,0.000885,0,0
0:3:45.441,411.256,52.3657,0,0.000885,0,0
0:3:45.742,411.901,52.4484,0,0.000885,0,0
0:3:46.042,412.372,52.5036,0,0.000885,0,0
0:3:46.336,413.075,52.5932,0,0.000885,0,0
0:3:46.632,413.605,52.6622,0,0.000885,0,0
0:3:46.930,414.365,52.7587,0,0.000885,0,0
0:3:47.225,415.01,52.8414,0,0.000885,0,0
0:3:47.524,415.597,52.9173,0,0.000885,0,0
0:3:47.817,415.949,52.9586,0,0.000885,0,0
0:3:48.115,416.714,53.0552,0,0.000885,0,0
0:3:48.413,417.417,53.1448,0,0.000885,0,0
0:3:48.712,417.71,53.1862,0,0.000885,0,0
0:3:49.017,418.235,53.2482,0,0.000885,0,0
0:3:49.315,419.294,53.3861,0,0.000885,0,0
0:3:49.616,419.819,53.4551,0,0.000885,0,0
0:3:49.916,420.642,53.5585,0,0.000885,0,0
0:3:50.214,421.051,53.6067,0,0.000885,0,0
0:3:50.510,421.287,53.6412,0,0.000885,0,0
0:3:50.803,421.816,53.7102,0,0.000885,0,0
0:3:51.102,422.577,53.8067,0,0.000885,0,0
0:3:51.397,423.515,53.9239,0,0.000885,0,0
0:3:51.695,423.631,53.9377,0,0.000885,0,0
0:3:51.990,424.338,54.0273,0,0.000885,0,0
0:3:52.287,424.805,54.0894,0,0.000885,0,0
0:3:52.585,425.214,54.1376,0,0.000885,0,0
0:3:52.879,425.922,54.2273,0,0.000885,0,0
0:3:53.178,426.74,54.3376,0,0.000885,0,0
0:3:53.472,427.034,54.3721,0,0.000885,0,0
0:3:53.774,427.621,54.4479,0,0.000885,0,0
0:3:54.078,428.03,54.4962,0,0.000885,0,0
0:3:54.380,428.911,54.6134,0,0.000885,0,0
0:3:54.682,429.792,54.7237,0,0.000885,0,0
0:3:54.980,429.965,54.7444,0,0.000885,0,0
0:3:55.280,430.904,54.8616,0,0.000885,0,0
0:3:55.574,431.197,54.903,0,0.000885,0,0
0:3:55.871,431.842,54.9857,0,0.000885,0,0
0:3:56.168,432.723,55.096,0,0.000885,0,0
0:3:56.462,433.017,55.1305,0,0.000885,0,0
0:3:56.763,433.546,55.1994,0,0.000885,0,0
0:3:57.054,434.249,55.2891,0,0.000885,0,0
0:3:57.354,435.361,55.4338,0,0.000885,0,0
0:3:57.659,435.717,55.4752,0,0.000885,0,0
0:3:57.955,436.126,55.5304,0,0.000885,0,0
0:3:58.251,436.419,55.5648,0,0.000885,0,0
0:3:58.556,437.532,55.7096,0,0.000885,0,0
0:3:58.859,437.883,55.751,0,0.000885,0,0
0:3:59.158,438.234,55.7993,0,0.000885,0,0
0:3:59.457,438.297,55.8062,0,0.000885,0,0
0:3:59.757,439.173,55.9165,0,0.000885,0,0
0:4:0.051,440.232,56.0544,0,0.000885,0,0
0:4:0.349,440.347,56.0682,0,0.000885,0,0
0:4:0.654,441.344,56.1923,0,0.000885,0,0
0:4:0.955,441.637,56.2336,0,0.000885,0,0
0:4:1.247,442.167,56.2957,0,0.000885,0,0
0:4:1.545,443.047,56.4129,0,0.000885,0,0
0:4:1.842,443.692,56.4956,0,0.000885,0,0
0:4:2.145,443.924,56.5232,0,0.000885,0,0
0:4:2.444,444.453,56.5922,0,0.000885,0,0
0:4:2.746,445.627,56.737,0,0.000885,0,0
0:4:3.046,446.33,56.8266,0,0.000885,0,0
0:4:3.341,446.917,56.9024,0,0.000885,0,0
0:4:3.643,447.091,56.9231,0,0.000885,0,0
0:4:3.946,447.504,56.9783,0,0.000885,0,0
0:4:4.247,448.265,57.0748,0,0.000885,0,0
0:4:4.547,448.852,57.1506,0,0.000885,0,0
0:4:4.847,449.204,57.192,0,0.000885,0,0
0:4:5.144,449.791,57.2679,0,0.000885,0,0
0:4:5.451,450.494,57.3575,0,0.000885,0,0
0:4:5.755,451.374,57.4678,0,0.000885,0,0
0:4:6.055,452.255,57.585,0,0.000885,0,0
0:4:6.358,452.313,57.5919,0,0.000885,0,0
0:4:6.657,452.842,57.6609,0,0.000885,0,0
0:4:6.961,453.719,57.7712,0,0.000885,0,0
0:4:7.258,454.364,57.8539,0,0.000885,0,0
0:4:7.556,454.893,57.916,0,0.000885,0,0
0:4:7.847,455.422,57.9849,0,0.000885,0,0
0:4:8.145,455.716,58.0263,0,0.000885,0,0
0:4:8.450,455.947,58.0539,0,0.000885,0,0
0:4:8.751,456.712,58.1504,0,0.000885,0,0
0:4:9.056,457.593,58.2607,0,0.000885,0,0
0:4:9.358,457.882,58.3021,0,0.000885,0,0
0:4:9.658,458.06,58.3228,0,0.000885,0,0
0:4:9.957,458.883,58.4262,0,0.000885,0,0
0:4:10.255,459.995,58.571,0,0.000885,0,0
0:4:10.549,460.053,58.5779,0,0.000885,0,0
0:4:10.845,460.524,58.633,0,0.000885,0,0
0:4:11.143,460.76,58.6675,0,0.000885,0,0
0:4:11.436,461.699,58.7847,0,0.000885,0,0
0:4:11.736,460.934,58.6882,0,0.000885,0,0
0:4:12.028,461.112,58.7089,0,0.000885,0,0
0:4:12.325,461.699,58.7847,0,0.000885,0,0
0:4:12.624,455.654,58.0125,0,0.000885,0,0
0:4:12.916,456.125,58.0745,0,0.000885,0,0
0:4:13.213,457.357,58.2331,0,0.000885,0,0
0:4:13.516,458.941,58.4331,0,0.000885,0,0
0:4:13.816,460.467,58.6261,0,0.000885,0,0
0:4:14.117,462.224,58.8536,0,0.000885,0,0
0:4:14.416,463.34,58.9915,0,0.000885,0,0
0:4:14.717,464.394,59.1294,0,0.000885,0,0
0:4:15.012,465.684,59.2949,0,0.000885,0,0
0:4:15.311,466.801,59.4328,0,0.000885,0,0
0:4:15.605,468.678,59.6741,0,0.000885,0,0
0:4:15.903,469.906,59.8327,0,0.000885,0,0
0:4:16.198,470.319,59.881,0,0.000885,0,0
0:4:16.494,469.674,59.7982,0,0.000885,0,0
0:4:16.793,468.149,59.6052,0,0.000885,0,0
0:4:17.084,465.804,59.3087,0,0.000885,0,0
0:4:17.385,462.926,58.9433,0,0.000885,0,0
0:4:17.677,453.719,57.7712,0,0.000885,0,0
0:4:17.973,453.603,57.7574,0,0.000885,0,0
0:4:18.268,454.364,57.8539,0,0.000885,0,0
0:4:18.567,455.716,58.0263,0,0.000885,0,0
0:4:18.869,457.531,58.2538,0,0.000885,0,0
0:4:19.170,459.114,58.4538,0,0.000885,0,0
0:4:19.469,451.962,57.5436,0,0.000885,0,0
0:4:19.767,446.388,56.8335,0,0.000885,0,0
0:4:20.064,442.167,56.2957,0,0.000885,0,0
0:4:20.360,435.654,55.4683,0,0.000885,0,0
0:4:20.651,434.658,55.3442,0,0.000885,0,0
0:4:20.948,435.539,55.4545,0,0.000885,0,0
0:4:21.242,436.362,55.558,0,0.000885,0,0
0:4:21.540,437.589,55.7165,0,0.000885,0,0
0:4:21.833,438.59,55.8406,0,0.000885,0,0
0:4:22.131,439.173,55.9165,0,0.000885,0,0
0:4:22.346,365.101,46.4845,0,0.000885,0,0