File: DataFile2021-06-06_063305.csv
Test ID:,Date Tested:,Time:,Test Type:,Diameter Avg. (mm):,Cyl. Corr. Factor:,Height (mm):,Age (days):,Weight (kN):,Break Type:,Ramp Rate (MPa/s):,Load at Break (kN):,Stress at Break (MPa):
12,6/6/2021,06:33,Cylinder,150,1,300,0,13.39,1,0.25,1929.6,109.19
Sample Time,Load (kN),Stress (MPa),Long. Strain,Trans. Strain,Chan1 Deflection (mm),Chan2 Deflection (mm)
0:0:18.654,5.7471,0.324054,0,0.000885,0,0
0:0:19.053,10.9693,0.620528,0,0.000885,0,0
0:0:19.472,10.6757,0.606739,0,0.000885,0,0
0:0:19.868,10.7914,0.613633,0,0.000885,0,0
0:0:20.273,11.0271,0.620528,0,0.000885,0,0
0:0:20.672,12.9621,0.730844,0,0.000885,0,0
0:0:21.073,14.3099,0.806687,0,0.000885,0,0
0:0:21.471,16.1871,0.917003,0,0.000885,0,0
0:0:21.866,18.2422,1.03421,0,0.000885,0,0
0:0:22.272,19.9992,1.13074,0,0.000885,0,0
0:0:22.671,22.7571,1.28932,0,0.000885,0,0
0:0:23.070,23.9893,1.35827,0,0.000885,0,0
0:0:23.468,25.6307,1.4479,0,0.000885,0,0
0:0:23.872,27.5078,1.55822,0,0.000885,0,0
0:0:24.277,29.5584,1.67543,0,0.000885,0,0
0:0:24.683,31.8493,1.79953,0,0.000885,0,0
0:0:25.088,34.0156,1.92364,0,0.000885,0,0
0:0:25.490,36.1863,2.04774,0,0.000885,0,0
0:0:25.889,38.1835,2.15806,0,0.000885,0,0
0:0:26.287,40.3498,2.28216,0,0.000885,0,0
0:0:26.688,42.8141,2.42006,0,0.000885,0,0
0:0:27.084,44.4555,2.51659,0,0.000885,0,0
0:0:27.483,46.3905,2.6269,0,0.000885,0,0
0:0:27.880,47.5648,2.68896,0,0.000885,0,0
0:0:28.281,48.4456,2.74411,0,0.000885,0,0
0:0:28.680,49.9135,2.82685,0,0.000885,0,0
0:0:29.075,51.1412,2.8958,0,0.000885,0,0
0:0:29.481,52.9605,2.99922,0,0.000885,0,0
0:0:29.886,54.6019,3.08885,0,0.000885,0,0
0:0:30.290,56.0698,3.17159,0,0.000885,0,0
0:0:30.693,58.1827,3.29569,0,0.000885,0,0
0:0:31.090,60.2912,3.4129,0,0.000885,0,0
0:0:31.489,61.7591,3.49564,0,0.000885,0,0
0:0:31.889,63.8097,3.61285,0,0.000885,0,0
0:0:32.288,65.5712,3.70938,0,0.000885,0,0
0:0:32.683,66.9769,3.79212,0,0.000885,0,0
0:0:33.079,68.9741,3.90243,0,0.000885,0,0
0:0:33.479,71.0826,4.01964,0,0.000885,0,0
0:0:33.882,72.3726,4.09549,0,0.000885,0,0
0:0:34.288,74.2497,4.19891,0,0.000885,0,0
0:0:34.693,76.069,4.30233,0,0.000885,0,0
0:0:35.095,77.1855,4.36438,0,0.000885,0,0
0:0:35.494,79.8233,4.51607,0,0.000885,0,0
0:0:35.893,81.6427,4.61949,0,0.000885,0,0
0:0:36.291,82.8748,4.68843,0,0.000885,0,0
0:0:36.686,84.3383,4.77117,0,0.000885,0,0
0:0:37.086,86.3355,4.88838,0,0.000885,0,0
0:0:37.486,88.444,5.00559,0,0.000885,0,0
0:0:37.884,90.3211,5.10902,0,0.000885,0,0
0:0:38.281,92.9589,5.2607,0,0.000885,0,0
0:0:38.677,94.6626,5.35723,0,0.000885,0,0
0:0:39.080,96.5398,5.46065,0,0.000885,0,0
0:0:39.487,98.1811,5.55717,0,0.000885,0,0
0:0:39.891,99.6491,5.63991,0,0.000885,0,0
0:0:40.294,100.939,5.70886,0,0.000885,0,0
0:0:40.693,102.523,5.79849,0,0.000885,0,0
0:0:41.095,104.222,5.89502,0,0.000885,0,0
0:0:41.494,106.041,5.99844,0,0.000885,0,0
0:0:41.890,108.092,6.11565,0,0.000885,0,0
0:0:42.287,110.089,6.23286,0,0.000885,0,0
0:0:42.687,111.846,6.32939,0,0.000885,0,0
0:0:43.085,113.256,6.41212,0,0.000885,0,0
0:0:43.483,115.071,6.50865,0,0.000885,0,0
0:0:43.878,117.126,6.62586,0,0.000885,0,0
0:0:44.282,119.061,6.73618,0,0.000885,0,0
0:0:44.688,120.645,6.82581,0,0.000885,0,0
0:0:45.093,122.58,6.93613,0,0.000885,0,0
0:0:45.496,124.75,7.06023,0,0.000885,0,0
0:0:45.893,126.334,7.14986,0,0.000885,0,0
0:0:46.294,127.918,7.2395,0,0.000885,0,0
0:0:46.693,128.914,7.29465,0,0.000885,0,0
0:0:47.090,130.44,7.38429,0,0.000885,0,0
0:0:47.487,132.904,7.52218,0,0.000885,0,0
0:0:47.885,134.488,7.61181,0,0.000885,0,0
0:0:48.286,136.423,7.72213,0,0.000885,0,0
0:0:48.683,137.944,7.80487,0,0.000885,0,0
0:0:49.079,139.527,7.8945,0,0.000885,0,0
0:0:49.484,141.405,8.00481,0,0.000885,0,0
0:0:49.891,142.93,8.08755,0,0.000885,0,0
0:0:50.293,145.452,8.23234,0,0.000885,0,0
0:0:50.697,146.978,8.31508,0,0.000885,0,0
0:0:51.094,148.562,8.40471,0,0.000885,0,0
0:0:51.494,150.555,8.52192,0,0.000885,0,0
0:0:51.894,152.552,8.63224,0,0.000885,0,0
0:0:52.291,154.073,8.72187,0,0.000885,0,0
0:0:52.687,155.657,8.8115,0,0.000885,0,0
0:0:53.087,157.534,8.91492,0,0.000885,0,0
0:0:53.486,159.531,9.02524,0,0.000885,0,0
0:0:53.884,161.408,9.13555,0,0.000885,0,0
0:0:54.289,162.698,9.2045,0,0.000885,0,0
0:0:54.694,165.158,9.34929,0,0.000885,0,0
0:0:55.097,167.213,9.45961,0,0.000885,0,0
0:0:55.502,168.681,9.54234,0,0.000885,0,0
0:0:55.899,170.322,9.63887,0,0.000885,0,0
0:0:56.294,171.492,9.70782,0,0.000885,0,0
0:0:56.693,173.369,9.81124,0,0.000885,0,0
0:0:57.094,174.953,9.90087,0,0.000885,0,0
0:0:57.493,176.537,9.9905,0,0.000885,0,0
0:0:57.888,178.24,10.087,0,0.000885,0,0
0:0:58.286,180.349,10.2042,0,0.000885,0,0
0:0:58.684,182.11,10.3077,0,0.000885,0,0
0:0:59.084,183.636,10.3904,0,0.000885,0,0
0:0:59.490,185.807,10.5145,0,0.000885,0,0
0:0:59.894,187.622,10.6179,0,0.000885,0,0
0:1:0.299,189.147,10.7007,0,0.000885,0,0
0:1:0.701,191.202,10.8179,0,0.000885,0,0
0:1:1.100,193.431,10.9489,0,0.000885,0,0
0:1:1.494,195.014,11.0385,0,0.000885,0,0
0:1:1.888,196.536,11.1212,0,0.000885,0,0
0:1:2.283,198.591,11.2385,0,0.000885,0,0
0:1:2.683,200.059,11.3212,0,0.000885,0,0
0:1:3.077,201.642,11.4108,0,0.000885,0,0
0:1:3.471,202.932,11.4867,0,0.000885,0,0
0:1:3.875,205.161,11.6108,0,0.000885,0,0
0:1:4.275,206.099,11.6659,0,0.000885,0,0
0:1:4.678,208.15,11.7762,0,0.000885,0,0
0:1:5.080,209.791,11.8728,0,0.000885,0,0
0:1:5.481,212.198,12.0107,0,0.000885,0,0
0:1:5.878,213.897,12.1072,0,0.000885,0,0
0:1:6.275,215.423,12.1899,0,0.000885,0,0
0:1:6.670,217.3,12.2934,0,0.000885,0,0
0:1:7.074,219.062,12.3968,0,0.000885,0,0
0:1:7.478,220.997,12.5071,0,0.000885,0,0
0:1:7.875,223.225,12.6312,0,0.000885,0,0
0:1:8.271,225.04,12.7346,0,0.000885,0,0
0:1:8.663,226.272,12.8036,0,0.000885,0,0
0:1:9.059,228.149,12.9139,0,0.000885,0,0
0:1:9.459,229.617,12.9966,0,0.000885,0,0
0:1:9.861,232.082,13.1345,0,0.000885,0,0
0:1:10.262,233.487,13.2104,0,0.000885,0,0
0:1:10.662,235.306,13.3138,0,0.000885,0,0
0:1:11.057,236.89,13.4034,0,0.000885,0,0
0:1:11.473,239.176,13.5344,0,0.000885,0,0
0:1:11.872,240.351,13.6034,0,0.000885,0,0
0:1:12.264,242.166,13.7068,0,0.000885,0,0
0:1:12.659,243.691,13.7895,0,0.000885,0,0
0:1:13.063,245.217,13.8791,0,0.000885,0,0
0:1:13.470,247.681,14.017,0,0.000885,0,0
0:1:13.865,249.029,14.0929,0,0.000885,0,0
0:1:14.272,251.436,14.2308,0,0.000885,0,0
0:1:14.673,252.726,14.2997,0,0.000885,0,0
0:1:15.073,254.309,14.3894,0,0.000885,0,0
0:1:15.471,255.773,14.4721,0,0.000885,0,0
0:1:15.878,258.121,14.61,0,0.000885,0,0
0:1:16.273,259.821,14.6996,0,0.000885,0,0
0:1:16.669,261.64,14.803,0,0.000885,0,0
0:1:17.071,263.281,14.8996,0,0.000885,0,0
0:1:17.469,265.216,15.0099,0,0.000885,0,0
0:1:17.875,266.742,15.0926,0,0.000885,0,0
0:1:18.266,268.797,15.2098,0,0.000885,0,0
0:1:18.672,270.732,15.3202,0,0.000885,0,0
0:1:19.074,272.138,15.4029,0,0.000885,0,0
0:1:19.477,274.131,15.5132,0,0.000885,0,0
0:1:19.878,276.008,15.6166,0,0.000885,0,0
0:1:20.276,277.943,15.7269,0,0.000885,0,0
0:1:20.671,279.94,15.8442,0,0.000885,0,0
0:1:21.077,281.346,15.92,0,0.000885,0,0
0:1:21.474,282.756,16.0027,0,0.000885,0,0
0:1:21.870,284.046,16.0717,0,0.000885,0,0
0:1:22.271,286.096,16.1889,0,0.000885,0,0
0:1:22.665,287.858,16.2923,0,0.000885,0,0
0:1:23.062,289.557,16.3888,0,0.000885,0,0
0:1:23.458,291.376,16.4854,0,0.000885,0,0
0:1:23.853,293.253,16.5957,0,0.000885,0,0
0:1:24.257,294.779,16.6784,0,0.000885,0,0
0:1:24.660,296.945,16.8025,0,0.000885,0,0
0:1:25.060,298.529,16.8922,0,0.000885,0,0
0:1:25.460,300.348,16.9956,0,0.000885,0,0
0:1:25.865,302.168,17.099,0,0.000885,0,0
0:1:26.267,304.103,17.2093,0,0.000885,0,0
0:1:26.674,306.331,17.3334,0,0.000885,0,0
0:1:27.072,308.093,17.4368,0,0.000885,0,0
0:1:27.465,309.734,17.5265,0,0.000885,0,0
0:1:27.859,310.966,17.5954,0,0.000885,0,0
0:1:28.263,313.137,17.7195,0,0.000885,0,0
0:1:28.658,314.836,17.8161,0,0.000885,0,0
0:1:29.065,316.887,17.9333,0,0.000885,0,0
0:1:29.471,318.47,18.0229,0,0.000885,0,0
0:1:29.873,319.645,18.0849,0,0.000885,0,0
0:1:30.273,321.406,18.1884,0,0.000885,0,0
0:1:30.673,322.928,18.2711,0,0.000885,0,0
0:1:31.066,324.631,18.3676,0,0.000885,0,0
0:1:31.460,326.508,18.4779,0,0.000885,0,0
0:1:31.863,328.443,18.5883,0,0.000885,0,0
0:1:32.261,330.32,18.6917,0,0.000885,0,0
0:1:32.657,332.429,18.8089,0,0.000885,0,0
0:1:33.073,334.133,18.9054,0,0.000885,0,0
0:1:33.476,335.538,18.9882,0,0.000885,0,0
0:1:33.872,337.536,19.0985,0,0.000885,0,0
0:1:34.271,339.293,19.2019,0,0.000885,0,0
0:1:34.674,340.992,19.2984,0,0.000885,0,0
0:1:35.075,342.638,19.3881,0,0.000885,0,0
0:1:35.476,344.573,19.4984,0,0.000885,0,0
0:1:35.874,346.392,19.6018,0,0.000885,0,0
0:1:36.272,348.62,19.7259,0,0.000885,0,0
0:1:36.665,349.968,19.8017,0,0.000885,0,0
0:1:37.067,351.668,19.8983,0,0.000885,0,0
0:1:37.474,353.545,20.0086,0,0.000885,0,0
0:1:37.871,355.186,20.0982,0,0.000885,0,0
0:1:38.276,357.183,20.2154,0,0.000885,0,0
0:1:38.671,358.94,20.312,0,0.000885,0,0
0:1:39.074,360.76,20.4154,0,0.000885,0,0
0:1:39.475,362.107,20.4912,0,0.000885,0,0
0:1:39.876,364.336,20.6153,0,0.000885,0,0
0:1:40.277,365.568,20.6843,0,0.000885,0,0
0:1:40.669,367.152,20.7739,0,0.000885,0,0
0:1:41.076,369.145,20.8911,0,0.000885,0,0
0:1:41.472,370.79,20.9807,0,0.000885,0,0
0:1:41.867,373.077,21.1117,0,0.000885,0,0
0:1:42.259,374.309,21.1807,0,0.000885,0,0
0:1:42.664,376.48,21.3048,0,0.000885,0,0
0:1:43.061,378.121,21.3944,0,0.000885,0,0
0:1:43.458,379.878,21.4979,0,0.000885,0,0
0:1:43.873,381.813,21.6082,0,0.000885,0,0
0:1:44.275,383.69,21.7116,0,0.000885,0,0
0:1:44.677,385.274,21.8012,0,0.000885,0,0
0:1:45.078,386.684,21.884,0,0.000885,0,0
0:1:45.478,388.735,22.0012,0,0.000885,0,0
0:1:45.871,390.67,22.1046,0,0.000885,0,0
0:1:46.275,391.902,22.1804,0,0.000885,0,0
0:1:46.672,394.366,22.3183,0,0.000885,0,0
0:1:47.068,396.185,22.4218,0,0.000885,0,0
0:1:47.470,397.649,22.5045,0,0.000885,0,0
0:1:47.875,399.526,22.6079,0,0.000885,0,0
0:1:48.269,401.812,22.7389,0,0.000885,0,0
0:1:48.667,402.813,22.7941,0,0.000885,0,0
0:1:49.074,403.81,22.8492,0,0.000885,0,0
0:1:49.477,405.86,22.9664,0,0.000885,0,0
0:1:49.879,407.502,23.063,0,0.000885,0,0
0:1:50.279,410.259,23.2146,0,0.000885,0,0
0:1:50.680,412.43,23.3388,0,0.000885,0,0
0:1:51.073,413.547,23.4008,0,0.000885,0,0
0:1:51.477,415.54,23.518,0,0.000885,0,0
0:1:51.873,416.478,23.5663,0,0.000885,0,0
0:1:52.272,418.822,23.6973,0,0.000885,0,0
0:1:52.665,420.406,23.7869,0,0.000885,0,0
0:1:53.079,422.692,23.9179,0,0.000885,0,0
0:1:53.483,424.632,24.0282,0,0.000885,0,0
0:1:53.879,426.215,24.1179,0,0.000885,0,0
0:1:54.275,427.563,24.1937,0,0.000885,0,0
0:1:54.679,428.911,24.2695,0,0.000885,0,0
0:1:55.080,430.846,24.3799,0,0.000885,0,0
0:1:55.481,433.017,24.504,0,0.000885,0,0
0:1:55.882,434.658,24.5936,0,0.000885,0,0
0:1:56.276,436.593,24.7039,0,0.000885,0,0
0:1:56.680,438.354,24.8073,0,0.000885,0,0
0:1:57.073,440.641,24.9383,0,0.000885,0,0
0:1:57.468,442.402,25.0349,0,0.000885,0,0
0:1:57.867,443.221,25.0831,0,0.000885,0,0
0:1:58.270,445.098,25.1865,0,0.000885,0,0
0:1:58.676,446.917,25.29,0,0.000885,0,0
0:1:59.077,448.91,25.4003,0,0.000885,0,0
0:1:59.481,450.378,25.483,0,0.000885,0,0
0:1:59.882,452.429,25.6002,0,0.000885,0,0
0:2:0.284,454.07,25.6968,0,0.000885,0,0
0:2:0.675,455.364,25.7657,0,0.000885,0,0
0:2:1.074,457.473,25.8898,0,0.000885,0,0
0:2:1.469,458.999,25.9726,0,0.000885,0,0
0:2:1.873,461.405,26.1104,0,0.000885,0,0
0:2:2.265,463.456,26.2277,0,0.000885,0,0
0:2:2.661,464.688,26.2966,0,0.000885,0,0
0:2:3.059,466.859,26.4207,0,0.000885,0,0
0:2:3.463,468.909,26.5379,0,0.000885,0,0
0:2:3.877,470.262,26.6138,0,0.000885,0,0
0:2:4.279,471.961,26.7103,0,0.000885,0,0
0:2:4.682,474.189,26.8344,0,0.000885,0,0
0:2:5.084,475.595,26.9102,0,0.000885,0,0
0:2:5.484,477.414,27.0137,0,0.000885,0,0
0:2:5.879,478.824,27.0964,0,0.000885,0,0
0:2:6.274,480.639,27.1998,0,0.000885,0,0
0:2:6.681,482.516,27.3032,0,0.000885,0,0
0:2:7.077,484.042,27.3929,0,0.000885,0,0
0:2:7.468,485.804,27.4894,0,0.000885,0,0
0:2:7.871,487.854,27.6066,0,0.000885,0,0
0:2:8.269,489.322,27.6893,0,0.000885,0,0
0:2:8.665,490.964,27.7859,0,0.000885,0,0
0:2:9.069,492.605,27.8755,0,0.000885,0,0
0:2:9.474,494.776,27.9996,0,0.000885,0,0
0:2:9.877,496.537,28.0961,0,0.000885,0,0
0:2:10.277,498.472,28.2065,0,0.000885,0,0
0:2:10.677,500.407,28.3168,0,0.000885,0,0
0:2:11.081,502.636,28.4409,0,0.000885,0,0
0:2:11.476,503.868,28.5098,0,0.000885,0,0
0:2:11.870,505.389,28.5995,0,0.000885,0,0
0:2:12.267,507.035,28.6891,0,0.000885,0,0
0:2:12.683,508.619,28.7787,0,0.000885,0,0
0:2:13.076,510.496,28.889,0,0.000885,0,0
0:2:13.469,512.311,28.9925,0,0.000885,0,0
0:2:13.869,514.246,29.1028,0,0.000885,0,0
0:2:14.277,516.474,29.2269,0,0.000885,0,0
0:2:14.677,517.706,29.2958,0,0.000885,0,0
0:2:15.077,519.526,29.3992,0,0.000885,0,0
0:2:15.481,521.461,29.5096,0,0.000885,0,0
0:2:15.879,523.164,29.6061,0,0.000885,0,0
0:2:16.270,524.512,29.6819,0,0.000885,0,0
0:2:16.672,526.269,29.7785,0,0.000885,0,0
0:2:17.070,528.44,29.9026,0,0.000885,0,0
0:2:17.467,530.081,29.9991,0,0.000885,0,0
0:2:17.861,531.843,30.0956,0,0.000885,0,0
0:2:18.266,533.662,30.199,0,0.000885,0,0
0:2:18.679,534.952,30.2749,0,0.000885,0,0
0:2:19.080,537.238,30.399,0,0.000885,0,0
0:2:19.484,539,30.5024,0,0.000885,0,0
0:2:19.885,540.583,30.592,0,0.000885,0,0
0:2:20.285,542.341,30.6886,0,0.000885,0,0
0:2:20.682,544.04,30.7851,0,0.000885,0,0
0:2:21.081,545.45,30.8678,0,0.000885,0,0
0:2:21.485,547.914,31.0057,0,0.000885,0,0
0:2:21.878,549.498,31.0954,0,0.000885,0,0
0:2:22.270,551.139,31.185,0,0.000885,0,0
0:2:22.668,553.132,31.3022,0,0.000885,0,0
0:2:23.073,555.245,31.4194,0,0.000885,0,0
0:2:23.479,557.18,31.5297,0,0.000885,0,0
0:2:23.869,558.879,31.6263,0,0.000885,0,0
0:2:24.271,560.405,31.7159,0,0.000885,0,0
0:2:24.677,562.224,31.8124,0,0.000885,0,0
0:2:25.078,563.808,31.902,0,0.000885,0,0
0:2:25.477,565.449,31.9986,0,0.000885,0,0
0:2:25.870,567.09,32.0882,0,0.000885,0,0
0:2:26.268,569.025,32.1985,0,0.000885,0,0
0:2:26.664,570.493,32.2813,0,0.000885,0,0
0:2:27.067,572.428,32.3916,0,0.000885,0,0
0:2:27.460,574.248,32.495,0,0.000885,0,0
0:2:27.867,575.595,32.5708,0,0.000885,0,0
0:2:28.263,577.473,32.6811,0,0.000885,0,0
0:2:28.659,579.759,32.8053,0,0.000885,0,0
0:2:29.072,581.285,32.8949,0,0.000885,0,0
0:2:29.478,583.398,33.0121,0,0.000885,0,0
0:2:29.880,584.923,33.1017,0,0.000885,0,0
0:2:30.281,586.796,33.2052,0,0.000885,0,0
0:2:30.682,588.38,33.2948,0,0.000885,0,0
0:2:31.074,590.199,33.3982,0,0.000885,0,0
0:2:31.470,592.081,33.5016,0,0.000885,0,0
0:2:31.871,593.78,33.5982,0,0.000885,0,0
0:2:32.278,595.719,33.7085,0,0.000885,0,0
0:2:32.670,597.596,33.8188,0,0.000885,0,0
0:2:33.067,600.181,33.9636,0,0.000885,0,0
0:2:33.467,600.884,34.0049,0,0.000885,0,0
0:2:33.864,602.881,34.1153,0,0.000885,0,0
0:2:34.270,604.171,34.1911,0,0.000885,0,0
0:2:34.673,605.99,34.2945,0,0.000885,0,0
0:2:35.074,608.045,34.4117,0,0.000885,0,0
0:2:35.479,608.984,34.46,0,0.000885,0,0
0:2:35.874,611.217,34.591,0,0.000885,0,0
0:2:36.270,613.152,34.6944,0,0.000885,0,0
0:2:36.664,615.091,34.8047,0,0.000885,0,0
0:2:37.073,616.733,34.9013,0,0.000885,0,0
0:2:37.472,618.316,34.9909,0,0.000885,0,0
0:2:37.869,620.02,35.0874,0,0.000885,0,0
0:2:38.265,622.017,35.1977,0,0.000885,0,0
0:2:38.669,623.601,35.2874,0,0.000885,0,0
0:2:39.073,625.891,35.4184,0,0.000885,0,0
0:2:39.479,627.297,35.5011,0,0.000885,0,0
0:2:39.883,629.059,35.5976,0,0.000885,0,0
0:2:40.284,630.233,35.6666,0,0.000885,0,0
0:2:40.682,632.346,35.7838,0,0.000885,0,0
0:2:41.081,634.694,35.9148,0,0.000885,0,0
0:2:41.481,636.572,36.0251,0,0.000885,0,0
0:2:41.874,637.982,36.1009,0,0.000885,0,0
0:2:42.271,639.623,36.1975,0,0.000885,0,0
0:2:42.668,641.74,36.3147,0,0.000885,0,0
0:2:43.067,643.266,36.4043,0,0.000885,0,0
0:2:43.466,645.321,36.5146,0,0.000885,0,0
0:2:43.861,646.26,36.5698,0,0.000885,0,0
0:2:44.265,648.782,36.7146,0,0.000885,0,0
0:2:44.670,650.192,36.7904,0,0.000885,0,0
0:2:45.072,651.66,36.8732,0,0.000885,0,0
0:2:45.475,653.537,36.9835,0,0.000885,0,0
0:2:45.872,654.885,37.0593,0,0.000885,0,0
0:2:46.279,657.412,37.2041,0,0.000885,0,0
0:2:46.679,659.289,37.3075,0,0.000885,0,0
0:2:47.075,660.641,37.3834,0,0.000885,0,0
0:2:47.472,662.518,37.4937,0,0.000885,0,0
0:2:47.868,664.28,37.5902,0,0.000885,0,0
0:2:48.274,666.508,37.7143,0,0.000885,0,0
0:2:48.674,668.448,37.8246,0,0.000885,0,0
0:2:49.071,669.973,37.9143,0,0.000885,0,0
0:2:49.479,671.793,38.0177,0,0.000885,0,0
0:2:49.882,672.909,38.0797,0,0.000885,0,0
0:2:50.285,675.022,38.197,0,0.000885,0,0
0:2:50.685,676.606,38.2866,0,0.000885,0,0
0:2:51.084,678.309,38.3831,0,0.000885,0,0
0:2:51.481,680.302,38.5003,0,0.000885,0,0
0:2:51.875,682.184,38.6037,0,0.000885,0,0
0:2:52.272,684.061,38.7072,0,0.000885,0,0
0:2:52.672,686.174,38.8313,0,0.000885,0,0
0:2:53.080,687.642,38.914,0,0.000885,0,0
0:2:53.474,689.519,39.0174,0,0.000885,0,0
0:2:53.869,690.929,39.1002,0,0.000885,0,0
0:2:54.271,692.339,39.176,0,0.000885,0,0
0:2:54.676,693.865,39.2656,0,0.000885,0,0
0:2:55.081,696.445,39.4104,0,0.000885,0,0
0:2:55.483,697.677,39.4794,0,0.000885,0,0
0:2:55.881,699.79,39.6035,0,0.000885,0,0
0:2:56.281,701.493,39.6931,0,0.000885,0,0
0:2:56.688,703.255,39.7965,0,0.000885,0,0
0:2:57.083,705.074,39.9,0,0.000885,0,0
0:2:57.480,707.072,40.0103,0,0.000885,0,0
0:2:57.876,708.188,40.0723,0,0.000885,0,0
0:2:58.275,710.359,40.1964,0,0.000885,0,0
0:2:58.672,712.294,40.3068,0,0.000885,0,0
0:2:59.067,713.997,40.4033,0,0.000885,0,0
0:2:59.471,715.639,40.4998,0,0.000885,0,0
0:2:59.875,717.872,40.6239,0,0.000885,0,0
0:3:0.282,719.513,40.7135,0,0.000885,0,0
0:3:0.684,721.217,40.8101,0,0.000885,0,0
0:3:1.081,722.569,40.8859,0,0.000885,0,0
0:3:1.477,724.62,41.0031,0,0.000885,0,0
0:3:1.875,726.559,41.1134,0,0.000885,0,0
0:3:2.273,728.436,41.2238,0,0.000885,0,0
0:3:2.683,730.727,41.3479,0,0.000885,0,0
0:3:3.075,731.43,41.3892,0,0.000885,0,0
0:3:3.472,733.134,41.4858,0,0.000885,0,0
0:3:3.875,734.953,41.5892,0,0.000885,0,0
0:3:4.282,736.657,41.6857,0,0.000885,0,0
0:3:4.685,738.476,41.7891,0,0.000885,0,0
0:3:5.086,740.411,41.8994,0,0.000885,0,0
0:3:5.485,742.466,42.0167,0,0.000885,0,0
0:3:5.886,743.756,42.0856,0,0.000885,0,0
0:3:6.281,745.753,42.2028,0,0.000885,0,0
0:3:6.684,747.515,42.2993,0,0.000885,0,0
0:3:7.083,749.334,42.4028,0,0.000885,0,0
0:3:7.482,751.389,42.52,0,0.000885,0,0
0:3:7.876,752.915,42.6096,0,0.000885,0,0
0:3:8.283,754.031,42.6717,0,0.000885,0,0
0:3:8.677,756.496,42.8095,0,0.000885,0,0
0:3:9.082,758.315,42.913,0,0.000885,0,0
0:3:9.487,760.25,43.0233,0,0.000885,0,0
0:3:9.890,761.718,43.106,0,0.000885,0,0
0:3:10.291,763.128,43.1819,0,0.000885,0,0
0:3:10.691,765.067,43.2922,0,0.000885,0,0
0:3:11.091,766.945,43.4025,0,0.000885,0,0
0:3:11.488,769,43.5197,0,0.000885,0,0
0:3:11.882,770.699,43.6093,0,0.000885,0,0
0:3:12.277,772.167,43.699,0,0.000885,0,0
0:3:12.675,773.813,43.7886,0,0.000885,0,0
0:3:13.084,775.805,43.8989,0,0.000885,0,0
0:3:13.478,777.625,44.0023,0,0.000885,0,0
0:3:13.874,779.564,44.1127,0,0.000885,0,0
0:3:14.275,780.854,44.1885,0,0.000885,0,0
0:3:14.684,782.558,44.285,0,0.000885,0,0
0:3:15.087,783.968,44.3609,0,0.000885,0,0
0:3:15.489,786.196,44.4919,0,0.000885,0,0
0:3:15.886,788.074,44.5953,0,0.000885,0,0
0:3:16.284,789.955,44.7056,0,0.000885,0,0
0:3:16.684,791.775,44.8021,0,0.000885,0,0
0:3:17.089,793.474,44.8987,0,0.000885,0,0
0:3:17.485,795.355,45.009,0,0.000885,0,0
0:3:17.882,796.939,45.0986,0,0.000885,0,0
0:3:18.281,798.643,45.1951,0,0.000885,0,0
0:3:18.676,800.404,45.2917,0,0.000885,0,0
0:3:19.071,802.868,45.4365,0,0.000885,0,0
0:3:19.476,804.216,45.5123,0,0.000885,0,0
0:3:19.879,806.156,45.6157,0,0.000885,0,0
0:3:20.283,807.624,45.7053,0,0.000885,0,0
0:3:20.685,809.679,45.8157,0,0.000885,0,0
0:3:21.079,811.204,45.9053,0,0.000885,0,0
0:3:21.489,813.024,46.0087,0,0.000885,0,0
0:3:21.887,814.198,46.0708,0,0.000885,0,0
0:3:22.284,816.311,46.1949,0,0.000885,0,0
0:3:22.678,818.01,46.2914,0,0.000885,0,0
0:3:23.074,820.123,46.4086,0,0.000885,0,0
0:3:23.483,822.062,46.5189,0,0.000885,0,0
0:3:23.883,823.117,46.581,0,0.000885,0,0
0:3:24.287,824.94,46.6844,0,0.000885,0,0
0:3:24.691,827.169,46.8085,0,0.000885,0,0
0:3:25.093,828.286,46.8706,0,0.000885,0,0
0:3:25.496,830.866,47.0153,0,0.000885,0,0
0:3:25.893,832.333,47.0981,0,0.000885,0,0
0:3:26.288,834.153,47.2015,0,0.000885,0,0
0:3:26.683,836.034,47.3118,0,0.000885,0,0
0:3:27.084,837.56,47.3946,0,0.000885,0,0
0:3:27.482,839.909,47.5256,0,0.000885,0,0
0:3:27.876,841.434,47.6152,0,0.000885,0,0
0:3:28.271,843.076,47.7117,0,0.000885,0,0
0:3:28.669,844.837,47.8082,0,0.000885,0,0
0:3:29.068,846.247,47.891,0,0.000885,0,0
0:3:29.473,848.827,48.0358,0,0.000885,0,0
0:3:29.876,850.473,48.1254,0,0.000885,0,0
0:3:30.278,852.177,48.2219,0,0.000885,0,0
0:3:30.679,853.409,48.2909,0,0.000885,0,0
0:3:31.076,854.877,48.3736,0,0.000885,0,0
0:3:31.473,856.634,48.477,0,0.000885,0,0
0:3:31.867,858.631,48.5874,0,0.000885,0,0
0:3:32.265,859.863,48.6563,0,0.000885,0,0
0:3:32.665,862.328,48.8011,0,0.000885,0,0
0:3:33.061,864.152,48.8976,0,0.000885,0,0
0:3:33.455,865.851,48.9941,0,0.000885,0,0
0:3:33.853,867.497,49.0907,0,0.000885,0,0
0:3:34.253,869.08,49.1803,0,0.000885,0,0
0:3:34.660,871.015,49.2906,0,0.000885,0,0
0:3:35.063,873.306,49.4216,0,0.000885,0,0
0:3:35.466,874.832,49.5044,0,0.000885,0,0
0:3:35.865,876.184,49.5802,0,0.000885,0,0
0:3:36.263,878.239,49.6974,0,0.000885,0,0
0:3:36.660,879.88,49.7939,0,0.000885,0,0
0:3:37.054,881.878,49.9043,0,0.000885,0,0
0:3:37.450,884.106,50.0284,0,0.000885,0,0
0:3:37.850,885.338,50.0973,0,0.000885,0,0
0:3:38.247,886.984,50.1938,0,0.000885,0,0
0:3:38.642,888.746,50.2904,0,0.000885,0,0
0:3:39.047,890.387,50.3869,0,0.000885,0,0
0:3:39.452,891.682,50.4558,0,0.000885,0,0
0:3:39.855,893.91,50.5868,0,0.000885,0,0
0:3:40.260,895.787,50.6903,0,0.000885,0,0
0:3:40.656,898.02,50.8144,0,0.000885,0,0
0:3:41.052,899.252,50.8902,0,0.000885,0,0
0:3:41.450,901.072,50.9936,0,0.000885,0,0
0:3:41.850,902.655,51.0833,0,0.000885,0,0
0:3:42.246,904.595,51.1867,0,0.000885,0,0
0:3:42.641,906.121,51.2763,0,0.000885,0,0
0:3:43.041,908.056,51.3866,0,0.000885,0,0
0:3:43.439,909.701,51.4763,0,0.000885,0,0
0:3:43.836,911.636,51.5866,0,0.000885,0,0
0:3:44.241,913.576,51.6969,0,0.000885,0,0
0:3:44.644,915.511,51.8072,0,0.000885,0,0
0:3:45.047,917.157,51.9037,0,0.000885,0,0
0:3:45.451,918.976,52.0003,0,0.000885,0,0
0:3:45.848,920.853,52.1106,0,0.000885,0,0
0:3:46.245,922.321,52.1933,0,0.000885,0,0
0:3:46.639,923.669,52.2692,0,0.000885,0,0
0:3:47.038,925.315,52.3588,0,0.000885,0,0
0:3:47.438,927.485,52.4829,0,0.000885,0,0
0:3:47.834,929.189,52.5794,0,0.000885,0,0
0:3:48.229,931.418,52.7104,0,0.000885,0,0
0:3:48.628,932.828,52.7863,0,0.000885,0,0
0:3:49.028,934.353,52.8759,0,0.000885,0,0
0:3:49.434,936.115,52.9724,0,0.000885,0,0
0:3:49.838,937.934,53.0758,0,0.000885,0,0
0:3:50.241,939.58,53.1724,0,0.000885,0,0
0:3:50.640,941.809,53.2965,0,0.000885,0,0
0:3:51.041,943.864,53.4137,0,0.000885,0,0
0:3:51.436,945.332,53.4964,0,0.000885,0,0
0:3:51.832,947.324,53.6067,0,0.000885,0,0
0:3:52.229,948.499,53.6757,0,0.000885,0,0
0:3:52.627,950.79,53.8067,0,0.000885,0,0
0:3:53.027,952.667,53.9101,0,0.000885,0,0
0:3:53.422,954.37,54.0066,0,0.000885,0,0
0:3:53.818,955.603,54.0756,0,0.000885,0,0
0:3:54.222,956.955,54.1514,0,0.000885,0,0
0:3:54.628,958.89,54.2617,0,0.000885,0,0
0:3:55.032,960.536,54.3583,0,0.000885,0,0
0:3:55.435,962.471,54.4617,0,0.000885,0,0
0:3:55.831,964.406,54.572,0,0.000885,0,0
0:3:56.229,966.051,54.6685,0,0.000885,0,0
0:3:56.629,967.871,54.772,0,0.000885,0,0
0:3:57.027,969.81,54.8823,0,0.000885,0,0
0:3:57.421,971.567,54.9788,0,0.000885,0,0
0:3:57.819,973.387,55.0822,0,0.000885,0,0
0:3:58.216,975.148,55.1787,0,0.000885,0,0
0:3:58.615,976.852,55.2753,0,0.000885,0,0
0:3:59.012,978.377,55.3649,0,0.000885,0,0
0:3:59.417,980.139,55.4614,0,0.000885,0,0
0:3:59.822,982.194,55.5786,0,0.000885,0,0
0:4:0.226,984.191,55.6958,0,0.000885,0,0
0:4:0.628,986.011,55.7993,0,0.000885,0,0
0:4:1.025,987.83,55.9027,0,0.000885,0,0
0:4:1.420,989.591,55.9992,0,0.000885,0,0
0:4:1.818,991.526,56.1095,0,0.000885,0,0
0:4:2.217,993.172,56.1992,0,0.000885,0,0
0:4:2.614,994.929,56.3026,0,0.000885,0,0
0:4:3.009,996.224,56.3715,0,0.000885,0,0
0:4:3.405,997.749,56.4612,0,0.000885,0,0
0:4:3.804,999.333,56.5508,0,0.000885,0,0
0:4:4.204,1001.27,56.6611,0,0.000885,0,0
0:4:4.610,1003.09,56.7645,0,0.000885,0,0
0:4:5.014,1005.08,56.8749,0,0.000885,0,0
0:4:5.416,1006.38,56.9507,0,0.000885,0,0
0:4:5.816,1008.31,57.061,0,0.000885,0,0
0:4:6.216,1010.25,57.1713,0,0.000885,0,0
0:4:6.612,1012.6,57.3023,0,0.000885,0,0
0:4:7.007,1014.13,57.3851,0,0.000885,0,0
0:4:7.406,1015.83,57.4816,0,0.000885,0,0
0:4:7.806,1017.71,57.5919,0,0.000885,0,0
0:4:8.202,1019.41,57.6884,0,0.000885,0,0
0:4:8.598,1021.11,57.785,0,0.000885,0,0
0:4:9.002,1023.17,57.9022,0,0.000885,0,0
0:4:9.406,1024.93,57.9987,0,0.000885,0,0
0:4:9.810,1026.51,58.0883,0,0.000885,0,0
0:4:10.214,1027.86,58.1642,0,0.000885,0,0
0:4:10.609,1029.62,58.2676,0,0.000885,0,0
0:4:11.008,1031.97,58.3986,0,0.000885,0,0
0:4:11.406,1033.55,58.4882,0,0.000885,0,0
0:4:11.802,1035.2,58.5779,0,0.000885,0,0
0:4:12.199,1036.67,58.6606,0,0.000885,0,0
0:4:12.594,1038.96,58.7916,0,0.000885,0,0
0:4:12.995,1040.48,58.8812,0,0.000885,0,0
0:4:13.392,1042.07,58.9709,0,0.000885,0,0
0:4:13.787,1043.94,59.0743,0,0.000885,0,0
0:4:14.190,1045.59,59.1708,0,0.000885,0,0
0:4:14.595,1047.7,59.288,0,0.000885,0,0
0:4:14.997,1049.4,59.3845,0,0.000885,0,0
0:4:15.400,1051.34,59.4949,0,0.000885,0,0
0:4:15.795,1053.1,59.5914,0,0.000885,0,0
0:4:16.194,1054.28,59.6603,0,0.000885,0,0
0:4:16.593,1056.56,59.7913,0,0.000885,0,0
0:4:16.990,1057.97,59.8672,0,0.000885,0,0
0:4:17.385,1059.62,59.9637,0,0.000885,0,0
0:4:17.780,1061.85,60.0878,0,0.000885,0,0
0:4:18.179,1063.37,60.1774,0,0.000885,0,0
0:4:18.589,1065.66,60.3015,0,0.000885,0,0
0:4:18.993,1066.84,60.3705,0,0.000885,0,0
0:4:19.398,1069.25,60.5084,0,0.000885,0,0
0:4:19.803,1070.42,60.5704,0,0.000885,0,0
0:4:20.206,1072.76,60.7083,0,0.000885,0,0
0:4:20.607,1074,60.7773,0,0.000885,0,0
0:4:21.003,1075.06,60.8324,0,0.000885,0,0
0:4:21.401,1077.88,60.9979,0,0.000885,0,0
0:4:21.800,1079.75,61.1013,0,0.000885,0,0
0:4:22.196,1080.87,61.1634,0,0.000885,0,0
0:4:22.595,1082.69,61.2668,0,0.000885,0,0
0:4:22.989,1084.33,61.3633,0,0.000885,0,0
0:4:23.385,1086.38,61.4737,0,0.000885,0,0
0:4:23.788,1087.56,61.5426,0,0.000885,0,0
0:4:24.195,1089.91,61.6736,0,0.000885,0,0
0:4:24.597,1091.9,61.7908,0,0.000885,0,0
0:4:25.000,1093.72,61.8942,0,0.000885,0,0
0:4:25.399,1095.19,61.977,0,0.000885,0,0
0:4:25.799,1097.07,62.0804,0,0.000885,0,0
0:4:26.194,1099.12,62.1976,0,0.000885,0,0
0:4:26.589,1100.65,62.2872,0,0.000885,0,0
0:4:26.986,1102,62.3631,0,0.000885,0,0
0:4:27.384,1104.52,62.501,0,0.000885,0,0
0:4:27.782,1106.46,62.6113,0,0.000885,0,0
0:4:28.177,1107.75,62.6871,0,0.000885,0,0
0:4:28.594,1109.45,62.7837,0,0.000885,0,0
0:4:28.996,1110.74,62.8526,0,0.000885,0,0
0:4:29.403,1112.62,62.9629,0,0.000885,0,0
0:4:29.806,1114.62,63.0732,0,0.000885,0,0
0:4:30.208,1116.09,63.156,0,0.000885,0,0
0:4:30.605,1117.73,63.2525,0,0.000885,0,0
0:4:31.005,1119.79,63.3697,0,0.000885,0,0
0:4:31.402,1121.78,63.48,0,0.000885,0,0
0:4:31.797,1123.66,63.5835,0,0.000885,0,0
0:4:32.192,1125.19,63.6731,0,0.000885,0,0
0:4:32.592,1126.53,63.7489,0,0.000885,0,0
0:4:32.991,1128.47,63.8592,0,0.000885,0,0
0:4:33.384,1130.06,63.9489,0,0.000885,0,0
0:4:33.779,1132.41,64.0799,0,0.000885,0,0
0:4:34.182,1134.46,64.1971,0,0.000885,0,0
0:4:34.590,1136.45,64.3074,0,0.000885,0,0
0:4:34.993,1137.98,64.397,0,0.000885,0,0
0:4:35.395,1139.68,64.4936,0,0.000885,0,0
0:4:35.791,1141.04,64.5694,0,0.000885,0,0
0:4:36.191,1142.79,64.6659,0,0.000885,0,0
0:4:36.590,1144.73,64.7762,0,0.000885,0,0
0:4:36.983,1146.61,64.8866,0,0.000885,0,0
0:4:37.378,1147.78,64.9486,0,0.000885,0,0
0:4:37.787,1150.02,65.0796,0,0.000885,0,0
0:4:38.197,1152.19,65.2037,0,0.000885,0,0
0:4:38.596,1153.3,65.2658,0,0.000885,0,0
0:4:38.990,1155.12,65.3692,0,0.000885,0,0
0:4:39.392,1156.65,65.4519,0,0.000885,0,0
0:4:39.798,1159.17,65.5967,0,0.000885,0,0
0:4:40.200,1160.93,65.6932,0,0.000885,0,0
0:4:40.604,1162.28,65.7691,0,0.000885,0,0
0:4:40.999,1163.87,65.8587,0,0.000885,0,0
0:4:41.398,1166.27,65.9966,0,0.000885,0,0
0:4:41.796,1167.62,66.0725,0,0.000885,0,0
0:4:42.192,1169.44,66.1759,0,0.000885,0,0
0:4:42.590,1170.97,66.2655,0,0.000885,0,0
0:4:42.984,1172.73,66.362,0,0.000885,0,0
0:4:43.382,1174.43,66.4586,0,0.000885,0,0
0:4:43.782,1176.08,66.5551,0,0.000885,0,0
0:4:44.187,1178.78,66.7068,0,0.000885,0,0
0:4:44.594,1180.18,66.7826,0,0.000885,0,0
0:4:44.996,1181.59,66.8654,0,0.000885,0,0
0:4:45.397,1183.65,66.9826,0,0.000885,0,0
0:4:45.794,1185.65,67.0929,0,0.000885,0,0
0:4:46.186,1187.76,67.2101,0,0.000885,0,0
0:4:46.582,1189.29,67.2997,0,0.000885,0,0
0:4:46.983,1190.46,67.3687,0,0.000885,0,0
0:4:47.392,1192.34,67.4721,0,0.000885,0,0
0:4:47.783,1193.39,67.5341,0,0.000885,0,0
0:4:48.180,1195.86,67.672,0,0.000885,0,0
0:4:48.579,1197.15,67.7479,0,0.000885,0,0
0:4:48.987,1199.26,67.8651,0,0.000885,0,0
0:4:49.394,1201.32,67.9823,0,0.000885,0,0
0:4:49.797,1202.43,68.0444,0,0.000885,0,0
0:4:50.200,1204.37,68.1547,0,0.000885,0,0
0:4:50.601,1206.72,68.2857,0,0.000885,0,0
0:4:50.999,1207.71,68.3408,0,0.000885,0,0
0:4:51.395,1210.3,68.4856,0,0.000885,0,0
0:4:51.791,1212.18,68.5959,0,0.000885,0,0
0:4:52.188,1214.35,68.72,0,0.000885,0,0
0:4:52.585,1215.29,68.7683,0,0.000885,0,0
0:4:52.993,1216.76,68.851,0,0.000885,0,0
0:4:53.388,1219.22,68.9958,0,0.000885,0,0
0:4:53.785,1220.63,69.0717,0,0.000885,0,0
0:4:54.185,1222.86,69.2027,0,0.000885,0,0
0:4:54.593,1224.44,69.2923,0,0.000885,0,0
0:4:54.997,1226.26,69.3957,0,0.000885,0,0
0:4:55.398,1227.79,69.4785,0,0.000885,0,0
0:4:55.796,1230.14,69.6095,0,0.000885,0,0
0:4:56.195,1231.78,69.706,0,0.000885,0,0
0:4:56.592,1233.43,69.7956,0,0.000885,0,0
0:4:56.985,1234.78,69.8715,0,0.000885,0,0
0:4:57.383,1236.36,69.9611,0,0.000885,0,0
0:4:57.782,1238.06,70.0576,0,0.000885,0,0
0:4:58.179,1240.24,70.1817,0,0.000885,0,0
0:4:58.575,1241.35,70.2438,0,0.000885,0,0
0:4:58.980,1243.52,70.3679,0,0.000885,0,0
0:4:59.385,1245.52,70.4851,0,0.000885,0,0
0:4:59.786,1247.16,70.5747,0,0.000885,0,0
0:5:0.189,1248.98,70.6782,0,0.000885,0,0
0:5:0.585,1250.51,70.7609,0,0.000885,0,0
0:5:0.981,1252.27,70.8643,0,0.000885,0,0
0:5:1.380,1254.5,70.9884,0,0.000885,0,0
0:5:1.788,1255.96,71.0712,0,0.000885,0,0
0:5:2.194,1257.73,71.1746,0,0.000885,0,0
0:5:2.589,1259.96,71.2987,0,0.000885,0,0
0:5:2.989,1261.25,71.3745,0,0.000885,0,0
0:5:3.387,1263.25,71.4848,0,0.000885,0,0
0:5:3.795,1265.07,71.5883,0,0.000885,0,0
0:5:4.201,1266.77,71.6848,0,0.000885,0,0
0:5:4.604,1268.59,71.7882,0,0.000885,0,0
0:5:5.006,1270.29,71.8847,0,0.000885,0,0
0:5:5.409,1272.17,71.9882,0,0.000885,0,0
0:5:5.802,1273.57,72.0709,0,0.000885,0,0
0:5:6.198,1275.87,72.2019,0,0.000885,0,0
0:5:6.597,1277.8,72.3122,0,0.000885,0,0
0:5:6.996,1278.62,72.3536,0,0.000885,0,0
0:5:7.389,1280.74,72.4777,0,0.000885,0,0
0:5:7.785,1282.32,72.5673,0,0.000885,0,0
0:5:8.182,1284.14,72.6707,0,0.000885,0,0
0:5:8.581,1286.02,72.7742,0,0.000885,0,0
0:5:8.979,1287.84,72.8776,0,0.000885,0,0
0:5:9.382,1289.37,72.9603,0,0.000885,0,0
0:5:9.786,1291.19,73.0637,0,0.000885,0,0
0:5:10.188,1293.36,73.1878,0,0.000885,0,0
0:5:10.594,1294.82,73.2706,0,0.000885,0,0
0:5:10.990,1296.64,73.374,0,0.000885,0,0
0:5:11.386,1298.46,73.4774,0,0.000885,0,0
0:5:11.781,1299.81,73.5533,0,0.000885,0,0
0:5:12.181,1302.4,73.6981,0,0.000885,0,0
0:5:12.581,1304.22,73.8015,0,0.000885,0,0
0:5:12.985,1306.27,73.9187,0,0.000885,0,0
0:5:13.394,1307.56,73.9945,0,0.000885,0,0
0:5:13.788,1308.91,74.0704,0,0.000885,0,0
0:5:14.190,1310.79,74.1738,0,0.000885,0,0
0:5:14.599,1312.61,74.2772,0,0.000885,0,0
0:5:15.001,1314.96,74.4082,0,0.000885,0,0
0:5:15.404,1316.66,74.5047,0,0.000885,0,0
0:5:15.803,1318.6,74.6151,0,0.000885,0,0
0:5:16.202,1319.71,74.6771,0,0.000885,0,0
0:5:16.600,1321.36,74.7736,0,0.000885,0,0
0:5:16.995,1323.18,74.8771,0,0.000885,0,0
0:5:17.388,1324.7,74.9598,0,0.000885,0,0
0:5:17.789,1326.64,75.0701,0,0.000885,0,0
0:5:18.187,1328.23,75.1597,0,0.000885,0,0
0:5:18.585,1329.99,75.2632,0,0.000885,0,0
0:5:18.989,1331.75,75.3597,0,0.000885,0,0
0:5:19.396,1333.68,75.47,0,0.000885,0,0
0:5:19.801,1335.39,75.5665,0,0.000885,0,0
0:5:20.203,1337.26,75.6769,0,0.000885,0,0
0:5:20.605,1338.5,75.7458,0,0.000885,0,0
0:5:21.003,1340.9,75.8768,0,0.000885,0,0
0:5:21.400,1342.37,75.9595,0,0.000885,0,0
0:5:21.800,1344.54,76.0836,0,0.000885,0,0
0:5:22.199,1346.48,76.194,0,0.000885,0,0
0:5:22.592,1348.24,76.2974,0,0.000885,0,0
0:5:22.987,1349.94,76.3939,0,0.000885,0,0
0:5:23.386,1351.59,76.4835,0,0.000885,0,0
0:5:23.784,1353.82,76.6076,0,0.000885,0,0
0:5:24.183,1354.47,76.649,0,0.000885,0,0
0:5:24.588,1355.7,76.718,0,0.000885,0,0
0:5:24.992,1358.22,76.8628,0,0.000885,0,0
0:5:25.396,1359.87,76.9524,0,0.000885,0,0
0:5:25.799,1361.98,77.0696,0,0.000885,0,0
0:5:26.195,1363.56,77.1592,0,0.000885,0,0
0:5:26.589,1365.62,77.2764,0,0.000885,0,0
0:5:26.995,1367.26,77.373,0,0.000885,0,0
0:5:27.396,1368.9,77.4626,0,0.000885,0,0
0:5:27.795,1370.78,77.5729,0,0.000885,0,0
0:5:28.188,1372.72,77.6832,0,0.000885,0,0
0:5:28.585,1374.36,77.7729,0,0.000885,0,0
0:5:28.987,1376.36,77.8832,0,0.000885,0,0
0:5:29.395,1377.71,77.959,0,0.000885,0,0
0:5:29.798,1379.76,78.0762,0,0.000885,0,0
0:5:30.200,1381.23,78.159,0,0.000885,0,0
0:5:30.596,1383.11,78.2693,0,0.000885,0,0
0:5:30.991,1384.93,78.3727,0,0.000885,0,0
0:5:31.392,1386.87,78.483,0,0.000885,0,0
0:5:31.790,1388.8,78.5933,0,0.000885,0,0
0:5:32.185,1390.21,78.6692,0,0.000885,0,0
0:5:32.581,1392.73,78.814,0,0.000885,0,0
0:5:32.980,1394.5,78.9105,0,0.000885,0,0
0:5:33.380,1395.32,78.9588,0,0.000885,0,0
0:5:33.777,1397.49,79.0829,0,0.000885,0,0
0:5:34.181,1399.13,79.1725,0,0.000885,0,0
0:5:34.585,1400.48,79.2483,0,0.000885,0,0
0:5:34.988,1402.54,79.3656,0,0.000885,0,0
0:5:35.390,1404.01,79.4483,0,0.000885,0,0
0:5:35.787,1405.94,79.5586,0,0.000885,0,0
0:5:36.191,1408,79.6758,0,0.000885,0,0
0:5:36.589,1409.99,79.7861,0,0.000885,0,0
0:5:36.989,1411.52,79.8758,0,0.000885,0,0
0:5:37.386,1413.28,79.9723,0,0.000885,0,0
0:5:37.781,1415.16,80.0826,0,0.000885,0,0
0:5:38.179,1416.51,80.1584,0,0.000885,0,0
0:5:38.576,1418.44,80.2688,0,0.000885,0,0
0:5:38.975,1420.68,80.3929,0,0.000885,0,0
0:5:39.380,1422.15,80.4756,0,0.000885,0,0
0:5:39.784,1424.26,80.5997,0,0.000885,0,0
0:5:40.185,1425.9,80.6893,0,0.000885,0,0
0:5:40.585,1427.84,80.7997,0,0.000885,0,0
0:5:40.982,1429.07,80.8686,0,0.000885,0,0
0:5:41.380,1431.24,80.9927,0,0.000885,0,0
0:5:41.783,1432.89,81.0823,0,0.000885,0,0
0:5:42.182,1435.47,81.234,0,0.000885,0,0
0:5:42.582,1436.23,81.2754,0,0.000885,0,0
0:5:42.978,1437.29,81.3306,0,0.000885,0,0
0:5:43.373,1439.99,81.4891,0,0.000885,0,0
0:5:43.770,1441.34,81.565,0,0.000885,0,0
0:5:44.171,1443.22,81.6684,0,0.000885,0,0
0:5:44.576,1444.98,81.7718,0,0.000885,0,0
0:5:44.979,1446.62,81.8615,0,0.000885,0,0
0:5:45.382,1448.38,81.9649,0,0.000885,0,0
0:5:45.781,1450.26,82.0683,0,0.000885,0,0
0:5:46.181,1451.79,82.151,0,0.000885,0,0
0:5:46.577,1453.31,82.2407,0,0.000885,0,0
0:5:46.972,1455.72,82.3786,0,0.000885,0,0
0:5:47.370,1457.78,82.4958,0,0.000885,0,0
0:5:47.769,1459.47,82.5923,0,0.000885,0,0
0:5:48.165,1461.29,82.6957,0,0.000885,0,0
0:5:48.563,1463.12,82.7922,0,0.000885,0,0
0:5:48.967,1464.87,82.8957,0,0.000885,0,0
0:5:49.373,1466.52,82.9853,0,0.000885,0,0
0:5:49.775,1468.1,83.0749,0,0.000885,0,0
0:5:50.178,1469.75,83.1715,0,0.000885,0,0
0:5:50.583,1471.33,83.2611,0,0.000885,0,0
0:5:50.980,1473.56,83.3852,0,0.000885,0,0
0:5:51.389,1475.32,83.4886,0,0.000885,0,0
0:5:51.798,1477.5,83.6058,0,0.000885,0,0
0:5:52.191,1478.55,83.6679,0,0.000885,0,0
0:5:52.586,1480.38,83.7713,0,0.000885,0,0
0:5:52.985,1482.38,83.8885,0,0.000885,0,0
0:5:53.384,1483.79,83.9644,0,0.000885,0,0
0:5:53.780,1485.97,84.0885,0,0.000885,0,0
0:5:54.183,1487.56,84.1781,0,0.000885,0,0
0:5:54.587,1489.45,84.2884,0,0.000885,0,0
0:5:54.989,1491.39,84.3987,0,0.000885,0,0
0:5:55.391,1492.45,84.4539,0,0.000885,0,0
0:5:55.788,1494.39,84.5642,0,0.000885,0,0
0:5:56.193,1496.1,84.6607,0,0.000885,0,0
0:5:56.592,1497.87,84.7641,0,0.000885,0,0
0:5:56.991,1499.75,84.8676,0,0.000885,0,0
0:5:57.399,1501.58,84.971,0,0.000885,0,0
0:5:57.803,1503.69,85.0951,0,0.000885,0,0
0:5:58.200,1505.52,85.1985,0,0.000885,0,0
0:5:58.598,1507.46,85.3019,0,0.000885,0,0
0:5:58.995,1508.88,85.3847,0,0.000885,0,0
0:5:59.401,1510.82,85.495,0,0.000885,0,0
0:5:59.805,1512.53,85.5915,0,0.000885,0,0
0:6:0.207,1514.29,85.6949,0,0.000885,0,0
0:6:0.609,1516.59,85.819,0,0.000885,0,0
0:6:1.006,1518.06,85.9018,0,0.000885,0,0
0:6:1.402,1519.65,85.9914,0,0.000885,0,0
0:6:1.796,1520.54,86.0466,0,0.000885,0,0
0:6:2.199,1522.72,86.1707,0,0.000885,0,0
0:6:2.606,1524.66,86.281,0,0.000885,0,0
0:6:3.000,1526.3,86.3706,0,0.000885,0,0
0:6:3.394,1528.01,86.4672,0,0.000885,0,0
0:6:3.792,1529.96,86.5775,0,0.000885,0,0
0:6:4.191,1531.49,86.6671,0,0.000885,0,0
0:6:4.599,1533.2,86.7636,0,0.000885,0,0
0:6:5.002,1535.55,86.8946,0,0.000885,0,0
0:6:5.405,1537.2,86.9912,0,0.000885,0,0
0:6:5.805,1538.85,87.0808,0,0.000885,0,0
0:6:6.202,1540.56,87.1773,0,0.000885,0,0
0:6:6.595,1542.38,87.2807,0,0.000885,0,0
0:6:6.991,1544.03,87.3773,0,0.000885,0,0
0:6:7.388,1545.85,87.4807,0,0.000885,0,0
0:6:7.789,1547.98,87.5979,0,0.000885,0,0
0:6:8.193,1549.74,87.6944,0,0.000885,0,0
0:6:8.588,1551.27,87.784,0,0.000885,0,0
0:6:8.992,1553.04,87.8875,0,0.000885,0,0
0:6:9.396,1554.51,87.9702,0,0.000885,0,0
0:6:9.801,1556.63,88.0874,0,0.000885,0,0
0:6:10.205,1558.58,88.1977,0,0.000885,0,0
0:6:10.600,1560.52,88.3081,0,0.000885,0,0
0:6:10.997,1562.28,88.4046,0,0.000885,0,0
0:6:11.394,1563.29,88.4666,0,0.000885,0,0
0:6:11.790,1565.52,88.5907,0,0.000885,0,0
0:6:12.187,1566.93,88.6735,0,0.000885,0,0
0:6:12.582,1568.06,88.7355,0,0.000885,0,0
0:6:12.982,1570.47,88.8734,0,0.000885,0,0
0:6:13.381,1572.3,88.9768,0,0.000885,0,0
0:6:13.796,1573.95,89.0665,0,0.000885,0,0
0:6:14.200,1576.18,89.1906,0,0.000885,0,0
0:6:14.603,1577.36,89.2595,0,0.000885,0,0
0:6:15.005,1579.19,89.3629,0,0.000885,0,0
0:6:15.407,1581.07,89.4733,0,0.000885,0,0
0:6:15.803,1582.78,89.5698,0,0.000885,0,0
0:6:16.197,1584.6,89.6732,0,0.000885,0,0
0:6:16.593,1586.96,89.8042,0,0.000885,0,0
0:6:16.991,1588.31,89.8801,0,0.000885,0,0
0:6:17.390,1590.25,89.9904,0,0.000885,0,0
0:6:17.795,1592.49,90.1145,0,0.000885,0,0
0:6:18.191,1594.2,90.211,0,0.000885,0,0
0:6:18.588,1595.67,90.2937,0,0.000885,0,0
0:6:18.987,1597.03,90.3765,0,0.000885,0,0
0:6:19.393,1598.91,90.4799,0,0.000885,0,0
0:6:19.796,1600.5,90.5695,0,0.000885,0,0
0:6:20.197,1602.68,90.6936,0,0.000885,0,0
0:6:20.596,1604.03,90.7695,0,0.000885,0,0
0:6:20.994,1605.62,90.8591,0,0.000885,0,0
0:6:21.391,1607.62,90.9763,0,0.000885,0,0
0:6:21.794,1609.51,91.0797,0,0.000885,0,0
0:6:22.190,1611.51,91.1901,0,0.000885,0,0
0:6:22.590,1612.93,91.2728,0,0.000885,0,0
0:6:22.989,1614.93,91.3831,0,0.000885,0,0
0:6:23.385,1616.34,91.4659,0,0.000885,0,0
0:6:23.789,1618.17,91.5693,0,0.000885,0,0
0:6:24.191,1619.75,91.6589,0,0.000885,0,0
0:6:24.597,1621.64,91.7692,0,0.000885,0,0
0:6:25.001,1623.52,91.8726,0,0.000885,0,0
0:6:25.404,1625.23,91.9692,0,0.000885,0,0
0:6:25.797,1627.11,92.0726,0,0.000885,0,0
0:6:26.195,1628.94,92.176,0,0.000885,0,0
0:6:26.593,1630.41,92.2656,0,0.000885,0,0
0:6:26.992,1632.59,92.3829,0,0.000885,0,0
0:6:27.386,1634.3,92.4794,0,0.000885,0,0
0:6:27.781,1636.54,92.6104,0,0.000885,0,0
0:6:28.181,1637.77,92.6793,0,0.000885,0,0
0:6:28.579,1640.01,92.8034,0,0.000885,0,0
0:6:28.986,1641.42,92.8862,0,0.000885,0,0
0:6:29.391,1643.01,92.9758,0,0.000885,0,0
0:6:29.794,1644.9,93.0792,0,0.000885,0,0
0:6:30.197,1646.07,93.1482,0,0.000885,0,0
0:6:30.603,1648.02,93.2585,0,0.000885,0,0
0:6:30.997,1649.73,93.355,0,0.000885,0,0
0:6:31.392,1651.78,93.4722,0,0.000885,0,0
0:6:31.790,1653.56,93.5688,0,0.000885,0,0
0:6:32.190,1655.67,93.6929,0,0.000885,0,0
0:6:32.589,1657.14,93.7756,0,0.000885,0,0
0:6:32.984,1658.91,93.8721,0,0.000885,0,0
0:6:33.380,1660.8,93.9824,0,0.000885,0,0
0:6:33.786,1662.38,94.0721,0,0.000885,0,0
0:6:34.185,1664.04,94.1617,0,0.000885,0,0
0:6:34.591,1666.15,94.2858,0,0.000885,0,0
0:6:34.995,1667.98,94.3892,0,0.000885,0,0
0:6:35.396,1669.33,94.4651,0,0.000885,0,0
0:6:35.797,1671.28,94.5754,0,0.000885,0,0
0:6:36.196,1673.1,94.6788,0,0.000885,0,0
0:6:36.594,1675.28,94.8029,0,0.000885,0,0
0:6:36.989,1676.87,94.8925,0,0.000885,0,0
0:6:37.386,1678.52,94.9822,0,0.000885,0,0
0:6:37.785,1680.88,95.1201,0,0.000885,0,0
0:6:38.182,1681.58,95.1614,0,0.000885,0,0
0:6:38.577,1683.47,95.2649,0,0.000885,0,0
0:6:38.982,1685.41,95.3752,0,0.000885,0,0
0:6:39.386,1687.12,95.4717,0,0.000885,0,0
0:6:39.789,1689,95.5751,0,0.000885,0,0
0:6:40.190,1690.59,95.6648,0,0.000885,0,0
0:6:40.586,1692.65,95.782,0,0.000885,0,0
0:6:41.003,1694.01,95.8578,0,0.000885,0,0
0:6:41.403,1696.07,95.975,0,0.000885,0,0
0:6:41.799,1697.65,96.0647,0,0.000885,0,0
0:6:42.193,1699.42,96.1681,0,0.000885,0,0
0:6:42.589,1701.48,96.2853,0,0.000885,0,0
0:6:42.989,1703.43,96.3956,0,0.000885,0,0
0:6:43.386,1704.9,96.4783,0,0.000885,0,0
0:6:43.782,1706.84,96.5887,0,0.000885,0,0
0:6:44.186,1708.67,96.6921,0,0.000885,0,0
0:6:44.591,1710.43,96.7886,0,0.000885,0,0
0:6:44.994,1711.91,96.8713,0,0.000885,0,0
0:6:45.396,1713.62,96.9679,0,0.000885,0,0
0:6:45.792,1716.03,97.1058,0,0.000885,0,0
0:6:46.197,1717.26,97.1747,0,0.000885,0,0
0:6:46.607,1719.15,97.285,0,0.000885,0,0
0:6:47.006,1721.33,97.4091,0,0.000885,0,0
0:6:47.400,1722.86,97.4919,0,0.000885,0,0
0:6:47.794,1724.86,97.6091,0,0.000885,0,0
0:6:48.193,1725.8,97.6573,0,0.000885,0,0
0:6:48.591,1727.45,97.7539,0,0.000885,0,0
0:6:48.987,1729.51,97.8711,0,0.000885,0,0
0:6:49.392,1730.75,97.94,0,0.000885,0,0
0:6:49.796,1732.99,98.0641,0,0.000885,0,0
0:6:50.196,1735.05,98.1813,0,0.000885,0,0
0:6:50.599,1736.93,98.2917,0,0.000885,0,0
0:6:50.995,1738.23,98.3606,0,0.000885,0,0
0:6:51.391,1740.11,98.4709,0,0.000885,0,0
0:6:51.798,1742.05,98.5812,0,0.000885,0,0
0:6:52.196,1743.41,98.6571,0,0.000885,0,0
0:6:52.594,1745.29,98.7605,0,0.000885,0,0
0:6:52.989,1747.12,98.8639,0,0.000885,0,0
0:6:53.387,1749.12,98.9811,0,0.000885,0,0
0:6:53.794,1751.24,99.0983,0,0.000885,0,0
0:6:54.193,1752.71,99.1811,0,0.000885,0,0
0:6:54.597,1754.6,99.2914,0,0.000885,0,0
0:6:55.002,1756.48,99.3948,0,0.000885,0,0
0:6:55.406,1758.25,99.4982,0,0.000885,0,0
0:6:55.808,1759.49,99.5672,0,0.000885,0,0
0:6:56.205,1761.42,99.6775,0,0.000885,0,0
0:6:56.599,1763.07,99.7671,0,0.000885,0,0
0:6:57.006,1765.2,99.8912,0,0.000885,0,0
0:6:57.404,1767.08,99.9947,0,0.000885,0,0
0:6:57.802,1768.55,100.077,0,0.000885,0,0
0:6:58.195,1769.85,100.153,0,0.000885,0,0
0:6:58.592,1772.32,100.291,0,0.000885,0,0
0:6:58.996,1773.73,100.374,0,0.000885,0,0
0:6:59.401,1775.56,100.477,0,0.000885,0,0
0:6:59.807,1777.8,100.601,0,0.000885,0,0
0:7:0.210,1779.21,100.684,0,0.000885,0,0
0:7:0.605,1781.09,100.788,0,0.000885,0,0
0:7:1.005,1782.62,100.877,0,0.000885,0,0
0:7:1.401,1784.51,100.981,0,0.000885,0,0
0:7:1.796,1786.21,101.077,0,0.000885,0,0
0:7:2.191,1787.75,101.167,0,0.000885,0,0
0:7:2.590,1789.87,101.284,0,0.000885,0,0
0:7:2.989,1791.69,101.387,0,0.000885,0,0
0:7:3.395,1793.46,101.491,0,0.000885,0,0
0:7:3.810,1795.34,101.594,0,0.000885,0,0
0:7:4.215,1796.81,101.677,0,0.000885,0,0
0:7:4.620,1798.58,101.78,0,0.000885,0,0
0:7:5.024,1800.41,101.884,0,0.000885,0,0
0:7:5.426,1801.82,101.96,0,0.000885,0,0
0:7:5.821,1803.76,102.07,0,0.000885,0,0
0:7:6.220,1805.65,102.18,0,0.000885,0,0
0:7:6.620,1808.06,102.318,0,0.000885,0,0
0:7:7.016,1809.83,102.415,0,0.000885,0,0
0:7:7.412,1811.3,102.497,0,0.000885,0,0
0:7:7.807,1812.48,102.566,0,0.000885,0,0
0:7:8.207,1814.48,102.677,0,0.000885,0,0
0:7:8.607,1816.42,102.787,0,0.000885,0,0
0:7:9.000,1818.07,102.884,0,0.000885,0,0
0:7:9.403,1819.6,102.966,0,0.000885,0,0
0:7:9.809,1821.55,103.077,0,0.000885,0,0
0:7:10.211,1823.43,103.187,0,0.000885,0,0
0:7:10.614,1825.2,103.283,0,0.000885,0,0
0:7:11.009,1826.84,103.38,0,0.000885,0,0
0:7:11.406,1828.2,103.456,0,0.000885,0,0
0:7:11.803,1830.03,103.559,0,0.000885,0,0
0:7:12.202,1832.2,103.683,0,0.000885,0,0
0:7:12.597,1834.21,103.794,0,0.000885,0,0
0:7:13.002,1835.91,103.89,0,0.000885,0,0
0:7:13.401,1837.27,103.966,0,0.000885,0,0
0:7:13.812,1839.68,104.104,0,0.000885,0,0
0:7:14.217,1840.98,104.18,0,0.000885,0,0
0:7:14.621,1842.92,104.29,0,0.000885,0,0
0:7:15.024,1845.1,104.414,0,0.000885,0,0
0:7:15.424,1846.87,104.511,0,0.000885,0,0
0:7:15.824,1848.45,104.6,0,0.000885,0,0
0:7:16.218,1849.63,104.669,0,0.000885,0,0
0:7:16.613,1851.87,104.793,0,0.000885,0,0
0:7:17.012,1853.7,104.897,0,0.000885,0,0
0:7:17.411,1854.87,104.966,0,0.000885,0,0
0:7:17.808,1856.7,105.069,0,0.000885,0,0
0:7:18.200,1858.52,105.173,0,0.000885,0,0
0:7:18.609,1860.18,105.262,0,0.000885,0,0
0:7:19.011,1862.23,105.379,0,0.000885,0,0
0:7:19.417,1863.82,105.469,0,0.000885,0,0
0:7:19.820,1865.53,105.566,0,0.000885,0,0
0:7:20.223,1867.77,105.697,0,0.000885,0,0
0:7:20.621,1869.71,105.807,0,0.000885,0,0
0:7:21.021,1870.89,105.869,0,0.000885,0,0
0:7:21.418,1872.54,105.966,0,0.000885,0,0
0:7:21.811,1874.66,106.083,0,0.000885,0,0
0:7:22.209,1876.48,106.186,0,0.000885,0,0
0:7:22.608,1878.13,106.283,0,0.000885,0,0
0:7:23.003,1879.84,106.379,0,0.000885,0,0
0:7:23.400,1882.14,106.51,0,0.000885,0,0
0:7:23.795,1883.55,106.586,0,0.000885,0,0
0:7:24.195,1885.67,106.71,0,0.000885,0,0
0:7:24.601,1887.08,106.786,0,0.000885,0,0
0:7:25.004,1888.85,106.889,0,0.000885,0,0
0:7:25.407,1890.61,106.986,0,0.000885,0,0
0:7:25.804,1892.5,107.096,0,0.000885,0,0
0:7:26.203,1893.68,107.158,0,0.000885,0,0
0:7:26.601,1895.5,107.262,0,0.000885,0,0
0:7:26.996,1897.03,107.351,0,0.000885,0,0
0:7:27.392,1899.15,107.469,0,0.000885,0,0
0:7:27.791,1900.51,107.544,0,0.000885,0,0
0:7:28.198,1903.39,107.71,0,0.000885,0,0
0:7:28.594,1904.75,107.786,0,0.000885,0,0
0:7:28.990,1906.34,107.875,0,0.000885,0,0
0:7:29.392,1907.98,107.972,0,0.000885,0,0
0:7:29.797,1909.99,108.082,0,0.000885,0,0
0:7:30.201,1911.81,108.186,0,0.000885,0,0
0:7:30.604,1913.46,108.282,0,0.000885,0,0
0:7:31.001,1915.05,108.372,0,0.000885,0,0
0:7:31.399,1917.17,108.489,0,0.000885,0,0
0:7:31.800,1918.88,108.586,0,0.000885,0,0
0:7:32.216,1920.76,108.696,0,0.000885,0,0
0:7:32.613,1922.65,108.799,0,0.000885,0,0
0:7:33.010,1923.65,108.854,0,0.000885,0,0
0:7:33.409,1925.42,108.958,0,0.000885,0,0
0:7:33.805,1927.42,109.068,0,0.000885,0,0
0:7:34.213,1929.6,109.192,0,0.000885,0,0
0:7:34.616,1929.54,109.192,0,0.000885,0,0
0:7:35.018,1858.64,105.18,0,0.000885,0,0
0:7:35.418,1821.13,103.056,0,0.000885,0,0
0:7:35.814,1661.56,94.0238,0,0.000885,0,0
0:7:35.944,1626.7,92.0519,0,0.000885,0,0