File: DataFile2021-06-07_081649.csv
Test ID:,Date Tested:,Time:,Test Type:,Diameter Avg. (mm):,Cyl. Corr. Factor:,Height (mm):,Age (days):,Weight (kN):,Break Type:,Ramp Rate (MPa/s):,Load at Break (kN):,Stress at Break (MPa):
12,6/7/2021,08:16,Cylinder,100,1,200,0,3.6,3,0.25,503.4,64.09
Sample Time,Load (kN),Stress (MPa),Long. Strain,Trans. Strain,Chan1 Deflection (mm),Chan2 Deflection (mm)
0:0:18.876,8.3849,1.06869,0,0.000885,0,0
0:0:19.181,13.6649,1.73748,0,0.000885,0,0
0:0:19.494,13.4915,1.71679,0,0.000885,0,0
0:0:19.799,13.0199,1.65474,0,0.000885,0,0
0:0:20.098,12.6685,1.61337,0,0.000885,0,0
0:0:20.394,12.7842,1.62716,0,0.000885,0,0
0:0:20.700,12.375,1.5789,0,0.000885,0,0
0:0:21.000,12.0235,1.53064,0,0.000885,0,0
0:0:21.292,12.4328,1.58579,0,0.000885,0,0
0:0:21.593,12.0814,1.53753,0,0.000885,0,0
0:0:21.900,12.0814,1.53753,0,0.000885,0,0
0:0:22.197,11.9079,1.51685,0,0.000885,0,0
0:0:22.497,12.1392,1.54443,0,0.000885,0,0
0:0:22.801,12.1392,1.54443,0,0.000885,0,0
0:0:23.102,12.6107,1.60648,0,0.000885,0,0
0:0:23.396,13.2557,1.68922,0,0.000885,0,0
0:0:23.694,13.5493,1.72369,0,0.000885,0,0
0:0:23.994,13.9585,1.77885,0,0.000885,0,0
0:0:24.298,14.5457,1.85469,0,0.000885,0,0
0:0:24.603,15.6577,1.99258,0,0.000885,0,0
0:0:24.906,16.7742,2.13737,0,0.000885,0,0
0:0:25.208,17.5972,2.2408,0,0.000885,0,0
0:0:25.512,18.1799,2.31664,0,0.000885,0,0
0:0:25.808,18.767,2.39248,0,0.000885,0,0
0:0:26.108,19.4699,2.48211,0,0.000885,0,0
0:0:26.405,20.702,2.6338,0,0.000885,0,0
0:0:26.706,21.1157,2.68896,0,0.000885,0,0
0:0:27.001,21.6406,2.7579,0,0.000885,0,0
0:0:27.300,22.2278,2.82685,0,0.000885,0,0
0:0:27.600,22.7571,2.8958,0,0.000885,0,0
0:0:27.896,23.4599,2.98543,0,0.000885,0,0
0:0:28.198,23.6957,3.0199,0,0.000885,0,0
0:0:28.494,23.7535,3.0268,0,0.000885,0,0
0:0:28.795,24.3407,3.09575,0,0.000885,0,0
0:0:29.101,25.1591,3.20606,0,0.000885,0,0
0:0:29.405,25.9242,3.30259,0,0.000885,0,0
0:0:29.711,26.5692,3.38533,0,0.000885,0,0
0:0:30.012,26.8628,3.4198,0,0.000885,0,0
0:0:30.316,27.6813,3.52322,0,0.000885,0,0
0:0:30.618,28.2106,3.59217,0,0.000885,0,0
0:0:30.917,28.74,3.66112,0,0.000885,0,0
0:0:31.217,29.3271,3.73696,0,0.000885,0,0
0:0:31.514,29.5584,3.76454,0,0.000885,0,0
0:0:31.815,30.9685,3.9438,0,0.000885,0,0
0:0:32.110,31.0263,3.9507,0,0.000885,0,0
0:0:32.411,31.7292,4.04033,0,0.000885,0,0
0:0:32.708,32.3742,4.12306,0,0.000885,0,0
0:0:33.005,32.5521,4.14375,0,0.000885,0,0
0:0:33.306,34.0156,4.32991,0,0.000885,0,0
0:0:33.601,34.6605,4.41264,0,0.000885,0,0
0:0:33.904,34.8385,4.43333,0,0.000885,0,0
0:0:34.198,35.1899,4.48159,0,0.000885,0,0
0:0:34.500,35.5413,4.52296,0,0.000885,0,0
0:0:34.807,37.0092,4.70912,0,0.000885,0,0
0:0:35.111,37.6542,4.79186,0,0.000885,0,0
0:0:35.414,38.0634,4.84701,0,0.000885,0,0
0:0:35.715,38.1213,4.85391,0,0.000885,0,0
0:0:36.018,38.7084,4.92975,0,0.000885,0,0
0:0:36.316,39.4735,5.02628,0,0.000885,0,0
0:0:36.614,39.647,5.04696,0,0.000885,0,0
0:0:36.914,40.4699,5.15038,0,0.000885,0,0
0:0:37.210,41.2884,5.25381,0,0.000885,0,0
0:0:37.511,41.6398,5.30207,0,0.000885,0,0
0:0:37.808,42.4049,5.39859,0,0.000885,0,0
0:0:38.108,42.8141,5.45375,0,0.000885,0,0
0:0:38.407,43.0499,5.48133,0,0.000885,0,0
0:0:38.704,44.3399,5.64681,0,0.000885,0,0
0:0:39.007,44.5756,5.67439,0,0.000885,0,0
0:0:39.299,45.1005,5.74333,0,0.000885,0,0
0:0:39.602,45.8656,5.83986,0,0.000885,0,0
0:0:39.909,46.3905,5.90881,0,0.000885,0,0
0:0:40.212,47.8584,6.09497,0,0.000885,0,0
0:0:40.515,47.7428,6.08118,0,0.000885,0,0
0:0:40.819,48.5612,6.1846,0,0.000885,0,0
0:0:41.120,48.3299,6.15012,0,0.000885,0,0
0:0:41.417,49.442,6.29491,0,0.000885,0,0
0:0:41.716,50.2649,6.39833,0,0.000885,0,0
0:0:42.014,50.6163,6.4466,0,0.000885,0,0
0:0:42.312,50.9099,6.48107,0,0.000885,0,0
0:0:42.614,51.6705,6.5776,0,0.000885,0,0
0:0:42.908,52.3734,6.66723,0,0.000885,0,0
0:0:43.210,52.9027,6.73618,0,0.000885,0,0
0:0:43.507,53.3698,6.79823,0,0.000885,0,0
0:0:43.804,54.1349,6.89476,0,0.000885,0,0
0:0:44.104,54.3706,6.92234,0,0.000885,0,0
0:0:44.409,56.012,7.12918,0,0.000885,0,0
0:0:44.713,56.3634,7.17744,0,0.000885,0,0
0:0:45.016,56.9506,7.25328,0,0.000885,0,0
0:0:45.318,57.3598,7.30155,0,0.000885,0,0
0:0:45.621,58.0048,7.38429,0,0.000885,0,0
0:0:45.917,58.2406,7.41876,0,0.000885,0,0
0:0:46.219,58.2984,7.42565,0,0.000885,0,0
0:0:46.515,59.2948,7.54976,0,0.000885,0,0
0:0:46.816,59.9976,7.63939,0,0.000885,0,0
0:0:47.113,60.527,7.70834,0,0.000885,0,0
0:0:47.412,61.1141,7.78418,0,0.000885,0,0
0:0:47.712,62.2884,7.92897,0,0.000885,0,0
0:0:48.007,62.3463,7.93587,0,0.000885,0,0
0:0:48.310,63.5784,8.09445,0,0.000885,0,0
0:0:48.607,63.8097,8.12202,0,0.000885,0,0
0:0:48.906,64.4547,8.20476,0,0.000885,0,0
0:0:49.204,64.6327,8.23234,0,0.000885,0,0
0:0:49.506,64.9841,8.27371,0,0.000885,0,0
0:0:49.812,65.7492,8.37024,0,0.000885,0,0
0:0:50.114,66.2162,8.43229,0,0.000885,0,0
0:0:50.418,67.097,8.5426,0,0.000885,0,0
0:0:50.719,67.564,8.60466,0,0.000885,0,0
0:0:51.017,68.2713,8.69429,0,0.000885,0,0
0:0:51.318,69.1476,8.80461,0,0.000885,0,0
0:0:51.615,69.9127,8.90113,0,0.000885,0,0
0:0:51.916,70.2641,8.94939,0,0.000885,0,0
0:0:52.211,70.5577,8.98387,0,0.000885,0,0
0:0:52.512,71.5541,9.10797,0,0.000885,0,0
0:0:52.811,71.7276,9.13555,0,0.000885,0,0
0:0:53.107,72.4348,9.22519,0,0.000885,0,0
0:0:53.408,73.022,9.29413,0,0.000885,0,0
0:0:53.702,73.3734,9.3424,0,0.000885,0,0
0:0:54.005,74.2497,9.45271,0,0.000885,0,0
0:0:54.301,75.0726,9.55613,0,0.000885,0,0
0:0:54.606,75.3084,9.59061,0,0.000885,0,0
0:0:54.910,76.247,9.70782,0,0.000885,0,0
0:0:55.214,76.4783,9.7354,0,0.000885,0,0
0:0:55.517,77.1233,9.81813,0,0.000885,0,0
0:0:55.820,78.1819,9.95603,0,0.000885,0,0
0:0:56.120,78.5334,9.9974,0,0.000885,0,0
0:0:56.419,78.7691,10.0319,0,0.000885,0,0
0:0:56.715,79.5298,10.1284,0,0.000885,0,0
0:0:57.018,80.3527,10.2318,0,0.000885,0,0
0:0:57.312,80.7619,10.2801,0,0.000885,0,0
0:0:57.612,80.9977,10.3146,0,0.000885,0,0
0:0:57.910,81.7583,10.4111,0,0.000885,0,0
0:0:58.209,82.4611,10.5007,0,0.000885,0,0
0:0:58.510,83.0483,10.5766,0,0.000885,0,0
0:0:58.804,83.4575,10.6248,0,0.000885,0,0
0:0:59.108,84.1648,10.7145,0,0.000885,0,0
0:0:59.412,85.3347,10.8661,0,0.000885,0,0
0:0:59.716,85.6283,10.9006,0,0.000885,0,0
0:1:0.017,85.8062,10.9282,0,0.000885,0,0
0:1:0.320,86.1576,10.9696,0,0.000885,0,0
0:1:0.623,86.9805,11.073,0,0.000885,0,0
0:1:0.918,87.3898,11.1281,0,0.000885,0,0
0:1:1.221,88.0926,11.2178,0,0.000885,0,0
0:1:1.519,89.089,11.3419,0,0.000885,0,0
0:1:1.816,89.3247,11.3763,0,0.000885,0,0
0:1:2.117,90.3211,11.5005,0,0.000885,0,0
0:1:2.412,90.7304,11.5556,0,0.000885,0,0
0:1:2.715,91.5533,11.659,0,0.000885,0,0
0:1:3.009,92.2561,11.7487,0,0.000885,0,0
0:1:3.310,92.3762,11.7625,0,0.000885,0,0
0:1:3.607,93.1369,11.859,0,0.000885,0,0
0:1:3.904,93.3148,11.8797,0,0.000885,0,0
0:1:4.205,94.0176,11.9693,0,0.000885,0,0
0:1:4.508,94.4268,12.0245,0,0.000885,0,0
0:1:4.814,95.1919,12.121,0,0.000885,0,0
0:1:5.116,96.304,12.2589,0,0.000885,0,0
0:1:5.418,96.8912,12.3347,0,0.000885,0,0
0:1:5.721,97.3582,12.3968,0,0.000885,0,0
0:1:6.017,97.9454,12.4726,0,0.000885,0,0
0:1:6.320,98.8261,12.5829,0,0.000885,0,0
0:1:6.617,99.0619,12.6105,0,0.000885,0,0
0:1:6.915,99.5868,12.6795,0,0.000885,0,0
0:1:7.215,99.8804,12.7139,0,0.000885,0,0
0:1:7.512,100.877,12.8449,0,0.000885,0,0
0:1:7.813,101.233,12.8863,0,0.000885,0,0
0:1:8.107,101.526,12.9277,0,0.000885,0,0
0:1:8.410,102.523,13.0518,0,0.000885,0,0
0:1:8.707,102.345,13.0311,0,0.000885,0,0
0:1:9.003,103.813,13.2172,0,0.000885,0,0
0:1:9.303,104.337,13.2862,0,0.000885,0,0
0:1:9.608,105.045,13.3758,0,0.000885,0,0
0:1:9.912,105.454,13.4241,0,0.000885,0,0
0:1:10.215,105.921,13.4861,0,0.000885,0,0
0:1:10.518,106.686,13.5827,0,0.000885,0,0
0:1:10.820,107.038,13.6309,0,0.000885,0,0
0:1:11.116,107.389,13.6723,0,0.000885,0,0
0:1:11.419,107.918,13.7413,0,0.000885,0,0
0:1:11.715,109.208,13.9067,0,0.000885,0,0
0:1:12.014,109.266,13.9136,0,0.000885,0,0
0:1:12.313,110.263,14.0377,0,0.000885,0,0
0:1:12.609,110.44,14.0584,0,0.000885,0,0
0:1:12.912,111.028,14.1343,0,0.000885,0,0
0:1:13.206,112.024,14.2653,0,0.000885,0,0
0:1:13.509,112.611,14.3411,0,0.000885,0,0
0:1:13.806,113.665,14.4721,0,0.000885,0,0
0:1:14.102,113.839,14.4928,0,0.000885,0,0
0:1:14.403,114.017,14.5204,0,0.000885,0,0
0:1:14.707,114.72,14.61,0,0.000885,0,0
0:1:15.012,115.836,14.7479,0,0.000885,0,0
0:1:15.315,116.539,14.8375,0,0.000885,0,0
0:1:15.617,117.006,14.8996,0,0.000885,0,0
0:1:15.920,117.478,14.9547,0,0.000885,0,0
0:1:16.218,117.829,15.003,0,0.000885,0,0
0:1:16.519,118.18,15.0444,0,0.000885,0,0
0:1:16.814,118.18,15.0444,0,0.000885,0,0
0:1:17.114,118.941,15.1409,0,0.000885,0,0
0:1:17.413,119.822,15.2581,0,0.000885,0,0
0:1:17.709,120.351,15.3202,0,0.000885,0,0
0:1:18.012,121.463,15.4649,0,0.000885,0,0
0:1:18.308,121.819,15.5132,0,0.000885,0,0
0:1:18.607,122.58,15.6097,0,0.000885,0,0
0:1:18.906,123.282,15.6994,0,0.000885,0,0
0:1:19.202,124.163,15.8097,0,0.000885,0,0
0:1:19.506,124.63,15.8717,0,0.000885,0,0
0:1:19.809,124.866,15.8993,0,0.000885,0,0
0:1:20.114,125.747,16.0096,0,0.000885,0,0
0:1:20.417,126.098,16.0579,0,0.000885,0,0
0:1:20.719,126.45,16.0993,0,0.000885,0,0
0:1:21.021,126.979,16.1682,0,0.000885,0,0
0:1:21.318,127.975,16.2923,0,0.000885,0,0
0:1:21.620,128.385,16.3475,0,0.000885,0,0
0:1:21.917,128.678,16.3819,0,0.000885,0,0
0:1:22.216,129.092,16.4371,0,0.000885,0,0
0:1:22.516,129.968,16.5474,0,0.000885,0,0
0:1:22.812,130.907,16.6646,0,0.000885,0,0
0:1:23.112,130.907,16.6646,0,0.000885,0,0
0:1:23.410,131.787,16.7818,0,0.000885,0,0
0:1:23.708,132.61,16.8853,0,0.000885,0,0
0:1:24.008,132.784,16.9059,0,0.000885,0,0
0:1:24.312,133.665,17.0163,0,0.000885,0,0
0:1:24.616,134.252,17.0921,0,0.000885,0,0
0:1:24.918,134.955,17.1817,0,0.000885,0,0
0:1:25.221,135.542,17.2576,0,0.000885,0,0
0:1:25.524,136.423,17.3679,0,0.000885,0,0
0:1:25.821,136.538,17.3817,0,0.000885,0,0
0:1:26.122,137.125,17.4575,0,0.000885,0,0
0:1:26.418,137.944,17.5609,0,0.000885,0,0
0:1:26.718,138.357,17.6161,0,0.000885,0,0
0:1:27.017,139.59,17.7747,0,0.000885,0,0
0:1:27.311,140.115,17.8367,0,0.000885,0,0
0:1:27.613,140.586,17.8988,0,0.000885,0,0
0:1:27.909,140.995,17.9539,0,0.000885,0,0
0:1:28.209,140.937,17.9471,0,0.000885,0,0
0:1:28.507,141.698,18.0436,0,0.000885,0,0
0:1:28.805,141.934,18.0712,0,0.000885,0,0
0:1:29.105,142.285,18.1194,0,0.000885,0,0
0:1:29.410,142.695,18.1677,0,0.000885,0,0
0:1:29.713,144.514,18.4021,0,0.000885,0,0
0:1:30.017,145.043,18.4642,0,0.000885,0,0
0:1:30.319,145.862,18.5745,0,0.000885,0,0
0:1:30.621,146.391,18.6365,0,0.000885,0,0
0:1:30.918,146.862,18.6986,0,0.000885,0,0
0:1:31.218,147.272,18.7537,0,0.000885,0,0
0:1:31.515,147.859,18.8227,0,0.000885,0,0
0:1:31.814,148.152,18.8641,0,0.000885,0,0
0:1:32.114,148.677,18.933,0,0.000885,0,0
0:1:32.410,149.852,19.0778,0,0.000885,0,0
0:1:32.712,150.675,19.1812,0,0.000885,0,0
0:1:33.007,150.848,19.2088,0,0.000885,0,0
0:1:33.306,151.32,19.264,0,0.000885,0,0
0:1:33.605,151.613,19.3053,0,0.000885,0,0
0:1:33.902,152.903,19.4708,0,0.000885,0,0
0:1:34.205,153.134,19.4984,0,0.000885,0,0
0:1:34.510,153.548,19.5535,0,0.000885,0,0
0:1:34.814,154.487,19.6707,0,0.000885,0,0
0:1:35.116,154.896,19.719,0,0.000885,0,0
0:1:35.418,155.95,19.8569,0,0.000885,0,0
0:1:35.721,156.128,19.8776,0,0.000885,0,0
0:1:36.016,156.715,19.9534,0,0.000885,0,0
0:1:36.319,157.24,20.0224,0,0.000885,0,0
0:1:36.615,157.827,20.0982,0,0.000885,0,0
0:1:36.913,158.299,20.1534,0,0.000885,0,0
0:1:37.213,158.766,20.2154,0,0.000885,0,0
0:1:37.509,159.589,20.3188,0,0.000885,0,0
0:1:37.811,160.176,20.3947,0,0.000885,0,0
0:1:38.107,160.937,20.4912,0,0.000885,0,0
0:1:38.407,161.697,20.5877,0,0.000885,0,0
0:1:38.705,161.817,20.6015,0,0.000885,0,0
0:1:38.999,162.578,20.6981,0,0.000885,0,0
0:1:39.302,162.636,20.705,0,0.000885,0,0
0:1:39.608,163.574,20.8291,0,0.000885,0,0
0:1:39.912,164.219,20.9118,0,0.000885,0,0
0:1:40.214,165.278,21.0428,0,0.000885,0,0
0:1:40.516,165.803,21.1117,0,0.000885,0,0
0:1:40.818,166.332,21.1807,0,0.000885,0,0
0:1:41.113,166.626,21.2152,0,0.000885,0,0
0:1:41.416,167.271,21.2979,0,0.000885,0,0
0:1:41.712,167.916,21.3806,0,0.000885,0,0
0:1:42.011,168.739,21.4841,0,0.000885,0,0
0:1:42.310,169.442,21.5737,0,0.000885,0,0
0:1:42.606,169.557,21.5875,0,0.000885,0,0
0:1:42.908,170.029,21.6495,0,0.000885,0,0
0:1:43.202,170.496,21.7116,0,0.000885,0,0
0:1:43.505,171.555,21.8426,0,0.000885,0,0
0:1:43.802,172.022,21.9046,0,0.000885,0,0
0:1:44.108,172.079,21.9115,0,0.000885,0,0
0:1:44.409,173.018,22.0287,0,0.000885,0,0
0:1:44.713,173.783,22.1253,0,0.000885,0,0
0:1:45.019,174.428,22.208,0,0.000885,0,0
0:1:45.320,174.837,22.2632,0,0.000885,0,0
0:1:45.622,175.367,22.3252,0,0.000885,0,0
0:1:45.925,176.185,22.4355,0,0.000885,0,0
0:1:46.220,176.537,22.4769,0,0.000885,0,0
0:1:46.522,176.772,22.5045,0,0.000885,0,0
0:1:46.818,177.889,22.6493,0,0.000885,0,0
0:1:47.117,178.414,22.7182,0,0.000885,0,0
0:1:47.415,178.827,22.7665,0,0.000885,0,0
0:1:47.712,179.766,22.8906,0,0.000885,0,0
0:1:48.013,179.997,22.9182,0,0.000885,0,0
0:1:48.307,180.82,23.0216,0,0.000885,0,0
0:1:48.609,181.114,23.063,0,0.000885,0,0
0:1:48.906,181.995,23.1733,0,0.000885,0,0
0:1:49.208,182.577,23.2491,0,0.000885,0,0
0:1:49.513,183.4,23.3525,0,0.000885,0,0
0:1:49.816,184.045,23.4353,0,0.000885,0,0
0:1:50.118,184.339,23.4698,0,0.000885,0,0
0:1:50.421,184.748,23.5249,0,0.000885,0,0
0:1:50.720,185.513,23.6214,0,0.000885,0,0
0:1:51.017,186.389,23.7318,0,0.000885,0,0
0:1:51.314,186.861,23.7938,0,0.000885,0,0
0:1:51.616,187.212,23.8352,0,0.000885,0,0
0:1:51.910,187.973,23.9317,0,0.000885,0,0
0:1:52.213,188.56,24.0075,0,0.000885,0,0
0:1:52.509,189.263,24.0972,0,0.000885,0,0
0:1:52.807,188.912,24.0558,0,0.000885,0,0
0:1:53.105,190.322,24.2351,0,0.000885,0,0
0:1:53.401,190.495,24.2558,0,0.000885,0,0
0:1:53.702,191.14,24.3385,0,0.000885,0,0
0:1:54.007,191.669,24.4074,0,0.000885,0,0
0:1:54.309,192.666,24.5315,0,0.000885,0,0
0:1:54.613,193.311,24.6143,0,0.000885,0,0
0:1:54.913,193.724,24.6625,0,0.000885,0,0
0:1:55.215,194.369,24.7453,0,0.000885,0,0
0:1:55.514,194.952,24.8211,0,0.000885,0,0
0:1:55.815,195.891,24.9452,0,0.000885,0,0
0:1:56.108,196.247,24.9866,0,0.000885,0,0
0:1:56.405,196.478,25.0142,0,0.000885,0,0
0:1:56.701,197.065,25.09,0,0.000885,0,0
0:1:57.003,197.768,25.1797,0,0.000885,0,0
0:1:57.305,198.764,25.3107,0,0.000885,0,0
0:1:57.609,199.587,25.4141,0,0.000885,0,0
0:1:57.906,199.823,25.4417,0,0.000885,0,0
0:1:58.198,200.348,25.5106,0,0.000885,0,0
0:1:58.507,201.229,25.6209,0,0.000885,0,0
0:1:58.803,201.407,25.6416,0,0.000885,0,0
0:1:59.107,201.931,25.7105,0,0.000885,0,0
0:1:59.406,202.461,25.7795,0,0.000885,0,0
0:1:59.710,202.697,25.8071,0,0.000885,0,0
0:2:0.011,203.809,25.9519,0,0.000885,0,0
0:2:0.312,204.164,25.9932,0,0.000885,0,0
0:2:0.611,204.396,26.0277,0,0.000885,0,0
0:2:0.912,204.983,26.0967,0,0.000885,0,0
0:2:1.205,206.099,26.2414,0,0.000885,0,0
0:2:1.503,206.624,26.3104,0,0.000885,0,0
0:2:1.809,207.621,26.4345,0,0.000885,0,0
0:2:2.105,208.386,26.531,0,0.000885,0,0
0:2:2.411,208.559,26.5517,0,0.000885,0,0
0:2:2.706,209.204,26.6344,0,0.000885,0,0
0:2:3.006,209.849,26.7172,0,0.000885,0,0
0:2:3.296,210.321,26.7792,0,0.000885,0,0
0:2:3.605,210.908,26.8551,0,0.000885,0,0
0:2:3.903,211.375,26.9102,0,0.000885,0,0
0:2:4.206,211.726,26.9585,0,0.000885,0,0
0:2:4.506,212.198,27.0206,0,0.000885,0,0
0:2:4.808,213.016,27.124,0,0.000885,0,0
0:2:5.110,213.31,27.1584,0,0.000885,0,0
0:2:5.411,214.542,27.317,0,0.000885,0,0
0:2:5.710,214.894,27.3584,0,0.000885,0,0
0:2:6.011,215.659,27.4618,0,0.000885,0,0
0:2:6.305,216.713,27.5928,0,0.000885,0,0
0:2:6.603,216.833,27.6066,0,0.000885,0,0
0:2:6.907,216.949,27.6204,0,0.000885,0,0
0:2:7.204,218.061,27.7652,0,0.000885,0,0
0:2:7.511,218.417,27.8066,0,0.000885,0,0
0:2:7.803,218.884,27.8686,0,0.000885,0,0
0:2:8.105,220.058,28.0203,0,0.000885,0,0
0:2:8.395,220.645,28.0961,0,0.000885,0,0
0:2:8.694,220.934,28.1306,0,0.000885,0,0
0:2:8.988,221.406,28.1927,0,0.000885,0,0
0:2:9.290,221.935,28.2547,0,0.000885,0,0
0:2:9.592,223.167,28.4133,0,0.000885,0,0
0:2:9.892,223.225,28.4202,0,0.000885,0,0
0:2:10.191,223.634,28.4753,0,0.000885,0,0
0:2:10.491,224.279,28.5581,0,0.000885,0,0
0:2:10.799,224.866,28.6339,0,0.000885,0,0
0:2:11.109,225.627,28.7305,0,0.000885,0,0
0:2:11.403,226.334,28.8201,0,0.000885,0,0
0:2:11.699,226.272,28.8132,0,0.000885,0,0
0:2:12.004,226.859,28.8821,0,0.000885,0,0
0:2:12.302,227.682,28.9925,0,0.000885,0,0
0:2:12.609,228.621,29.1097,0,0.000885,0,0
0:2:12.912,228.972,29.151,0,0.000885,0,0
0:2:13.211,229.733,29.2476,0,0.000885,0,0
0:2:13.504,230.204,29.3096,0,0.000885,0,0
0:2:13.805,231.023,29.413,0,0.000885,0,0
0:2:14.108,231.61,29.4889,0,0.000885,0,0
0:2:14.407,232.082,29.5509,0,0.000885,0,0
0:2:14.711,232.669,29.6268,0,0.000885,0,0
0:2:15.011,233.251,29.6957,0,0.000885,0,0
0:2:15.311,234.252,29.8267,0,0.000885,0,0
0:2:15.612,234.604,29.8681,0,0.000885,0,0
0:2:15.911,235.306,29.9577,0,0.000885,0,0
0:2:16.207,235.716,30.0129,0,0.000885,0,0
0:2:16.499,235.6,29.9991,0,0.000885,0,0
0:2:16.810,236.125,30.068,0,0.000885,0,0
0:2:17.111,237.299,30.2128,0,0.000885,0,0
0:2:17.411,237.651,30.2611,0,0.000885,0,0
0:2:17.705,238.064,30.3094,0,0.000885,0,0
0:2:18.003,239.234,30.461,0,0.000885,0,0
0:2:18.309,239.412,30.4817,0,0.000885,0,0
0:2:18.605,239.879,30.5438,0,0.000885,0,0
0:2:18.903,240.702,30.6472,0,0.000885,0,0
0:2:19.205,241.232,30.7161,0,0.000885,0,0
0:2:19.505,242.344,30.854,0,0.000885,0,0
0:2:19.808,242.579,30.8885,0,0.000885,0,0
0:2:20.110,243.282,30.9781,0,0.000885,0,0
0:2:20.411,243.869,31.0471,0,0.000885,0,0
0:2:20.711,244.63,31.1505,0,0.000885,0,0
0:2:21.012,245.217,31.2195,0,0.000885,0,0
0:2:21.305,245.333,31.2401,0,0.000885,0,0
0:2:21.611,246.156,31.3436,0,0.000885,0,0
0:2:21.910,247.21,31.4746,0,0.000885,0,0
0:2:22.211,247.624,31.5297,0,0.000885,0,0
0:2:22.512,248.269,31.6125,0,0.000885,0,0
0:2:22.804,248.269,31.6125,0,0.000885,0,0
0:2:23.104,248.971,31.7021,0,0.000885,0,0
0:2:23.408,250.026,31.8331,0,0.000885,0,0
0:2:23.705,250.377,31.8814,0,0.000885,0,0
0:2:23.999,250.555,31.902,0,0.000885,0,0
0:2:24.303,251.084,31.971,0,0.000885,0,0
0:2:24.606,251.551,32.0261,0,0.000885,0,0
0:2:24.908,252.49,32.1503,0,0.000885,0,0
0:2:25.207,253.077,32.2261,0,0.000885,0,0
0:2:25.509,253.486,32.2744,0,0.000885,0,0
0:2:25.811,254.425,32.3916,0,0.000885,0,0
0:2:26.111,254.839,32.4467,0,0.000885,0,0
0:2:26.405,255.951,32.5915,0,0.000885,0,0
0:2:26.701,256.244,32.626,0,0.000885,0,0
0:2:27.008,256.711,32.688,0,0.000885,0,0
0:2:27.305,257.419,32.7777,0,0.000885,0,0
0:2:27.613,258.179,32.8742,0,0.000885,0,0
0:2:27.905,258.357,32.8949,0,0.000885,0,0
0:2:28.201,259.06,32.9845,0,0.000885,0,0
0:2:28.510,259.411,33.0259,0,0.000885,0,0
0:2:28.807,260.408,33.1569,0,0.000885,0,0
0:2:29.112,260.995,33.2327,0,0.000885,0,0
0:2:29.414,261.404,33.281,0,0.000885,0,0
0:2:29.715,261.934,33.3499,0,0.000885,0,0
0:2:30.016,262.694,33.4465,0,0.000885,0,0
0:2:30.317,263.224,33.5154,0,0.000885,0,0
0:2:30.616,263.926,33.605,0,0.000885,0,0
0:2:30.912,264.629,33.6947,0,0.000885,0,0
0:2:31.210,265.394,33.7912,0,0.000885,0,0
0:2:31.513,265.101,33.7567,0,0.000885,0,0
0:2:31.813,266.213,33.8946,0,0.000885,0,0
0:2:32.106,266.858,33.9774,0,0.000885,0,0
0:2:32.413,267.859,34.1015,0,0.000885,0,0
0:2:32.710,267.796,34.0946,0,0.000885,0,0
0:2:33.005,268.735,34.2187,0,0.000885,0,0
0:2:33.313,269.38,34.3014,0,0.000885,0,0
0:2:33.607,269.736,34.3428,0,0.000885,0,0
0:2:33.906,269.673,34.3359,0,0.000885,0,0
0:2:34.211,271.257,34.5358,0,0.000885,0,0
0:2:34.512,271.319,34.5427,0,0.000885,0,0
0:2:34.814,271.964,34.6255,0,0.000885,0,0
0:2:35.116,272.316,34.6737,0,0.000885,0,0
0:2:35.414,272.609,34.7082,0,0.000885,0,0
0:2:35.715,273.837,34.8668,0,0.000885,0,0
0:2:36.013,274.66,34.9702,0,0.000885,0,0
0:2:36.309,275.189,35.0392,0,0.000885,0,0
0:2:36.613,275.656,35.1012,0,0.000885,0,0
0:2:36.915,276.595,35.2184,0,0.000885,0,0
0:2:37.206,276.888,35.2529,0,0.000885,0,0
0:2:37.502,277.533,35.3356,0,0.000885,0,0
0:2:37.810,278.005,35.3977,0,0.000885,0,0
0:2:38.106,278.178,35.4184,0,0.000885,0,0
0:2:38.414,279.589,35.5976,0,0.000885,0,0
0:2:38.706,279.526,35.5907,0,0.000885,0,0
0:2:39.006,280.407,35.7011,0,0.000885,0,0
0:2:39.308,280.936,35.77,0,0.000885,0,0
0:2:39.609,281.523,35.8458,0,0.000885,0,0
0:2:39.913,282.048,35.9148,0,0.000885,0,0
0:2:40.213,282.404,35.9562,0,0.000885,0,0
0:2:40.515,283.401,36.0803,0,0.000885,0,0
0:2:40.813,283.281,36.0665,0,0.000885,0,0
0:2:41.113,284.455,36.2182,0,0.000885,0,0
0:2:41.409,285.278,36.3216,0,0.000885,0,0
0:2:41.714,285.861,36.3974,0,0.000885,0,0
0:2:42.012,286.683,36.5008,0,0.000885,0,0
0:2:42.315,286.799,36.5146,0,0.000885,0,0
0:2:42.615,287.271,36.5767,0,0.000885,0,0
0:2:42.907,288.209,36.6939,0,0.000885,0,0
0:2:43.207,288.561,36.7422,0,0.000885,0,0
0:2:43.511,288.383,36.7215,0,0.000885,0,0
0:2:43.807,289.851,36.9076,0,0.000885,0,0
0:2:44.114,290.731,37.018,0,0.000885,0,0
0:2:44.416,290.905,37.0386,0,0.000885,0,0
0:2:44.717,291.492,37.1145,0,0.000885,0,0
0:2:45.018,292.079,37.1903,0,0.000885,0,0
0:2:45.317,292.96,37.3006,0,0.000885,0,0
0:2:45.619,293.489,37.3696,0,0.000885,0,0
0:2:45.912,293.778,37.4041,0,0.000885,0,0
0:2:46.212,294.366,37.4799,0,0.000885,0,0
0:2:46.507,295.131,37.5764,0,0.000885,0,0
0:2:46.815,296.069,37.6936,0,0.000885,0,0
0:2:47.110,296.536,37.7557,0,0.000885,0,0
0:2:47.415,296.945,37.8108,0,0.000885,0,0
0:2:47.712,297.123,37.8315,0,0.000885,0,0
0:2:48.015,297.946,37.935,0,0.000885,0,0
0:2:48.314,298.178,37.9625,0,0.000885,0,0
0:2:48.609,299.236,38.1004,0,0.000885,0,0
0:2:48.915,299.646,38.1487,0,0.000885,0,0
0:2:49.212,300.406,38.2521,0,0.000885,0,0
0:2:49.513,301.051,38.328,0,0.000885,0,0
0:2:49.815,301.523,38.39,0,0.000885,0,0
0:2:50.115,301.99,38.4521,0,0.000885,0,0
0:2:50.414,302.341,38.4934,0,0.000885,0,0
0:2:50.716,303.222,38.6106,0,0.000885,0,0
0:2:51.010,303.693,38.6658,0,0.000885,0,0
0:2:51.310,304.748,38.8037,0,0.000885,0,0
0:2:51.612,304.574,38.7761,0,0.000885,0,0
0:2:51.911,305.041,38.8382,0,0.000885,0,0
0:2:52.203,306.038,38.9692,0,0.000885,0,0
0:2:52.511,307.034,39.0933,0,0.000885,0,0
0:2:52.810,307.506,39.1553,0,0.000885,0,0
0:2:53.112,307.857,39.1967,0,0.000885,0,0
0:2:53.411,308.675,39.3001,0,0.000885,0,0
0:2:53.708,309.97,39.4656,0,0.000885,0,0
0:2:54.013,310.028,39.4725,0,0.000885,0,0
0:2:54.311,310.321,39.5139,0,0.000885,0,0
0:2:54.616,310.908,39.5828,0,0.000885,0,0
0:2:54.917,311.727,39.6931,0,0.000885,0,0
0:2:55.218,312.43,39.7827,0,0.000885,0,0
0:2:55.517,312.723,39.8172,0,0.000885,0,0
0:2:55.820,313.137,39.8724,0,0.000885,0,0
0:2:56.113,313.782,39.9551,0,0.000885,0,0
0:2:56.413,314.427,40.031,0,0.000885,0,0
0:2:56.717,315.775,40.2033,0,0.000885,0,0
0:2:57.015,315.89,40.2171,0,0.000885,0,0
0:2:57.312,316.42,40.2861,0,0.000885,0,0
0:2:57.615,316.771,40.3343,0,0.000885,0,0
0:2:57.913,317.18,40.3826,0,0.000885,0,0
0:2:58.204,318.297,40.5274,0,0.000885,0,0
0:2:58.514,318.706,40.5756,0,0.000885,0,0
0:2:58.810,318.826,40.5963,0,0.000885,0,0
0:2:59.103,319.409,40.6653,0,0.000885,0,0
0:2:59.401,320.054,40.748,0,0.000885,0,0
0:2:59.703,320.699,40.8308,0,0.000885,0,0
0:3:0.004,321.344,40.9135,0,0.000885,0,0
0:3:0.308,322.403,41.0514,0,0.000885,0,0
0:3:0.608,322.928,41.1134,0,0.000885,0,0
0:3:0.909,323.457,41.1824,0,0.000885,0,0
0:3:1.213,323.928,41.2444,0,0.000885,0,0
0:3:1.513,324.631,41.3341,0,0.000885,0,0
0:3:1.818,325.334,41.4237,0,0.000885,0,0
0:3:2.112,325.57,41.4513,0,0.000885,0,0
0:3:2.410,326.095,41.5202,0,0.000885,0,0
0:3:2.714,326.624,41.5892,0,0.000885,0,0
0:3:3.012,327.096,41.6443,0,0.000885,0,0
0:3:3.302,327.914,41.7547,0,0.000885,0,0
0:3:3.602,328.265,41.796,0,0.000885,0,0
0:3:3.898,329.204,41.9132,0,0.000885,0,0
0:3:4.201,329.618,41.9684,0,0.000885,0,0
0:3:4.501,330.263,42.0511,0,0.000885,0,0
0:3:4.803,331.023,42.1477,0,0.000885,0,0
0:3:5.104,332.02,42.2718,0,0.000885,0,0
0:3:5.408,332.313,42.3131,0,0.000885,0,0
0:3:5.709,333.136,42.4165,0,0.000885,0,0
0:3:6.006,333.781,42.4993,0,0.000885,0,0
0:3:6.312,333.955,42.52,0,0.000885,0,0
0:3:6.610,334.306,42.5682,0,0.000885,0,0
0:3:6.903,335.187,42.6785,0,0.000885,0,0
0:3:7.210,335.48,42.713,0,0.000885,0,0
0:3:7.511,336.068,42.7889,0,0.000885,0,0
0:3:7.814,337.064,42.913,0,0.000885,0,0
0:3:8.113,337.825,43.0164,0,0.000885,0,0
0:3:8.406,337.945,43.0302,0,0.000885,0,0
0:3:8.714,338.474,43.0922,0,0.000885,0,0
0:3:9.012,339.177,43.1819,0,0.000885,0,0
0:3:9.316,339.35,43.2094,0,0.000885,0,0
0:3:9.616,340.409,43.3404,0,0.000885,0,0
0:3:9.916,340.703,43.3818,0,0.000885,0,0
0:3:10.215,341.873,43.5266,0,0.000885,0,0
0:3:10.515,342.46,43.6024,0,0.000885,0,0
0:3:10.809,342.695,43.63,0,0.000885,0,0
0:3:11.109,343.283,43.7059,0,0.000885,0,0
0:3:11.413,344.101,43.8093,0,0.000885,0,0
0:3:11.718,344.452,43.8576,0,0.000885,0,0
0:3:12.016,345.16,43.9472,0,0.000885,0,0
0:3:12.309,345.685,44.0161,0,0.000885,0,0
0:3:12.606,346.33,44.0989,0,0.000885,0,0
0:3:12.911,347.095,44.1954,0,0.000885,0,0
0:3:13.210,347.326,44.223,0,0.000885,0,0
0:3:13.516,347.855,44.2919,0,0.000885,0,0
0:3:13.810,348.091,44.3195,0,0.000885,0,0
0:3:14.109,348.972,44.4298,0,0.000885,0,0
0:3:14.412,350.084,44.5746,0,0.000885,0,0
0:3:14.714,350.142,44.5815,0,0.000885,0,0
0:3:15.015,350.849,44.6711,0,0.000885,0,0
0:3:15.314,351.143,44.7056,0,0.000885,0,0
0:3:15.616,352.255,44.8504,0,0.000885,0,0
0:3:15.918,352.9,44.9331,0,0.000885,0,0
0:3:16.219,353.545,45.0159,0,0.000885,0,0
0:3:16.512,354.19,45.0986,0,0.000885,0,0
0:3:16.817,354.777,45.1744,0,0.000885,0,0
0:3:17.115,355.364,45.2434,0,0.000885,0,0
0:3:17.409,355.951,45.3192,0,0.000885,0,0
0:3:17.707,356.009,45.3261,0,0.000885,0,0
0:3:18.010,356.476,45.3882,0,0.000885,0,0
0:3:18.310,356.948,45.4502,0,0.000885,0,0
0:3:18.615,358.002,45.5812,0,0.000885,0,0
0:3:18.907,358.295,45.6226,0,0.000885,0,0
0:3:19.216,358.411,45.6364,0,0.000885,0,0
0:3:19.517,359.47,45.7674,0,0.000885,0,0
0:3:19.821,360.582,45.9122,0,0.000885,0,0
0:3:20.120,360.817,45.9398,0,0.000885,0,0
0:3:20.422,361.462,46.0225,0,0.000885,0,0
0:3:20.722,362.517,46.1604,0,0.000885,0,0
0:3:21.016,362.637,46.1742,0,0.000885,0,0
0:3:21.315,363.34,46.2638,0,0.000885,0,0
0:3:21.607,363.575,46.2914,0,0.000885,0,0
0:3:21.907,364.278,46.381,0,0.000885,0,0
0:3:22.212,365.275,46.5051,0,0.000885,0,0
0:3:22.507,365.92,46.5879,0,0.000885,0,0
0:3:22.815,366.565,46.6706,0,0.000885,0,0
0:3:23.107,366.743,46.6982,0,0.000885,0,0
0:3:23.406,367.33,46.7671,0,0.000885,0,0
0:3:23.699,368.033,46.8568,0,0.000885,0,0
0:3:23.998,368.62,46.9326,0,0.000885,0,0
0:3:24.301,369.322,47.0222,0,0.000885,0,0
0:3:24.602,369.616,47.0636,0,0.000885,0,0
0:3:24.904,370.083,47.1188,0,0.000885,0,0
0:3:25.206,371.022,47.2429,0,0.000885,0,0
0:3:25.506,371.902,47.3532,0,0.000885,0,0
0:3:25.807,372.374,47.4152,0,0.000885,0,0
0:3:26.115,372.725,47.4566,0,0.000885,0,0
0:3:26.413,373.25,47.5256,0,0.000885,0,0
0:3:26.715,373.837,47.6014,0,0.000885,0,0
0:3:27.016,374.54,47.691,0,0.000885,0,0
0:3:27.318,374.66,47.7048,0,0.000885,0,0
0:3:27.615,375.421,47.8014,0,0.000885,0,0
0:3:27.911,376.066,47.8841,0,0.000885,0,0
0:3:28.217,377.005,48.0013,0,0.000885,0,0
0:3:28.516,377.356,48.0496,0,0.000885,0,0
0:3:28.817,378.063,48.1392,0,0.000885,0,0
0:3:29.117,378.352,48.1737,0,0.000885,0,0
0:3:29.412,378.708,48.215,0,0.000885,0,0
0:3:29.712,379.762,48.3529,0,0.000885,0,0
0:3:30.015,380.056,48.3874,0,0.000885,0,0
0:3:30.317,380.465,48.4426,0,0.000885,0,0
0:3:30.616,381.52,48.5736,0,0.000885,0,0
0:3:30.916,382.227,48.6632,0,0.000885,0,0
0:3:31.213,382.458,48.6977,0,0.000885,0,0
0:3:31.507,383.632,48.8425,0,0.000885,0,0
0:3:31.813,383.69,48.8563,0,0.000885,0,0
0:3:32.113,384.513,48.9597,0,0.000885,0,0
0:3:32.416,385.1,49.0355,0,0.000885,0,0
0:3:32.715,385.803,49.1251,0,0.000885,0,0
0:3:33.006,385.803,49.1251,0,0.000885,0,0
0:3:33.316,386.039,49.1527,0,0.000885,0,0
0:3:33.614,386.977,49.2699,0,0.000885,0,0
0:3:33.917,388.032,49.4078,0,0.000885,0,0
0:3:34.215,388.561,49.4699,0,0.000885,0,0
0:3:34.519,388.97,49.525,0,0.000885,0,0
0:3:34.821,389.437,49.5871,0,0.000885,0,0
0:3:35.123,389.851,49.6354,0,0.000885,0,0
0:3:35.422,390.496,49.7181,0,0.000885,0,0
0:3:35.723,390.438,49.7112,0,0.000885,0,0
0:3:36.017,391.786,49.8836,0,0.000885,0,0
0:3:36.314,392.022,49.9111,0,0.000885,0,0
0:3:36.612,393.249,50.0697,0,0.000885,0,0
0:3:36.915,393.605,50.118,0,0.000885,0,0
0:3:37.213,394.188,50.1869,0,0.000885,0,0
0:3:37.516,394.775,50.2628,0,0.000885,0,0
0:3:37.817,395.069,50.3041,0,0.000885,0,0
0:3:38.107,395.772,50.3938,0,0.000885,0,0
0:3:38.416,395.892,50.4076,0,0.000885,0,0
0:3:38.713,396.417,50.4765,0,0.000885,0,0
0:3:39.017,397.475,50.6075,0,0.000885,0,0
0:3:39.316,398.062,50.6834,0,0.000885,0,0
0:3:39.618,399.059,50.8075,0,0.000885,0,0
0:3:39.920,398.823,50.7799,0,0.000885,0,0
0:3:40.221,399.526,50.8695,0,0.000885,0,0
0:3:40.521,400.113,50.9454,0,0.000885,0,0
0:3:40.821,400.878,51.0419,0,0.000885,0,0
0:3:41.114,400.407,50.9798,0,0.000885,0,0
0:3:41.414,400.758,51.0281,0,0.000885,0,0
0:3:41.717,401.523,51.1246,0,0.000885,0,0
0:3:42.015,402.168,51.2074,0,0.000885,0,0
0:3:42.321,402.635,51.2625,0,0.000885,0,0
0:3:42.614,403.222,51.3384,0,0.000885,0,0
0:3:42.913,404.161,51.4625,0,0.000885,0,0
0:3:43.218,404.864,51.5521,0,0.000885,0,0
0:3:43.515,405.157,51.5866,0,0.000885,0,0
0:3:43.809,405.86,51.6762,0,0.000885,0,0
0:3:44.118,406.857,51.8003,0,0.000885,0,0
0:3:44.416,407.564,51.8899,0,0.000885,0,0
0:3:44.717,408.56,52.0209,0,0.000885,0,0
0:3:45.020,408.618,52.0278,0,0.000885,0,0
0:3:45.320,409.614,52.1519,0,0.000885,0,0
0:3:45.621,410.202,52.2278,0,0.000885,0,0
0:3:45.922,410.789,52.3036,0,0.000885,0,0
0:3:46.217,411.492,52.3933,0,0.000885,0,0
0:3:46.516,411.843,52.4346,0,0.000885,0,0
0:3:46.819,413.017,52.5863,0,0.000885,0,0
0:3:47.119,413.72,52.6759,0,0.000885,0,0
0:3:47.413,414.601,52.7863,0,0.000885,0,0
0:3:47.719,415.482,52.9035,0,0.000885,0,0
0:3:48.017,416.242,53,0,0.000885,0,0
0:3:48.322,416.714,53.0552,0,0.000885,0,0
0:3:48.621,417.297,53.131,0,0.000885,0,0
0:3:48.916,418.355,53.2689,0,0.000885,0,0
0:3:49.216,419.116,53.3654,0,0.000885,0,0
0:3:49.520,419.761,53.4482,0,0.000885,0,0
0:3:49.822,420.348,53.5171,0,0.000885,0,0
0:3:50.122,421.109,53.6205,0,0.000885,0,0
0:3:50.422,422.11,53.7446,0,0.000885,0,0
0:3:50.721,422.399,53.7791,0,0.000885,0,0
0:3:51.016,423.048,53.8618,0,0.000885,0,0
0:3:51.310,423.924,53.9791,0,0.000885,0,0
0:3:51.609,424.276,54.0204,0,0.000885,0,0
0:3:51.912,424.396,54.0342,0,0.000885,0,0
0:3:52.209,425.214,54.1376,0,0.000885,0,0
0:3:52.503,425.686,54.1997,0,0.000885,0,0
0:3:52.810,426.331,54.2824,0,0.000885,0,0
0:3:53.108,427.269,54.3996,0,0.000885,0,0
0:3:53.413,427.443,54.4272,0,0.000885,0,0
0:3:53.713,427.679,54.4548,0,0.000885,0,0
0:3:54.017,428.444,54.5513,0,0.000885,0,0
0:3:54.316,429.027,54.6272,0,0.000885,0,0
0:3:54.620,429.965,54.7444,0,0.000885,0,0
0:3:54.921,430.672,54.834,0,0.000885,0,0
0:3:55.222,431.024,54.8823,0,0.000885,0,0
0:3:55.522,431.669,54.965,0,0.000885,0,0
0:3:55.821,431.197,54.903,0,0.000885,0,0
0:3:56.116,432.078,55.0133,0,0.000885,0,0
0:3:56.420,432.959,55.1236,0,0.000885,0,0
0:3:56.719,432.781,55.1029,0,0.000885,0,0
0:3:57.010,433.484,55.1925,0,0.000885,0,0
0:3:57.310,434.249,55.2891,0,0.000885,0,0
0:3:57.615,434.894,55.3718,0,0.000885,0,0
0:3:57.913,435.187,55.4063,0,0.000885,0,0
0:3:58.207,435.481,55.4476,0,0.000885,0,0
0:3:58.502,436.944,55.6338,0,0.000885,0,0
0:3:58.801,437.064,55.6476,0,0.000885,0,0
0:3:59.117,437.416,55.6958,0,0.000885,0,0
0:3:59.417,437.825,55.7441,0,0.000885,0,0
0:3:59.721,438.999,55.8958,0,0.000885,0,0
0:4:0.022,439.702,55.9854,0,0.000885,0,0
0:4:0.322,439.644,55.9785,0,0.000885,0,0
0:4:0.622,440.174,56.0475,0,0.000885,0,0
0:4:0.921,441.112,56.1647,0,0.000885,0,0
0:4:1.218,442.402,56.3302,0,0.000885,0,0
0:4:1.523,442.167,56.2957,0,0.000885,0,0
0:4:1.819,442.518,56.344,0,0.000885,0,0
0:4:2.122,443.399,56.4543,0,0.000885,0,0
0:4:2.423,444.569,56.606,0,0.000885,0,0
0:4:2.715,444.337,56.5715,0,0.000885,0,0
0:4:3.014,444.862,56.6404,0,0.000885,0,0
0:4:3.308,445.569,56.7301,0,0.000885,0,0
0:4:3.614,446.624,56.868,0,0.000885,0,0
0:4:3.910,447.153,56.93,0,0.000885,0,0
0:4:4.215,447.504,56.9783,0,0.000885,0,0
0:4:4.516,447.856,57.0196,0,0.000885,0,0
0:4:4.820,448.616,57.1231,0,0.000885,0,0
0:4:5.123,449.439,57.2265,0,0.000885,0,0
0:4:5.423,450.027,57.3023,0,0.000885,0,0
0:4:5.721,450.027,57.3023,0,0.000885,0,0
0:4:6.022,450.729,57.392,0,0.000885,0,0
0:4:6.316,450.845,57.4057,0,0.000885,0,0
0:4:6.615,452.255,57.585,0,0.000885,0,0
0:4:6.908,453.425,57.7298,0,0.000885,0,0
0:4:7.203,453.252,57.7091,0,0.000885,0,0
0:4:7.512,453.781,57.7781,0,0.000885,0,0
0:4:7.817,454.306,57.847,0,0.000885,0,0
0:4:8.116,455.48,57.9918,0,0.000885,0,0
0:4:8.421,455.774,58.0332,0,0.000885,0,0
0:4:8.718,456.125,58.0745,0,0.000885,0,0
0:4:9.016,456.419,58.1159,0,0.000885,0,0
0:4:9.316,456.886,58.1711,0,0.000885,0,0
0:4:9.619,458.06,58.3228,0,0.000885,0,0
0:4:9.918,458.411,58.3641,0,0.000885,0,0
0:4:10.218,458.763,58.4124,0,0.000885,0,0
0:4:10.518,459.466,58.502,0,0.000885,0,0
0:4:10.823,460.289,58.6054,0,0.000885,0,0
0:4:11.121,460.524,58.633,0,0.000885,0,0
0:4:11.423,461.343,58.7433,0,0.000885,0,0
0:4:11.724,461.463,58.7571,0,0.000885,0,0
0:4:12.018,462.344,58.8674,0,0.000885,0,0
0:4:12.313,463.692,59.0398,0,0.000885,0,0
0:4:12.620,463.34,58.9915,0,0.000885,0,0
0:4:12.916,464.63,59.157,0,0.000885,0,0
0:4:13.212,464.866,59.1915,0,0.000885,0,0
0:4:13.504,465.449,59.2604,0,0.000885,0,0
0:4:13.816,465.978,59.3294,0,0.000885,0,0
0:4:14.108,466.681,59.419,0,0.000885,0,0
0:4:14.409,467.388,59.5087,0,0.000885,0,0
0:4:14.712,467.561,59.5293,0,0.000885,0,0
0:4:15.013,468.322,59.6259,0,0.000885,0,0
0:4:15.313,468.972,59.7086,0,0.000885,0,0
0:4:15.616,469.674,59.7982,0,0.000885,0,0
0:4:15.921,470.377,59.8879,0,0.000885,0,0
0:4:16.220,471.2,59.9982,0,0.000885,0,0
0:4:16.522,471.961,60.0947,0,0.000885,0,0
0:4:16.823,472.254,60.1292,0,0.000885,0,0
0:4:17.118,473.135,60.2395,0,0.000885,0,0
0:4:17.424,473.896,60.336,0,0.000885,0,0
0:4:17.721,474.131,60.3705,0,0.000885,0,0
0:4:18.025,474.776,60.4532,0,0.000885,0,0
0:4:18.324,475.128,60.4946,0,0.000885,0,0
0:4:18.617,475.889,60.5911,0,0.000885,0,0
0:4:18.916,476.36,60.6532,0,0.000885,0,0
0:4:19.221,477.299,60.7704,0,0.000885,0,0
0:4:19.521,477.299,60.7704,0,0.000885,0,0
0:4:19.825,477.824,60.8393,0,0.000885,0,0
0:4:20.125,478.531,60.929,0,0.000885,0,0
0:4:20.425,478.94,60.9772,0,0.000885,0,0
0:4:20.725,479.056,60.9979,0,0.000885,0,0
0:4:21.021,479.763,61.0875,0,0.000885,0,0
0:4:21.320,480.057,61.122,0,0.000885,0,0
0:4:21.623,480.702,61.2048,0,0.000885,0,0
0:4:21.923,482.107,61.384,0,0.000885,0,0
0:4:22.214,482.343,61.4116,0,0.000885,0,0
0:4:22.513,483.575,61.5702,0,0.000885,0,0
0:4:22.808,483.806,61.5978,0,0.000885,0,0
0:4:23.116,485.039,61.7563,0,0.000885,0,0
0:4:23.414,485.626,61.8322,0,0.000885,0,0
0:4:23.707,484.629,61.7081,0,0.000885,0,0
0:4:24.014,484.571,61.6943,0,0.000885,0,0
0:4:24.321,484.687,61.715,0,0.000885,0,0
0:4:24.620,482.459,61.4254,0,0.000885,0,0
0:4:24.924,481.284,61.2806,0,0.000885,0,0
0:4:25.223,482.401,61.4185,0,0.000885,0,0
0:4:25.524,483.926,61.6184,0,0.000885,0,0
0:4:25.822,485.39,61.8046,0,0.000885,0,0
0:4:26.121,487.094,62.0183,0,0.000885,0,0
0:4:26.425,488.09,62.1424,0,0.000885,0,0
0:4:26.722,489.264,62.2941,0,0.000885,0,0
0:4:27.020,490.554,62.4596,0,0.000885,0,0
0:4:27.311,492.489,62.7078,0,0.000885,0,0
0:4:27.612,493.076,62.7837,0,0.000885,0,0
0:4:27.918,493.076,62.7837,0,0.000885,0,0
0:4:28.213,494.073,62.9078,0,0.000885,0,0
0:4:28.509,494.482,62.956,0,0.000885,0,0
0:4:28.813,495.127,63.0388,0,0.000885,0,0
0:4:29.112,496.244,63.1836,0,0.000885,0,0
0:4:29.417,497.12,63.2939,0,0.000885,0,0
0:4:29.718,498.352,63.4525,0,0.000885,0,0
0:4:30.020,500.407,63.7145,0,0.000885,0,0
0:4:30.319,501.577,63.8661,0,0.000885,0,0
0:4:30.621,503.045,64.0523,0,0.000885,0,0
0:4:30.924,503.806,64.1488,0,0.000885,0,0
0:4:31.223,500.701,63.7489,0,0.000885,0,0
0:4:31.524,501.519,63.8523,0,0.000885,0,0
0:4:31.823,502.164,63.9351,0,0.000885,0,0
0:4:32.118,494.66,62.9836,0,0.000885,0,0
0:4:32.423,491.079,62.5286,0,0.000885,0,0
0:4:32.721,492.196,62.6664,0,0.000885,0,0
0:4:33.023,494.598,62.9767,0,0.000885,0,0
0:4:33.321,495.772,63.1215,0,0.000885,0,0
0:4:33.613,496.653,63.2387,0,0.000885,0,0
0:4:33.909,497.471,63.3421,0,0.000885,0,0
0:4:34.205,498.703,63.4938,0,0.000885,0,0
0:4:34.508,499.762,63.6317,0,0.000885,0,0
0:4:34.808,501.226,63.8179,0,0.000885,0,0
0:4:35.108,500.229,63.6938,0,0.000885,0,0
0:4:35.408,476.534,60.6739,0,0.000885,0,0
0:4:35.707,474.189,60.3774,0,0.000885,0,0
0:4:36.011,473.429,60.2809,0,0.000885,0,0
0:4:36.310,473.309,60.2671,0,0.000885,0,0
0:4:36.623,473.544,60.2947,0,0.000885,0,0
0:4:36.922,471.725,60.0602,0,0.000885,0,0
0:4:37.214,461.169,58.7158,0,0.000885,0,0
0:4:37.522,452.664,57.6333,0,0.000885,0,0
0:4:37.818,373.958,47.6152,0,0.000885,0,0
0:4:38.109,364.394,46.3948,0,0.000885,0,0
0:4:38.409,364.336,46.3879,0,0.000885,0,0
0:4:38.710,364.572,46.4155,0,0.000885,0,0
0:4:39.008,365.159,46.4913,0,0.000885,0,0
0:4:39.314,365.626,46.5534,0,0.000885,0,0
0:4:39.614,365.51,46.5396,0,0.000885,0,0