File: DataFile2021-07-15_080623.csv
Test ID:,Date Tested:,Time:,Test Type:,Diameter Avg. (mm):,Cyl. Corr. Factor:,Height (mm):,Age (days):,Weight (kN):,Break Type:,Ramp Rate (MPa/s):,Load at Break (kN):,Stress at Break (MPa):
12,7/15/2021,08:06,Cylinder,100,1,200,0,3.6,3,0.25,1435.29,182.75
Sample Time,Load (kN),Stress (MPa),Long. Strain,Trans. Strain,Chan1 Deflection (mm),Chan2 Deflection (mm)
0:0:23.034,5.21776,0.661897,0,0.000885,0,0
0:0:23.734,6.7435,0.861845,0,0.000885,0,0
0:0:24.427,7.73991,0.98595,0,0.000885,0,0
0:0:25.120,9.09216,1.15832,0,0.000885,0,0
0:0:25.819,10.3821,1.32379,0,0.000885,0,0
0:0:26.514,11.73,1.49616,0,0.000885,0,0
0:0:27.218,12.7264,1.62027,0,0.000885,0,0
0:0:27.916,14.4879,1.84779,0,0.000885,0,0
0:0:28.616,15.8935,2.02706,0,0.000885,0,0
0:0:29.325,17.0678,2.17185,0,0.000885,0,0
0:0:30.031,18.5936,2.3649,0,0.000885,0,0
0:0:30.724,19.6478,2.5028,0,0.000885,0,0
0:0:31.422,21.2892,2.70964,0,0.000885,0,0
0:0:32.117,21.8764,2.78548,0,0.000885,0,0
0:0:32.811,23.4021,2.97854,0,0.000885,0,0
0:0:33.521,24.4563,3.11643,0,0.000885,0,0
0:0:34.230,25.0435,3.18538,0,0.000885,0,0
0:0:34.935,25.7463,3.27501,0,0.000885,0,0
0:0:35.635,26.6271,3.39222,0,0.000885,0,0
0:0:36.326,27.6235,3.51633,0,0.000885,0,0
0:0:37.022,28.7978,3.66801,0,0.000885,0,0
0:0:37.722,30.1456,3.84038,0,0.000885,0,0
0:0:38.422,31.4934,4.01275,0,0.000885,0,0
0:0:39.132,32.0806,4.0817,0,0.000885,0,0
0:0:39.836,33.7842,4.30233,0,0.000885,0,0
0:0:40.530,35.1321,4.4747,0,0.000885,0,0
0:0:41.227,36.6,4.66086,0,0.000885,0,0
0:0:41.922,38.4727,4.90217,0,0.000885,0,0
0:0:42.617,39.5313,5.03317,0,0.000885,0,0
0:0:43.315,41.1727,5.24002,0,0.000885,0,0
0:0:44.023,42.5206,5.41238,0,0.000885,0,0
0:0:44.728,44.1619,5.62612,0,0.000885,0,0
0:0:45.430,45.9234,5.84675,0,0.000885,0,0
0:0:46.121,48.5034,6.1777,0,0.000885,0,0
0:0:46.820,49.9135,6.35697,0,0.000885,0,0
0:0:47.517,51.4348,6.55002,0,0.000885,0,0
0:0:48.219,53.6633,6.8327,0,0.000885,0,0
0:0:48.927,55.3092,7.03955,0,0.000885,0,0
0:0:49.636,58.592,7.46013,0,0.000885,0,0
0:0:50.335,60.1177,7.65318,0,0.000885,0,0
0:0:51.034,61.2876,7.80487,0,0.000885,0,0
0:0:51.726,62.0527,7.90139,0,0.000885,0,0
0:0:52.423,63.227,8.05308,0,0.000885,0,0
0:0:53.122,64.6905,8.23923,0,0.000885,0,0
0:0:53.820,65.8648,8.38402,0,0.000885,0,0
0:0:54.532,67.2705,8.56329,0,0.000885,0,0
0:0:55.236,68.209,8.68739,0,0.000885,0,0
0:0:55.928,69.8549,8.89424,0,0.000885,0,0
0:0:56.627,71.0248,9.04592,0,0.000885,0,0
0:0:57.323,73.1377,9.31482,0,0.000885,0,0
0:0:58.017,74.1919,9.44582,0,0.000885,0,0
0:0:58.726,75.3084,9.59061,0,0.000885,0,0
0:0:59.433,76.7719,9.77677,0,0.000885,0,0
0:1:0.132,78.004,9.93535,0,0.000885,0,0
0:1:0.832,78.8269,10.0388,0,0.000885,0,0
0:1:1.525,80.4105,10.2387,0,0.000885,0,0
0:1:2.221,82.2877,10.48,0,0.000885,0,0
0:1:2.920,83.3419,10.611,0,0.000885,0,0
0:1:3.619,84.4584,10.7558,0,0.000885,0,0
0:1:4.328,86.509,11.0178,0,0.000885,0,0
0:1:5.035,87.2118,11.1075,0,0.000885,0,0
0:1:5.728,89.2091,11.3557,0,0.000885,0,0
0:1:6.427,90.1477,11.4798,0,0.000885,0,0
0:1:7.124,91.669,11.6728,0,0.000885,0,0
0:1:7.817,92.9589,11.8383,0,0.000885,0,0
0:1:8.517,94.4268,12.0245,0,0.000885,0,0
0:1:9.226,96.3618,12.2727,0,0.000885,0,0
0:1:9.931,96.949,12.3416,0,0.000885,0,0
0:1:10.630,98.1233,12.4933,0,0.000885,0,0
0:1:11.323,100.232,12.7622,0,0.000885,0,0
0:1:12.019,100.761,12.8311,0,0.000885,0,0
0:1:12.718,102.58,13.0587,0,0.000885,0,0
0:1:13.426,104.458,13.3,0,0.000885,0,0
0:1:14.136,105.57,13.4448,0,0.000885,0,0
0:1:14.840,107.038,13.6309,0,0.000885,0,0
0:1:15.532,107.798,13.7275,0,0.000885,0,0
0:1:16.230,109.324,13.9205,0,0.000885,0,0
0:1:16.927,110.792,14.1067,0,0.000885,0,0
0:1:17.622,112.785,14.3618,0,0.000885,0,0
0:1:18.321,114.132,14.5341,0,0.000885,0,0
0:1:19.032,115.129,14.6583,0,0.000885,0,0
0:1:19.737,116.539,14.8375,0,0.000885,0,0
0:1:20.437,117.713,14.9892,0,0.000885,0,0
0:1:21.128,119.061,15.1616,0,0.000885,0,0
0:1:21.826,120.351,15.3202,0,0.000885,0,0
0:1:22.525,121.992,15.5339,0,0.000885,0,0
0:1:23.219,123.812,15.7614,0,0.000885,0,0
0:1:23.928,124.75,15.8855,0,0.000885,0,0
0:1:24.634,125.805,16.0165,0,0.000885,0,0
0:1:25.332,127.273,16.2027,0,0.000885,0,0
0:1:26.033,129.03,16.4302,0,0.000885,0,0
0:1:26.727,130.262,16.5888,0,0.000885,0,0
0:1:27.421,131.552,16.7474,0,0.000885,0,0
0:1:28.120,133.135,16.9542,0,0.000885,0,0
0:1:28.828,134.074,17.0714,0,0.000885,0,0
0:1:29.539,135.657,17.2714,0,0.000885,0,0
0:1:30.242,136.89,17.4299,0,0.000885,0,0
0:1:30.935,138.825,17.6782,0,0.000885,0,0
0:1:31.634,139.941,17.8161,0,0.000885,0,0
0:1:32.330,141.467,18.0091,0,0.000885,0,0
0:1:33.022,142.757,18.1746,0,0.000885,0,0
0:1:33.732,144.456,18.3952,0,0.000885,0,0
0:1:34.438,145.452,18.5193,0,0.000885,0,0
0:1:35.137,146.449,18.6434,0,0.000885,0,0
0:1:35.836,147.917,18.8365,0,0.000885,0,0
0:1:36.528,149.265,19.002,0,0.000885,0,0
0:1:37.224,150.555,19.1674,0,0.000885,0,0
0:1:37.924,152.138,19.3743,0,0.000885,0,0
0:1:38.622,153.49,19.5397,0,0.000885,0,0
0:1:39.333,155.132,19.7535,0,0.000885,0,0
0:1:40.038,156.128,19.8776,0,0.000885,0,0
0:1:40.728,157.418,20.0431,0,0.000885,0,0
0:1:41.427,159.18,20.2637,0,0.000885,0,0
0:1:42.124,160.585,20.443,0,0.000885,0,0
0:1:42.813,161.288,20.5326,0,0.000885,0,0
0:1:43.512,163.107,20.767,0,0.000885,0,0
0:1:44.225,164.34,20.9256,0,0.000885,0,0
0:1:44.932,166.097,21.1462,0,0.000885,0,0
0:1:45.632,167.213,21.291,0,0.000885,0,0
0:1:46.325,169.09,21.5323,0,0.000885,0,0
0:1:47.021,170.438,21.6978,0,0.000885,0,0
0:1:47.731,171.261,21.8081,0,0.000885,0,0
0:1:48.429,172.551,21.9667,0,0.000885,0,0
0:1:49.138,173.899,22.1391,0,0.000885,0,0
0:1:49.844,175.66,22.3666,0,0.000885,0,0
0:1:50.537,177.124,22.5528,0,0.000885,0,0
0:1:51.235,178.414,22.7182,0,0.000885,0,0
0:1:51.932,179.824,22.8975,0,0.000885,0,0
0:1:52.624,181.229,23.0768,0,0.000885,0,0
0:1:53.323,182.226,23.2009,0,0.000885,0,0
0:1:54.036,183.752,23.3939,0,0.000885,0,0
0:1:54.739,184.806,23.5318,0,0.000885,0,0
0:1:55.440,186.216,23.7111,0,0.000885,0,0
0:1:56.132,187.857,23.9179,0,0.000885,0,0
0:1:56.829,189.263,24.0972,0,0.000885,0,0
0:1:57.527,190.495,24.2558,0,0.000885,0,0
0:1:58.231,192.021,24.4488,0,0.000885,0,0
0:1:58.936,193.369,24.6212,0,0.000885,0,0
0:1:59.638,195.246,24.8625,0,0.000885,0,0
0:2:0.332,196.247,24.9866,0,0.000885,0,0
0:2:1.024,197.537,25.1521,0,0.000885,0,0
0:2:1.726,199.645,25.421,0,0.000885,0,0
0:2:2.426,200.935,25.5864,0,0.000885,0,0
0:2:3.129,201.7,25.683,0,0.000885,0,0
0:2:3.823,202.99,25.8484,0,0.000885,0,0
0:2:4.528,204.044,25.9794,0,0.000885,0,0
0:2:5.228,205.277,26.138,0,0.000885,0,0
0:2:5.927,207.505,26.4207,0,0.000885,0,0
0:2:6.621,208.328,26.5241,0,0.000885,0,0
0:2:7.322,209.734,26.7034,0,0.000885,0,0
0:2:8.029,211.433,26.924,0,0.000885,0,0
0:2:8.733,212.607,27.0688,0,0.000885,0,0
0:2:9.435,214.075,27.255,0,0.000885,0,0
0:2:10.126,215.365,27.4204,0,0.000885,0,0
0:2:10.822,216.771,27.5997,0,0.000885,0,0
0:2:11.522,217.887,27.7445,0,0.000885,0,0
0:2:12.223,219.413,27.9376,0,0.000885,0,0
0:2:12.927,220.876,28.1237,0,0.000885,0,0
0:2:13.633,222.518,28.3306,0,0.000885,0,0
0:2:14.335,223.225,28.4202,0,0.000885,0,0
0:2:15.035,224.982,28.6477,0,0.000885,0,0
0:2:15.724,226.392,28.827,0,0.000885,0,0
0:2:16.427,227.856,29.0131,0,0.000885,0,0
0:2:17.129,229.03,29.1579,0,0.000885,0,0
0:2:17.826,230.671,29.3717,0,0.000885,0,0
0:2:18.531,231.961,29.5371,0,0.000885,0,0
0:2:19.236,233.251,29.6957,0,0.000885,0,0
0:2:19.935,234.541,29.8612,0,0.000885,0,0
0:2:20.632,235.836,30.0267,0,0.000885,0,0
0:2:21.329,237.241,30.2059,0,0.000885,0,0
0:2:22.029,238.647,30.3852,0,0.000885,0,0
0:2:22.726,240.351,30.5989,0,0.000885,0,0
0:2:23.419,241.405,30.7368,0,0.000885,0,0
0:2:24.125,242.873,30.923,0,0.000885,0,0
0:2:24.824,243.691,31.0264,0,0.000885,0,0
0:2:25.522,245.511,31.2608,0,0.000885,0,0
0:2:26.227,247.152,31.4677,0,0.000885,0,0
0:2:26.925,248.148,31.5987,0,0.000885,0,0
0:2:27.626,249.732,31.7986,0,0.000885,0,0
0:2:28.318,251.2,31.9848,0,0.000885,0,0
0:2:29.025,252.49,32.1503,0,0.000885,0,0
0:2:29.727,253.9,32.3295,0,0.000885,0,0
0:2:30.426,255.128,32.4812,0,0.000885,0,0
0:2:31.128,256.711,32.688,0,0.000885,0,0
0:2:31.832,258.121,32.8673,0,0.000885,0,0
0:2:32.529,259.411,33.0259,0,0.000885,0,0
0:2:33.224,260.759,33.1983,0,0.000885,0,0
0:2:33.931,262.636,33.4396,0,0.000885,0,0
0:2:34.628,263.753,33.5844,0,0.000885,0,0
0:2:35.323,264.923,33.7292,0,0.000885,0,0
0:2:36.023,265.981,33.867,0,0.000885,0,0
0:2:36.725,266.858,33.9774,0,0.000885,0,0
0:2:37.427,268.326,34.1635,0,0.000885,0,0
0:2:38.114,270.087,34.391,0,0.000885,0,0
0:2:38.815,271.671,34.591,0,0.000885,0,0
0:2:39.517,273.254,34.7909,0,0.000885,0,0
0:2:40.221,274.718,34.9771,0,0.000885,0,0
0:2:40.928,276.186,35.1633,0,0.000885,0,0
0:2:41.627,277.476,35.3287,0,0.000885,0,0
0:2:42.329,278.356,35.4391,0,0.000885,0,0
0:2:43.024,279.762,35.6183,0,0.000885,0,0
0:2:43.731,281.639,35.8596,0,0.000885,0,0
0:2:44.433,282.756,36.0044,0,0.000885,0,0
0:2:45.132,283.926,36.1492,0,0.000885,0,0
0:2:45.819,285.336,36.3285,0,0.000885,0,0
0:2:46.525,286.683,36.5008,0,0.000885,0,0
0:2:47.233,288.267,36.7008,0,0.000885,0,0
0:2:47.936,289.673,36.8801,0,0.000885,0,0
0:2:48.631,291.434,37.1076,0,0.000885,0,0
0:2:49.335,292.431,37.2317,0,0.000885,0,0
0:2:50.036,294.014,37.4385,0,0.000885,0,0
0:2:50.725,295.304,37.5971,0,0.000885,0,0
0:2:51.423,296.069,37.6936,0,0.000885,0,0
0:2:52.128,297.826,37.9212,0,0.000885,0,0
0:2:52.826,299.352,38.1142,0,0.000885,0,0
0:2:53.538,300.758,38.2935,0,0.000885,0,0
0:2:54.241,301.816,38.4314,0,0.000885,0,0
0:2:54.935,303.4,38.6313,0,0.000885,0,0
0:2:55.628,304.805,38.8106,0,0.000885,0,0
0:2:56.329,305.864,38.9416,0,0.000885,0,0
0:2:57.027,307.212,39.114,0,0.000885,0,0
0:2:57.732,308.911,39.3346,0,0.000885,0,0
0:2:58.436,310.379,39.5207,0,0.000885,0,0
0:2:59.141,311.376,39.6449,0,0.000885,0,0
0:2:59.842,312.723,39.8172,0,0.000885,0,0
0:3:0.541,314.191,40.0034,0,0.000885,0,0
0:3:1.232,315.775,40.2033,0,0.000885,0,0
0:3:1.935,317.358,40.4102,0,0.000885,0,0
0:3:2.634,318.413,40.5412,0,0.000885,0,0
0:3:3.337,319.881,40.7273,0,0.000885,0,0
0:3:4.041,321.286,40.9066,0,0.000885,0,0
0:3:4.742,322.812,41.0996,0,0.000885,0,0
0:3:5.436,323.75,41.2238,0,0.000885,0,0
0:3:6.127,325.098,41.3961,0,0.000885,0,0
0:3:6.822,326.451,41.5616,0,0.000885,0,0
0:3:7.531,327.798,41.734,0,0.000885,0,0
0:3:8.230,329.324,41.9339,0,0.000885,0,0
0:3:8.929,330.614,42.0925,0,0.000885,0,0
0:3:9.632,332.02,42.2718,0,0.000885,0,0
0:3:10.327,333.545,42.4717,0,0.000885,0,0
0:3:11.029,335.187,42.6785,0,0.000885,0,0
0:3:11.734,336.828,42.8854,0,0.000885,0,0
0:3:12.430,337.536,42.975,0,0.000885,0,0
0:3:13.133,339.177,43.1819,0,0.000885,0,0
0:3:13.838,340.64,43.3749,0,0.000885,0,0
0:3:14.538,341.873,43.5266,0,0.000885,0,0
0:3:15.232,343.283,43.7059,0,0.000885,0,0
0:3:15.935,344.808,43.8989,0,0.000885,0,0
0:3:16.632,345.863,44.0368,0,0.000885,0,0
0:3:17.324,347.095,44.1954,0,0.000885,0,0
0:3:18.036,348.852,44.416,0,0.000885,0,0
0:3:18.738,349.91,44.5539,0,0.000885,0,0
0:3:19.437,351.316,44.7332,0,0.000885,0,0
0:3:20.134,353.078,44.9538,0,0.000885,0,0
0:3:20.836,354.016,45.0779,0,0.000885,0,0
0:3:21.529,355.715,45.2917,0,0.000885,0,0
0:3:22.238,357.063,45.464,0,0.000885,0,0
0:3:22.932,358.589,45.6571,0,0.000885,0,0
0:3:23.636,359.995,45.8363,0,0.000885,0,0
0:3:24.339,360.817,45.9398,0,0.000885,0,0
0:3:25.039,362.165,46.1121,0,0.000885,0,0
0:3:25.738,364.163,46.3672,0,0.000885,0,0
0:3:26.431,364.865,46.4569,0,0.000885,0,0
0:3:27.134,367.036,46.7327,0,0.000885,0,0
0:3:27.832,368.148,46.8775,0,0.000885,0,0
0:3:28.534,369.322,47.0222,0,0.000885,0,0
0:3:29.238,370.025,47.1119,0,0.000885,0,0
0:3:29.939,372.254,47.3946,0,0.000885,0,0
0:3:30.632,373.602,47.5669,0,0.000885,0,0
0:3:31.333,375.127,47.76,0,0.000885,0,0
0:3:32.032,376.48,47.9324,0,0.000885,0,0
0:3:32.735,377.298,48.0358,0,0.000885,0,0
0:3:33.437,378.646,48.2081,0,0.000885,0,0
0:3:34.142,380.875,48.4977,0,0.000885,0,0
0:3:34.843,382.165,48.6563,0,0.000885,0,0
0:3:35.530,382.93,48.7528,0,0.000885,0,0
0:3:36.233,384.455,48.9528,0,0.000885,0,0
0:3:36.936,385.51,49.0838,0,0.000885,0,0
0:3:37.634,386.684,49.2355,0,0.000885,0,0
0:3:38.338,388.912,49.5181,0,0.000885,0,0
0:3:39.043,389.967,49.6491,0,0.000885,0,0
0:3:39.743,391.377,49.8284,0,0.000885,0,0
0:3:40.438,392.898,50.0284,0,0.000885,0,0
0:3:41.138,393.957,50.1594,0,0.000885,0,0
0:3:41.838,395.482,50.3524,0,0.000885,0,0
0:3:42.542,396.479,50.4834,0,0.000885,0,0
0:3:43.239,398.823,50.7799,0,0.000885,0,0
0:3:43.941,399.468,50.8626,0,0.000885,0,0
0:3:44.644,400.936,51.0488,0,0.000885,0,0
0:3:45.338,402.168,51.2074,0,0.000885,0,0
0:3:46.040,403.4,51.359,0,0.000885,0,0
0:3:46.734,405.042,51.5728,0,0.000885,0,0
0:3:47.440,406.274,51.7314,0,0.000885,0,0
0:3:48.135,407.622,51.8968,0,0.000885,0,0
0:3:48.839,409.027,52.0761,0,0.000885,0,0
0:3:49.542,411.025,52.3312,0,0.000885,0,0
0:3:50.236,411.963,52.4553,0,0.000885,0,0
0:3:50.936,413.133,52.6001,0,0.000885,0,0
0:3:51.636,414.601,52.7863,0,0.000885,0,0
0:3:52.333,416.185,52.9931,0,0.000885,0,0
0:3:53.040,417.532,53.1586,0,0.000885,0,0
0:3:53.740,419.409,53.3999,0,0.000885,0,0
0:3:54.442,419.881,53.4619,0,0.000885,0,0
0:3:55.137,421.522,53.6688,0,0.000885,0,0
0:3:55.840,422.461,53.786,0,0.000885,0,0
0:3:56.533,424.276,54.0204,0,0.000885,0,0
0:3:57.229,426.153,54.2617,0,0.000885,0,0
0:3:57.934,427.385,54.4134,0,0.000885,0,0
0:3:58.626,428.382,54.5444,0,0.000885,0,0
0:3:59.329,430.085,54.7582,0,0.000885,0,0
0:4:0.028,431.197,54.903,0,0.000885,0,0
0:4:0.740,432.256,55.034,0,0.000885,0,0
0:4:1.441,434.191,55.2822,0,0.000885,0,0
0:4:2.135,435.187,55.4063,0,0.000885,0,0
0:4:2.833,436.126,55.5304,0,0.000885,0,0
0:4:3.530,437.883,55.751,0,0.000885,0,0
0:4:4.237,439.293,55.9303,0,0.000885,0,0
0:4:4.938,440.641,56.1026,0,0.000885,0,0
0:4:5.630,441.989,56.275,0,0.000885,0,0
0:4:6.335,443.808,56.5094,0,0.000885,0,0
0:4:7.043,445.156,56.6818,0,0.000885,0,0
0:4:7.737,446.446,56.8404,0,0.000885,0,0
0:4:8.442,447.562,56.9852,0,0.000885,0,0
0:4:9.146,448.616,57.1231,0,0.000885,0,0
0:4:9.847,450.787,57.3989,0,0.000885,0,0
0:4:10.536,451.317,57.4609,0,0.000885,0,0
0:4:11.237,453.545,57.7505,0,0.000885,0,0
0:4:11.927,454.542,57.8746,0,0.000885,0,0
0:4:12.637,455.774,58.0332,0,0.000885,0,0
0:4:13.340,456.948,58.178,0,0.000885,0,0
0:4:14.046,458.763,58.4124,0,0.000885,0,0
0:4:14.746,460.524,58.633,0,0.000885,0,0
0:4:15.438,461.049,58.702,0,0.000885,0,0
0:4:16.139,462.989,58.9502,0,0.000885,0,0
0:4:16.838,463.749,59.0467,0,0.000885,0,0
0:4:17.539,465.862,59.3156,0,0.000885,0,0
0:4:18.239,466.859,59.4397,0,0.000885,0,0
0:4:18.939,467.797,59.5638,0,0.000885,0,0
0:4:19.642,469.554,59.7844,0,0.000885,0,0
0:4:20.337,471.08,59.9775,0,0.000885,0,0
0:4:21.040,472.312,60.1361,0,0.000885,0,0
0:4:21.743,474.011,60.3498,0,0.000885,0,0
0:4:22.442,474.95,60.4739,0,0.000885,0,0
0:4:23.135,476.476,60.667,0,0.000885,0,0
0:4:23.841,478.117,60.8738,0,0.000885,0,0
0:4:24.540,479.291,61.0255,0,0.000885,0,0
0:4:25.235,480.288,61.1496,0,0.000885,0,0
0:4:25.946,482.343,61.4116,0,0.000885,0,0
0:4:26.643,483.281,61.5357,0,0.000885,0,0
0:4:27.338,484.394,61.6736,0,0.000885,0,0
0:4:28.035,485.684,61.8391,0,0.000885,0,0
0:4:28.739,487.503,62.0735,0,0.000885,0,0
0:4:29.439,489.38,62.3079,0,0.000885,0,0
0:4:30.142,490.434,62.4458,0,0.000885,0,0
0:4:30.837,491.609,62.5906,0,0.000885,0,0
0:4:31.539,492.956,62.763,0,0.000885,0,0
0:4:32.236,494.598,62.9767,0,0.000885,0,0
0:4:32.939,495.714,63.1146,0,0.000885,0,0
0:4:33.642,496.653,63.2387,0,0.000885,0,0
0:4:34.347,498.939,63.5283,0,0.000885,0,0
0:4:35.049,499.993,63.6593,0,0.000885,0,0
0:4:35.740,501.639,63.873,0,0.000885,0,0
0:4:36.439,502.516,63.9833,0,0.000885,0,0
0:4:37.129,503.748,64.1419,0,0.000885,0,0
0:4:37.843,505.273,64.335,0,0.000885,0,0
0:4:38.543,506.563,64.5005,0,0.000885,0,0
0:4:39.246,508.441,64.7349,0,0.000885,0,0
0:4:39.947,509.495,64.8728,0,0.000885,0,0
0:4:40.643,510.611,65.0107,0,0.000885,0,0
0:4:41.343,511.723,65.1555,0,0.000885,0,0
0:4:42.041,513.956,65.4381,0,0.000885,0,0
0:4:42.746,515.068,65.5829,0,0.000885,0,0
0:4:43.439,517.003,65.8242,0,0.000885,0,0
0:4:44.144,517.475,65.8863,0,0.000885,0,0
0:4:44.843,519.352,66.1276,0,0.000885,0,0
0:4:45.542,520.349,66.2517,0,0.000885,0,0
0:4:46.241,521.932,66.4517,0,0.000885,0,0
0:4:46.934,523.222,66.6171,0,0.000885,0,0
0:4:47.644,524.512,66.7826,0,0.000885,0,0
0:4:48.345,525.744,66.9412,0,0.000885,0,0
0:4:49.050,527.501,67.1618,0,0.000885,0,0
0:4:49.751,528.56,67.2997,0,0.000885,0,0
0:4:50.446,530.437,67.5341,0,0.000885,0,0
0:4:51.146,531.727,67.6996,0,0.000885,0,0
0:4:51.834,533.075,67.872,0,0.000885,0,0
0:4:52.540,534.423,68.0444,0,0.000885,0,0
0:4:53.239,535.833,68.2236,0,0.000885,0,0
0:4:53.939,536.945,68.3684,0,0.000885,0,0
0:4:54.640,538.471,68.5615,0,0.000885,0,0
0:4:55.334,539.818,68.7338,0,0.000885,0,0
0:4:56.039,541.58,68.9545,0,0.000885,0,0
0:4:56.740,542.398,69.0579,0,0.000885,0,0
0:4:57.438,543.688,69.2234,0,0.000885,0,0
0:4:58.143,545.45,69.4509,0,0.000885,0,0
0:4:58.845,546.504,69.5819,0,0.000885,0,0
0:4:59.547,547.443,69.706,0,0.000885,0,0
0:5:0.240,549.729,69.9956,0,0.000885,0,0
0:5:0.940,550.668,70.1128,0,0.000885,0,0
0:5:1.643,552.371,70.3334,0,0.000885,0,0
0:5:2.333,553.661,70.492,0,0.000885,0,0
0:5:3.030,555.245,70.6988,0,0.000885,0,0
0:5:3.734,555.89,70.7747,0,0.000885,0,0
0:5:4.439,557.767,71.016,0,0.000885,0,0
0:5:5.140,558.706,71.1332,0,0.000885,0,0
0:5:5.834,560.053,71.3056,0,0.000885,0,0
0:5:6.535,561.873,71.54,0,0.000885,0,0
0:5:7.247,563.278,71.7193,0,0.000885,0,0
0:5:7.942,564.746,71.9054,0,0.000885,0,0
0:5:8.641,566.33,72.1054,0,0.000885,0,0
0:5:9.341,567.148,72.2088,0,0.000885,0,0
0:5:10.037,568.91,72.4363,0,0.000885,0,0
0:5:10.737,570.084,72.588,0,0.000885,0,0
0:5:11.429,571.668,72.788,0,0.000885,0,0
0:5:12.148,572.486,72.8914,0,0.000885,0,0
0:5:12.843,573.896,73.0706,0,0.000885,0,0
0:5:13.547,574.893,73.1947,0,0.000885,0,0
0:5:14.251,576.885,73.4498,0,0.000885,0,0
0:5:14.952,578.411,73.6429,0,0.000885,0,0
0:5:15.642,580.173,73.8704,0,0.000885,0,0
0:5:16.344,581.169,73.9945,0,0.000885,0,0
0:5:17.046,582.517,74.1669,0,0.000885,0,0
0:5:17.744,584.1,74.3669,0,0.000885,0,0
0:5:18.436,585.333,74.5254,0,0.000885,0,0
0:5:19.142,586.271,74.6495,0,0.000885,0,0
0:5:19.845,587.503,74.8012,0,0.000885,0,0
0:5:20.542,589.145,75.015,0,0.000885,0,0
0:5:21.243,590.555,75.1942,0,0.000885,0,0
0:5:21.941,592.432,75.4286,0,0.000885,0,0
0:5:22.645,593.371,75.5528,0,0.000885,0,0
0:5:23.334,595.252,75.7872,0,0.000885,0,0
0:5:24.043,595.661,75.8423,0,0.000885,0,0
0:5:24.747,597.539,76.0836,0,0.000885,0,0
0:5:25.445,598.833,76.2422,0,0.000885,0,0
0:5:26.143,600.359,76.4422,0,0.000885,0,0
0:5:26.844,601.591,76.5939,0,0.000885,0,0
0:5:27.549,602.881,76.7593,0,0.000885,0,0
0:5:28.246,604.407,76.9524,0,0.000885,0,0
0:5:28.953,605.345,77.0765,0,0.000885,0,0
0:5:29.658,607.814,77.3868,0,0.000885,0,0
0:5:30.352,608.107,77.4281,0,0.000885,0,0
0:5:31.043,610.394,77.7177,0,0.000885,0,0
0:5:31.749,610.923,77.7867,0,0.000885,0,0
0:5:32.443,612.391,77.9728,0,0.000885,0,0
0:5:33.131,614.153,78.1934,0,0.000885,0,0
0:5:33.838,615.385,78.352,0,0.000885,0,0
0:5:34.544,616.501,78.4968,0,0.000885,0,0
0:5:35.242,618.263,78.7174,0,0.000885,0,0
0:5:35.938,619.201,78.8415,0,0.000885,0,0
0:5:36.650,621.021,79.0691,0,0.000885,0,0
0:5:37.345,621.959,79.1932,0,0.000885,0,0
0:5:38.039,623.307,79.3656,0,0.000885,0,0
0:5:38.739,625.304,79.6138,0,0.000885,0,0
0:5:39.448,626.657,79.7861,0,0.000885,0,0
0:5:40.149,627.653,79.9171,0,0.000885,0,0
0:5:40.839,629.414,80.1378,0,0.000885,0,0
0:5:41.548,630.411,80.2688,0,0.000885,0,0
0:5:42.251,631.349,80.386,0,0.000885,0,0
0:5:42.946,633.405,80.648,0,0.000885,0,0
0:5:43.652,634.463,80.779,0,0.000885,0,0
0:5:44.361,635.695,80.9376,0,0.000885,0,0
0:5:45.065,637.221,81.1306,0,0.000885,0,0
0:5:45.760,638.631,81.3099,0,0.000885,0,0
0:5:46.453,639.743,81.4547,0,0.000885,0,0
0:5:47.149,641.798,81.7167,0,0.000885,0,0
0:5:47.844,642.679,81.827,0,0.000885,0,0
0:5:48.555,643.675,81.958,0,0.000885,0,0
0:5:49.260,645.793,82.2269,0,0.000885,0,0
0:5:49.960,647.492,82.4406,0,0.000885,0,0
0:5:50.655,648.079,82.5165,0,0.000885,0,0
0:5:51.353,649.783,82.7302,0,0.000885,0,0
0:5:52.053,650.664,82.8474,0,0.000885,0,0
0:5:52.748,652.367,83.0611,0,0.000885,0,0
0:5:53.446,654.124,83.2887,0,0.000885,0,0
0:5:54.151,655.241,83.4266,0,0.000885,0,0
0:5:54.854,656.531,83.592,0,0.000885,0,0
0:5:55.549,657.825,83.7575,0,0.000885,0,0
0:5:56.250,659.293,83.9437,0,0.000885,0,0
0:5:56.950,660.761,84.1298,0,0.000885,0,0
0:5:57.653,661.993,84.2884,0,0.000885,0,0
0:5:58.345,663.399,84.4677,0,0.000885,0,0
0:5:59.052,664.573,84.6194,0,0.000885,0,0
0:5:59.757,666.041,84.8055,0,0.000885,0,0
0:6:0.455,667.687,85.0124,0,0.000885,0,0
0:6:1.151,669.328,85.2192,0,0.000885,0,0
0:6:1.841,670.445,85.364,0,0.000885,0,0
0:6:2.536,671.383,85.4812,0,0.000885,0,0
0:6:3.242,673.261,85.7225,0,0.000885,0,0
0:6:3.951,673.906,85.8053,0,0.000885,0,0
0:6:4.656,675.787,86.0466,0,0.000885,0,0
0:6:5.351,676.899,86.1845,0,0.000885,0,0
0:6:6.040,678.661,86.412,0,0.000885,0,0
0:6:6.751,680.716,86.674,0,0.000885,0,0
0:6:7.453,681.129,86.7223,0,0.000885,0,0
0:6:8.143,682.535,86.9015,0,0.000885,0,0
0:6:8.853,684.061,87.0946,0,0.000885,0,0
0:6:9.557,685.177,87.2394,0,0.000885,0,0
0:6:10.256,687.29,87.5083,0,0.000885,0,0
0:6:10.954,688.349,87.6462,0,0.000885,0,0
0:6:11.643,689.345,87.7703,0,0.000885,0,0
0:6:12.339,690.929,87.9702,0,0.000885,0,0
0:6:13.035,692.103,88.1219,0,0.000885,0,0
0:6:13.742,693.749,88.3287,0,0.000885,0,0
0:6:14.453,695.097,88.5011,0,0.000885,0,0
0:6:15.154,696.271,88.6528,0,0.000885,0,0
0:6:15.842,697.797,88.8458,0,0.000885,0,0
0:6:16.540,698.913,88.9906,0,0.000885,0,0
0:6:17.243,700.088,89.1354,0,0.000885,0,0
0:6:17.948,701.965,89.3767,0,0.000885,0,0
0:6:18.644,703.904,89.6249,0,0.000885,0,0
0:6:19.354,705.016,89.7628,0,0.000885,0,0
0:6:20.058,705.897,89.8801,0,0.000885,0,0
0:6:20.755,707.779,90.1145,0,0.000885,0,0
0:6:21.443,708.072,90.1558,0,0.000885,0,0
0:6:22.139,710.123,90.4178,0,0.000885,0,0
0:6:22.836,711.653,90.6109,0,0.000885,0,0
0:6:23.535,713.001,90.7833,0,0.000885,0,0
0:6:24.241,714.585,90.9832,0,0.000885,0,0
0:6:24.942,715.35,91.0797,0,0.000885,0,0
0:6:25.635,717.053,91.3004,0,0.000885,0,0
0:6:26.341,717.992,91.4176,0,0.000885,0,0
0:6:27.035,719.398,91.5969,0,0.000885,0,0
0:6:27.738,721.395,91.852,0,0.000885,0,0
0:6:28.444,722.627,92.0105,0,0.000885,0,0
0:6:29.154,723.979,92.1829,0,0.000885,0,0
0:6:29.859,725.447,92.3691,0,0.000885,0,0
0:6:30.555,726.795,92.5414,0,0.000885,0,0
0:6:31.243,728.205,92.7207,0,0.000885,0,0
0:6:31.953,729.379,92.8655,0,0.000885,0,0
0:6:32.646,730.434,93.0034,0,0.000885,0,0
0:6:33.339,732.079,93.2102,0,0.000885,0,0
0:6:34.045,733.663,93.4102,0,0.000885,0,0
0:6:34.751,735.247,93.617,0,0.000885,0,0
0:6:35.444,736.363,93.7549,0,0.000885,0,0
0:6:36.141,737.186,93.8583,0,0.000885,0,0
0:6:36.843,739.299,94.1272,0,0.000885,0,0
0:6:37.537,740.06,94.2306,0,0.000885,0,0
0:6:38.245,741.59,94.4237,0,0.000885,0,0
0:6:38.954,743.173,94.6236,0,0.000885,0,0
0:6:39.658,744.521,94.796,0,0.000885,0,0
0:6:40.351,745.638,94.9408,0,0.000885,0,0
0:6:41.043,747.163,95.1339,0,0.000885,0,0
0:6:41.740,748.28,95.2718,0,0.000885,0,0
0:6:42.444,750.277,95.5269,0,0.000885,0,0
0:6:43.136,751.331,95.6648,0,0.000885,0,0
0:6:43.843,752.915,95.8647,0,0.000885,0,0
0:6:44.549,754.619,96.0784,0,0.000885,0,0
0:6:45.245,756.029,96.2577,0,0.000885,0,0
0:6:45.944,757.145,96.4025,0,0.000885,0,0
0:6:46.644,757.79,96.4852,0,0.000885,0,0
0:6:47.353,759.783,96.7403,0,0.000885,0,0
0:6:48.047,760.842,96.8713,0,0.000885,0,0
0:6:48.745,762.425,97.0782,0,0.000885,0,0
0:6:49.453,763.364,97.1954,0,0.000885,0,0
0:6:50.153,765.539,97.4712,0,0.000885,0,0
0:6:50.843,766.593,97.6091,0,0.000885,0,0
0:6:51.552,767.825,97.7608,0,0.000885,0,0
0:6:52.243,769,97.9124,0,0.000885,0,0
0:6:52.937,770.29,98.0779,0,0.000885,0,0
0:6:53.645,772.345,98.3399,0,0.000885,0,0
0:6:54.354,773.577,98.4985,0,0.000885,0,0
0:6:55.058,774.578,98.6226,0,0.000885,0,0
0:6:55.756,776.103,98.8157,0,0.000885,0,0
0:6:56.456,777.042,98.9329,0,0.000885,0,0
0:6:57.152,778.746,99.1535,0,0.000885,0,0
0:6:57.847,780.329,99.3535,0,0.000885,0,0
0:6:58.548,781.975,99.5672,0,0.000885,0,0
0:6:59.255,782.558,99.6361,0,0.000885,0,0
0:6:59.957,784.382,99.8706,0,0.000885,0,0
0:7:0.651,785.729,100.043,0,0.000885,0,0
0:7:1.357,787.255,100.236,0,0.000885,0,0
0:7:2.048,788.665,100.415,0,0.000885,0,0
0:7:2.745,790.075,100.595,0,0.000885,0,0
0:7:3.462,790.72,100.677,0,0.000885,0,0
0:7:4.168,792.246,100.87,0,0.000885,0,0
0:7:4.872,794.181,101.119,0,0.000885,0,0
0:7:5.567,795.533,101.291,0,0.000885,0,0
0:7:6.259,796.881,101.463,0,0.000885,0,0
0:7:6.957,798.176,101.629,0,0.000885,0,0
0:7:7.648,799.23,101.76,0,0.000885,0,0
0:7:8.354,800.876,101.973,0,0.000885,0,0
0:7:9.061,802.281,102.153,0,0.000885,0,0
0:7:9.765,803.807,102.346,0,0.000885,0,0
0:7:10.464,805.337,102.539,0,0.000885,0,0
0:7:11.162,806.627,102.704,0,0.000885,0,0
0:7:11.854,807.681,102.835,0,0.000885,0,0
0:7:12.547,809.212,103.028,0,0.000885,0,0
0:7:13.244,810.381,103.18,0,0.000885,0,0
0:7:13.954,811.676,103.346,0,0.000885,0,0
0:7:14.658,813.202,103.539,0,0.000885,0,0
0:7:15.354,814.785,103.739,0,0.000885,0,0
0:7:16.053,816.253,103.932,0,0.000885,0,0
0:7:16.749,817.543,104.09,0,0.000885,0,0
0:7:17.444,818.424,104.207,0,0.000885,0,0
0:7:18.157,820.479,104.469,0,0.000885,0,0
0:7:18.865,821.595,104.607,0,0.000885,0,0
0:7:19.569,822.943,104.78,0,0.000885,0,0
0:7:20.266,823.708,104.876,0,0.000885,0,0
0:7:20.965,825.879,105.152,0,0.000885,0,0
0:7:21.657,827.111,105.311,0,0.000885,0,0
0:7:22.354,828.286,105.462,0,0.000885,0,0
0:7:23.048,830.105,105.69,0,0.000885,0,0
0:7:23.744,830.928,105.8,0,0.000885,0,0
0:7:24.450,832.396,105.986,0,0.000885,0,0
0:7:25.151,833.45,106.117,0,0.000885,0,0
0:7:25.845,834.86,106.296,0,0.000885,0,0
0:7:26.543,836.737,106.538,0,0.000885,0,0
0:7:27.245,838.089,106.71,0,0.000885,0,0
0:7:27.949,839.322,106.869,0,0.000885,0,0
0:7:28.647,840.967,107.076,0,0.000885,0,0
0:7:29.356,842.315,107.248,0,0.000885,0,0
0:7:30.061,843.961,107.455,0,0.000885,0,0
0:7:30.758,845.073,107.6,0,0.000885,0,0
0:7:31.447,845.718,107.682,0,0.000885,0,0
0:7:32.144,847.542,107.91,0,0.000885,0,0
0:7:32.847,849.005,108.096,0,0.000885,0,0
0:7:33.550,850.473,108.289,0,0.000885,0,0
0:7:34.258,851.941,108.475,0,0.000885,0,0
0:7:34.956,853.467,108.668,0,0.000885,0,0
0:7:35.663,854.232,108.765,0,0.000885,0,0
0:7:36.357,855.873,108.972,0,0.000885,0,0
0:7:37.047,857.404,109.165,0,0.000885,0,0
0:7:37.745,858.164,109.268,0,0.000885,0,0
0:7:38.452,859.517,109.434,0,0.000885,0,0
0:7:39.159,861.216,109.654,0,0.000885,0,0
0:7:39.862,863.097,109.896,0,0.000885,0,0
0:7:40.552,863.974,110.006,0,0.000885,0,0
0:7:41.261,865.562,110.206,0,0.000885,0,0
0:7:41.956,866.794,110.364,0,0.000885,0,0
0:7:42.658,868.142,110.537,0,0.000885,0,0
0:7:43.356,869.494,110.709,0,0.000885,0,0
0:7:44.064,871.198,110.923,0,0.000885,0,0
0:7:44.767,872.488,111.088,0,0.000885,0,0
0:7:45.463,873.604,111.233,0,0.000885,0,0
0:7:46.156,875.423,111.461,0,0.000885,0,0
0:7:46.852,876.598,111.612,0,0.000885,0,0
0:7:47.556,878.066,111.798,0,0.000885,0,0
0:7:48.261,878.942,111.909,0,0.000885,0,0
0:7:48.967,880.236,112.074,0,0.000885,0,0
0:7:49.672,881.998,112.302,0,0.000885,0,0
0:7:50.370,883.639,112.509,0,0.000885,0,0
0:7:51.065,885.049,112.688,0,0.000885,0,0
0:7:51.757,886.281,112.846,0,0.000885,0,0
0:7:52.461,887.398,112.984,0,0.000885,0,0
0:7:53.153,888.924,113.184,0,0.000885,0,0
0:7:53.857,890.392,113.37,0,0.000885,0,0
0:7:54.561,891.388,113.495,0,0.000885,0,0
0:7:55.258,893.323,113.743,0,0.000885,0,0
0:7:55.957,894.911,113.943,0,0.000885,0,0
0:7:56.659,896.085,114.094,0,0.000885,0,0
0:7:57.350,896.966,114.205,0,0.000885,0,0
0:7:58.048,898.14,114.356,0,0.000885,0,0
0:7:58.753,899.666,114.549,0,0.000885,0,0
0:7:59.463,901.601,114.798,0,0.000885,0,0
0:8:0.166,902.891,114.963,0,0.000885,0,0
0:8:0.858,904.065,115.108,0,0.000885,0,0
0:8:1.564,904.946,115.218,0,0.000885,0,0
0:8:2.259,906.766,115.453,0,0.000885,0,0
0:8:2.949,908.296,115.646,0,0.000885,0,0
0:8:3.646,909.586,115.811,0,0.000885,0,0
0:8:4.352,910.991,115.991,0,0.000885,0,0
0:8:5.055,912.05,116.128,0,0.000885,0,0
0:8:5.754,913.812,116.349,0,0.000885,0,0
0:8:6.445,914.986,116.501,0,0.000885,0,0
0:8:7.149,916.569,116.701,0,0.000885,0,0
0:8:7.846,918.095,116.894,0,0.000885,0,0
0:8:8.544,919.269,117.045,0,0.000885,0,0
0:8:9.251,920.386,117.19,0,0.000885,0,0
0:8:9.953,921.325,117.307,0,0.000885,0,0
0:8:10.656,923.26,117.556,0,0.000885,0,0
0:8:11.352,924.554,117.721,0,0.000885,0,0
0:8:12.046,926.138,117.921,0,0.000885,0,0
0:8:12.748,927.49,118.093,0,0.000885,0,0
0:8:13.467,928.486,118.218,0,0.000885,0,0
0:8:14.174,930.012,118.411,0,0.000885,0,0
0:8:14.878,931.422,118.59,0,0.000885,0,0
0:8:15.576,932.712,118.755,0,0.000885,0,0
0:8:16.267,934.296,118.955,0,0.000885,0,0
0:8:16.961,935.354,119.093,0,0.000885,0,0
0:8:17.655,937.116,119.314,0,0.000885,0,0
0:8:18.346,938.406,119.479,0,0.000885,0,0
0:8:19.052,939.344,119.603,0,0.000885,0,0
0:8:19.757,941.164,119.831,0,0.000885,0,0
0:8:20.454,942.222,119.969,0,0.000885,0,0
0:8:21.150,943.806,120.169,0,0.000885,0,0
0:8:21.851,945.216,120.348,0,0.000885,0,0
0:8:22.568,947.035,120.582,0,0.000885,0,0
0:8:23.264,948.032,120.707,0,0.000885,0,0
0:8:23.971,949.326,120.872,0,0.000885,0,0
0:8:24.674,950.732,121.051,0,0.000885,0,0
0:8:25.369,951.79,121.182,0,0.000885,0,0
0:8:26.061,953.201,121.368,0,0.000885,0,0
0:8:26.758,954.664,121.555,0,0.000885,0,0
0:8:27.463,956.488,121.782,0,0.000885,0,0
0:8:28.153,957.542,121.92,0,0.000885,0,0
0:8:28.862,958.894,122.092,0,0.000885,0,0
0:8:29.566,960.242,122.265,0,0.000885,0,0
0:8:30.265,962.061,122.492,0,0.000885,0,0
0:8:30.961,962.826,122.589,0,0.000885,0,0
0:8:31.650,964.232,122.768,0,0.000885,0,0
0:8:32.355,965.464,122.927,0,0.000885,0,0
0:8:33.052,967.404,123.175,0,0.000885,0,0
0:8:33.752,968.342,123.292,0,0.000885,0,0
0:8:34.458,969.926,123.492,0,0.000885,0,0
0:8:35.161,971.1,123.644,0,0.000885,0,0
0:8:35.850,972.862,123.871,0,0.000885,0,0
0:8:36.546,974.33,124.057,0,0.000885,0,0
0:8:37.249,975.21,124.168,0,0.000885,0,0
0:8:37.941,976.856,124.375,0,0.000885,0,0
0:8:38.638,977.91,124.512,0,0.000885,0,0
0:8:39.347,979.556,124.719,0,0.000885,0,0
0:8:40.050,980.904,124.892,0,0.000885,0,0
0:8:40.747,982.55,125.098,0,0.000885,0,0
0:8:41.447,984.076,125.298,0,0.000885,0,0
0:8:42.164,985.308,125.45,0,0.000885,0,0
0:8:42.857,986.776,125.643,0,0.000885,0,0
0:8:43.562,988.066,125.802,0,0.000885,0,0
0:8:44.267,988.831,125.898,0,0.000885,0,0
0:8:44.969,990.472,126.112,0,0.000885,0,0
0:8:45.659,991.94,126.298,0,0.000885,0,0
0:8:46.357,993.644,126.512,0,0.000885,0,0
0:8:47.051,994.934,126.677,0,0.000885,0,0
0:8:47.743,995.637,126.767,0,0.000885,0,0
0:8:48.460,997.456,127.001,0,0.000885,0,0
0:8:49.169,998.866,127.181,0,0.000885,0,0
0:8:49.872,1000.45,127.381,0,0.000885,0,0
0:8:50.568,1001.39,127.498,0,0.000885,0,0
0:8:51.257,1002.92,127.698,0,0.000885,0,0
0:8:51.954,1004.21,127.856,0,0.000885,0,0
0:8:52.658,1005.32,128.001,0,0.000885,0,0
0:8:53.360,1006.67,128.174,0,0.000885,0,0
0:8:54.070,1008.32,128.38,0,0.000885,0,0
0:8:54.772,1009.84,128.58,0,0.000885,0,0
0:8:55.470,1010.96,128.718,0,0.000885,0,0
0:8:56.167,1012.6,128.925,0,0.000885,0,0
0:8:56.857,1014.01,129.111,0,0.000885,0,0
0:8:57.551,1015.19,129.256,0,0.000885,0,0
0:8:58.247,1016.65,129.442,0,0.000885,0,0
0:8:58.955,1018.18,129.635,0,0.000885,0,0
0:8:59.661,1019.47,129.801,0,0.000885,0,0
0:9:0.355,1020.64,129.952,0,0.000885,0,0
0:9:1.048,1022.58,130.201,0,0.000885,0,0
0:9:1.746,1023.17,130.276,0,0.000885,0,0
0:9:2.469,1024.87,130.49,0,0.000885,0,0
0:9:3.172,1026.28,130.669,0,0.000885,0,0
0:9:3.879,1027.86,130.869,0,0.000885,0,0
0:9:4.582,1029.15,131.035,0,0.000885,0,0
0:9:5.280,1030.68,131.228,0,0.000885,0,0
0:9:5.978,1032.33,131.442,0,0.000885,0,0
0:9:6.667,1032.68,131.483,0,0.000885,0,0
0:9:7.361,1035.03,131.786,0,0.000885,0,0
0:9:8.067,1035.55,131.848,0,0.000885,0,0
0:9:8.766,1037.2,132.062,0,0.000885,0,0
0:9:9.471,1038.31,132.2,0,0.000885,0,0
0:9:10.171,1040.37,132.462,0,0.000885,0,0
0:9:10.860,1041.19,132.565,0,0.000885,0,0
0:9:11.558,1042.77,132.772,0,0.000885,0,0
0:9:12.260,1044.47,132.986,0,0.000885,0,0
0:9:12.960,1045.47,133.117,0,0.000885,0,0
0:9:13.657,1047.06,133.317,0,0.000885,0,0
0:9:14.367,1048.94,133.551,0,0.000885,0,0
0:9:15.072,1049.58,133.634,0,0.000885,0,0
0:9:15.769,1051.05,133.827,0,0.000885,0,0
0:9:16.468,1052.28,133.979,0,0.000885,0,0
0:9:17.160,1053.4,134.124,0,0.000885,0,0
0:9:17.857,1055.22,134.351,0,0.000885,0,0
0:9:18.554,1056.63,134.531,0,0.000885,0,0
0:9:19.259,1058.04,134.71,0,0.000885,0,0
0:9:19.959,1059.68,134.924,0,0.000885,0,0
0:9:20.662,1060.97,135.089,0,0.000885,0,0
0:9:21.359,1062.03,135.22,0,0.000885,0,0
0:9:22.060,1063.85,135.454,0,0.000885,0,0
0:9:22.763,1064.67,135.558,0,0.000885,0,0
0:9:23.459,1066.43,135.785,0,0.000885,0,0
0:9:24.168,1067.48,135.916,0,0.000885,0,0
0:9:24.872,1069.07,136.116,0,0.000885,0,0
0:9:25.568,1070.77,136.337,0,0.000885,0,0
0:9:26.267,1071.59,136.44,0,0.000885,0,0
0:9:26.962,1073.41,136.675,0,0.000885,0,0
0:9:27.656,1074.12,136.764,0,0.000885,0,0
0:9:28.356,1076.23,137.033,0,0.000885,0,0
0:9:29.061,1076.88,137.109,0,0.000885,0,0
0:9:29.767,1078.99,137.378,0,0.000885,0,0
0:9:30.462,1079.46,137.44,0,0.000885,0,0
0:9:31.160,1081.4,137.688,0,0.000885,0,0
0:9:31.853,1082.92,137.881,0,0.000885,0,0
0:9:32.546,1084.1,138.033,0,0.000885,0,0
0:9:33.252,1085.27,138.178,0,0.000885,0,0
0:9:33.961,1086.91,138.392,0,0.000885,0,0
0:9:34.663,1088.27,138.564,0,0.000885,0,0
0:9:35.360,1089.26,138.688,0,0.000885,0,0
0:9:36.051,1091.14,138.929,0,0.000885,0,0
0:9:36.748,1091.85,139.019,0,0.000885,0,0
0:9:37.441,1093.32,139.205,0,0.000885,0,0
0:9:38.135,1094.61,139.371,0,0.000885,0,0
0:9:38.843,1096.54,139.619,0,0.000885,0,0
0:9:39.547,1098.54,139.867,0,0.000885,0,0
0:9:40.246,1099.24,139.957,0,0.000885,0,0
0:9:40.942,1100.53,140.122,0,0.000885,0,0
0:9:41.633,1101.59,140.26,0,0.000885,0,0
0:9:42.327,1102.71,140.398,0,0.000885,0,0
0:9:43.025,1104.7,140.653,0,0.000885,0,0
0:9:43.725,1106.29,140.86,0,0.000885,0,0
0:9:44.432,1107.63,141.025,0,0.000885,0,0
0:9:45.136,1108.51,141.143,0,0.000885,0,0
0:9:45.826,1110.22,141.356,0,0.000885,0,0
0:9:46.524,1111.8,141.556,0,0.000885,0,0
0:9:47.220,1112.68,141.673,0,0.000885,0,0
0:9:47.911,1113.68,141.798,0,0.000885,0,0
0:9:48.618,1115.68,142.053,0,0.000885,0,0
0:9:49.323,1117.2,142.246,0,0.000885,0,0
0:9:50.020,1118.15,142.363,0,0.000885,0,0
0:9:50.719,1119.31,142.515,0,0.000885,0,0
0:9:51.415,1121.02,142.735,0,0.000885,0,0
0:9:52.106,1122.9,142.97,0,0.000885,0,0
0:9:52.805,1124.07,143.121,0,0.000885,0,0
0:9:53.503,1124.95,143.232,0,0.000885,0,0
0:9:54.210,1126.42,143.418,0,0.000885,0,0
0:9:54.912,1127.77,143.59,0,0.000885,0,0
0:9:55.602,1129,143.749,0,0.000885,0,0
0:9:56.300,1130.64,143.956,0,0.000885,0,0
0:9:56.996,1132.05,144.135,0,0.000885,0,0
0:9:57.686,1133.64,144.342,0,0.000885,0,0
0:9:58.383,1134.52,144.452,0,0.000885,0,0
0:9:59.092,1135.52,144.576,0,0.000885,0,0
0:9:59.795,1137.81,144.873,0,0.000885,0,0
0:10:0.493,1138.98,145.017,0,0.000885,0,0
0:10:1.185,1140.68,145.238,0,0.000885,0,0
0:10:1.877,1141.39,145.328,0,0.000885,0,0
0:10:2.575,1142.85,145.514,0,0.000885,0,0
0:10:3.266,1144.21,145.686,0,0.000885,0,0
0:10:3.972,1145.61,145.865,0,0.000885,0,0
0:10:4.677,1147.37,146.086,0,0.000885,0,0
0:10:5.375,1149.25,146.327,0,0.000885,0,0
0:10:6.071,1150.19,146.445,0,0.000885,0,0
0:10:6.766,1151.08,146.562,0,0.000885,0,0
0:10:7.467,1152.66,146.762,0,0.000885,0,0
0:10:8.165,1153.6,146.879,0,0.000885,0,0
0:10:8.875,1155.47,147.12,0,0.000885,0,0
0:10:9.581,1157.36,147.362,0,0.000885,0,0
0:10:10.278,1157.82,147.417,0,0.000885,0,0
0:10:10.967,1159.64,147.651,0,0.000885,0,0
0:10:11.664,1160.82,147.803,0,0.000885,0,0
0:10:12.360,1161.93,147.941,0,0.000885,0,0
0:10:13.061,1163.87,148.189,0,0.000885,0,0
0:10:13.769,1164.75,148.299,0,0.000885,0,0
0:10:14.476,1166.45,148.52,0,0.000885,0,0
0:10:15.175,1167.8,148.692,0,0.000885,0,0
0:10:15.867,1168.74,148.81,0,0.000885,0,0
0:10:16.569,1170.38,149.016,0,0.000885,0,0
0:10:17.280,1172.09,149.237,0,0.000885,0,0
0:10:17.969,1172.85,149.334,0,0.000885,0,0
0:10:18.676,1174.61,149.554,0,0.000885,0,0
0:10:19.382,1175.67,149.692,0,0.000885,0,0
0:10:20.081,1177.9,149.975,0,0.000885,0,0
0:10:20.778,1178.9,150.099,0,0.000885,0,0
0:10:21.474,1180.01,150.244,0,0.000885,0,0
0:10:22.162,1181.01,150.368,0,0.000885,0,0
0:10:22.861,1182.42,150.547,0,0.000885,0,0
0:10:23.567,1184.12,150.768,0,0.000885,0,0
0:10:24.277,1185.7,150.968,0,0.000885,0,0
0:10:24.983,1186.94,151.126,0,0.000885,0,0
0:10:25.675,1188.17,151.285,0,0.000885,0,0
0:10:26.369,1189.76,151.485,0,0.000885,0,0
0:10:27.065,1190.93,151.636,0,0.000885,0,0
0:10:27.768,1192.04,151.774,0,0.000885,0,0
0:10:28.467,1194.16,152.043,0,0.000885,0,0
0:10:29.177,1195.45,152.209,0,0.000885,0,0
0:10:29.881,1196.92,152.395,0,0.000885,0,0
0:10:30.578,1197.86,152.519,0,0.000885,0,0
0:10:31.269,1199.73,152.753,0,0.000885,0,0
0:10:31.978,1200.5,152.85,0,0.000885,0,0
0:10:32.669,1202.55,153.112,0,0.000885,0,0
0:10:33.362,1203.32,153.208,0,0.000885,0,0
0:10:34.070,1204.49,153.36,0,0.000885,0,0
0:10:34.775,1206.6,153.629,0,0.000885,0,0
0:10:35.470,1207.43,153.732,0,0.000885,0,0
0:10:36.166,1208.95,153.925,0,0.000885,0,0
0:10:36.859,1210.24,154.091,0,0.000885,0,0
0:10:37.558,1211.89,154.305,0,0.000885,0,0
0:10:38.275,1213.47,154.505,0,0.000885,0,0
0:10:38.983,1214.82,154.677,0,0.000885,0,0
0:10:39.687,1215.76,154.794,0,0.000885,0,0
0:10:40.379,1217.23,154.98,0,0.000885,0,0
0:10:41.075,1218.69,155.167,0,0.000885,0,0
0:10:41.768,1219.69,155.298,0,0.000885,0,0
0:10:42.461,1221.51,155.525,0,0.000885,0,0
0:10:43.156,1222.69,155.677,0,0.000885,0,0
0:10:43.863,1224.45,155.904,0,0.000885,0,0
0:10:44.568,1225.27,156.008,0,0.000885,0,0
0:10:45.266,1227.03,156.228,0,0.000885,0,0
0:10:45.960,1228.38,156.401,0,0.000885,0,0
0:10:46.670,1229.08,156.49,0,0.000885,0,0
0:10:47.369,1231.2,156.759,0,0.000885,0,0
0:10:48.061,1232.78,156.966,0,0.000885,0,0
0:10:48.766,1233.49,157.056,0,0.000885,0,0
0:10:49.469,1235.07,157.256,0,0.000885,0,0
0:10:50.169,1236.54,157.442,0,0.000885,0,0
0:10:50.862,1237.6,157.573,0,0.000885,0,0
0:10:51.559,1238.42,157.683,0,0.000885,0,0
0:10:52.251,1240.53,157.952,0,0.000885,0,0
0:10:52.947,1241.82,158.111,0,0.000885,0,0
0:10:53.644,1243.52,158.331,0,0.000885,0,0
0:10:54.352,1244.47,158.448,0,0.000885,0,0
0:10:55.055,1245.64,158.6,0,0.000885,0,0
0:10:55.748,1247.34,158.814,0,0.000885,0,0
0:10:56.442,1248.63,158.979,0,0.000885,0,0
0:10:57.138,1250.45,159.214,0,0.000885,0,0
0:10:57.831,1251.27,159.317,0,0.000885,0,0
0:10:58.534,1252.98,159.531,0,0.000885,0,0
0:10:59.241,1254.27,159.696,0,0.000885,0,0
0:10:59.939,1255.79,159.889,0,0.000885,0,0
0:11:0.637,1257.26,160.082,0,0.000885,0,0
0:11:1.330,1258.32,160.213,0,0.000885,0,0
0:11:2.024,1260.25,160.462,0,0.000885,0,0
0:11:2.720,1260.55,160.496,0,0.000885,0,0
0:11:3.417,1262.6,160.758,0,0.000885,0,0
0:11:4.126,1263.95,160.931,0,0.000885,0,0
0:11:4.830,1264.83,161.041,0,0.000885,0,0
0:11:5.523,1266.95,161.31,0,0.000885,0,0
0:11:6.219,1268.12,161.461,0,0.000885,0,0
0:11:6.914,1269.41,161.627,0,0.000885,0,0
0:11:7.606,1270.29,161.737,0,0.000885,0,0
0:11:8.301,1272.52,162.02,0,0.000885,0,0
0:11:9.009,1273.23,162.11,0,0.000885,0,0
0:11:9.712,1275.16,162.358,0,0.000885,0,0
0:11:10.409,1276.22,162.496,0,0.000885,0,0
0:11:11.104,1277.86,162.702,0,0.000885,0,0
0:11:11.795,1278.98,162.847,0,0.000885,0,0
0:11:12.494,1280.27,163.006,0,0.000885,0,0
0:11:13.190,1281.21,163.13,0,0.000885,0,0
0:11:13.897,1282.85,163.337,0,0.000885,0,0
0:11:14.603,1284.32,163.523,0,0.000885,0,0
0:11:15.296,1286.38,163.785,0,0.000885,0,0
0:11:15.991,1287.37,163.916,0,0.000885,0,0
0:11:16.687,1288.31,164.033,0,0.000885,0,0
0:11:17.379,1289.78,164.219,0,0.000885,0,0
0:11:18.084,1291.42,164.426,0,0.000885,0,0
0:11:18.790,1292.01,164.502,0,0.000885,0,0
0:11:19.496,1294.3,164.798,0,0.000885,0,0
0:11:20.193,1295.77,164.985,0,0.000885,0,0
0:11:20.888,1297,165.136,0,0.000885,0,0
0:11:21.576,1297.94,165.26,0,0.000885,0,0
0:11:22.274,1299.64,165.474,0,0.000885,0,0
0:11:22.980,1301.28,165.688,0,0.000885,0,0
0:11:23.682,1302.28,165.812,0,0.000885,0,0
0:11:24.386,1303.92,166.019,0,0.000885,0,0
0:11:25.085,1304.57,166.102,0,0.000885,0,0
0:11:25.779,1306.16,166.308,0,0.000885,0,0
0:11:26.475,1307.68,166.501,0,0.000885,0,0
0:11:27.176,1308.92,166.653,0,0.000885,0,0
0:11:27.872,1310.38,166.846,0,0.000885,0,0
0:11:28.580,1311.5,166.984,0,0.000885,0,0
0:11:29.284,1313.32,167.219,0,0.000885,0,0
0:11:29.980,1314.78,167.405,0,0.000885,0,0
0:11:30.685,1316.08,167.57,0,0.000885,0,0
0:11:31.375,1317.55,167.756,0,0.000885,0,0
0:11:32.072,1318.25,167.846,0,0.000885,0,0
0:11:32.766,1320.19,168.094,0,0.000885,0,0
0:11:33.467,1321.3,168.232,0,0.000885,0,0
0:11:34.172,1323.24,168.48,0,0.000885,0,0
0:11:34.871,1324.35,168.625,0,0.000885,0,0
0:11:35.565,1325.12,168.722,0,0.000885,0,0
0:11:36.261,1326.99,168.956,0,0.000885,0,0
0:11:36.953,1327.93,169.08,0,0.000885,0,0
0:11:37.648,1329.69,169.301,0,0.000885,0,0
0:11:38.347,1331.4,169.521,0,0.000885,0,0
0:11:39.055,1332.46,169.652,0,0.000885,0,0
0:11:39.759,1333.86,169.832,0,0.000885,0,0
0:11:40.455,1335.51,170.039,0,0.000885,0,0
0:11:41.148,1336.45,170.163,0,0.000885,0,0
0:11:41.846,1338.09,170.369,0,0.000885,0,0
0:11:42.540,1339.26,170.521,0,0.000885,0,0
0:11:43.234,1340.44,170.673,0,0.000885,0,0
0:11:43.942,1342.2,170.893,0,0.000885,0,0
0:11:44.648,1343.78,171.093,0,0.000885,0,0
0:11:45.343,1344.49,171.183,0,0.000885,0,0
0:11:46.039,1346.84,171.486,0,0.000885,0,0
0:11:46.729,1347.42,171.562,0,0.000885,0,0
0:11:47.424,1348.66,171.714,0,0.000885,0,0
0:11:48.121,1350.12,171.9,0,0.000885,0,0
0:11:48.829,1351.41,172.066,0,0.000885,0,0
0:11:49.533,1353,172.272,0,0.000885,0,0
0:11:50.227,1354.41,172.452,0,0.000885,0,0
0:11:50.919,1355.52,172.59,0,0.000885,0,0
0:11:51.616,1357.64,172.858,0,0.000885,0,0
0:11:52.310,1358.4,172.955,0,0.000885,0,0
0:11:53.002,1359.34,173.079,0,0.000885,0,0
0:11:53.711,1361.28,173.32,0,0.000885,0,0
0:11:54.416,1362.51,173.479,0,0.000885,0,0
0:11:55.115,1364.27,173.707,0,0.000885,0,0
0:11:55.811,1364.91,173.789,0,0.000885,0,0
0:11:56.502,1366.68,174.01,0,0.000885,0,0
0:11:57.198,1368.02,174.182,0,0.000885,0,0
0:11:57.896,1369.26,174.341,0,0.000885,0,0
0:11:58.594,1370.96,174.555,0,0.000885,0,0
0:11:59.302,1372.43,174.741,0,0.000885,0,0
0:12:0.003,1373.25,174.844,0,0.000885,0,0
0:12:0.696,1374.6,175.017,0,0.000885,0,0
0:12:1.392,1375.89,175.182,0,0.000885,0,0
0:12:2.088,1377.53,175.396,0,0.000885,0,0
0:12:2.778,1379.18,175.603,0,0.000885,0,0
0:12:3.489,1380.18,175.727,0,0.000885,0,0
0:12:4.192,1382.17,175.982,0,0.000885,0,0
0:12:4.889,1383.46,176.147,0,0.000885,0,0
0:12:5.587,1384.52,176.285,0,0.000885,0,0
0:12:6.276,1385.17,176.368,0,0.000885,0,0
0:12:6.972,1387.28,176.637,0,0.000885,0,0
0:12:7.668,1388.75,176.823,0,0.000885,0,0
0:12:8.378,1390.68,177.064,0,0.000885,0,0
0:12:9.086,1391.92,177.223,0,0.000885,0,0
0:12:9.787,1392.62,177.312,0,0.000885,0,0
0:12:10.477,1394.03,177.492,0,0.000885,0,0
0:12:11.174,1395.55,177.685,0,0.000885,0,0
0:12:11.876,1396.96,177.864,0,0.000885,0,0
0:12:12.569,1398.49,178.064,0,0.000885,0,0
0:12:13.267,1399.66,178.209,0,0.000885,0,0
0:12:13.976,1400.54,178.326,0,0.000885,0,0
0:12:14.681,1402.25,178.54,0,0.000885,0,0
0:12:15.378,1403.72,178.726,0,0.000885,0,0
0:12:16.078,1405.47,178.953,0,0.000885,0,0
0:12:16.786,1406.47,179.078,0,0.000885,0,0
0:12:17.480,1408.06,179.277,0,0.000885,0,0
0:12:18.179,1408.59,179.346,0,0.000885,0,0
0:12:18.887,1410.94,179.643,0,0.000885,0,0
0:12:19.589,1412.28,179.815,0,0.000885,0,0
0:12:20.290,1413.64,179.988,0,0.000885,0,0
0:12:20.988,1414.4,180.084,0,0.000885,0,0
0:12:21.680,1415.86,180.27,0,0.000885,0,0
0:12:22.380,1417.51,180.484,0,0.000885,0,0
0:12:23.078,1418.68,180.636,0,0.000885,0,0
0:12:23.788,1420.15,180.822,0,0.000885,0,0
0:12:24.493,1421.56,181.001,0,0.000885,0,0
0:12:25.191,1422.67,181.139,0,0.000885,0,0
0:12:25.880,1424.55,181.38,0,0.000885,0,0
0:12:26.576,1426.31,181.601,0,0.000885,0,0
0:12:27.272,1427.67,181.773,0,0.000885,0,0
0:12:27.964,1428.43,181.87,0,0.000885,0,0
0:12:28.669,1429.48,182.008,0,0.000885,0,0
0:12:29.373,1430.25,182.104,0,0.000885,0,0
0:12:30.069,1432.36,182.373,0,0.000885,0,0
0:12:30.768,1433.77,182.552,0,0.000885,0,0
0:12:31.462,1436.06,182.842,0,0.000885,0,0
0:12:32.152,1435.06,182.718,0,0.000885,0,0
0:12:32.847,1431.3,182.242,0,0.000885,0,0
0:12:33.543,1078.4,137.309,0,0.000885,0,0
0:12:33.604,1078.4,137.309,0,0.000885,0,0