File: DataFile2021-06-30_061238.csv
Test ID:,Date Tested:,Time:,Test Type:,Diameter Avg. (mm):,Cyl. Corr. Factor:,Height (mm):,Age (days):,Weight (kN):,Break Type:,Ramp Rate (MPa/s):,Load at Break (kN):,Stress at Break (MPa):
12,6/30/2021,06:12,Cylinder,100,1,200,0,3.6,3,0.24,735.42,93.64
Sample Time,Load (kN),Stress (MPa),Long. Strain,Trans. Strain,Chan1 Deflection (mm),Chan2 Deflection (mm)
0:0:18.921,6.39209,0.813581,0,0.000885,0,0
0:0:19.319,10.1464,1.28932,0,0.000885,0,0
0:0:19.720,10.1464,1.28932,0,0.000885,0,0
0:0:20.116,9.44357,1.19969,0,0.000885,0,0
0:0:20.512,9.44357,1.19969,0,0.000885,0,0
0:0:20.906,9.85281,1.25485,0,0.000885,0,0
0:0:21.304,9.96846,1.26864,0,0.000885,0,0
0:0:21.702,9.14999,1.16521,0,0.000885,0,0
0:0:22.097,10.0886,1.28242,0,0.000885,0,0
0:0:22.493,10.6179,1.35137,0,0.000885,0,0
0:0:22.890,12.2593,1.55822,0,0.000885,0,0
0:0:23.291,12.6685,1.61337,0,0.000885,0,0
0:0:23.689,13.9585,1.77885,0,0.000885,0,0
0:0:24.084,15.3686,1.95811,0,0.000885,0,0
0:0:24.489,16.1293,2.05464,0,0.000885,0,0
0:0:24.894,17.1257,2.17874,0,0.000885,0,0
0:0:25.297,18.1221,2.30974,0,0.000885,0,0
0:0:25.699,18.767,2.39248,0,0.000885,0,0
0:0:26.096,19.1185,2.43385,0,0.000885,0,0
0:0:26.493,20.4084,2.59932,0,0.000885,0,0
0:0:26.895,21.1157,2.68896,0,0.000885,0,0
0:0:27.292,22.0543,2.80617,0,0.000885,0,0
0:0:27.688,22.5792,2.87511,0,0.000885,0,0
0:0:28.086,23.4599,2.98543,0,0.000885,0,0
0:0:28.485,23.9314,3.04748,0,0.000885,0,0
0:0:28.883,24.5141,3.12333,0,0.000885,0,0
0:0:29.280,25.2792,3.21985,0,0.000885,0,0
0:0:29.686,26.2178,3.33706,0,0.000885,0,0
0:0:30.091,27.45,3.49564,0,0.000885,0,0
0:0:30.493,28.5042,3.62664,0,0.000885,0,0
0:0:30.898,29.1492,3.70938,0,0.000885,0,0
0:0:31.294,30.3814,3.86796,0,0.000885,0,0
0:0:31.690,30.5548,3.88864,0,0.000885,0,0
0:0:32.091,31.0263,3.9507,0,0.000885,0,0
0:0:32.490,31.2621,3.97827,0,0.000885,0,0
0:0:32.885,32.0806,4.0817,0,0.000885,0,0
0:0:33.282,33.2549,4.23338,0,0.000885,0,0
0:0:33.681,33.6641,4.28854,0,0.000885,0,0
0:0:34.082,34.7228,4.41954,0,0.000885,0,0
0:0:34.488,35.4835,4.51607,0,0.000885,0,0
0:0:34.892,36.7734,4.68154,0,0.000885,0,0
0:0:35.295,37.4763,4.77117,0,0.000885,0,0
0:0:35.697,38.4727,4.90217,0,0.000885,0,0
0:0:36.096,39.1799,4.9918,0,0.000885,0,0
0:0:36.492,39.7671,5.06075,0,0.000885,0,0
0:0:36.889,40.7635,5.19175,0,0.000885,0,0
0:0:37.288,41.5241,5.28828,0,0.000885,0,0
0:0:37.688,41.8756,5.32965,0,0.000885,0,0
0:0:38.085,42.8141,5.45375,0,0.000885,0,0
0:0:38.481,44.282,5.63991,0,0.000885,0,0
0:0:38.878,44.5756,5.67439,0,0.000885,0,0
0:0:39.280,44.7491,5.69507,0,0.000885,0,0
0:0:39.687,45.8656,5.83986,0,0.000885,0,0
0:0:40.091,47.0978,5.99844,0,0.000885,0,0
0:0:40.494,47.8006,6.08807,0,0.000885,0,0
0:0:40.893,47.9741,6.10875,0,0.000885,0,0
0:0:41.292,48.9126,6.22597,0,0.000885,0,0
0:0:41.690,50.1448,6.38455,0,0.000885,0,0
0:0:42.088,51.1412,6.50865,0,0.000885,0,0
0:0:42.484,51.6705,6.5776,0,0.000885,0,0
0:0:42.884,52.2577,6.65344,0,0.000885,0,0
0:0:43.282,52.9605,6.74307,0,0.000885,0,0
0:0:43.678,53.7834,6.84649,0,0.000885,0,0
0:0:44.075,54.3706,6.92234,0,0.000885,0,0
0:0:44.478,55.1891,7.02576,0,0.000885,0,0
0:0:44.884,56.3056,7.17055,0,0.000885,0,0
0:0:45.288,57.0084,7.26018,0,0.000885,0,0
0:0:45.691,58.1827,7.40497,0,0.000885,0,0
0:0:46.088,58.8277,7.48771,0,0.000885,0,0
0:0:46.487,58.8856,7.4946,0,0.000885,0,0
0:0:46.887,60.1755,7.66008,0,0.000885,0,0
0:0:47.284,60.8205,7.74281,0,0.000885,0,0
0:0:47.678,62.1105,7.90829,0,0.000885,0,0
0:0:48.077,63.0491,8.0255,0,0.000885,0,0
0:0:48.477,63.2848,8.05997,0,0.000885,0,0
0:0:48.874,64.2234,8.17718,0,0.000885,0,0
0:0:49.273,64.8684,8.25992,0,0.000885,0,0
0:0:49.679,65.5134,8.34266,0,0.000885,0,0
0:0:50.083,66.2741,8.43918,0,0.000885,0,0
0:0:50.484,66.919,8.52192,0,0.000885,0,0
0:0:50.888,67.742,8.62534,0,0.000885,0,0
0:0:51.286,68.2713,8.69429,0,0.000885,0,0
0:0:51.682,69.2054,8.8115,0,0.000885,0,0
0:0:52.081,70.2641,8.94939,0,0.000885,0,0
0:0:52.483,70.8513,9.01834,0,0.000885,0,0
0:0:52.879,71.7898,9.14245,0,0.000885,0,0
0:0:53.274,72.9019,9.28034,0,0.000885,0,0
0:0:53.673,73.3111,9.3355,0,0.000885,0,0
0:0:54.072,74.312,9.45961,0,0.000885,0,0
0:0:54.481,75.0726,9.55613,0,0.000885,0,0
0:0:54.886,75.602,9.62508,0,0.000885,0,0
0:0:55.290,76.5405,9.74229,0,0.000885,0,0
0:0:55.692,77.359,9.85261,0,0.000885,0,0
0:0:56.095,78.2976,9.96982,0,0.000885,0,0
0:0:56.492,78.8848,10.0457,0,0.000885,0,0
0:0:56.890,79.7077,10.1491,0,0.000885,0,0
0:0:57.285,80.5262,10.2525,0,0.000885,0,0
0:0:57.686,80.9977,10.3146,0,0.000885,0,0
0:0:58.086,82.0519,10.4456,0,0.000885,0,0
0:0:58.482,83.2841,10.6041,0,0.000885,0,0
0:0:58.878,83.5198,10.6317,0,0.000885,0,0
0:0:59.284,84.4584,10.7558,0,0.000885,0,0
0:0:59.688,85.219,10.8523,0,0.000885,0,0
0:1:0.092,86.2154,10.9765,0,0.000885,0,0
0:1:0.497,87.2118,11.1075,0,0.000885,0,0
0:1:0.893,87.5632,11.1488,0,0.000885,0,0
0:1:1.290,88.1504,11.2247,0,0.000885,0,0
0:1:1.688,88.7376,11.3005,0,0.000885,0,0
0:1:2.090,89.8541,11.4384,0,0.000885,0,0
0:1:2.486,90.6147,11.5349,0,0.000885,0,0
0:1:2.883,91.4376,11.6452,0,0.000885,0,0
0:1:3.281,92.434,11.7694,0,0.000885,0,0
0:1:3.680,93.1947,11.8659,0,0.000885,0,0
0:1:4.077,94.1333,11.9831,0,0.000885,0,0
0:1:4.482,95.0718,12.1072,0,0.000885,0,0
0:1:4.887,95.7747,12.1968,0,0.000885,0,0
0:1:5.289,95.8369,12.2037,0,0.000885,0,0
0:1:5.694,97.1847,12.3761,0,0.000885,0,0
0:1:6.091,98.1233,12.4933,0,0.000885,0,0
0:1:6.489,98.4747,12.5416,0,0.000885,0,0
0:1:6.886,99.529,12.6726,0,0.000885,0,0
0:1:7.286,100.41,12.7829,0,0.000885,0,0
0:1:7.685,100.939,12.8518,0,0.000885,0,0
0:1:8.080,101.758,12.9552,0,0.000885,0,0
0:1:8.478,102.051,12.9966,0,0.000885,0,0
0:1:8.874,103.577,13.1897,0,0.000885,0,0
0:1:9.276,103.635,13.1966,0,0.000885,0,0
0:1:9.682,104.809,13.3414,0,0.000885,0,0
0:1:10.086,105.69,13.4586,0,0.000885,0,0
0:1:10.488,106.157,13.5137,0,0.000885,0,0
0:1:10.889,106.744,13.5896,0,0.000885,0,0
0:1:11.289,107.447,13.6792,0,0.000885,0,0
0:1:11.688,108.328,13.7895,0,0.000885,0,0
0:1:12.083,109.853,13.9895,0,0.000885,0,0
0:1:12.480,110.672,14.0929,0,0.000885,0,0
0:1:12.880,111.259,14.1687,0,0.000885,0,0
0:1:13.280,112.197,14.2859,0,0.000885,0,0
0:1:13.678,112.963,14.3825,0,0.000885,0,0
0:1:14.070,113.545,14.4583,0,0.000885,0,0
0:1:14.476,114.075,14.5273,0,0.000885,0,0
0:1:14.882,115.129,14.6583,0,0.000885,0,0
0:1:15.286,115.952,14.7617,0,0.000885,0,0
0:1:15.686,116.481,14.8306,0,0.000885,0,0
0:1:16.084,117.713,14.9892,0,0.000885,0,0
0:1:16.484,118.416,15.0788,0,0.000885,0,0
0:1:16.883,118.71,15.1133,0,0.000885,0,0
0:1:17.280,119.59,15.2236,0,0.000885,0,0
0:1:17.675,120.173,15.2995,0,0.000885,0,0
0:1:18.074,120.76,15.3753,0,0.000885,0,0
0:1:18.471,122.05,15.5408,0,0.000885,0,0
0:1:18.868,122.989,15.658,0,0.000885,0,0
0:1:19.276,123.403,15.7132,0,0.000885,0,0
0:1:19.681,124.63,15.8717,0,0.000885,0,0
0:1:20.086,125.511,15.982,0,0.000885,0,0
0:1:20.488,126.04,16.051,0,0.000885,0,0
0:1:20.892,127.33,16.2096,0,0.000885,0,0
0:1:21.289,127.74,16.2647,0,0.000885,0,0
0:1:21.685,128.736,16.3888,0,0.000885,0,0
0:1:22.087,129.15,16.444,0,0.000885,0,0
0:1:22.485,129.737,16.5198,0,0.000885,0,0
0:1:22.880,130.555,16.6233,0,0.000885,0,0
0:1:23.278,131.2,16.706,0,0.000885,0,0
0:1:23.678,132.49,16.8715,0,0.000885,0,0
0:1:24.086,133.371,16.9818,0,0.000885,0,0
0:1:24.491,134.194,17.0852,0,0.000885,0,0
0:1:24.894,134.603,17.1404,0,0.000885,0,0
0:1:25.297,135.778,17.2852,0,0.000885,0,0
0:1:25.699,136.187,17.3403,0,0.000885,0,0
0:1:26.097,136.774,17.4162,0,0.000885,0,0
0:1:26.494,137.655,17.5265,0,0.000885,0,0
0:1:26.890,138.3,17.6092,0,0.000885,0,0
0:1:27.290,139.354,17.7402,0,0.000885,0,0
0:1:27.690,140.35,17.8712,0,0.000885,0,0
0:1:28.087,140.702,17.9126,0,0.000885,0,0
0:1:28.484,142.05,18.0849,0,0.000885,0,0
0:1:28.881,142.637,18.1608,0,0.000885,0,0
0:1:29.284,143.46,18.2642,0,0.000885,0,0
0:1:29.689,144.514,18.4021,0,0.000885,0,0
0:1:30.092,144.807,18.4366,0,0.000885,0,0
0:1:30.496,145.51,18.5262,0,0.000885,0,0
0:1:30.896,146.217,18.6158,0,0.000885,0,0
0:1:31.295,146.569,18.6641,0,0.000885,0,0
0:1:31.691,147.507,18.7813,0,0.000885,0,0
0:1:32.088,149.207,18.9951,0,0.000885,0,0
0:1:32.485,150.439,19.1536,0,0.000885,0,0
0:1:32.886,150.612,19.1743,0,0.000885,0,0
0:1:33.283,151.671,19.3122,0,0.000885,0,0
0:1:33.678,152.08,19.3605,0,0.000885,0,0
0:1:34.078,153.077,19.4915,0,0.000885,0,0
0:1:34.480,154.193,19.6294,0,0.000885,0,0
0:1:34.886,154.896,19.719,0,0.000885,0,0
0:1:35.288,155.483,19.7948,0,0.000885,0,0
0:1:35.691,155.835,19.8431,0,0.000885,0,0
0:1:36.090,156.302,19.8983,0,0.000885,0,0
0:1:36.490,157.182,20.0155,0,0.000885,0,0
0:1:36.887,157.827,20.0982,0,0.000885,0,0
0:1:37.284,159.18,20.2637,0,0.000885,0,0
0:1:37.679,159.469,20.3051,0,0.000885,0,0
0:1:38.080,160.407,20.4223,0,0.000885,0,0
0:1:38.479,161.466,20.5602,0,0.000885,0,0
0:1:38.884,162.227,20.6567,0,0.000885,0,0
0:1:39.282,163.05,20.7601,0,0.000885,0,0
0:1:39.686,163.637,20.836,0,0.000885,0,0
0:1:40.092,164.633,20.9601,0,0.000885,0,0
0:1:40.496,165.452,21.0635,0,0.000885,0,0
0:1:40.897,165.803,21.1117,0,0.000885,0,0
0:1:41.295,167.155,21.2841,0,0.000885,0,0
0:1:41.694,167.858,21.3737,0,0.000885,0,0
0:1:42.094,168.209,21.4151,0,0.000885,0,0
0:1:42.492,169.615,21.5944,0,0.000885,0,0
0:1:42.886,170.265,21.6771,0,0.000885,0,0
0:1:43.287,170.91,21.7599,0,0.000885,0,0
0:1:43.686,171.848,21.8771,0,0.000885,0,0
0:1:44.083,172.257,21.9322,0,0.000885,0,0
0:1:44.488,173.663,22.1115,0,0.000885,0,0
0:1:44.893,174.077,22.1666,0,0.000885,0,0
0:1:45.296,174.722,22.2494,0,0.000885,0,0
0:1:45.698,175.189,22.3045,0,0.000885,0,0
0:1:46.095,176.479,22.47,0,0.000885,0,0
0:1:46.492,176.888,22.5252,0,0.000885,0,0
0:1:46.889,177.947,22.6562,0,0.000885,0,0
0:1:47.288,178.765,22.7596,0,0.000885,0,0
0:1:47.687,179.588,22.863,0,0.000885,0,0
0:1:48.083,180.055,22.9251,0,0.000885,0,0
0:1:48.479,180.762,23.0147,0,0.000885,0,0
0:1:48.880,181.581,23.1181,0,0.000885,0,0
0:1:49.287,182.577,23.2491,0,0.000885,0,0
0:1:49.693,183.107,23.3112,0,0.000885,0,0
0:1:50.097,183.636,23.3801,0,0.000885,0,0
0:1:50.500,184.806,23.5318,0,0.000885,0,0
0:1:50.903,185.744,23.649,0,0.000885,0,0
0:1:51.301,186.683,23.7662,0,0.000885,0,0
0:1:51.698,187.328,23.849,0,0.000885,0,0
0:1:52.094,188.035,23.9386,0,0.000885,0,0
0:1:52.493,189.325,24.1041,0,0.000885,0,0
0:1:52.893,190.673,24.2764,0,0.000885,0,0
0:1:53.288,190.789,24.2902,0,0.000885,0,0
0:1:53.684,191.318,24.3592,0,0.000885,0,0
0:1:54.083,191.963,24.4419,0,0.000885,0,0
0:1:54.481,192.666,24.5315,0,0.000885,0,0
0:1:54.886,193.431,24.6281,0,0.000885,0,0
0:1:55.287,193.898,24.6901,0,0.000885,0,0
0:1:55.686,195.308,24.8694,0,0.000885,0,0
0:1:56.084,196.127,24.9728,0,0.000885,0,0
0:1:56.481,197.301,25.1176,0,0.000885,0,0
0:1:56.884,197.946,25.2003,0,0.000885,0,0
0:1:57.275,198.355,25.2555,0,0.000885,0,0
0:1:57.671,198.707,25.2969,0,0.000885,0,0
0:1:58.081,199.703,25.4279,0,0.000885,0,0
0:1:58.483,200.641,25.5451,0,0.000885,0,0
0:1:58.874,201.816,25.6968,0,0.000885,0,0
0:1:59.278,202.461,25.7795,0,0.000885,0,0
0:1:59.680,203.048,25.8553,0,0.000885,0,0
0:2:0.079,203.515,25.9105,0,0.000885,0,0
0:2:0.480,204.222,26.0001,0,0.000885,0,0
0:2:0.872,205.57,26.1725,0,0.000885,0,0
0:2:1.269,206.215,26.2552,0,0.000885,0,0
0:2:1.678,206.86,26.338,0,0.000885,0,0
0:2:2.080,207.856,26.4621,0,0.000885,0,0
0:2:2.482,208.622,26.5655,0,0.000885,0,0
0:2:2.887,209.618,26.6896,0,0.000885,0,0
0:2:3.283,209.498,26.6758,0,0.000885,0,0
0:2:3.680,210.73,26.8344,0,0.000885,0,0
0:2:4.070,211.553,26.9378,0,0.000885,0,0
0:2:4.472,212.082,26.9999,0,0.000885,0,0
0:2:4.875,212.607,27.0688,0,0.000885,0,0
0:2:5.274,213.546,27.1929,0,0.000885,0,0
0:2:5.678,215.014,27.3791,0,0.000885,0,0
0:2:6.080,215.832,27.4825,0,0.000885,0,0
0:2:6.484,216.126,27.517,0,0.000885,0,0
0:2:6.882,217.416,27.6825,0,0.000885,0,0
0:2:7.285,218.239,27.7859,0,0.000885,0,0
0:2:7.679,218.417,27.8066,0,0.000885,0,0
0:2:8.070,219.644,27.9651,0,0.000885,0,0
0:2:8.467,220.116,28.0272,0,0.000885,0,0
0:2:8.864,221.584,28.2133,0,0.000885,0,0
0:2:9.280,222.402,28.3168,0,0.000885,0,0
0:2:9.680,222.811,28.3719,0,0.000885,0,0
0:2:10.082,223.225,28.4202,0,0.000885,0,0
0:2:10.483,224.222,28.5512,0,0.000885,0,0
0:2:10.883,224.631,28.5995,0,0.000885,0,0
0:2:11.274,225.627,28.7305,0,0.000885,0,0
0:2:11.679,227.037,28.9097,0,0.000885,0,0
0:2:12.075,227.562,28.9718,0,0.000885,0,0
0:2:12.483,228.621,29.1097,0,0.000885,0,0
0:2:12.873,229.088,29.1717,0,0.000885,0,0
0:2:13.269,229.733,29.2476,0,0.000885,0,0
0:2:13.683,230.614,29.3648,0,0.000885,0,0
0:2:14.082,231.374,29.4613,0,0.000885,0,0
0:2:14.485,232.019,29.544,0,0.000885,0,0
0:2:14.887,232.669,29.6268,0,0.000885,0,0
0:2:15.289,233.078,29.675,0,0.000885,0,0
0:2:15.688,233.896,29.7785,0,0.000885,0,0
0:2:16.088,235.306,29.9577,0,0.000885,0,0
0:2:16.483,235.951,30.0405,0,0.000885,0,0
0:2:16.872,236.712,30.137,0,0.000885,0,0
0:2:17.270,237.241,30.2059,0,0.000885,0,0
0:2:17.667,238.589,30.3783,0,0.000885,0,0
0:2:18.071,239.706,30.5231,0,0.000885,0,0
0:2:18.475,240.587,30.6334,0,0.000885,0,0
0:2:18.880,241.289,30.723,0,0.000885,0,0
0:2:19.276,241.934,30.8058,0,0.000885,0,0
0:2:19.682,242.931,30.9299,0,0.000885,0,0
0:2:20.083,243.518,31.0057,0,0.000885,0,0
0:2:20.484,244.043,31.0747,0,0.000885,0,0
0:2:20.880,244.514,31.1298,0,0.000885,0,0
0:2:21.285,245.626,31.2746,0,0.000885,0,0
0:2:21.683,246.391,31.3711,0,0.000885,0,0
0:2:22.086,247.152,31.4677,0,0.000885,0,0
0:2:22.477,247.624,31.5297,0,0.000885,0,0
0:2:22.883,248.678,31.6607,0,0.000885,0,0
0:2:23.281,249.323,31.7435,0,0.000885,0,0
0:2:23.687,250.204,31.8538,0,0.000885,0,0
0:2:24.077,250.791,31.9296,0,0.000885,0,0
0:2:24.482,251.609,32.033,0,0.000885,0,0
0:2:24.885,252.081,32.0951,0,0.000885,0,0
0:2:25.284,252.548,32.1571,0,0.000885,0,0
0:2:25.686,253.722,32.3019,0,0.000885,0,0
0:2:26.089,254.776,32.4398,0,0.000885,0,0
0:2:26.482,256.186,32.6191,0,0.000885,0,0
0:2:26.881,256.831,32.7018,0,0.000885,0,0
0:2:27.286,257.067,32.7294,0,0.000885,0,0
0:2:27.676,257.828,32.8259,0,0.000885,0,0
0:2:28.070,258.415,32.9018,0,0.000885,0,0
0:2:28.474,259.176,32.9983,0,0.000885,0,0
0:2:28.871,259.763,33.0742,0,0.000885,0,0
0:2:29.277,260.937,33.2258,0,0.000885,0,0
0:2:29.678,261.876,33.343,0,0.000885,0,0
0:2:30.081,262.227,33.3844,0,0.000885,0,0
0:2:30.481,263.459,33.543,0,0.000885,0,0
0:2:30.881,264.336,33.6533,0,0.000885,0,0
0:2:31.285,265.101,33.7567,0,0.000885,0,0
0:2:31.676,265.274,33.7774,0,0.000885,0,0
0:2:32.081,266.039,33.8739,0,0.000885,0,0
0:2:32.487,266.92,33.9843,0,0.000885,0,0
0:2:32.883,268.152,34.1428,0,0.000885,0,0
0:2:33.277,268.855,34.2325,0,0.000885,0,0
0:2:33.670,270.145,34.3979,0,0.000885,0,0
0:2:34.074,270.963,34.5014,0,0.000885,0,0
0:2:34.474,271.671,34.591,0,0.000885,0,0
0:2:34.876,272.547,34.7013,0,0.000885,0,0
0:2:35.277,273.37,34.8047,0,0.000885,0,0
0:2:35.676,274.251,34.9219,0,0.000885,0,0
0:2:36.071,274.66,34.9702,0,0.000885,0,0
0:2:36.469,275.247,35.0461,0,0.000885,0,0
0:2:36.873,275.892,35.1288,0,0.000885,0,0
0:2:37.274,276.359,35.1839,0,0.000885,0,0
0:2:37.678,277.36,35.3149,0,0.000885,0,0
0:2:38.086,278.588,35.4735,0,0.000885,0,0
0:2:38.484,279.882,35.6321,0,0.000885,0,0
0:2:38.888,280.527,35.7148,0,0.000885,0,0
0:2:39.282,280.994,35.7769,0,0.000885,0,0
0:2:39.684,281.581,35.8527,0,0.000885,0,0
0:2:40.085,281.991,35.901,0,0.000885,0,0
0:2:40.484,283.107,36.0458,0,0.000885,0,0
0:2:40.885,284.046,36.163,0,0.000885,0,0
0:2:41.276,284.864,36.2733,0,0.000885,0,0
0:2:41.690,285.509,36.3492,0,0.000885,0,0
0:2:42.087,286.683,36.5008,0,0.000885,0,0
0:2:42.484,287.386,36.5905,0,0.000885,0,0
0:2:42.886,288.031,36.6732,0,0.000885,0,0
0:2:43.276,289.028,36.7973,0,0.000885,0,0
0:2:43.672,289.615,36.8732,0,0.000885,0,0
0:2:44.069,290.26,36.9559,0,0.000885,0,0
0:2:44.474,291.256,37.0869,0,0.000885,0,0
0:2:44.875,291.906,37.1696,0,0.000885,0,0
0:2:45.275,292.902,37.2937,0,0.000885,0,0
0:2:45.676,293.311,37.3489,0,0.000885,0,0
0:2:46.075,293.778,37.4041,0,0.000885,0,0
0:2:46.470,294.779,37.5351,0,0.000885,0,0
0:2:46.871,295.131,37.5764,0,0.000885,0,0
0:2:47.275,295.891,37.673,0,0.000885,0,0
0:2:47.680,296.83,37.7902,0,0.000885,0,0
0:2:48.089,298.004,37.9418,0,0.000885,0,0
0:2:48.491,298.707,38.0315,0,0.000885,0,0
0:2:48.884,299.823,38.1763,0,0.000885,0,0
0:2:49.284,300.526,38.2659,0,0.000885,0,0
0:2:49.688,300.642,38.2797,0,0.000885,0,0
0:2:50.087,301.874,38.4383,0,0.000885,0,0
0:2:50.487,303.28,38.6175,0,0.000885,0,0
0:2:50.888,303.636,38.6589,0,0.000885,0,0
0:2:51.287,304.512,38.7692,0,0.000885,0,0
0:2:51.692,305.864,38.9416,0,0.000885,0,0
0:2:52.085,306.095,38.9761,0,0.000885,0,0
0:2:52.487,306.918,39.0795,0,0.000885,0,0
0:2:52.881,307.563,39.1622,0,0.000885,0,0
0:2:53.279,307.973,39.2105,0,0.000885,0,0
0:2:53.684,308.093,39.2243,0,0.000885,0,0
0:2:54.073,309.441,39.3966,0,0.000885,0,0
0:2:54.475,310.553,39.5414,0,0.000885,0,0
0:2:54.877,311.26,39.6311,0,0.000885,0,0
0:2:55.280,312.021,39.7276,0,0.000885,0,0
0:2:55.679,312.43,39.7827,0,0.000885,0,0
0:2:56.084,314.249,40.0103,0,0.000885,0,0
0:2:56.489,314.6,40.0585,0,0.000885,0,0
0:2:56.886,315.01,40.1068,0,0.000885,0,0
0:2:57.279,316.535,40.2999,0,0.000885,0,0
0:2:57.683,317.007,40.3619,0,0.000885,0,0
0:2:58.087,317.71,40.4515,0,0.000885,0,0
0:2:58.481,318.884,40.6032,0,0.000885,0,0
0:2:58.878,319.471,40.6791,0,0.000885,0,0
0:2:59.271,320.468,40.8032,0,0.000885,0,0
0:2:59.673,320.935,40.8652,0,0.000885,0,0
0:3:0.076,321.873,40.9824,0,0.000885,0,0
0:3:0.476,322.638,41.079,0,0.000885,0,0
0:3:0.877,323.693,41.2169,0,0.000885,0,0
0:3:1.281,324.511,41.3203,0,0.000885,0,0
0:3:1.686,324.983,41.3754,0,0.000885,0,0
0:3:2.080,325.806,41.4858,0,0.000885,0,0
0:3:2.477,326.74,41.603,0,0.000885,0,0
0:3:2.881,327.678,41.7202,0,0.000885,0,0
0:3:3.284,327.856,41.7409,0,0.000885,0,0
0:3:3.677,328.679,41.8512,0,0.000885,0,0
0:3:4.075,329.849,41.996,0,0.000885,0,0
0:3:4.479,330.143,42.0373,0,0.000885,0,0
0:3:4.882,331.023,42.1477,0,0.000885,0,0
0:3:5.286,331.962,42.2649,0,0.000885,0,0
0:3:5.685,332.785,42.3683,0,0.000885,0,0
0:3:6.086,333.955,42.52,0,0.000885,0,0
0:3:6.488,334.075,42.5338,0,0.000885,0,0
0:3:6.878,335.307,42.6923,0,0.000885,0,0
0:3:7.287,336.361,42.8233,0,0.000885,0,0
0:3:7.681,336.891,42.8923,0,0.000885,0,0
0:3:8.076,337.825,43.0164,0,0.000885,0,0
0:3:8.479,338.648,43.1198,0,0.000885,0,0
0:3:8.893,339.586,43.237,0,0.000885,0,0
0:3:9.293,339.586,43.237,0,0.000885,0,0
0:3:9.696,340.818,43.3956,0,0.000885,0,0
0:3:10.097,340.76,43.3887,0,0.000885,0,0
0:3:10.496,341.93,43.5335,0,0.000885,0,0
0:3:10.891,343.047,43.6783,0,0.000885,0,0
0:3:11.288,343.807,43.7748,0,0.000885,0,0
0:3:11.682,344.515,43.8644,0,0.000885,0,0
0:3:12.085,345.333,43.9679,0,0.000885,0,0
0:3:12.488,345.453,43.9817,0,0.000885,0,0
0:3:12.893,346.156,44.0713,0,0.000885,0,0
0:3:13.292,347.153,44.2023,0,0.000885,0,0
0:3:13.682,347.975,44.3057,0,0.000885,0,0
0:3:14.086,348.736,44.4022,0,0.000885,0,0
0:3:14.486,349.559,44.5057,0,0.000885,0,0
0:3:14.889,349.91,44.5539,0,0.000885,0,0
0:3:15.290,350.613,44.6436,0,0.000885,0,0
0:3:15.691,352.019,44.8228,0,0.000885,0,0
0:3:16.083,352.9,44.9331,0,0.000885,0,0
0:3:16.480,353.015,44.9469,0,0.000885,0,0
0:3:16.877,354.31,45.1124,0,0.000885,0,0
0:3:17.269,354.892,45.1882,0,0.000885,0,0
0:3:17.663,355.951,45.3192,0,0.000885,0,0
0:3:18.058,356.827,45.4296,0,0.000885,0,0
0:3:18.454,357.415,45.5054,0,0.000885,0,0
0:3:18.848,358.411,45.6364,0,0.000885,0,0
0:3:19.240,359.176,45.7329,0,0.000885,0,0
0:3:19.643,360.115,45.8501,0,0.000885,0,0
0:3:20.046,361.227,45.9949,0,0.000885,0,0
0:3:20.446,362.165,46.1121,0,0.000885,0,0
0:3:20.847,362.695,46.1811,0,0.000885,0,0
0:3:21.240,362.93,46.2087,0,0.000885,0,0
0:3:21.637,363.633,46.2983,0,0.000885,0,0
0:3:22.034,364.278,46.381,0,0.000885,0,0
0:3:22.427,365.101,46.4845,0,0.000885,0,0
0:3:22.821,366.098,46.6155,0,0.000885,0,0
0:3:23.215,367.094,46.7396,0,0.000885,0,0
0:3:23.611,367.739,46.8223,0,0.000885,0,0
0:3:24.007,368.793,46.9533,0,0.000885,0,0
0:3:24.408,368.62,46.9326,0,0.000885,0,0
0:3:24.810,369.732,47.0774,0,0.000885,0,0
0:3:25.210,370.612,47.1877,0,0.000885,0,0
0:3:25.611,371.373,47.2842,0,0.000885,0,0
0:3:26.005,372.374,47.4152,0,0.000885,0,0
0:3:26.401,373.25,47.5256,0,0.000885,0,0
0:3:26.793,374.189,47.6428,0,0.000885,0,0
0:3:27.191,375.012,47.7462,0,0.000885,0,0
0:3:27.588,376.186,47.8979,0,0.000885,0,0
0:3:27.991,376.947,47.9944,0,0.000885,0,0
0:3:28.394,377.414,48.0565,0,0.000885,0,0
0:3:28.788,378.001,48.1254,0,0.000885,0,0
0:3:29.189,378.882,48.2426,0,0.000885,0,0
0:3:29.592,379.585,48.3322,0,0.000885,0,0
0:3:29.993,380.817,48.4839,0,0.000885,0,0
0:3:30.393,381.755,48.608,0,0.000885,0,0
0:3:30.789,382.578,48.7115,0,0.000885,0,0
0:3:31.195,382.93,48.7528,0,0.000885,0,0
0:3:31.590,383.165,48.7873,0,0.000885,0,0
0:3:31.992,383.926,48.8838,0,0.000885,0,0
0:3:32.383,384.865,49.001,0,0.000885,0,0
0:3:32.781,385.567,49.0907,0,0.000885,0,0
0:3:33.178,386.097,49.1596,0,0.000885,0,0
0:3:33.579,387.093,49.2837,0,0.000885,0,0
0:3:33.984,387.565,49.3458,0,0.000885,0,0
0:3:34.389,388.441,49.4561,0,0.000885,0,0
0:3:34.791,388.855,49.5113,0,0.000885,0,0
0:3:35.192,390.145,49.6767,0,0.000885,0,0
0:3:35.593,391.666,49.8698,0,0.000885,0,0
0:3:35.988,392.195,49.9387,0,0.000885,0,0
0:3:36.390,392.84,50.0215,0,0.000885,0,0
0:3:36.788,393.605,50.118,0,0.000885,0,0
0:3:37.194,394.775,50.2628,0,0.000885,0,0
0:3:37.585,395.834,50.4007,0,0.000885,0,0
0:3:37.978,396.537,50.4903,0,0.000885,0,0
0:3:38.384,397.475,50.6075,0,0.000885,0,0
0:3:38.780,397.885,50.6627,0,0.000885,0,0
0:3:39.175,398.062,50.6834,0,0.000885,0,0
0:3:39.579,399.117,50.8144,0,0.000885,0,0
0:3:39.981,400.407,50.9798,0,0.000885,0,0
0:3:40.381,400.758,51.0281,0,0.000885,0,0
0:3:40.780,401.817,51.1591,0,0.000885,0,0
0:3:41.185,402.226,51.2143,0,0.000885,0,0
0:3:41.586,403.28,51.3453,0,0.000885,0,0
0:3:41.991,403.632,51.3935,0,0.000885,0,0
0:3:42.389,404.748,51.5314,0,0.000885,0,0
0:3:42.794,404.69,51.5245,0,0.000885,0,0
0:3:43.184,406.447,51.752,0,0.000885,0,0
0:3:43.577,407.328,51.8624,0,0.000885,0,0
0:3:43.981,408.151,51.9658,0,0.000885,0,0
0:3:44.380,409.263,52.1106,0,0.000885,0,0
0:3:44.783,410.024,52.2071,0,0.000885,0,0
0:3:45.184,410.731,52.2967,0,0.000885,0,0
0:3:45.584,411.14,52.345,0,0.000885,0,0
0:3:45.982,411.607,52.4071,0,0.000885,0,0
0:3:46.378,412.079,52.4691,0,0.000885,0,0
0:3:46.772,412.96,52.5794,0,0.000885,0,0
0:3:47.184,413.898,52.6966,0,0.000885,0,0
0:3:47.591,414.659,52.7932,0,0.000885,0,0
0:3:47.986,415.362,52.8828,0,0.000885,0,0
0:3:48.394,416.064,52.9724,0,0.000885,0,0
0:3:48.785,417.003,53.0965,0,0.000885,0,0
0:3:49.178,418.297,53.262,0,0.000885,0,0
0:3:49.580,418.942,53.3378,0,0.000885,0,0
0:3:49.982,419.761,53.4482,0,0.000885,0,0
0:3:50.383,420.526,53.5447,0,0.000885,0,0
0:3:50.781,420.584,53.5516,0,0.000885,0,0
0:3:51.177,421.344,53.6481,0,0.000885,0,0
0:3:51.582,422.87,53.8412,0,0.000885,0,0
0:3:51.981,423.457,53.917,0,0.000885,0,0
0:3:52.382,424.102,53.9997,0,0.000885,0,0
0:3:52.776,424.632,54.0687,0,0.000885,0,0
0:3:53.180,425.566,54.1859,0,0.000885,0,0
0:3:53.578,426.331,54.2824,0,0.000885,0,0
0:3:53.981,427.034,54.3721,0,0.000885,0,0
0:3:54.383,427.737,54.4617,0,0.000885,0,0
0:3:54.785,428.502,54.5582,0,0.000885,0,0
0:3:55.184,429.44,54.6754,0,0.000885,0,0
0:3:55.583,430.027,54.7513,0,0.000885,0,0
0:3:55.985,430.966,54.8754,0,0.000885,0,0
0:3:56.390,431.491,54.9374,0,0.000885,0,0
0:3:56.794,432.194,55.0271,0,0.000885,0,0
0:3:57.193,432.959,55.1236,0,0.000885,0,0
0:3:57.597,434.307,55.296,0,0.000885,0,0
0:3:57.991,435.423,55.4407,0,0.000885,0,0
0:3:58.382,435.717,55.4752,0,0.000885,0,0
0:3:58.790,437.589,55.7165,0,0.000885,0,0
0:3:59.197,437.767,55.7372,0,0.000885,0,0
0:3:59.599,438.297,55.8062,0,0.000885,0,0
0:4:0.001,439.409,55.9441,0,0.000885,0,0
0:4:0.401,440.289,56.0613,0,0.000885,0,0
0:4:0.801,441.522,56.213,0,0.000885,0,0
0:4:1.196,441.931,56.2681,0,0.000885,0,0
0:4:1.588,442.518,56.344,0,0.000885,0,0
0:4:1.992,443.692,56.4956,0,0.000885,0,0
0:4:2.391,444.279,56.5646,0,0.000885,0,0
0:4:2.796,445.156,56.6818,0,0.000885,0,0
0:4:3.185,445.276,56.6956,0,0.000885,0,0
0:4:3.578,445.627,56.737,0,0.000885,0,0
0:4:3.975,447.091,56.9231,0,0.000885,0,0
0:4:4.372,447.678,56.999,0,0.000885,0,0
0:4:4.776,449.03,57.1713,0,0.000885,0,0
0:4:5.175,449.906,57.2816,0,0.000885,0,0
0:4:5.574,450.436,57.3506,0,0.000885,0,0
0:4:5.974,450.729,57.392,0,0.000885,0,0
0:4:6.378,451.432,57.4816,0,0.000885,0,0
0:4:6.772,452.197,57.5781,0,0.000885,0,0
0:4:7.195,452.958,57.6746,0,0.000885,0,0
0:4:7.591,454.306,57.847,0,0.000885,0,0
0:4:7.988,455.538,57.9987,0,0.000885,0,0
0:4:8.394,456.009,58.0608,0,0.000885,0,0
0:4:8.785,455.889,58.047,0,0.000885,0,0
0:4:9.185,456.592,58.1366,0,0.000885,0,0
0:4:9.586,457.651,58.2676,0,0.000885,0,0
0:4:9.988,458.589,58.3917,0,0.000885,0,0
0:4:10.386,459.759,58.5365,0,0.000885,0,0
0:4:10.791,460.289,58.6054,0,0.000885,0,0
0:4:11.198,460.64,58.6537,0,0.000885,0,0
0:4:11.595,462.166,58.8468,0,0.000885,0,0
0:4:11.996,463.634,59.0329,0,0.000885,0,0
0:4:12.398,463.634,59.0329,0,0.000885,0,0
0:4:12.791,464.394,59.1294,0,0.000885,0,0
0:4:13.188,464.452,59.1363,0,0.000885,0,0
0:4:13.595,465.684,59.2949,0,0.000885,0,0
0:4:13.985,467.152,59.4811,0,0.000885,0,0
0:4:14.388,467.739,59.5569,0,0.000885,0,0
0:4:14.789,467.619,59.5362,0,0.000885,0,0
0:4:15.189,468.909,59.7017,0,0.000885,0,0
0:4:15.592,470.141,59.8603,0,0.000885,0,0
0:4:15.994,470.377,59.8879,0,0.000885,0,0
0:4:16.397,471.725,60.0602,0,0.000885,0,0
0:4:16.794,472.721,60.1912,0,0.000885,0,0
0:4:17.188,473.193,60.2464,0,0.000885,0,0
0:4:17.582,473.544,60.2947,0,0.000885,0,0
0:4:17.975,474.776,60.4532,0,0.000885,0,0
0:4:18.373,475.715,60.5704,0,0.000885,0,0
0:4:18.768,475.421,60.5291,0,0.000885,0,0
0:4:19.162,476.889,60.7221,0,0.000885,0,0
0:4:19.564,478.237,60.8876,0,0.000885,0,0
0:4:19.965,478.411,60.9152,0,0.000885,0,0
0:4:20.365,478.704,60.9497,0,0.000885,0,0
0:4:20.763,479.643,61.0669,0,0.000885,0,0
0:4:21.156,481.52,61.3082,0,0.000885,0,0
0:4:21.551,481.929,61.3633,0,0.000885,0,0
0:4:21.948,481.929,61.3633,0,0.000885,0,0
0:4:22.343,483.104,61.5081,0,0.000885,0,0
0:4:22.737,484.22,61.6529,0,0.000885,0,0
0:4:23.130,484.451,61.6805,0,0.000885,0,0
0:4:23.525,484.571,61.6943,0,0.000885,0,0
0:4:23.924,486.097,61.8942,0,0.000885,0,0
0:4:24.328,487.209,62.0321,0,0.000885,0,0
0:4:24.728,488.09,62.1424,0,0.000885,0,0
0:4:25.129,488.677,62.2183,0,0.000885,0,0
0:4:25.525,488.326,62.1769,0,0.000885,0,0
0:4:25.922,489.789,62.3631,0,0.000885,0,0
0:4:26.316,490.964,62.5148,0,0.000885,0,0
0:4:26.709,491.079,62.5286,0,0.000885,0,0
0:4:27.105,492.254,62.6733,0,0.000885,0,0
0:4:27.503,493.659,62.8526,0,0.000885,0,0
0:4:27.896,493.837,62.8802,0,0.000885,0,0
0:4:28.288,495.185,63.0457,0,0.000885,0,0
0:4:28.693,496.123,63.1698,0,0.000885,0,0
0:4:29.090,495.95,63.1491,0,0.000885,0,0
0:4:29.495,497.12,63.2939,0,0.000885,0,0
0:4:29.895,497.182,63.3008,0,0.000885,0,0
0:4:30.297,498.766,63.5076,0,0.000885,0,0
0:4:30.693,498.881,63.5214,0,0.000885,0,0
0:4:31.089,500.349,63.7076,0,0.000885,0,0
0:4:31.482,501.11,63.8041,0,0.000885,0,0
0:4:31.875,502.222,63.942,0,0.000885,0,0
0:4:32.272,502.871,64.0247,0,0.000885,0,0
0:4:32.668,503.396,64.0937,0,0.000885,0,0
0:4:33.061,504.922,64.2867,0,0.000885,0,0
0:4:33.454,505.1,64.3143,0,0.000885,0,0
0:4:33.850,505.803,64.4039,0,0.000885,0,0
0:4:34.249,506.915,64.5418,0,0.000885,0,0
0:4:34.653,507.502,64.6177,0,0.000885,0,0
0:4:35.053,508.147,64.7004,0,0.000885,0,0
0:4:35.454,509.495,64.8728,0,0.000885,0,0
0:4:35.850,509.788,64.9072,0,0.000885,0,0
0:4:36.248,510.554,65.0038,0,0.000885,0,0
0:4:36.642,510.669,65.0176,0,0.000885,0,0
0:4:37.035,512.253,65.2244,0,0.000885,0,0
0:4:37.430,512.782,65.2865,0,0.000885,0,0
0:4:37.827,512.898,65.3071,0,0.000885,0,0
0:4:38.222,514.423,65.5002,0,0.000885,0,0
0:4:38.616,514.601,65.5209,0,0.000885,0,0
0:4:39.016,515.891,65.6864,0,0.000885,0,0
0:4:39.420,516.301,65.7346,0,0.000885,0,0
0:4:39.820,517.124,65.8449,0,0.000885,0,0
0:4:40.219,517.648,65.907,0,0.000885,0,0
0:4:40.612,519.232,66.1138,0,0.000885,0,0
0:4:41.009,519.232,66.1138,0,0.000885,0,0
0:4:41.406,521.225,66.362,0,0.000885,0,0
0:4:41.798,521.345,66.3827,0,0.000885,0,0
0:4:42.190,522.283,66.4999,0,0.000885,0,0
0:4:42.597,522.751,66.562,0,0.000885,0,0
0:4:42.992,523.925,66.7068,0,0.000885,0,0
0:4:43.398,524.57,66.7895,0,0.000885,0,0
0:4:43.788,525.393,66.8929,0,0.000885,0,0
0:4:44.191,526.038,66.9757,0,0.000885,0,0
0:4:44.595,526.856,67.0791,0,0.000885,0,0
0:4:44.996,527.443,67.1549,0,0.000885,0,0
0:4:45.396,527.973,67.2239,0,0.000885,0,0
0:4:45.786,529.378,67.4031,0,0.000885,0,0
0:4:46.184,530.023,67.4859,0,0.000885,0,0
0:4:46.581,531.14,67.6238,0,0.000885,0,0
0:4:46.976,531.785,67.7065,0,0.000885,0,0
0:4:47.369,532.194,67.7617,0,0.000885,0,0
0:4:47.762,533.542,67.934,0,0.000885,0,0
0:4:48.159,533.248,67.8927,0,0.000885,0,0
0:4:48.555,534.832,68.0995,0,0.000885,0,0
0:4:48.946,534.832,68.0995,0,0.000885,0,0
0:4:49.348,535.891,68.2305,0,0.000885,0,0
0:4:49.752,537.06,68.3822,0,0.000885,0,0
0:4:50.154,537.354,68.4167,0,0.000885,0,0
0:4:50.554,538.88,68.6097,0,0.000885,0,0
0:4:50.946,539.116,68.6442,0,0.000885,0,0
0:4:51.341,539.583,68.6994,0,0.000885,0,0
0:4:51.741,540.993,68.8786,0,0.000885,0,0
0:4:52.136,541.638,68.9614,0,0.000885,0,0
0:4:52.530,542.283,69.0441,0,0.000885,0,0
0:4:52.923,543.457,69.1958,0,0.000885,0,0
0:4:53.319,543.573,69.2096,0,0.000885,0,0
0:4:53.717,545.214,69.4164,0,0.000885,0,0
0:4:54.119,545.45,69.4509,0,0.000885,0,0
0:4:54.522,546.74,69.6164,0,0.000885,0,0
0:4:54.922,547.033,69.6508,0,0.000885,0,0
0:4:55.323,547.5,69.7129,0,0.000885,0,0
0:4:55.716,549.026,69.9059,0,0.000885,0,0
0:4:56.110,548.795,69.8715,0,0.000885,0,0
0:4:56.503,550.023,70.03,0,0.000885,0,0
0:4:56.902,550.552,70.099,0,0.000885,0,0
0:4:57.297,551.9,70.2714,0,0.000885,0,0
0:4:57.689,552.193,70.3058,0,0.000885,0,0
0:4:58.082,552.78,70.3817,0,0.000885,0,0
0:4:58.479,553.777,70.5058,0,0.000885,0,0
0:4:58.886,554.836,70.6437,0,0.000885,0,0
0:4:59.289,556.005,70.7954,0,0.000885,0,0
0:4:59.690,556.299,70.8298,0,0.000885,0,0
0:5:0.091,557.002,70.9195,0,0.000885,0,0
0:5:0.490,558.234,71.0781,0,0.000885,0,0
0:5:0.899,558.821,71.1539,0,0.000885,0,0
0:5:1.293,559.524,71.2435,0,0.000885,0,0
0:5:1.694,560.405,71.3538,0,0.000885,0,0
0:5:2.090,560.756,71.3952,0,0.000885,0,0
0:5:2.488,562.046,71.5607,0,0.000885,0,0
0:5:2.884,562.34,71.6021,0,0.000885,0,0
0:5:3.287,563.514,71.7468,0,0.000885,0,0
0:5:3.702,564.51,71.8778,0,0.000885,0,0
0:5:4.104,564.568,71.8847,0,0.000885,0,0
0:5:4.506,565.449,71.9951,0,0.000885,0,0
0:5:4.908,566.445,72.1192,0,0.000885,0,0
0:5:5.308,567.211,72.2226,0,0.000885,0,0
0:5:5.702,567.856,72.2984,0,0.000885,0,0
0:5:6.098,568.674,72.4087,0,0.000885,0,0
0:5:6.504,570.084,72.588,0,0.000885,0,0
0:5:6.899,570.551,72.6432,0,0.000885,0,0
0:5:7.302,571.138,72.719,0,0.000885,0,0
0:5:7.697,572.313,72.8707,0,0.000885,0,0
0:5:8.092,573.251,72.9879,0,0.000885,0,0
0:5:8.489,573.838,73.0637,0,0.000885,0,0
0:5:8.883,574.19,73.1051,0,0.000885,0,0
0:5:9.286,575.302,73.2499,0,0.000885,0,0
0:5:9.688,576.476,73.4016,0,0.000885,0,0
0:5:10.089,577.473,73.5257,0,0.000885,0,0
0:5:10.489,577.766,73.5602,0,0.000885,0,0
0:5:10.884,578.175,73.6153,0,0.000885,0,0
0:5:11.278,579.172,73.7394,0,0.000885,0,0
0:5:11.673,580.11,73.8635,0,0.000885,0,0
0:5:12.071,580.462,73.9049,0,0.000885,0,0
0:5:12.464,581.343,74.0221,0,0.000885,0,0
0:5:12.859,581.988,74.098,0,0.000885,0,0
0:5:13.253,582.753,74.2014,0,0.000885,0,0
0:5:13.650,583.691,74.3186,0,0.000885,0,0
0:5:14.048,584.336,74.4013,0,0.000885,0,0
0:5:14.452,586.151,74.6289,0,0.000885,0,0
0:5:14.854,586.445,74.6702,0,0.000885,0,0
0:5:15.255,586.68,74.6978,0,0.000885,0,0
0:5:15.654,587.619,74.815,0,0.000885,0,0
0:5:16.050,588.793,74.9667,0,0.000885,0,0
0:5:16.445,589.323,75.0356,0,0.000885,0,0
0:5:16.842,590.319,75.1597,0,0.000885,0,0
0:5:17.241,590.906,75.2356,0,0.000885,0,0
0:5:17.640,591.436,75.3045,0,0.000885,0,0
0:5:18.036,592.138,75.3942,0,0.000885,0,0
0:5:18.430,593.428,75.5596,0,0.000885,0,0
0:5:18.835,593.9,75.6148,0,0.000885,0,0
0:5:19.240,594.309,75.67,0,0.000885,0,0
0:5:19.643,595.19,75.7803,0,0.000885,0,0
0:5:20.047,596.128,75.9044,0,0.000885,0,0
0:5:20.444,597.245,76.0423,0,0.000885,0,0
0:5:20.841,598.068,76.1457,0,0.000885,0,0
0:5:21.241,598.419,76.194,0,0.000885,0,0
0:5:21.638,599.478,76.325,0,0.000885,0,0
0:5:22.035,600.359,76.4422,0,0.000885,0,0
0:5:22.430,600.71,76.4835,0,0.000885,0,0
0:5:22.828,602,76.649,0,0.000885,0,0
0:5:23.227,603.117,76.7938,0,0.000885,0,0
0:5:23.624,603.117,76.7938,0,0.000885,0,0
0:5:24.029,604.171,76.9248,0,0.000885,0,0
0:5:24.434,604.936,77.0213,0,0.000885,0,0
0:5:24.836,605.99,77.1592,0,0.000885,0,0
0:5:25.238,606.64,77.242,0,0.000885,0,0
0:5:25.634,607.636,77.3661,0,0.000885,0,0
0:5:26.029,607.93,77.4005,0,0.000885,0,0
0:5:26.427,608.752,77.5109,0,0.000885,0,0
0:5:26.828,609.691,77.6281,0,0.000885,0,0
0:5:27.223,610.278,77.7039,0,0.000885,0,0
0:5:27.616,611.217,77.8211,0,0.000885,0,0
0:5:28.013,611.862,77.9039,0,0.000885,0,0
0:5:28.413,612.685,78.0073,0,0.000885,0,0
0:5:28.810,613.859,78.159,0,0.000885,0,0
0:5:29.217,614.384,78.2279,0,0.000885,0,0
0:5:29.618,615.091,78.3175,0,0.000885,0,0
0:5:30.020,616.03,78.4348,0,0.000885,0,0
0:5:30.424,616.795,78.5313,0,0.000885,0,0
0:5:30.819,617.556,78.6278,0,0.000885,0,0
0:5:31.214,618.321,78.7243,0,0.000885,0,0
0:5:31.612,619.139,78.8347,0,0.000885,0,0
0:5:32.012,620.256,78.9725,0,0.000885,0,0
0:5:32.407,621.078,79.076,0,0.000885,0,0
0:5:32.802,621.546,79.138,0,0.000885,0,0
0:5:33.208,622.546,79.2621,0,0.000885,0,0
0:5:33.607,622.604,79.269,0,0.000885,0,0
0:5:34.006,623.836,79.4276,0,0.000885,0,0
0:5:34.412,625.011,79.5793,0,0.000885,0,0
0:5:34.815,625.42,79.6344,0,0.000885,0,0
0:5:35.217,626.007,79.7034,0,0.000885,0,0
0:5:35.617,626.652,79.7861,0,0.000885,0,0
0:5:36.014,627.475,79.8896,0,0.000885,0,0
0:5:36.410,628.182,79.9792,0,0.000885,0,0
0:5:36.806,629.588,80.1584,0,0.000885,0,0
0:5:37.206,630.233,80.2412,0,0.000885,0,0
0:5:37.604,630.94,80.3308,0,0.000885,0,0
0:5:37.996,631.763,80.4411,0,0.000885,0,0
0:5:38.405,632.524,80.5377,0,0.000885,0,0
0:5:38.808,632.933,80.5859,0,0.000885,0,0
0:5:39.214,634.05,80.7307,0,0.000885,0,0
0:5:39.617,634.988,80.8479,0,0.000885,0,0
0:5:40.017,635.753,80.9445,0,0.000885,0,0
0:5:40.412,636.456,81.0341,0,0.000885,0,0
0:5:40.811,636.87,81.0892,0,0.000885,0,0
0:5:41.209,637.808,81.2065,0,0.000885,0,0
0:5:41.605,638.862,81.3443,0,0.000885,0,0
0:5:41.997,639.507,81.4271,0,0.000885,0,0
0:5:42.396,640.215,81.5167,0,0.000885,0,0
0:5:42.795,640.802,81.5926,0,0.000885,0,0
0:5:43.192,641.683,81.7029,0,0.000885,0,0
0:5:43.587,642.328,81.7856,0,0.000885,0,0
0:5:43.991,642.795,81.8408,0,0.000885,0,0
0:5:44.396,644.205,82.02,0,0.000885,0,0
0:5:44.797,645.557,82.1924,0,0.000885,0,0
0:5:45.199,645.908,82.2407,0,0.000885,0,0
0:5:45.592,646.669,82.3372,0,0.000885,0,0
0:5:45.992,647.728,82.4682,0,0.000885,0,0
0:5:46.391,648.137,82.5233,0,0.000885,0,0
0:5:46.786,648.609,82.5854,0,0.000885,0,0
0:5:47.190,649.547,82.7026,0,0.000885,0,0
0:5:47.596,650.779,82.8612,0,0.000885,0,0
0:5:47.995,651.544,82.9577,0,0.000885,0,0
0:5:48.393,652.247,83.0474,0,0.000885,0,0
0:5:48.786,652.892,83.1301,0,0.000885,0,0
0:5:49.192,653.831,83.2473,0,0.000885,0,0
0:5:49.595,653.951,83.2611,0,0.000885,0,0
0:5:49.997,655.005,83.399,0,0.000885,0,0
0:5:50.398,655.886,83.5093,0,0.000885,0,0
0:5:50.793,656.709,83.6127,0,0.000885,0,0
0:5:51.189,657.469,83.7092,0,0.000885,0,0
0:5:51.588,658.47,83.8402,0,0.000885,0,0
0:5:51.986,658.995,83.9092,0,0.000885,0,0
0:5:52.381,659.876,84.0195,0,0.000885,0,0
0:5:52.776,660.935,84.1505,0,0.000885,0,0
0:5:53.175,661.873,84.2746,0,0.000885,0,0
0:5:53.575,662.345,84.3298,0,0.000885,0,0
0:5:53.979,662.754,84.3849,0,0.000885,0,0
0:5:54.383,663.341,84.4608,0,0.000885,0,0
0:5:54.786,664.28,84.578,0,0.000885,0,0
0:5:55.185,665.338,84.7159,0,0.000885,0,0
0:5:55.582,666.45,84.8538,0,0.000885,0,0
0:5:55.979,667.509,84.9917,0,0.000885,0,0
0:5:56.374,667.687,85.0124,0,0.000885,0,0
0:5:56.772,668.683,85.1365,0,0.000885,0,0
0:5:57.171,669.271,85.2123,0,0.000885,0,0
0:5:57.565,670.093,85.3157,0,0.000885,0,0
0:5:57.959,670.796,85.4054,0,0.000885,0,0
0:5:58.355,671.793,85.5364,0,0.000885,0,0
0:5:58.756,672.38,85.6122,0,0.000885,0,0
0:5:59.161,673.087,85.7018,0,0.000885,0,0
0:5:59.563,674.319,85.8535,0,0.000885,0,0
0:5:59.965,674.493,85.8811,0,0.000885,0,0
0:6:0.362,675.431,85.9983,0,0.000885,0,0
0:6:0.761,675.903,86.0604,0,0.000885,0,0
0:6:1.159,676.899,86.1845,0,0.000885,0,0
0:6:1.553,677.486,86.2603,0,0.000885,0,0
0:6:1.949,679.132,86.4672,0,0.000885,0,0
0:6:2.348,679.662,86.5361,0,0.000885,0,0
0:6:2.746,680.013,86.5844,0,0.000885,0,0
0:6:3.141,680.716,86.674,0,0.000885,0,0
0:6:3.537,682.068,86.8464,0,0.000885,0,0
0:6:3.940,683.007,86.9636,0,0.000885,0,0
0:6:4.346,683.594,87.0394,0,0.000885,0,0
0:6:4.748,684.354,87.1359,0,0.000885,0,0
0:6:5.151,685.355,87.26,0,0.000885,0,0
0:6:5.547,685.587,87.2945,0,0.000885,0,0
0:6:5.943,686.467,87.4048,0,0.000885,0,0
0:6:6.344,686.819,87.4462,0,0.000885,0,0
0:6:6.740,687.348,87.5152,0,0.000885,0,0
0:6:7.136,688.349,87.6462,0,0.000885,0,0
0:6:7.531,689.697,87.8116,0,0.000885,0,0
0:6:7.930,690.755,87.9495,0,0.000885,0,0
0:6:8.330,691.107,87.9909,0,0.000885,0,0
0:6:8.726,691.4,88.0323,0,0.000885,0,0
0:6:9.130,692.633,88.1908,0,0.000885,0,0
0:6:9.535,693.456,88.2943,0,0.000885,0,0
0:6:9.936,694.216,88.3908,0,0.000885,0,0
0:6:10.338,694.861,88.4735,0,0.000885,0,0
0:6:10.733,695.862,88.5976,0,0.000885,0,0
0:6:11.126,696.974,88.7424,0,0.000885,0,0
0:6:11.524,697.152,88.7631,0,0.000885,0,0
0:6:11.924,698.442,88.9286,0,0.000885,0,0
0:6:12.320,699.207,89.0251,0,0.000885,0,0
0:6:12.716,699.265,89.032,0,0.000885,0,0
0:6:13.110,700.088,89.1354,0,0.000885,0,0
0:6:13.511,701.142,89.2733,0,0.000885,0,0
0:6:13.908,702.316,89.425,0,0.000885,0,0
0:6:14.312,702.436,89.4388,0,0.000885,0,0
0:6:14.715,703.139,89.5284,0,0.000885,0,0
0:6:15.117,703.962,89.6318,0,0.000885,0,0
0:6:15.519,704.487,89.7008,0,0.000885,0,0
0:6:15.916,705.368,89.8111,0,0.000885,0,0
0:6:16.309,706.369,89.9352,0,0.000885,0,0
0:6:16.705,707.014,90.018,0,0.000885,0,0
0:6:17.101,708.01,90.149,0,0.000885,0,0
0:6:17.499,708.775,90.2455,0,0.000885,0,0
0:6:17.907,710.181,90.4247,0,0.000885,0,0
0:6:18.311,709.598,90.3489,0,0.000885,0,0
0:6:18.713,709.772,90.3696,0,0.000885,0,0
0:6:19.118,711.182,90.5488,0,0.000885,0,0
0:6:19.519,711.884,90.6385,0,0.000885,0,0
0:6:19.922,712.65,90.735,0,0.000885,0,0
0:6:20.318,714.349,90.9556,0,0.000885,0,0
0:6:20.713,715.879,91.1487,0,0.000885,0,0
0:6:21.114,716.818,91.2659,0,0.000885,0,0
0:6:21.512,717.169,91.3142,0,0.000885,0,0
0:6:21.907,717.636,91.3693,0,0.000885,0,0
0:6:22.300,718.343,91.459,0,0.000885,0,0
0:6:22.697,719.575,91.6175,0,0.000885,0,0
0:6:23.098,720.514,91.7416,0,0.000885,0,0
0:6:23.494,721.043,91.8037,0,0.000885,0,0
0:6:23.899,722.569,92.0036,0,0.000885,0,0
0:6:24.302,723.743,92.1484,0,0.000885,0,0
0:6:24.705,723.686,92.1415,0,0.000885,0,0
0:6:25.107,724.504,92.245,0,0.000885,0,0
0:6:25.503,725.736,92.4035,0,0.000885,0,0
0:6:25.896,726.208,92.4656,0,0.000885,0,0
0:6:26.293,726.323,92.4794,0,0.000885,0,0
0:6:26.699,727.146,92.5828,0,0.000885,0,0
0:6:27.109,728.73,92.7827,0,0.000885,0,0
0:6:27.502,728.436,92.7483,0,0.000885,0,0
0:6:27.896,728.85,92.7965,0,0.000885,0,0
0:6:28.295,729.379,92.8655,0,0.000885,0,0
0:6:28.694,730.082,92.9551,0,0.000885,0,0
0:6:29.099,730.847,93.0516,0,0.000885,0,0
0:6:29.502,732.96,93.3205,0,0.000885,0,0
0:6:29.906,734.072,93.4653,0,0.000885,0,0
0:6:30.313,732.079,93.2102,0,0.000885,0,0
0:6:30.712,730.847,93.0516,0,0.000885,0,0
0:6:31.106,731.844,93.1826,0,0.000885,0,0
0:6:31.499,733.427,93.3826,0,0.000885,0,0
0:6:31.896,735.011,93.5825,0,0.000885,0,0
0:6:32.295,734.424,93.5067,0,0.000885,0,0
0:6:32.700,730.318,92.9896,0,0.000885,0,0
0:6:33.102,730.847,93.0516,0,0.000885,0,0
0:6:33.499,733.254,93.3619,0,0.000885,0,0
0:6:33.900,731.844,93.1826,0,0.000885,0,0
0:6:34.082,573.073,72.9672,0,0.000885,0,0