File: DataFile2021-06-07_075308.csv
Test ID:,Date Tested:,Time:,Test Type:,Diameter Avg. (mm):,Cyl. Corr. Factor:,Height (mm):,Age (days):,Weight (kN):,Break Type:,Ramp Rate (MPa/s):,Load at Break (kN):,Stress at Break (MPa):
12,6/7/2021,07:53,Cylinder,100,1,200,0,3.6,3,0.25,792.83,100.95
Sample Time,Load (kN),Stress (MPa),Long. Strain,Trans. Strain,Chan1 Deflection (mm),Chan2 Deflection (mm)
0:0:15.825,5.04428,0.641212,0,0.000885,0,0
0:0:16.224,7.3885,0.937687,0,0.000885,0,0
0:0:16.625,8.32707,1.06179,0,0.000885,0,0
0:0:17.017,8.56283,1.08937,0,0.000885,0,0
0:0:17.412,8.74076,1.11006,0,0.000885,0,0
0:0:17.832,9.14999,1.16521,0,0.000885,0,0
0:0:18.232,10.6757,1.35827,0,0.000885,0,0
0:0:18.630,10.6757,1.35827,0,0.000885,0,0
0:0:19.025,11.2006,1.42721,0,0.000885,0,0
0:0:19.418,11.73,1.49616,0,0.000885,0,0
0:0:19.819,12.5529,1.59958,0,0.000885,0,0
0:0:20.229,13.5493,1.72369,0,0.000885,0,0
0:0:20.624,14.0742,1.79264,0,0.000885,0,0
0:0:21.019,14.8971,1.89606,0,0.000885,0,0
0:0:21.425,15.8357,2.01327,0,0.000885,0,0
0:0:21.832,16.4807,2.09601,0,0.000885,0,0
0:0:22.236,17.3036,2.20632,0,0.000885,0,0
0:0:22.639,18.1221,2.30974,0,0.000885,0,0
0:0:23.037,19.0028,2.42006,0,0.000885,0,0
0:0:23.436,19.6478,2.5028,0,0.000885,0,0
0:0:23.835,20.4084,2.59932,0,0.000885,0,0
0:0:24.233,21.6406,2.7579,0,0.000885,0,0
0:0:24.629,22.3479,2.84753,0,0.000885,0,0
0:0:25.027,23.5756,2.99922,0,0.000885,0,0
0:0:25.428,24.9278,3.17159,0,0.000885,0,0
0:0:25.826,25.6307,3.26122,0,0.000885,0,0
0:0:26.221,26.2756,3.34396,0,0.000885,0,0
0:0:26.628,27.0986,3.44738,0,0.000885,0,0
0:0:27.034,28.1528,3.58527,0,0.000885,0,0
0:0:27.436,29.1492,3.70938,0,0.000885,0,0
0:0:27.840,29.5584,3.76454,0,0.000885,0,0
0:0:28.237,30.3235,3.86106,0,0.000885,0,0
0:0:28.632,30.7906,3.92312,0,0.000885,0,0
0:0:29.032,31.3778,3.99206,0,0.000885,0,0
0:0:29.434,31.787,4.04722,0,0.000885,0,0
0:0:29.830,33.077,4.2127,0,0.000885,0,0
0:0:30.226,33.6063,4.28164,0,0.000885,0,0
0:0:30.625,34.1357,4.3437,0,0.000885,0,0
0:0:31.034,35.4256,4.50917,0,0.000885,0,0
0:0:31.441,35.8927,4.57122,0,0.000885,0,0
0:0:31.845,36.6,4.66086,0,0.000885,0,0
0:0:32.250,37.245,4.74359,0,0.000885,0,0
0:0:32.651,37.6542,4.79186,0,0.000885,0,0
0:0:33.051,39.1177,4.97801,0,0.000885,0,0
0:0:33.448,39.9406,5.08833,0,0.000885,0,0
0:0:33.845,40.7635,5.19175,0,0.000885,0,0
0:0:34.243,41.7021,5.30896,0,0.000885,0,0
0:0:34.644,42.6985,5.43307,0,0.000885,0,0
0:0:35.040,42.7563,5.44686,0,0.000885,0,0
0:0:35.436,43.6949,5.56407,0,0.000885,0,0
0:0:35.833,44.5756,5.67439,0,0.000885,0,0
0:0:36.236,45.1628,5.75023,0,0.000885,0,0
0:0:36.642,46.1592,5.87433,0,0.000885,0,0
0:0:37.046,46.862,5.96397,0,0.000885,0,0
0:0:37.448,47.7428,6.08118,0,0.000885,0,0
0:0:37.848,49.0327,6.23976,0,0.000885,0,0
0:0:38.249,49.7356,6.32939,0,0.000885,0,0
0:0:38.645,50.4962,6.43281,0,0.000885,0,0
0:0:39.042,51.1412,6.50865,0,0.000885,0,0
0:0:39.438,51.7862,6.59139,0,0.000885,0,0
0:0:39.839,52.3155,6.66034,0,0.000885,0,0
0:0:40.239,53.1385,6.76376,0,0.000885,0,0
0:0:40.635,54.0192,6.88097,0,0.000885,0,0
0:0:41.030,54.1349,6.89476,0,0.000885,0,0
0:0:41.435,55.4827,7.06713,0,0.000885,0,0
0:0:41.843,56.0698,7.13607,0,0.000885,0,0
0:0:42.245,57.0662,7.26707,0,0.000885,0,0
0:0:42.649,57.8313,7.3636,0,0.000885,0,0
0:0:43.045,58.592,7.46013,0,0.000885,0,0
0:0:43.447,59.6462,7.59113,0,0.000885,0,0
0:0:43.844,59.6462,7.59113,0,0.000885,0,0
0:0:44.242,61.0563,7.77039,0,0.000885,0,0
0:0:44.637,61.7591,7.86002,0,0.000885,0,0
0:0:45.035,62.7555,7.99102,0,0.000885,0,0
0:0:45.438,63.9298,8.14271,0,0.000885,0,0
0:0:45.834,64.1033,8.16339,0,0.000885,0,0
0:0:46.230,65.0419,8.2806,0,0.000885,0,0
0:0:46.635,65.9226,8.39092,0,0.000885,0,0
0:0:47.042,66.5098,8.46676,0,0.000885,0,0
0:0:47.445,67.6219,8.61155,0,0.000885,0,0
0:0:47.849,68.1512,8.6805,0,0.000885,0,0
0:0:48.245,69.2054,8.8115,0,0.000885,0,0
0:0:48.643,69.7926,8.88734,0,0.000885,0,0
0:0:49.043,70.5577,8.98387,0,0.000885,0,0
0:0:49.440,71.3762,9.08729,0,0.000885,0,0
0:0:49.838,72.7284,9.25966,0,0.000885,0,0
0:0:50.233,72.6083,9.24587,0,0.000885,0,0
0:0:50.633,73.5469,9.36308,0,0.000885,0,0
0:0:51.033,74.1341,9.43892,0,0.000885,0,0
0:0:51.440,75.1883,9.57682,0,0.000885,0,0
0:0:51.844,75.9534,9.67334,0,0.000885,0,0
0:0:52.247,76.5405,9.74229,0,0.000885,0,0
0:0:52.650,77.359,9.85261,0,0.000885,0,0
0:0:53.048,78.0618,9.94224,0,0.000885,0,0
0:0:53.445,79.0004,10.0595,0,0.000885,0,0
0:0:53.842,80.0013,10.1836,0,0.000885,0,0
0:0:54.241,80.8197,10.287,0,0.000885,0,0
0:0:54.641,81.9941,10.4387,0,0.000885,0,0
0:0:55.039,82.3455,10.4869,0,0.000885,0,0
0:0:55.435,83.2841,10.6041,0,0.000885,0,0
0:0:55.835,83.5198,10.6317,0,0.000885,0,0
0:0:56.235,84.6319,10.7765,0,0.000885,0,0
0:0:56.642,85.5704,10.8937,0,0.000885,0,0
0:0:57.046,86.3934,10.9971,0,0.000885,0,0
0:0:57.450,86.7448,11.0454,0,0.000885,0,0
0:0:57.850,87.9191,11.1971,0,0.000885,0,0
0:0:58.251,88.5641,11.2729,0,0.000885,0,0
0:0:58.647,89.3247,11.3763,0,0.000885,0,0
0:0:59.045,90.4991,11.5211,0,0.000885,0,0
0:0:59.444,90.8505,11.5694,0,0.000885,0,0
0:0:59.844,92.3139,11.7556,0,0.000885,0,0
0:1:0.241,92.1405,11.7349,0,0.000885,0,0
0:1:0.636,92.9589,11.8383,0,0.000885,0,0
0:1:1.033,93.9598,11.9624,0,0.000885,0,0
0:1:1.437,94.6626,12.052,0,0.000885,0,0
0:1:1.844,95.3654,12.1417,0,0.000885,0,0
0:1:2.249,96.4819,12.2865,0,0.000885,0,0
0:1:2.653,97.0068,12.3485,0,0.000885,0,0
0:1:3.051,97.7096,12.4381,0,0.000885,0,0
0:1:3.453,99.1197,12.6174,0,0.000885,0,0
0:1:3.850,99.3555,12.6519,0,0.000885,0,0
0:1:4.245,100.058,12.7415,0,0.000885,0,0
0:1:4.643,100.939,12.8518,0,0.000885,0,0
0:1:5.044,101.758,12.9552,0,0.000885,0,0
0:1:5.442,102.816,13.0931,0,0.000885,0,0
0:1:5.840,103.461,13.1759,0,0.000885,0,0
0:1:6.236,104.044,13.2448,0,0.000885,0,0
0:1:6.639,105.218,13.3965,0,0.000885,0,0
0:1:7.046,105.983,13.493,0,0.000885,0,0
0:1:7.450,106.215,13.5206,0,0.000885,0,0
0:1:7.854,107.683,13.7137,0,0.000885,0,0
0:1:8.252,108.328,13.7895,0,0.000885,0,0
0:1:8.653,109.266,13.9136,0,0.000885,0,0
0:1:9.053,109.733,13.9688,0,0.000885,0,0
0:1:9.449,110.85,14.1136,0,0.000885,0,0
0:1:9.845,111.317,14.1756,0,0.000885,0,0
0:1:10.243,111.317,14.1756,0,0.000885,0,0
0:1:10.644,112.842,14.3687,0,0.000885,0,0
0:1:11.042,113.487,14.4514,0,0.000885,0,0
0:1:11.448,114.368,14.5617,0,0.000885,0,0
0:1:11.854,115.774,14.741,0,0.000885,0,0
0:1:12.257,116.712,14.8582,0,0.000885,0,0
0:1:12.660,116.655,14.8513,0,0.000885,0,0
0:1:13.058,117.945,15.0168,0,0.000885,0,0
0:1:13.452,118.71,15.1133,0,0.000885,0,0
0:1:13.852,118.883,15.134,0,0.000885,0,0
0:1:14.252,119.822,15.2581,0,0.000885,0,0
0:1:14.649,120.996,15.4029,0,0.000885,0,0
0:1:15.045,121.525,15.4718,0,0.000885,0,0
0:1:15.441,122.58,15.6097,0,0.000885,0,0
0:1:15.842,123.167,15.6787,0,0.000885,0,0
0:1:16.241,124.221,15.8166,0,0.000885,0,0
0:1:16.647,124.75,15.8855,0,0.000885,0,0
0:1:17.051,125.453,15.9752,0,0.000885,0,0
0:1:17.454,126.276,16.0786,0,0.000885,0,0
0:1:17.858,127.095,16.182,0,0.000885,0,0
0:1:18.256,127.918,16.2854,0,0.000885,0,0
0:1:18.650,128.62,16.375,0,0.000885,0,0
0:1:19.047,129.501,16.4854,0,0.000885,0,0
0:1:19.449,130.204,16.575,0,0.000885,0,0
0:1:19.846,130.791,16.6508,0,0.000885,0,0
0:1:20.242,131.258,16.7129,0,0.000885,0,0
0:1:20.639,132.61,16.8853,0,0.000885,0,0
0:1:21.037,132.962,16.9266,0,0.000885,0,0
0:1:21.437,134.194,17.0852,0,0.000885,0,0
0:1:21.843,135.133,17.2024,0,0.000885,0,0
0:1:22.248,135.364,17.2369,0,0.000885,0,0
0:1:22.651,136.129,17.3334,0,0.000885,0,0
0:1:23.054,137.01,17.4437,0,0.000885,0,0
0:1:23.452,138.122,17.5885,0,0.000885,0,0
0:1:23.850,138.825,17.6782,0,0.000885,0,0
0:1:24.246,139.999,17.8229,0,0.000885,0,0
0:1:24.645,140.644,17.9057,0,0.000885,0,0
0:1:25.044,140.76,17.9195,0,0.000885,0,0
0:1:25.441,142.17,18.0987,0,0.000885,0,0
0:1:25.839,142.637,18.1608,0,0.000885,0,0
0:1:26.244,143.753,18.3056,0,0.000885,0,0
0:1:26.649,144.572,18.409,0,0.000885,0,0
0:1:27.053,145.279,18.4986,0,0.000885,0,0
0:1:27.454,145.452,18.5193,0,0.000885,0,0
0:1:27.853,146.627,18.671,0,0.000885,0,0
0:1:28.252,147.739,18.8089,0,0.000885,0,0
0:1:28.652,148.504,18.9054,0,0.000885,0,0
0:1:29.050,149.736,19.064,0,0.000885,0,0
0:1:29.446,149.794,19.0709,0,0.000885,0,0
0:1:29.844,150.555,19.1674,0,0.000885,0,0
0:1:30.245,151.32,19.264,0,0.000885,0,0
0:1:30.642,151.787,19.326,0,0.000885,0,0
0:1:31.039,152.552,19.4225,0,0.000885,0,0
0:1:31.445,153.664,19.5673,0,0.000885,0,0
0:1:31.850,154.135,19.6225,0,0.000885,0,0
0:1:32.254,155.363,19.7811,0,0.000885,0,0
0:1:32.658,156.012,19.8638,0,0.000885,0,0
0:1:33.054,156.831,19.9672,0,0.000885,0,0
0:1:33.452,158.121,20.1327,0,0.000885,0,0
0:1:33.852,158.65,20.2016,0,0.000885,0,0
0:1:34.250,158.708,20.2085,0,0.000885,0,0
0:1:34.646,159.762,20.3395,0,0.000885,0,0
0:1:35.041,160.937,20.4912,0,0.000885,0,0
0:1:35.442,162.284,20.6636,0,0.000885,0,0
0:1:35.841,162.578,20.6981,0,0.000885,0,0
0:1:36.238,163.223,20.7808,0,0.000885,0,0
0:1:36.642,163.695,20.8429,0,0.000885,0,0
0:1:37.047,164.455,20.9394,0,0.000885,0,0
0:1:37.451,165.336,21.0497,0,0.000885,0,0
0:1:37.855,166.159,21.1531,0,0.000885,0,0
0:1:38.253,167.097,21.2772,0,0.000885,0,0
0:1:38.652,168.209,21.4151,0,0.000885,0,0
0:1:39.048,168.854,21.4979,0,0.000885,0,0
0:1:39.448,169.971,21.6426,0,0.000885,0,0
0:1:39.848,170.554,21.7185,0,0.000885,0,0
0:1:40.245,170.967,21.7667,0,0.000885,0,0
0:1:40.641,171.555,21.8426,0,0.000885,0,0
0:1:41.039,172.551,21.9667,0,0.000885,0,0
0:1:41.441,173.076,22.0356,0,0.000885,0,0
0:1:41.846,173.547,22.0977,0,0.000885,0,0
0:1:42.251,174.308,22.1942,0,0.000885,0,0
0:1:42.654,175.892,22.3942,0,0.000885,0,0
0:1:43.053,176.421,22.4631,0,0.000885,0,0
0:1:43.453,176.888,22.5252,0,0.000885,0,0
0:1:43.852,178.649,22.7458,0,0.000885,0,0
0:1:44.249,179.237,22.8216,0,0.000885,0,0
0:1:44.645,179.646,22.8699,0,0.000885,0,0
0:1:45.045,180.349,22.9595,0,0.000885,0,0
0:1:45.444,181.639,23.125,0,0.000885,0,0
0:1:45.841,182.226,23.2009,0,0.000885,0,0
0:1:46.239,183.164,23.3181,0,0.000885,0,0
0:1:46.642,183.694,23.387,0,0.000885,0,0
0:1:47.049,184.339,23.4698,0,0.000885,0,0
0:1:47.453,185.335,23.6008,0,0.000885,0,0
0:1:47.856,186.274,23.718,0,0.000885,0,0
0:1:48.254,187.034,23.8145,0,0.000885,0,0
0:1:48.650,187.27,23.8421,0,0.000885,0,0
0:1:49.051,187.799,23.911,0,0.000885,0,0
0:1:49.449,188.56,24.0075,0,0.000885,0,0
0:1:49.846,189.441,24.1179,0,0.000885,0,0
0:1:50.242,190.379,24.242,0,0.000885,0,0
0:1:50.642,191.202,24.3454,0,0.000885,0,0
0:1:51.043,192.257,24.4764,0,0.000885,0,0
0:1:51.446,192.902,24.5591,0,0.000885,0,0
0:1:51.848,193.782,24.6763,0,0.000885,0,0
0:1:52.248,194.721,24.7935,0,0.000885,0,0
0:1:52.648,195.659,24.9108,0,0.000885,0,0
0:1:53.044,195.953,24.9521,0,0.000885,0,0
0:1:53.440,196.949,25.0762,0,0.000885,0,0
0:1:53.829,198.182,25.2348,0,0.000885,0,0
0:1:54.236,198.884,25.3244,0,0.000885,0,0
0:1:54.634,199.294,25.3727,0,0.000885,0,0
0:1:55.027,199.881,25.4485,0,0.000885,0,0
0:1:55.420,200.877,25.5795,0,0.000885,0,0
0:1:55.814,201.816,25.6968,0,0.000885,0,0
0:1:56.214,202.167,25.7381,0,0.000885,0,0
0:1:56.617,202.932,25.8347,0,0.000885,0,0
0:1:57.019,203.809,25.9519,0,0.000885,0,0
0:1:57.420,204.925,26.0898,0,0.000885,0,0
0:1:57.824,205.512,26.1656,0,0.000885,0,0
0:1:58.221,206.331,26.269,0,0.000885,0,0
0:1:58.619,207.096,26.3656,0,0.000885,0,0
0:1:59.023,207.741,26.4483,0,0.000885,0,0
0:1:59.436,208.328,26.5241,0,0.000885,0,0
0:1:59.830,209.031,26.6138,0,0.000885,0,0
0:2:0.227,210.436,26.793,0,0.000885,0,0
0:2:0.623,211.433,26.924,0,0.000885,0,0
0:2:1.016,211.847,26.9723,0,0.000885,0,0
0:2:1.419,212.492,27.055,0,0.000885,0,0
0:2:1.822,213.137,27.1378,0,0.000885,0,0
0:2:2.222,214.311,27.2894,0,0.000885,0,0
0:2:2.623,215.129,27.3929,0,0.000885,0,0
0:2:3.016,216.01,27.5032,0,0.000885,0,0
0:2:3.420,216.771,27.5997,0,0.000885,0,0
0:2:3.826,217.478,27.6893,0,0.000885,0,0
0:2:4.224,218.354,27.7997,0,0.000885,0,0
0:2:4.626,218.768,27.8548,0,0.000885,0,0
0:2:5.020,219.586,27.9582,0,0.000885,0,0
0:2:5.424,220.058,28.0203,0,0.000885,0,0
0:2:5.821,220.352,28.0548,0,0.000885,0,0
0:2:6.215,221.935,28.2547,0,0.000885,0,0
0:2:6.618,222.989,28.3926,0,0.000885,0,0
0:2:7.019,223.87,28.5029,0,0.000885,0,0
0:2:7.418,224.101,28.5305,0,0.000885,0,0
0:2:7.819,224.866,28.6339,0,0.000885,0,0
0:2:8.213,226.041,28.7787,0,0.000885,0,0
0:2:8.606,227.095,28.9166,0,0.000885,0,0
0:2:9.003,227.918,29.02,0,0.000885,0,0
0:2:9.400,228.679,29.1166,0,0.000885,0,0
0:2:9.796,228.972,29.151,0,0.000885,0,0
0:2:10.186,229.381,29.2062,0,0.000885,0,0
0:2:10.583,230.792,29.3855,0,0.000885,0,0
0:2:10.979,231.552,29.482,0,0.000885,0,0
0:2:11.374,231.904,29.5302,0,0.000885,0,0
0:2:11.776,232.669,29.6268,0,0.000885,0,0
0:2:12.179,233.136,29.6819,0,0.000885,0,0
0:2:12.580,233.959,29.7854,0,0.000885,0,0
0:2:12.982,235.071,29.9301,0,0.000885,0,0
0:2:13.374,236.187,30.0749,0,0.000885,0,0
0:2:13.768,237.241,30.2059,0,0.000885,0,0
0:2:14.162,237.419,30.2266,0,0.000885,0,0
0:2:14.560,237.771,30.2749,0,0.000885,0,0
0:2:14.955,238.767,30.399,0,0.000885,0,0
0:2:15.348,240.231,30.5851,0,0.000885,0,0
0:2:15.742,240.76,30.6541,0,0.000885,0,0
0:2:16.143,241.756,30.7782,0,0.000885,0,0
0:2:16.546,242.815,30.9161,0,0.000885,0,0
0:2:16.948,243.576,31.0126,0,0.000885,0,0
0:2:17.348,244.336,31.1091,0,0.000885,0,0
0:2:17.746,244.221,31.0954,0,0.000885,0,0
0:2:18.142,244.866,31.1781,0,0.000885,0,0
0:2:18.544,245.626,31.2746,0,0.000885,0,0
0:2:18.938,246.271,31.3574,0,0.000885,0,0
0:2:19.332,247.855,31.5573,0,0.000885,0,0
0:2:19.729,248.678,31.6607,0,0.000885,0,0
0:2:20.124,249.207,31.7297,0,0.000885,0,0
0:2:20.525,250.026,31.8331,0,0.000885,0,0
0:2:20.920,250.791,31.9296,0,0.000885,0,0
0:2:21.320,251.729,32.0537,0,0.000885,0,0
0:2:21.725,252.023,32.0882,0,0.000885,0,0
0:2:22.125,253.135,32.233,0,0.000885,0,0
0:2:22.525,254.016,32.3433,0,0.000885,0,0
0:2:22.929,255.128,32.4812,0,0.000885,0,0
0:2:23.327,256.008,32.5984,0,0.000885,0,0
0:2:23.722,256.48,32.6536,0,0.000885,0,0
0:2:24.114,257.356,32.7708,0,0.000885,0,0
0:2:24.527,257.476,32.7846,0,0.000885,0,0
0:2:24.933,258.357,32.8949,0,0.000885,0,0
0:2:25.330,259.296,33.0121,0,0.000885,0,0
0:2:25.732,260.759,33.1983,0,0.000885,0,0
0:2:26.124,260.701,33.1914,0,0.000885,0,0
0:2:26.526,261.289,33.2672,0,0.000885,0,0
0:2:26.930,262.521,33.4258,0,0.000885,0,0
0:2:27.330,263.633,33.5637,0,0.000885,0,0
0:2:27.732,264.691,33.7016,0,0.000885,0,0
0:2:28.126,265.63,33.8188,0,0.000885,0,0
0:2:28.531,265.981,33.867,0,0.000885,0,0
0:2:28.940,266.92,33.9843,0,0.000885,0,0
0:2:29.342,267.503,34.0601,0,0.000885,0,0
0:2:29.734,268.504,34.1842,0,0.000885,0,0
0:2:30.128,268.971,34.2463,0,0.000885,0,0
0:2:30.527,269.736,34.3428,0,0.000885,0,0
0:2:30.922,270.612,34.4531,0,0.000885,0,0
0:2:31.324,271.377,34.5496,0,0.000885,0,0
0:2:31.726,271.902,34.6186,0,0.000885,0,0
0:2:32.125,272.489,34.6944,0,0.000885,0,0
0:2:32.524,273.018,34.7634,0,0.000885,0,0
0:2:32.918,274.073,34.8944,0,0.000885,0,0
0:2:33.311,274.896,34.9978,0,0.000885,0,0
0:2:33.709,275.892,35.1288,0,0.000885,0,0
0:2:34.106,276.946,35.2598,0,0.000885,0,0
0:2:34.499,277.885,35.3839,0,0.000885,0,0
0:2:34.892,278.53,35.4666,0,0.000885,0,0
0:2:35.287,279.237,35.5563,0,0.000885,0,0
0:2:35.684,279.882,35.6321,0,0.000885,0,0
0:2:36.081,280.643,35.7355,0,0.000885,0,0
0:2:36.485,281.23,35.8045,0,0.000885,0,0
0:2:36.886,281.817,35.8803,0,0.000885,0,0
0:2:37.288,282.578,35.9768,0,0.000885,0,0
0:2:37.688,283.458,36.0941,0,0.000885,0,0
0:2:38.083,284.864,36.2733,0,0.000885,0,0
0:2:38.476,285.923,36.4043,0,0.000885,0,0
0:2:38.870,287.035,36.5491,0,0.000885,0,0
0:2:39.268,287.444,36.5974,0,0.000885,0,0
0:2:39.662,287.68,36.6318,0,0.000885,0,0
0:2:40.054,287.858,36.6525,0,0.000885,0,0
0:2:40.450,288.445,36.7284,0,0.000885,0,0
0:2:40.847,289.851,36.9076,0,0.000885,0,0
0:2:41.244,290.967,37.0455,0,0.000885,0,0
0:2:41.646,292.079,37.1903,0,0.000885,0,0
0:2:42.046,292.96,37.3006,0,0.000885,0,0
0:2:42.447,293.841,37.411,0,0.000885,0,0
0:2:42.848,294.308,37.473,0,0.000885,0,0
0:2:43.243,294.543,37.5006,0,0.000885,0,0
0:2:43.645,295.304,37.5971,0,0.000885,0,0
0:2:44.046,295.949,37.6798,0,0.000885,0,0
0:2:44.444,296.363,37.735,0,0.000885,0,0
0:2:44.841,297.475,37.8729,0,0.000885,0,0
0:2:45.244,298.004,37.9418,0,0.000885,0,0
0:2:45.635,298.943,38.0591,0,0.000885,0,0
0:2:46.035,299.761,38.1694,0,0.000885,0,0
0:2:46.441,300.468,38.259,0,0.000885,0,0
0:2:46.841,301.051,38.328,0,0.000885,0,0
0:2:47.242,302.461,38.5072,0,0.000885,0,0
0:2:47.634,303.106,38.59,0,0.000885,0,0
0:2:48.030,303.925,38.7003,0,0.000885,0,0
0:2:48.425,304.454,38.7623,0,0.000885,0,0
0:2:48.820,305.802,38.9347,0,0.000885,0,0
0:2:49.222,306.683,39.045,0,0.000885,0,0
0:2:49.616,307.679,39.176,0,0.000885,0,0
0:2:50.013,308.618,39.2932,0,0.000885,0,0
0:2:50.409,309.325,39.3829,0,0.000885,0,0
0:2:50.802,309.614,39.4242,0,0.000885,0,0
0:2:51.205,310.495,39.5345,0,0.000885,0,0
0:2:51.605,311.198,39.6242,0,0.000885,0,0
0:2:52.007,312.256,39.7552,0,0.000885,0,0
0:2:52.406,312.959,39.8448,0,0.000885,0,0
0:2:52.802,313.782,39.9551,0,0.000885,0,0
0:2:53.196,314.427,40.031,0,0.000885,0,0
0:2:53.590,314.952,40.0999,0,0.000885,0,0
0:2:53.987,315.188,40.1344,0,0.000885,0,0
0:2:54.383,316.535,40.2999,0,0.000885,0,0
0:2:54.775,317.594,40.4378,0,0.000885,0,0
0:2:55.171,318.355,40.5343,0,0.000885,0,0
0:2:55.569,319.471,40.6791,0,0.000885,0,0
0:2:55.965,319.938,40.7342,0,0.000885,0,0
0:2:56.368,320.699,40.8308,0,0.000885,0,0
0:2:56.769,320.935,40.8652,0,0.000885,0,0
0:2:57.171,321.993,40.9962,0,0.000885,0,0
0:2:57.572,322.46,41.0583,0,0.000885,0,0
0:2:57.966,323.048,41.1341,0,0.000885,0,0
0:2:58.360,324.28,41.2858,0,0.000885,0,0
0:2:58.753,325.45,41.4375,0,0.000885,0,0
0:2:59.150,326.095,41.5202,0,0.000885,0,0
0:2:59.548,327.096,41.6443,0,0.000885,0,0
0:2:59.942,327.741,41.7271,0,0.000885,0,0
0:3:0.333,328.15,41.7822,0,0.000885,0,0
0:3:0.729,329.088,41.8994,0,0.000885,0,0
0:3:1.126,329.262,41.9201,0,0.000885,0,0
0:3:1.529,330.085,42.0304,0,0.000885,0,0
0:3:1.931,331.139,42.1614,0,0.000885,0,0
0:3:2.331,332.429,42.3269,0,0.000885,0,0
0:3:2.730,333.252,42.4303,0,0.000885,0,0
0:3:3.135,333.43,42.451,0,0.000885,0,0
0:3:3.530,334.6,42.6027,0,0.000885,0,0
0:3:3.931,335.129,42.6717,0,0.000885,0,0
0:3:4.326,336.068,42.7889,0,0.000885,0,0
0:3:4.723,336.948,42.8992,0,0.000885,0,0
0:3:5.119,337.767,43.0026,0,0.000885,0,0
0:3:5.512,338.474,43.0922,0,0.000885,0,0
0:3:5.914,339.235,43.1957,0,0.000885,0,0
0:3:6.316,339.586,43.237,0,0.000885,0,0
0:3:6.716,340.409,43.3404,0,0.000885,0,0
0:3:7.116,341.285,43.4508,0,0.000885,0,0
0:3:7.508,342.286,43.5818,0,0.000885,0,0
0:3:7.903,342.638,43.6231,0,0.000885,0,0
0:3:8.300,343.928,43.7886,0,0.000885,0,0
0:3:8.695,345.391,43.9748,0,0.000885,0,0
0:3:9.090,346.098,44.0644,0,0.000885,0,0
0:3:9.483,346.917,44.1678,0,0.000885,0,0
0:3:9.877,347.446,44.2368,0,0.000885,0,0
0:3:10.275,347.975,44.3057,0,0.000885,0,0
0:3:10.668,348.62,44.3884,0,0.000885,0,0
0:3:11.071,349.203,44.4643,0,0.000885,0,0
0:3:11.474,349.968,44.5608,0,0.000885,0,0
0:3:11.874,350.849,44.6711,0,0.000885,0,0
0:3:12.276,351.668,44.7746,0,0.000885,0,0
0:3:12.669,352.664,44.9056,0,0.000885,0,0
0:3:13.062,353.251,44.9745,0,0.000885,0,0
0:3:13.460,353.602,45.0228,0,0.000885,0,0
0:3:13.856,354.074,45.0848,0,0.000885,0,0
0:3:14.249,355.422,45.2503,0,0.000885,0,0
0:3:14.642,355.715,45.2917,0,0.000885,0,0
0:3:15.037,357.241,45.4847,0,0.000885,0,0
0:3:15.447,357.944,45.5743,0,0.000885,0,0
0:3:15.838,359.176,45.7329,0,0.000885,0,0
0:3:16.243,359.643,45.7881,0,0.000885,0,0
0:3:16.644,359.995,45.8363,0,0.000885,0,0
0:3:17.044,360.995,45.9605,0,0.000885,0,0
0:3:17.446,362.228,46.119,0,0.000885,0,0
0:3:17.848,363.162,46.2362,0,0.000885,0,0
0:3:18.242,363.749,46.3121,0,0.000885,0,0
0:3:18.638,364.981,46.4707,0,0.000885,0,0
0:3:19.046,365.395,46.5258,0,0.000885,0,0
0:3:19.448,366.213,46.6292,0,0.000885,0,0
0:3:19.839,366.743,46.6982,0,0.000885,0,0
0:3:20.245,367.267,46.7602,0,0.000885,0,0
0:3:20.644,367.912,46.843,0,0.000885,0,0
0:3:21.037,368.913,46.974,0,0.000885,0,0
0:3:21.442,369.674,47.0705,0,0.000885,0,0
0:3:21.844,370.555,47.1808,0,0.000885,0,0
0:3:22.245,371.609,47.3118,0,0.000885,0,0
0:3:22.643,372.018,47.367,0,0.000885,0,0
0:3:23.048,372.605,47.4428,0,0.000885,0,0
0:3:23.437,373.428,47.5462,0,0.000885,0,0
0:3:23.834,373.664,47.5738,0,0.000885,0,0
0:3:24.231,374.834,47.7255,0,0.000885,0,0
0:3:24.627,376.302,47.9117,0,0.000885,0,0
0:3:25.039,377.414,48.0565,0,0.000885,0,0
0:3:25.444,378.121,48.1461,0,0.000885,0,0
0:3:25.845,378.997,48.2564,0,0.000885,0,0
0:3:26.247,379.647,48.3391,0,0.000885,0,0
0:3:26.648,380.114,48.3943,0,0.000885,0,0
0:3:27.048,381.052,48.5184,0,0.000885,0,0
0:3:27.444,382.049,48.6425,0,0.000885,0,0
0:3:27.838,382.636,48.7184,0,0.000885,0,0
0:3:28.234,383.165,48.7873,0,0.000885,0,0
0:3:28.625,383.459,48.8218,0,0.000885,0,0
0:3:29.039,384.513,48.9597,0,0.000885,0,0
0:3:29.437,385.803,49.1251,0,0.000885,0,0
0:3:29.844,386.332,49.1872,0,0.000885,0,0
0:3:30.237,386.684,49.2355,0,0.000885,0,0
0:3:30.629,387.916,49.394,0,0.000885,0,0
0:3:31.031,388.735,49.4975,0,0.000885,0,0
0:3:31.433,389.673,49.6147,0,0.000885,0,0
0:3:31.834,390.26,49.6905,0,0.000885,0,0
0:3:32.234,390.67,49.7388,0,0.000885,0,0
0:3:32.637,391.55,49.856,0,0.000885,0,0
0:3:33.047,392.022,49.9111,0,0.000885,0,0
0:3:33.444,392.898,50.0284,0,0.000885,0,0
0:3:33.845,394.015,50.1663,0,0.000885,0,0
0:3:34.237,394.775,50.2628,0,0.000885,0,0
0:3:34.633,395.656,50.3731,0,0.000885,0,0
0:3:35.031,396.595,50.4972,0,0.000885,0,0
0:3:35.435,397.475,50.6075,0,0.000885,0,0
0:3:35.836,398.414,50.7247,0,0.000885,0,0
0:3:36.237,398.472,50.7316,0,0.000885,0,0
0:3:36.641,399.295,50.8419,0,0.000885,0,0
0:3:37.041,400.113,50.9454,0,0.000885,0,0
0:3:37.444,400.994,51.0557,0,0.000885,0,0
0:3:37.835,402.284,51.2212,0,0.000885,0,0
0:3:38.241,403.516,51.3797,0,0.000885,0,0
0:3:38.649,404.045,51.4418,0,0.000885,0,0
0:3:39.040,404.045,51.4418,0,0.000885,0,0
0:3:39.432,404.69,51.5245,0,0.000885,0,0
0:3:39.829,405.215,51.5935,0,0.000885,0,0
0:3:40.226,405.86,51.6762,0,0.000885,0,0
0:3:40.620,406.919,51.8072,0,0.000885,0,0
0:3:41.023,408.382,52.0003,0,0.000885,0,0
0:3:41.425,409.557,52.145,0,0.000885,0,0
0:3:41.826,410.144,52.2209,0,0.000885,0,0
0:3:42.226,411.025,52.3312,0,0.000885,0,0
0:3:42.628,411.434,52.3864,0,0.000885,0,0
0:3:43.032,411.843,52.4346,0,0.000885,0,0
0:3:43.447,412.546,52.5243,0,0.000885,0,0
0:3:43.845,413.369,52.6346,0,0.000885,0,0
0:3:44.240,414.365,52.7587,0,0.000885,0,0
0:3:44.633,415.362,52.8828,0,0.000885,0,0
0:3:45.026,416.242,53,0,0.000885,0,0
0:3:45.422,417.003,53.0965,0,0.000885,0,0
0:3:45.819,418.297,53.262,0,0.000885,0,0
0:3:46.223,418.529,53.2896,0,0.000885,0,0
0:3:46.625,419.116,53.3654,0,0.000885,0,0
0:3:47.024,419.467,53.4068,0,0.000885,0,0
0:3:47.425,420.757,53.5723,0,0.000885,0,0
0:3:47.820,421.932,53.7239,0,0.000885,0,0
0:3:48.213,422.167,53.7515,0,0.000885,0,0
0:3:48.606,422.519,53.7998,0,0.000885,0,0
0:3:49.003,423.457,53.917,0,0.000885,0,0
0:3:49.402,425.099,54.1238,0,0.000885,0,0
0:3:49.793,425.686,54.1997,0,0.000885,0,0
0:3:50.186,426.567,54.31,0,0.000885,0,0
0:3:50.583,427.149,54.3858,0,0.000885,0,0
0:3:50.980,427.563,54.441,0,0.000885,0,0
0:3:51.383,428.03,54.4962,0,0.000885,0,0
0:3:51.785,428.853,54.6065,0,0.000885,0,0
0:3:52.184,429.849,54.7306,0,0.000885,0,0
0:3:52.584,431.433,54.9305,0,0.000885,0,0
0:3:52.979,431.611,54.9512,0,0.000885,0,0
0:3:53.371,432.55,55.0753,0,0.000885,0,0
0:3:53.765,433.074,55.1443,0,0.000885,0,0
0:3:54.160,433.426,55.1856,0,0.000885,0,0
0:3:54.559,434.894,55.3718,0,0.000885,0,0
0:3:54.952,435.832,55.489,0,0.000885,0,0
0:3:55.342,436.006,55.5166,0,0.000885,0,0
0:3:55.742,436.771,55.6131,0,0.000885,0,0
0:3:56.146,437.825,55.7441,0,0.000885,0,0
0:3:56.548,438.884,55.882,0,0.000885,0,0
0:3:56.947,438.942,55.8889,0,0.000885,0,0
0:3:57.340,440.174,56.0475,0,0.000885,0,0
0:3:57.739,440.699,56.1095,0,0.000885,0,0
0:3:58.134,441.286,56.1854,0,0.000885,0,0
0:3:58.536,442.518,56.344,0,0.000885,0,0
0:3:58.930,443.341,56.4474,0,0.000885,0,0
0:3:59.336,444.217,56.5577,0,0.000885,0,0
0:3:59.733,444.982,56.6542,0,0.000885,0,0
0:4:0.137,445.627,56.737,0,0.000885,0,0
0:4:0.529,446.624,56.868,0,0.000885,0,0
0:4:0.931,447.211,56.9438,0,0.000885,0,0
0:4:1.334,447.447,56.9714,0,0.000885,0,0
0:4:1.736,448.674,57.13,0,0.000885,0,0
0:4:2.136,449.969,57.2885,0,0.000885,0,0
0:4:2.537,450.614,57.3713,0,0.000885,0,0
0:4:2.934,450.729,57.392,0,0.000885,0,0
0:4:3.331,451.61,57.5023,0,0.000885,0,0
0:4:3.746,452.842,57.6609,0,0.000885,0,0
0:4:4.150,453.487,57.7367,0,0.000885,0,0
0:4:4.543,453.839,57.785,0,0.000885,0,0
0:4:4.940,455.302,57.9711,0,0.000885,0,0
0:4:5.337,455.596,58.0056,0,0.000885,0,0
0:4:5.750,456.712,58.1504,0,0.000885,0,0
0:4:6.153,457.882,58.3021,0,0.000885,0,0
0:4:6.556,458.238,58.3434,0,0.000885,0,0
0:4:6.955,459.056,58.4469,0,0.000885,0,0
0:4:7.357,459.879,58.5503,0,0.000885,0,0
0:4:7.751,460.524,58.633,0,0.000885,0,0
0:4:8.142,461.112,58.7089,0,0.000885,0,0
0:4:8.540,462.459,58.8812,0,0.000885,0,0
0:4:8.947,462.811,58.9295,0,0.000885,0,0
0:4:9.337,463.807,59.0536,0,0.000885,0,0
0:4:9.731,464.51,59.1432,0,0.000885,0,0
0:4:10.127,464.924,59.1984,0,0.000885,0,0
0:4:10.524,466.094,59.3432,0,0.000885,0,0
0:4:10.926,466.565,59.4052,0,0.000885,0,0
0:4:11.328,467.739,59.5569,0,0.000885,0,0
0:4:11.727,468.033,59.5914,0,0.000885,0,0
0:4:12.125,469.145,59.7362,0,0.000885,0,0
0:4:12.531,469.906,59.8327,0,0.000885,0,0
0:4:12.925,470.964,59.9637,0,0.000885,0,0
0:4:13.317,471.783,60.0671,0,0.000885,0,0
0:4:13.715,472.254,60.1292,0,0.000885,0,0
0:4:14.111,473.486,60.2878,0,0.000885,0,0
0:4:14.505,474.131,60.3705,0,0.000885,0,0
0:4:14.899,474.892,60.467,0,0.000885,0,0
0:4:15.294,475.715,60.5704,0,0.000885,0,0
0:4:15.692,476.654,60.6877,0,0.000885,0,0
0:4:16.097,477.005,60.7359,0,0.000885,0,0
0:4:16.498,478.001,60.86,0,0.000885,0,0
0:4:16.896,478.704,60.9497,0,0.000885,0,0
0:4:17.293,478.589,60.9359,0,0.000885,0,0
0:4:17.690,480.288,61.1496,0,0.000885,0,0
0:4:18.086,480.466,61.1772,0,0.000885,0,0
0:4:18.478,481.814,61.3496,0,0.000885,0,0
0:4:18.872,482.694,61.4599,0,0.000885,0,0
0:4:19.267,483.339,61.5426,0,0.000885,0,0
0:4:19.666,484.336,61.6667,0,0.000885,0,0
0:4:20.060,484.865,61.7357,0,0.000885,0,0
0:4:20.454,485.977,61.8736,0,0.000885,0,0
0:4:20.854,486.506,61.9425,0,0.000885,0,0
0:4:21.258,487.325,62.0459,0,0.000885,0,0
0:4:21.658,488.499,62.1976,0,0.000885,0,0
0:4:22.057,488.441,62.1907,0,0.000885,0,0
0:4:22.452,489.086,62.2734,0,0.000885,0,0
0:4:22.846,489.967,62.3838,0,0.000885,0,0
0:4:23.244,490.261,62.4251,0,0.000885,0,0
0:4:23.638,491.844,62.6251,0,0.000885,0,0
0:4:24.031,492.547,62.7147,0,0.000885,0,0
0:4:24.436,493.134,62.7906,0,0.000885,0,0
0:4:24.832,494.246,62.9284,0,0.000885,0,0
0:4:25.229,494.54,62.9698,0,0.000885,0,0
0:4:25.624,495.772,63.1215,0,0.000885,0,0
0:4:26.025,496.889,63.2663,0,0.000885,0,0
0:4:26.427,496.946,63.2732,0,0.000885,0,0
0:4:26.827,498.121,63.4249,0,0.000885,0,0
0:4:27.229,499.117,63.549,0,0.000885,0,0
0:4:27.623,499.526,63.6041,0,0.000885,0,0
0:4:28.015,500.932,63.7834,0,0.000885,0,0
0:4:28.412,501.168,63.811,0,0.000885,0,0
0:4:28.808,501.346,63.8317,0,0.000885,0,0
0:4:29.204,502.694,64.004,0,0.000885,0,0
0:4:29.598,503.396,64.0937,0,0.000885,0,0
0:4:29.992,503.69,64.135,0,0.000885,0,0
0:4:30.388,505.1,64.3143,0,0.000885,0,0
0:4:30.788,506.154,64.4453,0,0.000885,0,0
0:4:31.192,506.621,64.5073,0,0.000885,0,0
0:4:31.593,507.329,64.597,0,0.000885,0,0
0:4:31.993,508.383,64.728,0,0.000885,0,0
0:4:32.394,509.264,64.8383,0,0.000885,0,0
0:4:32.790,510.14,64.9555,0,0.000885,0,0
0:4:33.184,510.433,64.99,0,0.000885,0,0
0:4:33.576,511.492,65.1279,0,0.000885,0,0
0:4:33.974,512.195,65.2175,0,0.000885,0,0
0:4:34.371,513.018,65.3209,0,0.000885,0,0
0:4:34.764,513.018,65.3209,0,0.000885,0,0
0:4:35.158,514.246,65.4726,0,0.000885,0,0
0:4:35.560,515.42,65.6243,0,0.000885,0,0
0:4:35.963,516.065,65.707,0,0.000885,0,0
0:4:36.364,516.768,65.7967,0,0.000885,0,0
0:4:36.765,517.297,65.8656,0,0.000885,0,0
0:4:37.160,518.236,65.9828,0,0.000885,0,0
0:4:37.554,519.232,66.1138,0,0.000885,0,0
0:4:37.951,520.055,66.2172,0,0.000885,0,0
0:4:38.345,520.58,66.2793,0,0.000885,0,0
0:4:38.750,521.403,66.3896,0,0.000885,0,0
0:4:39.154,522.341,66.5068,0,0.000885,0,0
0:4:39.551,523.044,66.5965,0,0.000885,0,0
0:4:39.957,523.689,66.6792,0,0.000885,0,0
0:4:40.352,524.392,66.7688,0,0.000885,0,0
0:4:40.756,525.041,66.8516,0,0.000885,0,0
0:4:41.158,526.505,67.0377,0,0.000885,0,0
0:4:41.559,527.443,67.1549,0,0.000885,0,0
0:4:41.960,528.146,67.2446,0,0.000885,0,0
0:4:42.353,528.498,67.2928,0,0.000885,0,0
0:4:42.756,529.499,67.4169,0,0.000885,0,0
0:4:43.152,529.966,67.479,0,0.000885,0,0
0:4:43.548,531.491,67.672,0,0.000885,0,0
0:4:43.953,531.727,67.6996,0,0.000885,0,0
0:4:44.356,532.31,67.7755,0,0.000885,0,0
0:4:44.751,532.955,67.8582,0,0.000885,0,0
0:4:45.146,533.778,67.9616,0,0.000885,0,0
0:4:45.541,534.365,68.0375,0,0.000885,0,0
0:4:45.945,535.419,68.1685,0,0.000885,0,0
0:4:46.346,536.536,68.3133,0,0.000885,0,0
0:4:46.746,536.945,68.3684,0,0.000885,0,0
0:4:47.147,537.768,68.4718,0,0.000885,0,0
0:4:47.539,538.586,68.5753,0,0.000885,0,0
0:4:47.943,539.173,68.6511,0,0.000885,0,0
0:4:48.347,540.583,68.8304,0,0.000885,0,0
0:4:48.746,541.286,68.92,0,0.000885,0,0
0:4:49.141,542.225,69.0372,0,0.000885,0,0
0:4:49.545,543.279,69.1751,0,0.000885,0,0
0:4:49.938,543.808,69.2372,0,0.000885,0,0
0:4:50.344,544.453,69.3199,0,0.000885,0,0
0:4:50.753,545.098,69.4026,0,0.000885,0,0
0:4:51.156,545.743,69.4854,0,0.000885,0,0
0:4:51.560,546.624,69.5957,0,0.000885,0,0
0:4:51.960,546.918,69.637,0,0.000885,0,0
0:4:52.361,548.439,69.8301,0,0.000885,0,0
0:4:52.756,548.675,69.8577,0,0.000885,0,0
0:4:53.159,549.262,69.9335,0,0.000885,0,0
0:4:53.560,550.668,70.1128,0,0.000885,0,0
0:4:53.959,551.255,70.1886,0,0.000885,0,0
0:4:54.355,552.136,70.2989,0,0.000885,0,0
0:4:54.747,553.132,70.4299,0,0.000885,0,0
0:4:55.140,553.425,70.4644,0,0.000885,0,0
0:4:55.542,554.48,70.5954,0,0.000885,0,0
0:4:55.945,555.245,70.6988,0,0.000885,0,0
0:4:56.346,556.593,70.8643,0,0.000885,0,0
0:4:56.746,557.18,70.9402,0,0.000885,0,0
0:4:57.141,557.416,70.9746,0,0.000885,0,0
0:4:57.547,558.234,71.0781,0,0.000885,0,0
0:4:57.954,558.999,71.1746,0,0.000885,0,0
0:4:58.359,560.053,71.3056,0,0.000885,0,0
0:4:58.749,560.756,71.3952,0,0.000885,0,0
0:4:59.145,561.285,71.4642,0,0.000885,0,0
0:4:59.544,562.575,71.6296,0,0.000885,0,0
0:4:59.960,563.456,71.7399,0,0.000885,0,0
0:5:0.353,563.981,71.8089,0,0.000885,0,0
0:5:0.754,564.862,71.9192,0,0.000885,0,0
0:5:1.157,565.627,72.0157,0,0.000885,0,0
0:5:1.558,566.036,72.0709,0,0.000885,0,0
0:5:1.959,566.917,72.1812,0,0.000885,0,0
0:5:2.350,567.62,72.2708,0,0.000885,0,0
0:5:2.759,568.265,72.3536,0,0.000885,0,0
0:5:3.155,569.261,72.4777,0,0.000885,0,0
0:5:3.548,569.964,72.5673,0,0.000885,0,0
0:5:3.954,571.023,72.7052,0,0.000885,0,0
0:5:4.357,571.725,72.7948,0,0.000885,0,0
0:5:4.754,572.135,72.85,0,0.000885,0,0
0:5:5.148,573.483,73.0155,0,0.000885,0,0
0:5:5.553,574.012,73.0844,0,0.000885,0,0
0:5:5.954,574.421,73.1396,0,0.000885,0,0
0:5:6.357,575.066,73.2223,0,0.000885,0,0
0:5:6.757,576.418,73.3947,0,0.000885,0,0
0:5:7.158,577.473,73.5257,0,0.000885,0,0
0:5:7.553,577.708,73.5533,0,0.000885,0,0
0:5:7.956,578.705,73.6843,0,0.000885,0,0
0:5:8.354,579.114,73.7325,0,0.000885,0,0
0:5:8.748,580.582,73.9187,0,0.000885,0,0
0:5:9.154,581.578,74.0497,0,0.000885,0,0
0:5:9.545,582.401,74.1531,0,0.000885,0,0
0:5:9.940,582.81,74.2083,0,0.000885,0,0
0:5:10.337,583.571,74.3048,0,0.000885,0,0
0:5:10.742,584.394,74.4082,0,0.000885,0,0
0:5:11.143,585.039,74.491,0,0.000885,0,0
0:5:11.544,585.684,74.5737,0,0.000885,0,0
0:5:11.951,586.565,74.684,0,0.000885,0,0
0:5:12.349,587.09,74.753,0,0.000885,0,0
0:5:12.744,588.38,74.9184,0,0.000885,0,0
0:5:13.157,588.793,74.9667,0,0.000885,0,0
0:5:13.551,589.963,75.1184,0,0.000885,0,0
0:5:13.949,590.844,75.2287,0,0.000885,0,0
0:5:14.346,591.667,75.3321,0,0.000885,0,0
0:5:14.742,592.138,75.3942,0,0.000885,0,0
0:5:15.137,592.841,75.4838,0,0.000885,0,0
0:5:15.538,593.606,75.5803,0,0.000885,0,0
0:5:15.944,594.309,75.67,0,0.000885,0,0
0:5:16.347,595.248,75.7872,0,0.000885,0,0
0:5:16.750,595.893,75.8699,0,0.000885,0,0
0:5:17.147,596.894,76.0009,0,0.000885,0,0
0:5:17.546,597.832,76.1181,0,0.000885,0,0
0:5:17.957,598.651,76.2215,0,0.000885,0,0
0:5:18.363,599.358,76.3112,0,0.000885,0,0
0:5:18.759,600.003,76.3939,0,0.000885,0,0
0:5:19.154,600.999,76.5249,0,0.000885,0,0
0:5:19.551,601.706,76.6145,0,0.000885,0,0
0:5:19.952,602.294,76.6835,0,0.000885,0,0
0:5:20.346,603.406,76.8283,0,0.000885,0,0
0:5:20.748,603.757,76.8696,0,0.000885,0,0
0:5:21.155,604.816,77.0075,0,0.000885,0,0
0:5:21.558,604.758,77.0006,0,0.000885,0,0
0:5:21.961,605.754,77.1248,0,0.000885,0,0
0:5:22.358,606.751,77.2558,0,0.000885,0,0
0:5:22.755,607.458,77.3454,0,0.000885,0,0
0:5:23.161,608.397,77.4626,0,0.000885,0,0
0:5:23.561,609.455,77.6005,0,0.000885,0,0
0:5:23.960,610.452,77.7246,0,0.000885,0,0
0:5:24.354,611.212,77.8211,0,0.000885,0,0
0:5:24.760,611.684,77.8832,0,0.000885,0,0
0:5:25.157,612.507,77.9866,0,0.000885,0,0
0:5:25.558,613.619,78.1314,0,0.000885,0,0
0:5:25.963,614.206,78.2003,0,0.000885,0,0
0:5:26.367,615.265,78.3382,0,0.000885,0,0
0:5:26.770,615.967,78.4279,0,0.000885,0,0
0:5:27.170,616.675,78.5175,0,0.000885,0,0
0:5:27.567,617.2,78.5864,0,0.000885,0,0
0:5:27.963,617.965,78.683,0,0.000885,0,0
0:5:28.359,619.081,78.8209,0,0.000885,0,0
0:5:28.764,619.962,78.9381,0,0.000885,0,0
0:5:29.164,619.962,78.9381,0,0.000885,0,0
0:5:29.562,621.136,79.0829,0,0.000885,0,0
0:5:29.958,621.897,79.1794,0,0.000885,0,0
0:5:30.351,623.129,79.338,0,0.000885,0,0
0:5:30.756,623.836,79.4276,0,0.000885,0,0
0:5:31.161,624.01,79.4483,0,0.000885,0,0
0:5:31.564,625.184,79.6,0,0.000885,0,0
0:5:31.965,625.536,79.6482,0,0.000885,0,0
0:5:32.362,626.652,79.7861,0,0.000885,0,0
0:5:32.761,627.239,79.862,0,0.000885,0,0
0:5:33.159,628.178,79.9792,0,0.000885,0,0
0:5:33.566,629.174,80.1102,0,0.000885,0,0
0:5:33.960,629.761,80.186,0,0.000885,0,0
0:5:34.358,630.7,80.3032,0,0.000885,0,0
0:5:34.753,631.229,80.3722,0,0.000885,0,0
0:5:35.164,632.11,80.4825,0,0.000885,0,0
0:5:35.560,632.933,80.5859,0,0.000885,0,0
0:5:35.964,633.987,80.7238,0,0.000885,0,0
0:5:36.368,634.637,80.8066,0,0.000885,0,0
0:5:36.769,634.988,80.8479,0,0.000885,0,0
0:5:37.172,636.629,81.0617,0,0.000885,0,0
0:5:37.567,637.337,81.1513,0,0.000885,0,0
0:5:37.962,638.04,81.2409,0,0.000885,0,0
0:5:38.359,638.862,81.3443,0,0.000885,0,0
0:5:38.759,638.92,81.3512,0,0.000885,0,0
0:5:39.153,639.681,81.4478,0,0.000885,0,0
0:5:39.560,640.918,81.6063,0,0.000885,0,0
0:5:39.957,641.678,81.7029,0,0.000885,0,0
0:5:40.352,641.972,81.7373,0,0.000885,0,0
0:5:40.751,642.968,81.8683,0,0.000885,0,0
0:5:41.158,644.143,82.0131,0,0.000885,0,0
0:5:41.562,644.205,82.02,0,0.000885,0,0
0:5:41.963,645.668,82.2062,0,0.000885,0,0
0:5:42.365,646.433,82.3096,0,0.000885,0,0
0:5:42.763,647.021,82.3786,0,0.000885,0,0
0:5:43.159,648.373,82.5509,0,0.000885,0,0
0:5:43.550,648.546,82.5785,0,0.000885,0,0
0:5:43.950,649.076,82.6406,0,0.000885,0,0
0:5:44.348,650.308,82.7991,0,0.000885,0,0
0:5:44.753,650.895,82.875,0,0.000885,0,0
0:5:45.149,652.363,83.0611,0,0.000885,0,0
0:5:45.552,652.478,83.0749,0,0.000885,0,0
0:5:45.962,653.301,83.1784,0,0.000885,0,0
0:5:46.364,654.418,83.3231,0,0.000885,0,0
0:5:46.765,654.711,83.3576,0,0.000885,0,0
0:5:47.161,655.299,83.4335,0,0.000885,0,0
0:5:47.559,656.824,83.6265,0,0.000885,0,0
0:5:47.967,656.824,83.6265,0,0.000885,0,0
0:5:48.364,657.936,83.7713,0,0.000885,0,0
0:5:48.758,658.644,83.8609,0,0.000885,0,0
0:5:49.154,659.467,83.9644,0,0.000885,0,0
0:5:49.554,660.699,84.1229,0,0.000885,0,0
0:5:49.950,661.402,84.2126,0,0.000885,0,0
0:5:50.347,662.225,84.316,0,0.000885,0,0
0:5:50.752,662.576,84.3643,0,0.000885,0,0
0:5:51.158,662.985,84.4125,0,0.000885,0,0
0:5:51.560,664.217,84.5711,0,0.000885,0,0
0:5:51.964,665.512,84.7366,0,0.000885,0,0
0:5:52.358,666.335,84.84,0,0.000885,0,0
0:5:52.764,666.98,84.9227,0,0.000885,0,0
0:5:53.163,667.86,85.033,0,0.000885,0,0
0:5:53.559,668.448,85.1089,0,0.000885,0,0
0:5:53.952,669.502,85.2468,0,0.000885,0,0
0:5:54.348,670.383,85.3571,0,0.000885,0,0
0:5:54.748,670.561,85.3778,0,0.000885,0,0
0:5:55.146,672.028,85.5639,0,0.000885,0,0
0:5:55.562,672.26,85.5915,0,0.000885,0,0
0:5:55.968,672.611,85.6398,0,0.000885,0,0
0:5:56.372,674.199,85.8397,0,0.000885,0,0
0:5:56.774,674.902,85.9294,0,0.000885,0,0
0:5:57.177,675.316,85.9845,0,0.000885,0,0
0:5:57.572,675.898,86.0604,0,0.000885,0,0
0:5:57.967,676.428,86.1224,0,0.000885,0,0
0:5:58.365,677.66,86.281,0,0.000885,0,0
0:5:58.765,678.603,86.4051,0,0.000885,0,0
0:5:59.160,679.248,86.4809,0,0.000885,0,0
0:5:59.564,680.302,86.6188,0,0.000885,0,0
0:5:59.961,680.654,86.6671,0,0.000885,0,0
0:6:0.359,681.361,86.7567,0,0.000885,0,0
0:6:0.765,682.179,86.8602,0,0.000885,0,0
0:6:1.170,683.06,86.9705,0,0.000885,0,0
0:6:1.574,684.297,87.129,0,0.000885,0,0
0:6:1.976,685.235,87.2463,0,0.000885,0,0
0:6:2.378,686.174,87.3635,0,0.000885,0,0
0:6:2.774,686.761,87.4393,0,0.000885,0,0
0:6:3.169,687.7,87.5634,0,0.000885,0,0
0:6:3.565,688.229,87.6255,0,0.000885,0,0
0:6:3.963,688.696,87.6875,0,0.000885,0,0
0:6:4.362,689.11,87.7427,0,0.000885,0,0
0:6:4.767,689.99,87.853,0,0.000885,0,0
0:6:5.161,690.987,87.9771,0,0.000885,0,0
0:6:5.564,691.925,88.1012,0,0.000885,0,0
0:6:5.970,692.806,88.2115,0,0.000885,0,0
0:6:6.372,693.629,88.3149,0,0.000885,0,0
0:6:6.776,694.51,88.4253,0,0.000885,0,0
0:6:7.171,694.625,88.4391,0,0.000885,0,0
0:6:7.572,695.155,88.508,0,0.000885,0,0
0:6:7.968,696.093,88.6321,0,0.000885,0,0
0:6:8.364,697.21,88.77,0,0.000885,0,0
0:6:8.760,698.028,88.8734,0,0.000885,0,0
0:6:9.168,698.851,88.9837,0,0.000885,0,0
0:6:9.566,699.381,89.0458,0,0.000885,0,0
0:6:9.963,700.141,89.1423,0,0.000885,0,0
0:6:10.367,700.848,89.2319,0,0.000885,0,0
0:6:10.769,701.787,89.3561,0,0.000885,0,0
0:6:11.175,702.904,89.4939,0,0.000885,0,0
0:6:11.578,703.491,89.5698,0,0.000885,0,0
0:6:11.978,704.429,89.6939,0,0.000885,0,0
0:6:12.374,704.723,89.7284,0,0.000885,0,0
0:6:12.773,706.128,89.9076,0,0.000885,0,0
0:6:13.172,706.6,89.9697,0,0.000885,0,0
0:6:13.568,707.596,90.0938,0,0.000885,0,0
0:6:13.961,707.89,90.1283,0,0.000885,0,0
0:6:14.368,709.006,90.2731,0,0.000885,0,0
0:6:14.765,709.887,90.3834,0,0.000885,0,0
0:6:15.164,710.946,90.5213,0,0.000885,0,0
0:6:15.568,711.884,90.6385,0,0.000885,0,0
0:6:15.970,712.058,90.6592,0,0.000885,0,0
0:6:16.376,712.472,90.7143,0,0.000885,0,0
0:6:16.781,714.464,90.9694,0,0.000885,0,0
0:6:17.181,714.936,91.0315,0,0.000885,0,0
0:6:17.576,715.875,91.1487,0,0.000885,0,0
0:6:17.972,716.462,91.2245,0,0.000885,0,0
0:6:18.373,716.577,91.2383,0,0.000885,0,0
0:6:18.770,717.752,91.39,0,0.000885,0,0
0:6:19.165,718.81,91.521,0,0.000885,0,0
0:6:19.569,719.277,91.5831,0,0.000885,0,0
0:6:19.968,720.22,91.7003,0,0.000885,0,0
0:6:20.367,720.745,91.7692,0,0.000885,0,0
0:6:20.772,721.51,91.8657,0,0.000885,0,0
0:6:21.175,722.449,91.983,0,0.000885,0,0
0:6:21.577,723.445,92.114,0,0.000885,0,0
0:6:21.978,724.62,92.2587,0,0.000885,0,0
0:6:22.374,724.856,92.2932,0,0.000885,0,0
0:6:22.770,726.03,92.438,0,0.000885,0,0
0:6:23.166,726.853,92.5483,0,0.000885,0,0
0:6:23.567,727.734,92.6586,0,0.000885,0,0
0:6:23.963,728.378,92.7414,0,0.000885,0,0
0:6:24.367,728.378,92.7414,0,0.000885,0,0
0:6:24.763,729.317,92.8586,0,0.000885,0,0
0:6:25.169,730.371,92.9965,0,0.000885,0,0
0:6:25.570,731.136,93.093,0,0.000885,0,0
0:6:25.975,732.426,93.2585,0,0.000885,0,0
0:6:26.377,732.426,93.2585,0,0.000885,0,0
0:6:26.779,733.191,93.355,0,0.000885,0,0
0:6:27.178,734.424,93.5067,0,0.000885,0,0
0:6:27.577,734.659,93.5412,0,0.000885,0,0
0:6:27.973,736.065,93.7204,0,0.000885,0,0
0:6:28.367,737.359,93.8859,0,0.000885,0,0
0:6:28.765,737.182,93.8583,0,0.000885,0,0
0:6:29.165,738.298,94.0031,0,0.000885,0,0
0:6:29.571,739.472,94.1548,0,0.000885,0,0
0:6:29.965,739.824,94.1962,0,0.000885,0,0
0:6:30.370,739.939,94.21,0,0.000885,0,0
0:6:30.773,741.35,94.3892,0,0.000885,0,0
0:6:31.178,741.995,94.472,0,0.000885,0,0
0:6:31.583,742.933,94.5961,0,0.000885,0,0
0:6:31.984,744.637,94.8098,0,0.000885,0,0
0:6:32.383,744.695,94.8167,0,0.000885,0,0
0:6:32.781,745.46,94.9132,0,0.000885,0,0
0:6:33.177,746.047,94.9891,0,0.000885,0,0
0:6:33.572,747.221,95.1408,0,0.000885,0,0
0:6:33.968,747.279,95.1477,0,0.000885,0,0
0:6:34.367,748.569,95.3131,0,0.000885,0,0
0:6:34.763,748.453,95.2993,0,0.000885,0,0
0:6:35.158,750.624,95.5751,0,0.000885,0,0
0:6:35.562,750.566,95.5682,0,0.000885,0,0
0:6:35.966,751.505,95.6854,0,0.000885,0,0
0:6:36.371,752.443,95.8027,0,0.000885,0,0
0:6:36.774,752.386,95.7958,0,0.000885,0,0
0:6:37.177,754.089,96.0164,0,0.000885,0,0
0:6:37.574,754.556,96.0715,0,0.000885,0,0
0:6:37.973,755.201,96.1543,0,0.000885,0,0
0:6:38.372,756.669,96.3404,0,0.000885,0,0
0:6:38.767,757.021,96.3887,0,0.000885,0,0
0:6:39.163,757.844,96.4921,0,0.000885,0,0
0:6:39.569,759.369,96.6852,0,0.000885,0,0
0:6:39.968,759.196,96.6645,0,0.000885,0,0
0:6:40.373,760.722,96.8576,0,0.000885,0,0
0:6:40.778,760.779,96.8644,0,0.000885,0,0
0:6:41.182,761.954,97.0161,0,0.000885,0,0
0:6:41.586,762.892,97.1333,0,0.000885,0,0
0:6:41.988,763.186,97.1747,0,0.000885,0,0
0:6:42.384,764.538,97.3471,0,0.000885,0,0
0:6:42.778,765.357,97.4505,0,0.000885,0,0
0:6:43.175,765.77,97.4988,0,0.000885,0,0
0:6:43.575,766.824,97.6367,0,0.000885,0,0
0:6:43.971,767.412,97.7125,0,0.000885,0,0
0:6:44.365,767.883,97.7677,0,0.000885,0,0
0:6:44.772,769,97.9124,0,0.000885,0,0
0:6:45.169,769.115,97.9262,0,0.000885,0,0
0:6:45.568,769.876,98.0228,0,0.000885,0,0
0:6:45.971,771.113,98.1813,0,0.000885,0,0
0:6:46.375,772.225,98.3261,0,0.000885,0,0
0:6:46.777,773.693,98.5123,0,0.000885,0,0
0:6:47.181,773.341,98.464,0,0.000885,0,0
0:6:47.576,774.4,98.6019,0,0.000885,0,0
0:6:47.972,775.57,98.7467,0,0.000885,0,0
0:6:48.368,775.69,98.7605,0,0.000885,0,0
0:6:48.768,776.571,98.8777,0,0.000885,0,0
0:6:49.175,777.509,98.9949,0,0.000885,0,0
0:6:49.569,778.448,99.1121,0,0.000885,0,0
0:6:49.964,778.741,99.1535,0,0.000885,0,0
0:6:50.371,779.386,99.2362,0,0.000885,0,0
0:6:50.772,780.561,99.381,0,0.000885,0,0
0:6:51.177,781.557,99.512,0,0.000885,0,0
0:6:51.579,782.028,99.5741,0,0.000885,0,0
0:6:51.983,783.318,99.7327,0,0.000885,0,0
0:6:52.384,784.319,99.8637,0,0.000885,0,0
0:6:52.782,784.786,99.9188,0,0.000885,0,0
0:6:53.177,785.609,100.029,0,0.000885,0,0
0:6:53.572,786.374,100.126,0,0.000885,0,0
0:6:53.968,786.548,100.146,0,0.000885,0,0
0:6:54.369,787.371,100.25,0,0.000885,0,0
0:6:54.766,788.016,100.333,0,0.000885,0,0
0:6:55.172,789.19,100.484,0,0.000885,0,0
0:6:55.566,789.719,100.553,0,0.000885,0,0
0:6:55.970,790.952,100.705,0,0.000885,0,0
0:6:56.377,791.832,100.822,0,0.000885,0,0
0:6:56.779,792.126,100.857,0,0.000885,0,0
0:6:57.183,792.829,100.946,0,0.000885,0,0
0:6:57.502,793.358,101.015,0,0.000885,0,0