File: DataFile2021-07-25_070651.csv
Test ID:,Date Tested:,Time:,Test Type:,Diameter Avg. (mm):,Cyl. Corr. Factor:,Height (mm):,Age (days):,Weight (kN):,Break Type:,Ramp Rate (MPa/s):,Load at Break (kN):,Stress at Break (MPa):
12,7/25/2021,07:06,Cylinder,100,1,200,0,3.5,3,0.32,212.55,27.06
Sample Time,Load (kN),Stress (MPa),Long. Strain,Trans. Strain,Chan1 Deflection (mm),Chan2 Deflection (mm)
0:0:15.633,5.57362,0.71016,0,0.000885,0,0
0:0:15.732,7.15719,0.910108,0,0.000885,0,0
0:0:15.833,8.09576,1.02732,0,0.000885,0,0
0:0:15.934,8.09576,1.02732,0,0.000885,0,0
0:0:16.033,8.97206,1.14453,0,0.000885,0,0
0:0:16.143,9.32347,1.1859,0,0.000885,0,0
0:0:16.242,9.73716,1.24106,0,0.000885,0,0
0:0:16.344,9.73716,1.24106,0,0.000885,0,0
0:0:16.444,10.1464,1.28932,0,0.000885,0,0
0:0:16.543,9.96846,1.26864,0,0.000885,0,0
0:0:16.650,10.1464,1.28932,0,0.000885,0,0
0:0:16.747,10.1464,1.28932,0,0.000885,0,0
0:0:16.848,10.0307,1.27553,0,0.000885,0,0
0:0:16.949,9.67933,1.23416,0,0.000885,0,0
0:0:17.049,9.55923,1.22037,0,0.000885,0,0
0:0:17.146,9.55923,1.22037,0,0.000885,0,0
0:0:17.243,9.91064,1.26174,0,0.000885,0,0
0:0:17.344,9.32347,1.1859,0,0.000885,0,0
0:0:17.445,9.32347,1.1859,0,0.000885,0,0
0:0:17.544,9.73716,1.24106,0,0.000885,0,0
0:0:17.639,9.55923,1.22037,0,0.000885,0,0
0:0:17.749,10.0307,1.27553,0,0.000885,0,0
0:0:17.847,10.0307,1.27553,0,0.000885,0,0
0:0:17.949,10.6179,1.35137,0,0.000885,0,0
0:0:18.049,11.4364,1.45479,0,0.000885,0,0
0:0:18.147,11.3207,1.441,0,0.000885,0,0
0:0:18.246,11.3207,1.441,0,0.000885,0,0
0:0:18.345,11.4364,1.45479,0,0.000885,0,0
0:0:18.446,12.6107,1.60648,0,0.000885,0,0
0:0:18.546,12.8465,1.63406,0,0.000885,0,0
0:0:18.644,12.8465,1.63406,0,0.000885,0,0
0:0:18.742,13.1356,1.67543,0,0.000885,0,0
0:0:18.843,13.9007,1.77195,0,0.000885,0,0
0:0:18.944,13.9585,1.77885,0,0.000885,0,0
0:0:19.044,13.9585,1.77885,0,0.000885,0,0
0:0:19.142,14.5457,1.85469,0,0.000885,0,0
0:0:19.237,14.5457,1.85469,0,0.000885,0,0
0:0:19.337,14.5457,1.85469,0,0.000885,0,0
0:0:19.438,15.075,1.91674,0,0.000885,0,0
0:0:19.538,15.8357,2.01327,0,0.000885,0,0
0:0:19.648,16.1871,2.06153,0,0.000885,0,0
0:0:19.744,16.1871,2.06153,0,0.000885,0,0
0:0:19.844,16.5385,2.1029,0,0.000885,0,0
0:0:19.945,16.8321,2.14427,0,0.000885,0,0
0:0:20.046,17.2413,2.19253,0,0.000885,0,0
0:0:20.144,17.2413,2.19253,0,0.000885,0,0
0:0:20.251,17.0678,2.17185,0,0.000885,0,0
0:0:20.352,17.5349,2.2339,0,0.000885,0,0
0:0:20.453,17.8285,2.26838,0,0.000885,0,0
0:0:20.554,17.8285,2.26838,0,0.000885,0,0
0:0:20.651,18.2422,2.32353,0,0.000885,0,0
0:0:20.748,18.767,2.39248,0,0.000885,0,0
0:0:20.848,18.945,2.41317,0,0.000885,0,0
0:0:20.949,18.945,2.41317,0,0.000885,0,0
0:0:21.050,19.0028,2.42006,0,0.000885,0,0
0:0:21.151,19.6478,2.5028,0,0.000885,0,0
0:0:21.252,20.1771,2.57174,0,0.000885,0,0
0:0:21.354,20.1771,2.57174,0,0.000885,0,0
0:0:21.455,20.8221,2.64759,0,0.000885,0,0
0:0:21.557,21.1157,2.68896,0,0.000885,0,0
0:0:21.659,21.347,2.71653,0,0.000885,0,0
0:0:21.758,21.347,2.71653,0,0.000885,0,0
0:0:21.860,21.992,2.79927,0,0.000885,0,0
0:0:21.962,22.2856,2.84064,0,0.000885,0,0
0:0:22.062,22.6993,2.8889,0,0.000885,0,0
0:0:22.164,22.6993,2.8889,0,0.000885,0,0
0:0:22.264,22.8728,2.90959,0,0.000885,0,0
0:0:22.365,23.8113,3.03369,0,0.000885,0,0
0:0:22.464,24.0471,3.06127,0,0.000885,0,0
0:0:22.565,24.0471,3.06127,0,0.000885,0,0
0:0:22.666,24.2828,3.08885,0,0.000885,0,0
0:0:22.765,24.87,3.16469,0,0.000885,0,0
0:0:22.865,25.1013,3.19917,0,0.000885,0,0
0:0:22.965,25.1013,3.19917,0,0.000885,0,0
0:0:23.066,25.5728,3.25433,0,0.000885,0,0
0:0:23.164,26.0977,3.32327,0,0.000885,0,0
0:0:23.262,26.0977,3.32327,0,0.000885,0,0
0:0:23.363,26.4536,3.36464,0,0.000885,0,0
0:0:23.464,27.0363,3.44048,0,0.000885,0,0
0:0:23.566,27.3299,3.48185,0,0.000885,0,0
0:0:23.663,27.3299,3.48185,0,0.000885,0,0
0:0:23.760,27.8014,3.53701,0,0.000885,0,0
0:0:23.859,28.3263,3.60596,0,0.000885,0,0
0:0:23.961,28.6199,3.64733,0,0.000885,0,0
0:0:24.061,28.6199,3.64733,0,0.000885,0,0
0:0:24.161,29.2648,3.72317,0,0.000885,0,0
0:0:24.257,29.7364,3.78522,0,0.000885,0,0
0:0:24.357,30.1456,3.84038,0,0.000885,0,0
0:0:24.456,30.1456,3.84038,0,0.000885,0,0
0:0:24.558,30.4392,3.87485,0,0.000885,0,0
0:0:24.659,30.9685,3.9438,0,0.000885,0,0
0:0:24.757,31.142,3.96449,0,0.000885,0,0
0:0:24.855,31.142,3.96449,0,0.000885,0,0
0:0:24.955,31.4934,4.01275,0,0.000885,0,0
0:0:25.056,31.8493,4.05412,0,0.000885,0,0
0:0:25.156,31.8493,4.05412,0,0.000885,0,0
0:0:25.254,32.3742,4.12306,0,0.000885,0,0
0:0:25.353,32.6677,4.15754,0,0.000885,0,0
0:0:25.453,33.2549,4.23338,0,0.000885,0,0
0:0:25.554,33.2549,4.23338,0,0.000885,0,0
0:0:25.654,33.6063,4.28164,0,0.000885,0,0
0:0:25.753,33.5485,4.27475,0,0.000885,0,0
0:0:25.850,34.2513,4.36438,0,0.000885,0,0
0:0:25.950,34.2513,4.36438,0,0.000885,0,0
0:0:26.052,34.3091,4.37128,0,0.000885,0,0
0:0:26.152,34.8385,4.43333,0,0.000885,0,0
0:0:26.254,35.2477,4.48849,0,0.000885,0,0
0:0:26.355,35.2477,4.48849,0,0.000885,0,0
0:0:26.457,35.4835,4.51607,0,0.000885,0,0
0:0:26.559,35.777,4.55743,0,0.000885,0,0
0:0:26.661,36.0128,4.58501,0,0.000885,0,0
0:0:26.760,36.0128,4.58501,0,0.000885,0,0
0:0:26.862,36.422,4.64017,0,0.000885,0,0
0:0:26.962,36.2441,4.61259,0,0.000885,0,0
0:0:27.064,37.1249,4.7298,0,0.000885,0,0
0:0:27.163,37.1249,4.7298,0,0.000885,0,0
0:0:27.265,37.5341,4.77807,0,0.000885,0,0
0:0:27.365,37.5341,4.77807,0,0.000885,0,0
0:0:27.467,37.8277,4.81944,0,0.000885,0,0
0:0:27.566,37.8277,4.81944,0,0.000885,0,0
0:0:27.667,38.4727,4.90217,0,0.000885,0,0
0:0:27.766,38.5349,4.90907,0,0.000885,0,0
0:0:27.864,38.5349,4.90907,0,0.000885,0,0
0:0:27.965,38.8285,4.94354,0,0.000885,0,0
0:0:28.065,39.7048,5.05386,0,0.000885,0,0
0:0:28.165,39.4112,5.01938,0,0.000885,0,0
0:0:28.264,39.4112,5.01938,0,0.000885,0,0
0:0:28.361,39.5313,5.03317,0,0.000885,0,0
0:0:28.462,40.6434,5.17796,0,0.000885,0,0
0:0:28.563,41.0571,5.22623,0,0.000885,0,0
0:0:28.664,41.0571,5.22623,0,0.000885,0,0
0:0:28.763,41.2306,5.24691,0,0.000885,0,0
0:0:28.860,41.2306,5.24691,0,0.000885,0,0
0:0:28.960,41.8756,5.32965,0,0.000885,0,0
0:0:29.062,41.8756,5.32965,0,0.000885,0,0
0:0:29.162,42.0535,5.35723,0,0.000885,0,0
0:0:29.261,42.872,5.46065,0,0.000885,0,0
0:0:29.358,43.3435,5.51581,0,0.000885,0,0
0:0:29.457,43.3435,5.51581,0,0.000885,0,0
0:0:29.558,43.6949,5.56407,0,0.000885,0,0
0:0:29.659,44.3977,5.6537,0,0.000885,0,0
0:0:29.759,44.3977,5.6537,0,0.000885,0,0
0:0:29.856,44.5178,5.66749,0,0.000885,0,0
0:0:29.955,44.927,5.72265,0,0.000885,0,0
0:0:30.055,45.8078,5.83296,0,0.000885,0,0
0:0:30.156,45.8078,5.83296,0,0.000885,0,0
0:0:30.255,45.8078,5.83296,0,0.000885,0,0
0:0:30.353,45.9813,5.85365,0,0.000885,0,0
0:0:30.451,46.1014,5.86744,0,0.000885,0,0
0:0:30.552,46.1014,5.86744,0,0.000885,0,0
0:0:30.653,46.8042,5.95707,0,0.000885,0,0
0:0:30.752,47.5648,6.0536,0,0.000885,0,0
0:0:30.851,47.8584,6.09497,0,0.000885,0,0
0:0:30.949,47.8584,6.09497,0,0.000885,0,0
0:0:31.050,48.152,6.12944,0,0.000885,0,0
0:0:31.151,48.152,6.12944,0,0.000885,0,0
0:0:31.252,48.152,6.12944,0,0.000885,0,0
0:0:31.353,48.9126,6.22597,0,0.000885,0,0
0:0:31.456,49.2685,6.27423,0,0.000885,0,0
0:0:31.556,49.6777,6.32249,0,0.000885,0,0
0:0:31.658,49.8512,6.35007,0,0.000885,0,0
0:0:31.759,49.8512,6.35007,0,0.000885,0,0
0:0:31.861,50.1448,6.38455,0,0.000885,0,0
0:0:31.961,50.2649,6.39833,0,0.000885,0,0
0:0:32.062,50.2649,6.39833,0,0.000885,0,0
0:0:32.162,50.6163,6.4466,0,0.000885,0,0
0:0:32.263,51.1412,6.50865,0,0.000885,0,0
0:0:32.364,51.7862,6.59139,0,0.000885,0,0
0:0:32.464,51.7862,6.59139,0,0.000885,0,0
0:0:32.565,51.9641,6.61897,0,0.000885,0,0
0:0:32.667,52.022,6.62586,0,0.000885,0,0
0:0:32.766,52.3734,6.66723,0,0.000885,0,0
0:0:32.864,52.3734,6.66723,0,0.000885,0,0
0:0:32.963,52.6669,6.7086,0,0.000885,0,0
0:0:33.064,53.1963,6.77065,0,0.000885,0,0
0:0:33.165,53.432,6.80513,0,0.000885,0,0
0:0:33.266,53.432,6.80513,0,0.000885,0,0
0:0:33.362,53.4899,6.81202,0,0.000885,0,0
0:0:33.460,53.7834,6.84649,0,0.000885,0,0
0:0:33.560,54.1927,6.90165,0,0.000885,0,0
0:0:33.662,54.1927,6.90165,0,0.000885,0,0
0:0:33.762,54.8377,6.98439,0,0.000885,0,0
0:0:33.861,55.5405,7.07402,0,0.000885,0,0
0:0:33.958,55.8919,7.11539,0,0.000885,0,0
0:0:34.058,55.8919,7.11539,0,0.000885,0,0
0:0:34.159,56.1277,7.14986,0,0.000885,0,0
0:0:34.261,56.7727,7.22571,0,0.000885,0,0
0:0:34.358,56.7727,7.22571,0,0.000885,0,0
0:0:34.456,57.0662,7.26707,0,0.000885,0,0
0:0:34.554,57.2442,7.28776,0,0.000885,0,0
0:0:34.656,57.7112,7.34981,0,0.000885,0,0
0:0:34.756,57.7112,7.34981,0,0.000885,0,0
0:0:34.856,57.947,7.37739,0,0.000885,0,0
0:0:34.953,58.414,7.43944,0,0.000885,0,0
0:0:35.053,58.8856,7.4946,0,0.000885,0,0
0:0:35.153,58.8856,7.4946,0,0.000885,0,0
0:0:35.256,59.6462,7.59113,0,0.000885,0,0
0:0:35.355,59.9398,7.6325,0,0.000885,0,0
0:0:35.452,60.5848,7.71523,0,0.000885,0,0
0:0:35.550,60.5848,7.71523,0,0.000885,0,0
0:0:35.651,60.8205,7.74281,0,0.000885,0,0
0:0:35.752,60.7049,7.72902,0,0.000885,0,0
0:0:35.853,60.7049,7.72902,0,0.000885,0,0
0:0:35.952,61.2876,7.80487,0,0.000885,0,0
0:0:36.055,61.6435,7.84623,0,0.000885,0,0
0:0:36.156,61.5812,7.83934,0,0.000885,0,0
0:0:36.257,61.5812,7.83934,0,0.000885,0,0
0:0:36.359,61.7013,7.85313,0,0.000885,0,0
0:0:36.461,62.4619,7.94966,0,0.000885,0,0
0:0:36.560,62.9913,8.0186,0,0.000885,0,0
0:0:36.661,62.9913,8.0186,0,0.000885,0,0
0:0:36.762,63.4005,8.07376,0,0.000885,0,0
0:0:36.863,63.7519,8.11513,0,0.000885,0,0
0:0:36.964,63.8097,8.12202,0,0.000885,0,0
0:0:37.065,63.8097,8.12202,0,0.000885,0,0
0:0:37.166,64.5748,8.21855,0,0.000885,0,0
0:0:37.266,64.7483,8.24613,0,0.000885,0,0
0:0:37.368,64.9841,8.27371,0,0.000885,0,0
0:0:37.466,64.9841,8.27371,0,0.000885,0,0
0:0:37.564,65.2777,8.30818,0,0.000885,0,0
0:0:37.663,65.9226,8.39092,0,0.000885,0,0
0:0:37.764,66.3942,8.45297,0,0.000885,0,0
0:0:37.865,66.3942,8.45297,0,0.000885,0,0
0:0:37.963,66.452,8.45987,0,0.000885,0,0
0:0:38.061,66.6877,8.48745,0,0.000885,0,0
0:0:38.160,67.0391,8.53571,0,0.000885,0,0
0:0:38.261,67.0391,8.53571,0,0.000885,0,0
0:0:38.362,67.6841,8.61845,0,0.000885,0,0
0:0:38.463,67.7998,8.63224,0,0.000885,0,0
0:0:38.561,68.6227,8.73566,0,0.000885,0,0
0:0:38.659,68.6227,8.73566,0,0.000885,0,0
0:0:38.761,69.2054,8.8115,0,0.000885,0,0
0:0:38.860,69.7348,8.88045,0,0.000885,0,0
0:0:38.960,69.7348,8.88045,0,0.000885,0,0
0:0:39.058,69.8549,8.89424,0,0.000885,0,0
0:0:39.156,70.3219,8.95629,0,0.000885,0,0
0:0:39.258,70.789,9.01145,0,0.000885,0,0
0:0:39.357,70.789,9.01145,0,0.000885,0,0
0:0:39.458,70.8513,9.01834,0,0.000885,0,0
0:0:39.557,71.1449,9.05971,0,0.000885,0,0
0:0:39.655,71.4384,9.09418,0,0.000885,0,0
0:0:39.755,71.4384,9.09418,0,0.000885,0,0
0:0:39.854,71.9055,9.15624,0,0.000885,0,0
0:0:39.955,72.4927,9.23208,0,0.000885,0,0
0:0:40.053,72.5505,9.23897,0,0.000885,0,0
0:0:40.151,72.5505,9.23897,0,0.000885,0,0
0:0:40.251,72.7284,9.25966,0,0.000885,0,0
0:0:40.353,73.3111,9.3355,0,0.000885,0,0
0:0:40.453,73.6047,9.36998,0,0.000885,0,0
0:0:40.552,73.6047,9.36998,0,0.000885,0,0
0:0:40.650,74.1341,9.43892,0,0.000885,0,0
0:0:40.750,74.4276,9.4734,0,0.000885,0,0
0:0:40.850,74.4276,9.4734,0,0.000885,0,0
0:0:40.951,74.7791,9.52166,0,0.000885,0,0
0:0:41.052,75.0726,9.55613,0,0.000885,0,0
0:0:41.154,75.5397,9.61819,0,0.000885,0,0
0:0:41.256,75.5397,9.61819,0,0.000885,0,0
0:0:41.358,76.0112,9.68024,0,0.000885,0,0
0:0:41.458,76.3626,9.72161,0,0.000885,0,0
0:0:41.561,76.4204,9.7285,0,0.000885,0,0
0:0:41.661,76.4204,9.7285,0,0.000885,0,0
0:0:41.763,76.6562,9.76298,0,0.000885,0,0
0:0:41.863,77.1233,9.81813,0,0.000885,0,0
0:0:41.964,77.6526,9.88708,0,0.000885,0,0
0:0:42.064,77.6526,9.88708,0,0.000885,0,0
0:0:42.165,78.2398,9.96292,0,0.000885,0,0
0:0:42.266,78.8269,10.0388,0,0.000885,0,0
0:0:42.368,79.1205,10.0732,0,0.000885,0,0
0:0:42.469,79.1205,10.0732,0,0.000885,0,0
0:0:42.568,79.4719,10.1215,0,0.000885,0,0
0:0:42.665,79.939,10.1767,0,0.000885,0,0
0:0:42.763,80.2326,10.218,0,0.000885,0,0
0:0:42.864,80.2326,10.218,0,0.000885,0,0
0:0:42.966,80.2904,10.2249,0,0.000885,0,0
0:0:43.065,80.9398,10.3077,0,0.000885,0,0
0:0:43.162,81.2912,10.349,0,0.000885,0,0
0:0:43.260,81.2912,10.349,0,0.000885,0,0
0:0:43.361,81.5848,10.3904,0,0.000885,0,0
0:0:43.462,81.9362,10.4318,0,0.000885,0,0
0:0:43.563,81.9362,10.4318,0,0.000885,0,0
0:0:43.660,81.9941,10.4387,0,0.000885,0,0
0:0:43.758,82.5812,10.5145,0,0.000885,0,0
0:0:43.858,82.9905,10.5697,0,0.000885,0,0
0:0:43.959,82.9905,10.5697,0,0.000885,0,0
0:0:44.060,83.2262,10.5972,0,0.000885,0,0
0:0:44.159,83.8134,10.6731,0,0.000885,0,0
0:0:44.255,84.107,10.7076,0,0.000885,0,0
0:0:44.355,84.107,10.7076,0,0.000885,0,0
0:0:44.456,84.6897,10.7834,0,0.000885,0,0
0:0:44.557,84.9254,10.811,0,0.000885,0,0
0:0:44.657,85.0411,10.8248,0,0.000885,0,0
0:0:44.755,85.0411,10.8248,0,0.000885,0,0
0:0:44.852,85.6283,10.9006,0,0.000885,0,0
0:0:44.955,85.9797,10.9489,0,0.000885,0,0
0:0:45.055,86.3934,10.9971,0,0.000885,0,0
0:0:45.155,86.3934,10.9971,0,0.000885,0,0
0:0:45.253,86.8026,11.0523,0,0.000885,0,0
0:0:45.350,86.9805,11.073,0,0.000885,0,0
0:0:45.450,86.9805,11.073,0,0.000885,0,0
0:0:45.552,87.6833,11.1626,0,0.000885,0,0
0:0:45.652,87.7412,11.1695,0,0.000885,0,0
0:0:45.751,88.1504,11.2247,0,0.000885,0,0
0:0:45.847,88.1504,11.2247,0,0.000885,0,0
0:0:45.949,88.6797,11.2936,0,0.000885,0,0
0:0:46.050,89.0312,11.335,0,0.000885,0,0
0:0:46.151,89.5027,11.397,0,0.000885,0,0
0:0:46.252,89.5027,11.397,0,0.000885,0,0
0:0:46.354,89.8541,11.4384,0,0.000885,0,0
0:0:46.457,89.9697,11.4522,0,0.000885,0,0
0:0:46.556,90.7927,11.5625,0,0.000885,0,0
0:0:46.658,90.7927,11.5625,0,0.000885,0,0
0:0:46.759,90.6147,11.5349,0,0.000885,0,0
0:0:46.859,90.7927,11.5625,0,0.000885,0,0
0:0:46.961,91.2019,11.6108,0,0.000885,0,0
0:0:47.062,91.2019,11.6108,0,0.000885,0,0
0:0:47.161,91.7891,11.6866,0,0.000885,0,0
0:0:47.263,91.9625,11.7073,0,0.000885,0,0
0:0:47.364,92.3139,11.7556,0,0.000885,0,0
0:0:47.464,92.3139,11.7556,0,0.000885,0,0
0:0:47.566,92.4919,11.7762,0,0.000885,0,0
0:0:47.665,92.9011,11.8314,0,0.000885,0,0
0:0:47.764,93.4883,11.9004,0,0.000885,0,0
0:0:47.862,93.4883,11.9004,0,0.000885,0,0
0:0:47.963,93.8975,11.9555,0,0.000885,0,0
0:0:48.063,94.4847,12.0314,0,0.000885,0,0
0:0:48.165,94.6626,12.052,0,0.000885,0,0
0:0:48.263,94.6626,12.052,0,0.000885,0,0
0:0:48.361,95.014,12.1003,0,0.000885,0,0
0:0:48.459,95.2498,12.1279,0,0.000885,0,0
0:0:48.560,95.2498,12.1279,0,0.000885,0,0
0:0:48.661,95.659,12.183,0,0.000885,0,0
0:0:48.761,96.0682,12.2313,0,0.000885,0,0
0:0:48.857,96.3618,12.2727,0,0.000885,0,0
0:0:48.957,96.3618,12.2727,0,0.000885,0,0
0:0:49.058,97.2426,12.383,0,0.000885,0,0
0:0:49.160,97.594,12.4244,0,0.000885,0,0
0:0:49.260,97.8876,12.4657,0,0.000885,0,0
0:0:49.357,97.8876,12.4657,0,0.000885,0,0
0:0:49.454,98.4747,12.5416,0,0.000885,0,0
0:0:49.555,99.0041,12.6036,0,0.000885,0,0
0:0:49.656,99.0619,12.6105,0,0.000885,0,0
0:0:49.757,99.0619,12.6105,0,0.000885,0,0
0:0:49.854,99.4133,12.6588,0,0.000885,0,0
0:0:49.952,100.232,12.7622,0,0.000885,0,0
0:0:50.053,100.232,12.7622,0,0.000885,0,0
0:0:50.154,100.761,12.8311,0,0.000885,0,0
0:0:50.255,101.464,12.9208,0,0.000885,0,0
0:0:50.353,101.522,12.9277,0,0.000885,0,0
0:0:50.449,101.522,12.9277,0,0.000885,0,0
0:0:50.549,101.522,12.9277,0,0.000885,0,0
0:0:50.651,101.878,12.969,0,0.000885,0,0
0:0:50.752,102.638,13.0656,0,0.000885,0,0
0:0:50.850,102.638,13.0656,0,0.000885,0,0
0:0:50.947,102.46,13.0449,0,0.000885,0,0
0:0:51.048,102.754,13.0862,0,0.000885,0,0
0:0:51.148,103.11,13.1276,0,0.000885,0,0
0:0:51.249,103.11,13.1276,0,0.000885,0,0
0:0:51.350,103.341,13.1552,0,0.000885,0,0
0:0:51.452,103.928,13.231,0,0.000885,0,0
0:0:51.554,104.106,13.2517,0,0.000885,0,0
0:0:51.656,104.106,13.2517,0,0.000885,0,0
0:0:51.757,104.4,13.2931,0,0.000885,0,0
0:0:51.859,104.515,13.3069,0,0.000885,0,0
0:0:51.959,105.045,13.3758,0,0.000885,0,0
0:0:52.060,105.045,13.3758,0,0.000885,0,0
0:0:52.161,105.276,13.4034,0,0.000885,0,0
0:0:52.262,105.805,13.4724,0,0.000885,0,0
0:0:52.363,106.215,13.5206,0,0.000885,0,0
0:0:52.464,106.215,13.5206,0,0.000885,0,0
0:0:52.564,106.393,13.5482,0,0.000885,0,0
0:0:52.666,106.744,13.5896,0,0.000885,0,0
0:0:52.766,107.211,13.6516,0,0.000885,0,0
0:0:52.865,107.211,13.6516,0,0.000885,0,0
0:0:52.963,107.389,13.6723,0,0.000885,0,0
0:0:53.061,108.092,13.7619,0,0.000885,0,0
0:0:53.162,108.092,13.7619,0,0.000885,0,0
0:0:53.263,108.505,13.8171,0,0.000885,0,0
0:0:53.364,108.795,13.8516,0,0.000885,0,0
0:0:53.461,109.382,13.9274,0,0.000885,0,0
0:0:53.558,109.382,13.9274,0,0.000885,0,0
0:0:53.659,110.027,14.0101,0,0.000885,0,0
0:0:53.761,110.263,14.0377,0,0.000885,0,0
0:0:53.861,110.44,14.0584,0,0.000885,0,0
0:0:53.957,110.44,14.0584,0,0.000885,0,0
0:0:54.055,110.792,14.1067,0,0.000885,0,0
0:0:54.156,111.143,14.148,0,0.000885,0,0
0:0:54.258,111.73,14.2239,0,0.000885,0,0
0:0:54.358,111.73,14.2239,0,0.000885,0,0
0:0:54.456,111.73,14.2239,0,0.000885,0,0
0:0:54.554,112.255,14.2928,0,0.000885,0,0
0:0:54.653,112.255,14.2928,0,0.000885,0,0
0:0:54.755,112.491,14.3204,0,0.000885,0,0
0:0:54.855,113.02,14.3894,0,0.000885,0,0
0:0:54.953,113.608,14.4652,0,0.000885,0,0
0:0:55.049,113.608,14.4652,0,0.000885,0,0
0:0:55.149,113.901,14.4997,0,0.000885,0,0
0:0:55.251,114.546,14.5824,0,0.000885,0,0
0:0:55.352,114.604,14.5893,0,0.000885,0,0
0:0:55.450,114.604,14.5893,0,0.000885,0,0
0:0:55.549,114.898,14.6307,0,0.000885,0,0
0:0:55.647,115.543,14.7134,0,0.000885,0,0
0:0:55.749,116.303,14.8099,0,0.000885,0,0
0:0:55.849,116.303,14.8099,0,0.000885,0,0
0:0:55.951,116.361,14.8168,0,0.000885,0,0
0:0:56.052,116.597,14.8444,0,0.000885,0,0
0:0:56.155,116.948,14.8927,0,0.000885,0,0
0:0:56.255,116.948,14.8927,0,0.000885,0,0
0:0:56.356,117.357,14.9409,0,0.000885,0,0
0:0:56.458,118.065,15.0306,0,0.000885,0,0
0:0:56.559,118.296,15.065,0,0.000885,0,0
0:0:56.660,118.296,15.065,0,0.000885,0,0
0:0:56.761,118.71,15.1133,0,0.000885,0,0
0:0:56.862,118.941,15.1409,0,0.000885,0,0
0:0:56.962,119.061,15.1616,0,0.000885,0,0
0:0:57.062,119.061,15.1616,0,0.000885,0,0
0:0:57.164,119.413,15.2029,0,0.000885,0,0
0:0:57.265,119.528,15.2167,0,0.000885,0,0
0:0:57.365,119.764,15.2512,0,0.000885,0,0
0:0:57.466,119.764,15.2512,0,0.000885,0,0
0:0:57.565,120.235,15.3064,0,0.000885,0,0
0:0:57.662,120.587,15.3546,0,0.000885,0,0
0:0:57.763,120.587,15.3546,0,0.000885,0,0
0:0:57.864,121.29,15.4443,0,0.000885,0,0
0:0:57.965,121.757,15.4994,0,0.000885,0,0
0:0:58.063,122.464,15.589,0,0.000885,0,0
0:0:58.160,122.464,15.589,0,0.000885,0,0
0:0:58.259,122.695,15.6235,0,0.000885,0,0
0:0:58.361,122.815,15.6373,0,0.000885,0,0
0:0:58.462,123.047,15.6649,0,0.000885,0,0
0:0:58.561,123.047,15.6649,0,0.000885,0,0
0:0:58.659,123.34,15.7063,0,0.000885,0,0
0:0:58.756,123.692,15.7476,0,0.000885,0,0
0:0:58.858,124.163,15.8097,0,0.000885,0,0
0:0:58.959,124.163,15.8097,0,0.000885,0,0
0:0:59.058,124.457,15.8442,0,0.000885,0,0
0:0:59.156,124.866,15.8993,0,0.000885,0,0
0:0:59.254,125.102,15.9269,0,0.000885,0,0
0:0:59.356,125.102,15.9269,0,0.000885,0,0
0:0:59.456,125.511,15.982,0,0.000885,0,0
0:0:59.556,125.631,15.9958,0,0.000885,0,0
0:0:59.655,125.631,15.9958,0,0.000885,0,0
0:0:59.753,126.392,16.0924,0,0.000885,0,0
0:0:59.854,126.57,16.113,0,0.000885,0,0
0:0:59.955,127.095,16.182,0,0.000885,0,0
0:1:0.055,127.095,16.182,0,0.000885,0,0
0:1:0.153,127.095,16.182,0,0.000885,0,0
0:1:0.252,127.74,16.2647,0,0.000885,0,0
0:1:0.352,128.327,16.3406,0,0.000885,0,0
0:1:0.453,128.327,16.3406,0,0.000885,0,0
0:1:0.553,128.798,16.3957,0,0.000885,0,0
0:1:0.652,129.559,16.4992,0,0.000885,0,0
0:1:0.751,129.968,16.5474,0,0.000885,0,0
0:1:0.850,129.968,16.5474,0,0.000885,0,0
0:1:0.951,130.382,16.6026,0,0.000885,0,0
0:1:1.052,130.32,16.5957,0,0.000885,0,0
0:1:1.152,130.791,16.6508,0,0.000885,0,0
0:1:1.255,130.791,16.6508,0,0.000885,0,0
0:1:1.356,131.378,16.7267,0,0.000885,0,0
0:1:1.458,131.61,16.7543,0,0.000885,0,0
0:1:1.559,131.73,16.7749,0,0.000885,0,0
0:1:1.661,131.73,16.7749,0,0.000885,0,0
0:1:1.760,132.139,16.8232,0,0.000885,0,0
0:1:1.861,132.548,16.8784,0,0.000885,0,0
0:1:1.961,133.02,16.9335,0,0.000885,0,0
0:1:2.062,133.02,16.9335,0,0.000885,0,0
0:1:2.163,133.255,16.968,0,0.000885,0,0
0:1:2.264,133.255,16.968,0,0.000885,0,0
0:1:2.365,134.194,17.0852,0,0.000885,0,0
0:1:2.465,134.194,17.0852,0,0.000885,0,0
0:1:2.567,134.016,17.0645,0,0.000885,0,0
0:1:2.663,134.194,17.0852,0,0.000885,0,0
0:1:2.762,134.194,17.0852,0,0.000885,0,0
0:1:2.862,134.955,17.1817,0,0.000885,0,0
0:1:2.963,135.426,17.2438,0,0.000885,0,0
0:1:3.065,135.484,17.2507,0,0.000885,0,0
0:1:3.162,135.484,17.2507,0,0.000885,0,0
0:1:3.260,135.835,17.2921,0,0.000885,0,0
0:1:3.359,136.302,17.3541,0,0.000885,0,0
0:1:3.460,136.596,17.3955,0,0.000885,0,0
0:1:3.561,136.596,17.3955,0,0.000885,0,0
0:1:3.661,136.832,17.4231,0,0.000885,0,0
0:1:3.757,137.361,17.492,0,0.000885,0,0
0:1:3.857,137.828,17.5472,0,0.000885,0,0
0:1:3.958,137.828,17.5472,0,0.000885,0,0
0:1:4.059,138.415,17.623,0,0.000885,0,0
0:1:4.159,138.945,17.6919,0,0.000885,0,0
0:1:4.258,139.238,17.7264,0,0.000885,0,0
0:1:4.354,139.238,17.7264,0,0.000885,0,0
0:1:4.455,139.59,17.7747,0,0.000885,0,0
0:1:4.556,139.59,17.7747,0,0.000885,0,0
0:1:4.656,139.59,17.7747,0,0.000885,0,0
0:1:4.754,140.408,17.8781,0,0.000885,0,0
0:1:4.852,140.702,17.9126,0,0.000885,0,0
0:1:4.952,141.111,17.9677,0,0.000885,0,0
0:1:5.054,141.111,17.9677,0,0.000885,0,0
0:1:5.155,141.582,18.0298,0,0.000885,0,0
0:1:5.253,141.818,18.0574,0,0.000885,0,0
0:1:5.350,142.17,18.0987,0,0.000885,0,0
0:1:5.449,142.17,18.0987,0,0.000885,0,0
0:1:5.550,142.579,18.1539,0,0.000885,0,0
0:1:5.651,142.872,18.1884,0,0.000885,0,0
0:1:5.750,143.575,18.278,0,0.000885,0,0
0:1:5.857,143.575,18.278,0,0.000885,0,0
0:1:5.955,143.575,18.278,0,0.000885,0,0
0:1:6.057,143.869,18.3194,0,0.000885,0,0
0:1:6.158,144.278,18.3676,0,0.000885,0,0
0:1:6.259,144.278,18.3676,0,0.000885,0,0
0:1:6.360,144.928,18.4504,0,0.000885,0,0
0:1:6.463,145.452,18.5193,0,0.000885,0,0
0:1:6.563,145.63,18.54,0,0.000885,0,0
0:1:6.665,145.63,18.54,0,0.000885,0,0
0:1:6.765,145.573,18.5331,0,0.000885,0,0
0:1:6.867,145.982,18.5883,0,0.000885,0,0
0:1:6.968,146.569,18.6641,0,0.000885,0,0
0:1:7.069,146.569,18.6641,0,0.000885,0,0
0:1:7.169,147.094,18.7262,0,0.000885,0,0
0:1:7.270,147.33,18.7606,0,0.000885,0,0
0:1:7.371,147.859,18.8227,0,0.000885,0,0
0:1:7.472,147.859,18.8227,0,0.000885,0,0
0:1:7.573,148.152,18.8641,0,0.000885,0,0
0:1:7.674,148.268,18.8778,0,0.000885,0,0
0:1:7.774,148.562,18.9123,0,0.000885,0,0
0:1:7.871,148.562,18.9123,0,0.000885,0,0
0:1:7.969,149.029,18.9744,0,0.000885,0,0
0:1:8.070,149.385,19.0226,0,0.000885,0,0
0:1:8.171,149.385,19.0226,0,0.000885,0,0
0:1:8.272,149.794,19.0709,0,0.000885,0,0
0:1:8.370,149.91,19.0847,0,0.000885,0,0
0:1:8.467,150.555,19.1674,0,0.000885,0,0
0:1:8.567,150.555,19.1674,0,0.000885,0,0
0:1:8.669,151.026,19.2295,0,0.000885,0,0
0:1:8.769,151.262,19.2571,0,0.000885,0,0
0:1:8.868,151.907,19.3398,0,0.000885,0,0
0:1:8.964,151.907,19.3398,0,0.000885,0,0
0:1:9.064,151.965,19.3467,0,0.000885,0,0
0:1:9.165,152.316,19.395,0,0.000885,0,0
0:1:9.266,152.432,19.4087,0,0.000885,0,0
0:1:9.366,152.432,19.4087,0,0.000885,0,0
0:1:9.463,153.312,19.5191,0,0.000885,0,0
0:1:9.562,153.664,19.5673,0,0.000885,0,0
0:1:9.663,153.664,19.5673,0,0.000885,0,0
0:1:9.764,153.842,19.588,0,0.000885,0,0
0:1:9.864,153.957,19.6018,0,0.000885,0,0
0:1:9.961,154.429,19.6638,0,0.000885,0,0
0:1:10.059,154.429,19.6638,0,0.000885,0,0
0:1:10.161,154.896,19.719,0,0.000885,0,0
0:1:10.262,155.19,19.7604,0,0.000885,0,0
0:1:10.363,155.835,19.8431,0,0.000885,0,0
0:1:10.459,155.835,19.8431,0,0.000885,0,0
0:1:10.558,156.128,19.8776,0,0.000885,0,0
0:1:10.659,156.715,19.9534,0,0.000885,0,0
0:1:10.760,156.657,19.9465,0,0.000885,0,0
0:1:10.859,156.657,19.9465,0,0.000885,0,0
0:1:10.961,157.36,20.0362,0,0.000885,0,0
0:1:11.063,157.712,20.0775,0,0.000885,0,0
0:1:11.165,158.121,20.1327,0,0.000885,0,0
0:1:11.266,158.121,20.1327,0,0.000885,0,0
0:1:11.367,158.824,20.2223,0,0.000885,0,0
0:1:11.468,158.886,20.2292,0,0.000885,0,0
0:1:11.570,159.469,20.3051,0,0.000885,0,0
0:1:11.670,159.469,20.3051,0,0.000885,0,0
0:1:11.771,159.882,20.3533,0,0.000885,0,0
0:1:11.872,159.998,20.374,0,0.000885,0,0
0:1:11.973,159.998,20.374,0,0.000885,0,0
0:1:12.072,159.998,20.374,0,0.000885,0,0
0:1:12.173,160.527,20.4361,0,0.000885,0,0
0:1:12.275,160.879,20.4843,0,0.000885,0,0
0:1:12.376,161.052,20.505,0,0.000885,0,0
0:1:12.474,161.052,20.505,0,0.000885,0,0
0:1:12.572,161.817,20.6015,0,0.000885,0,0
0:1:12.671,162.227,20.6567,0,0.000885,0,0
0:1:12.772,162.227,20.6567,0,0.000885,0,0
0:1:12.873,162.52,20.6912,0,0.000885,0,0
0:1:12.972,162.698,20.7119,0,0.000885,0,0
0:1:13.069,162.992,20.7532,0,0.000885,0,0
0:1:13.169,162.992,20.7532,0,0.000885,0,0
0:1:13.270,163.459,20.8153,0,0.000885,0,0
0:1:13.371,163.574,20.8291,0,0.000885,0,0
0:1:13.471,164.34,20.9256,0,0.000885,0,0
0:1:13.567,164.34,20.9256,0,0.000885,0,0
0:1:13.666,164.807,20.9807,0,0.000885,0,0
0:1:13.768,165.158,21.029,0,0.000885,0,0
0:1:13.869,165.336,21.0497,0,0.000885,0,0
0:1:13.968,165.336,21.0497,0,0.000885,0,0
0:1:14.066,166.039,21.1393,0,0.000885,0,0
0:1:14.163,166.626,21.2152,0,0.000885,0,0
0:1:14.264,166.626,21.2152,0,0.000885,0,0
0:1:14.366,166.862,21.2427,0,0.000885,0,0
0:1:14.466,167.213,21.291,0,0.000885,0,0
0:1:14.564,167.329,21.3048,0,0.000885,0,0
0:1:14.661,167.329,21.3048,0,0.000885,0,0
0:1:14.762,167.8,21.3669,0,0.000885,0,0
0:1:14.863,168.267,21.422,0,0.000885,0,0
0:1:14.964,168.325,21.4289,0,0.000885,0,0
0:1:15.062,168.325,21.4289,0,0.000885,0,0
0:1:15.160,168.797,21.491,0,0.000885,0,0
0:1:15.259,169.09,21.5323,0,0.000885,0,0
0:1:15.361,169.384,21.5668,0,0.000885,0,0
0:1:15.461,169.384,21.5668,0,0.000885,0,0
0:1:15.561,170.087,21.6564,0,0.000885,0,0
0:1:15.659,170.26,21.6771,0,0.000885,0,0
0:1:15.759,170.789,21.7461,0,0.000885,0,0
0:1:15.859,170.789,21.7461,0,0.000885,0,0
0:1:15.960,171.025,21.7736,0,0.000885,0,0
0:1:16.061,171.786,21.8702,0,0.000885,0,0
0:1:16.162,171.786,21.8702,0,0.000885,0,0
0:1:16.264,171.906,21.8909,0,0.000885,0,0
0:1:16.366,172.257,21.9322,0,0.000885,0,0
0:1:16.466,172.782,22.0012,0,0.000885,0,0
0:1:16.569,172.902,22.015,0,0.000885,0,0
0:1:16.668,172.902,22.015,0,0.000885,0,0
0:1:16.770,173.427,22.0839,0,0.000885,0,0
0:1:16.871,173.783,22.1253,0,0.000885,0,0
0:1:16.971,173.783,22.1253,0,0.000885,0,0
0:1:17.071,174.077,22.1666,0,0.000885,0,0
0:1:17.172,175.131,22.2976,0,0.000885,0,0
0:1:17.273,174.895,22.2701,0,0.000885,0,0
0:1:17.375,174.895,22.2701,0,0.000885,0,0
0:1:17.474,175.482,22.3459,0,0.000885,0,0
0:1:17.574,175.718,22.3735,0,0.000885,0,0
0:1:17.672,176.012,22.408,0,0.000885,0,0
0:1:17.771,176.012,22.408,0,0.000885,0,0
0:1:17.871,176.185,22.4355,0,0.000885,0,0
0:1:17.973,176.421,22.4631,0,0.000885,0,0
0:1:18.073,176.772,22.5045,0,0.000885,0,0
0:1:18.171,176.772,22.5045,0,0.000885,0,0
0:1:18.268,177.008,22.539,0,0.000885,0,0
0:1:18.369,177.711,22.6286,0,0.000885,0,0
0:1:18.470,177.947,22.6562,0,0.000885,0,0
0:1:18.571,177.947,22.6562,0,0.000885,0,0
0:1:18.669,178.649,22.7458,0,0.000885,0,0
0:1:18.768,178.765,22.7596,0,0.000885,0,0
0:1:18.866,178.765,22.7596,0,0.000885,0,0
0:1:18.968,179.179,22.8148,0,0.000885,0,0
0:1:19.069,179.352,22.8354,0,0.000885,0,0
0:1:19.167,179.588,22.863,0,0.000885,0,0
0:1:19.265,179.588,22.863,0,0.000885,0,0
0:1:19.365,179.762,22.8906,0,0.000885,0,0
0:1:19.465,180.291,22.9526,0,0.000885,0,0
0:1:19.566,180.469,22.9802,0,0.000885,0,0
0:1:19.665,180.469,22.9802,0,0.000885,0,0
0:1:19.764,181.056,23.0492,0,0.000885,0,0
0:1:19.863,181.172,23.0699,0,0.000885,0,0
0:1:19.965,181.701,23.1319,0,0.000885,0,0
0:1:20.066,181.701,23.1319,0,0.000885,0,0
0:1:20.163,181.759,23.1388,0,0.000885,0,0
0:1:20.261,182.404,23.2215,0,0.000885,0,0
0:1:20.360,182.991,23.2974,0,0.000885,0,0
0:1:20.462,182.991,23.2974,0,0.000885,0,0
0:1:20.562,182.871,23.2836,0,0.000885,0,0
0:1:20.662,183.636,23.3801,0,0.000885,0,0
0:1:20.759,183.636,23.3801,0,0.000885,0,0
0:1:20.858,184.103,23.4422,0,0.000885,0,0
0:1:20.958,183.867,23.4077,0,0.000885,0,0
0:1:21.060,184.512,23.4904,0,0.000885,0,0
0:1:21.161,184.512,23.4904,0,0.000885,0,0
0:1:21.263,184.868,23.5387,0,0.000885,0,0
0:1:21.365,184.984,23.5525,0,0.000885,0,0
0:1:21.467,185.864,23.6628,0,0.000885,0,0
0:1:21.568,185.864,23.6628,0,0.000885,0,0
0:1:21.669,186.332,23.7249,0,0.000885,0,0
0:1:21.770,186.509,23.7455,0,0.000885,0,0
0:1:21.872,186.861,23.7938,0,0.000885,0,0
0:1:21.971,186.861,23.7938,0,0.000885,0,0
0:1:22.073,187.212,23.8352,0,0.000885,0,0
0:1:22.173,187.564,23.8834,0,0.000885,0,0
0:1:22.275,187.973,23.9317,0,0.000885,0,0
0:1:22.375,187.973,23.9317,0,0.000885,0,0
0:1:22.477,188.56,24.0075,0,0.000885,0,0
0:1:22.578,188.502,24.0007,0,0.000885,0,0
0:1:22.678,189.032,24.0696,0,0.000885,0,0
0:1:22.776,189.032,24.0696,0,0.000885,0,0
0:1:22.873,189.441,24.1179,0,0.000885,0,0
0:1:22.973,189.912,24.1799,0,0.000885,0,0
0:1:23.075,190.322,24.2351,0,0.000885,0,0
0:1:23.175,190.322,24.2351,0,0.000885,0,0
0:1:23.275,190.437,24.2489,0,0.000885,0,0
0:1:23.372,190.789,24.2902,0,0.000885,0,0
0:1:23.471,190.967,24.3178,0,0.000885,0,0
0:1:23.572,190.967,24.3178,0,0.000885,0,0
0:1:23.673,191.434,24.373,0,0.000885,0,0
0:1:23.772,191.669,24.4074,0,0.000885,0,0
0:1:23.869,191.669,24.4074,0,0.000885,0,0
0:1:23.969,191.905,24.435,0,0.000885,0,0
0:1:24.069,192.666,24.5315,0,0.000885,0,0
0:1:24.168,192.786,24.5453,0,0.000885,0,0
0:1:24.268,192.786,24.5453,0,0.000885,0,0
0:1:24.365,193.195,24.6005,0,0.000885,0,0
0:1:24.463,193.547,24.6419,0,0.000885,0,0
0:1:24.563,194.014,24.7039,0,0.000885,0,0
0:1:24.663,194.014,24.7039,0,0.000885,0,0
0:1:24.762,194.427,24.7522,0,0.000885,0,0
0:1:24.859,194.894,24.8142,0,0.000885,0,0
0:1:24.956,195.366,24.8763,0,0.000885,0,0
0:1:25.056,195.366,24.8763,0,0.000885,0,0
0:1:25.156,195.659,24.9108,0,0.000885,0,0
0:1:25.256,195.659,24.9108,0,0.000885,0,0
0:1:25.353,195.659,24.9108,0,0.000885,0,0
0:1:25.451,195.953,24.9521,0,0.000885,0,0
0:1:25.549,195.891,24.9452,0,0.000885,0,0
0:1:25.649,196.184,24.9797,0,0.000885,0,0
0:1:25.749,196.184,24.9797,0,0.000885,0,0
0:1:25.844,196.892,25.0693,0,0.000885,0,0
0:1:25.940,197.594,25.159,0,0.000885,0,0
0:1:26.039,197.417,25.1383,0,0.000885,0,0
0:1:26.140,197.417,25.1383,0,0.000885,0,0
0:1:26.240,197.768,25.1797,0,0.000885,0,0
0:1:26.340,198.591,25.2831,0,0.000885,0,0
0:1:26.442,198.764,25.3107,0,0.000885,0,0
0:1:26.543,198.764,25.3107,0,0.000885,0,0
0:1:26.644,199.236,25.3658,0,0.000885,0,0
0:1:26.745,199.587,25.4141,0,0.000885,0,0
0:1:26.844,199.587,25.4141,0,0.000885,0,0
0:1:26.944,199.645,25.421,0,0.000885,0,0
0:1:27.045,200.29,25.5037,0,0.000885,0,0
0:1:27.145,200.819,25.5658,0,0.000885,0,0
0:1:27.245,200.819,25.5658,0,0.000885,0,0
0:1:27.344,201.055,25.6002,0,0.000885,0,0
0:1:27.445,201.642,25.6761,0,0.000885,0,0
0:1:27.545,201.58,25.6692,0,0.000885,0,0
0:1:27.646,201.58,25.6692,0,0.000885,0,0
0:1:27.745,202.461,25.7795,0,0.000885,0,0
0:1:27.844,202.754,25.814,0,0.000885,0,0
0:1:27.953,202.932,25.8347,0,0.000885,0,0
0:1:28.050,202.932,25.8347,0,0.000885,0,0
0:1:28.150,203.399,25.8967,0,0.000885,0,0
0:1:28.252,203.693,25.9381,0,0.000885,0,0
0:1:28.352,204.28,26.007,0,0.000885,0,0
0:1:28.449,204.28,26.007,0,0.000885,0,0
0:1:28.555,204.925,26.0898,0,0.000885,0,0
0:1:28.655,205.277,26.138,0,0.000885,0,0
0:1:28.755,205.392,26.1518,0,0.000885,0,0
0:1:28.855,205.392,26.1518,0,0.000885,0,0
0:1:28.952,205.922,26.2208,0,0.000885,0,0
0:1:29.059,206.451,26.2828,0,0.000885,0,0
0:1:29.158,206.624,26.3104,0,0.000885,0,0
0:1:29.257,206.624,26.3104,0,0.000885,0,0
0:1:29.358,207.038,26.3587,0,0.000885,0,0
0:1:29.456,207.505,26.4207,0,0.000885,0,0
0:1:29.553,207.741,26.4483,0,0.000885,0,0
0:1:29.651,207.741,26.4483,0,0.000885,0,0
0:1:29.752,208.034,26.4897,0,0.000885,0,0
0:1:29.852,208.328,26.5241,0,0.000885,0,0
0:1:29.950,208.328,26.5241,0,0.000885,0,0
0:1:30.045,208.622,26.5655,0,0.000885,0,0
0:1:30.141,208.501,26.5448,0,0.000885,0,0
0:1:30.243,208.853,26.5931,0,0.000885,0,0
0:1:30.342,208.853,26.5931,0,0.000885,0,0
0:1:30.443,209.089,26.6207,0,0.000885,0,0
0:1:30.540,209.676,26.6965,0,0.000885,0,0
0:1:30.636,209.912,26.7241,0,0.000885,0,0
0:1:30.736,209.912,26.7241,0,0.000885,0,0
0:1:30.837,209.969,26.731,0,0.000885,0,0
0:1:30.936,209.969,26.731,0,0.000885,0,0
0:1:31.037,209.969,26.731,0,0.000885,0,0
0:1:31.138,210.205,26.7654,0,0.000885,0,0
0:1:31.238,209.912,26.7241,0,0.000885,0,0
0:1:31.339,209.849,26.7172,0,0.000885,0,0
0:1:31.439,209.849,26.7172,0,0.000885,0,0
0:1:31.540,209.089,26.6207,0,0.000885,0,0
0:1:31.639,208.737,26.5793,0,0.000885,0,0
0:1:31.738,208.328,26.5241,0,0.000885,0,0
0:1:31.838,208.328,26.5241,0,0.000885,0,0
0:1:31.938,208.328,26.5241,0,0.000885,0,0
0:1:32.038,208.501,26.5448,0,0.000885,0,0
0:1:32.138,208.795,26.5862,0,0.000885,0,0
0:1:32.236,208.795,26.5862,0,0.000885,0,0
0:1:32.337,209.146,26.6276,0,0.000885,0,0
0:1:32.436,209.912,26.7241,0,0.000885,0,0
0:1:32.534,210.379,26.7861,0,0.000885,0,0
0:1:32.632,210.379,26.7861,0,0.000885,0,0
0:1:32.729,211.375,26.9102,0,0.000885,0,0
0:1:32.831,211.726,26.9585,0,0.000885,0,0
0:1:32.931,211.726,26.9585,0,0.000885,0,0
0:1:33.038,211.726,26.9585,0,0.000885,0,0
0:1:33.144,211.847,26.9723,0,0.000885,0,0
0:1:33.243,212.02,26.993,0,0.000885,0,0
0:1:33.343,212.549,27.0619,0,0.000885,0,0
0:1:33.444,212.549,27.0619,0,0.000885,0,0
0:1:33.542,212.785,27.0895,0,0.000885,0,0
0:1:33.639,212.665,27.0757,0,0.000885,0,0
0:1:33.736,212.665,27.0757,0,0.000885,0,0
0:1:33.837,212.492,27.055,0,0.000885,0,0
0:1:33.937,212.549,27.0619,0,0.000885,0,0
0:1:34.035,212.492,27.055,0,0.000885,0,0
0:1:34.141,212.492,27.055,0,0.000885,0,0
0:1:34.238,212.492,27.055,0,0.000885,0,0
0:1:34.338,212.314,27.0343,0,0.000885,0,0
0:1:34.438,211.847,26.9723,0,0.000885,0,0
0:1:34.536,211.847,26.9723,0,0.000885,0,0
0:1:34.643,211.553,26.9378,0,0.000885,0,0
0:1:34.740,211.024,26.8689,0,0.000885,0,0
0:1:34.840,210.557,26.8068,0,0.000885,0,0
0:1:34.941,210.557,26.8068,0,0.000885,0,0
0:1:35.040,210.205,26.7654,0,0.000885,0,0
0:1:35.136,209.44,26.6689,0,0.000885,0,0
0:1:35.242,208.501,26.5448,0,0.000885,0,0
0:1:35.341,208.501,26.5448,0,0.000885,0,0
0:1:35.442,207.332,26.4,0,0.000885,0,0
0:1:35.541,206.037,26.2346,0,0.000885,0,0
0:1:35.638,206.037,26.2346,0,0.000885,0,0
0:1:35.736,204.516,26.0415,0,0.000885,0,0
0:1:35.834,202.403,25.7726,0,0.000885,0,0
0:1:35.934,200.29,25.5037,0,0.000885,0,0
0:1:36.034,200.29,25.5037,0,0.000885,0,0
0:1:36.134,197.946,25.2003,0,0.000885,0,0
0:1:36.235,194.952,24.8211,0,0.000885,0,0
0:1:36.336,190.731,24.2833,0,0.000885,0,0
0:1:36.437,190.731,24.2833,0,0.000885,0,0
0:1:36.538,185.335,23.6008,0,0.000885,0,0
0:1:36.640,180.291,22.9526,0,0.000885,0,0
0:1:36.741,173.957,22.146,0,0.000885,0,0
0:1:36.840,173.957,22.146,0,0.000885,0,0
0:1:36.941,169.384,21.5668,0,0.000885,0,0
0:1:37.042,165.981,21.1324,0,0.000885,0,0
0:1:37.142,163.868,20.8635,0,0.000885,0,0
0:1:37.243,163.868,20.8635,0,0.000885,0,0
0:1:37.344,161.697,20.5877,0,0.000885,0,0
0:1:37.444,160.234,20.4016,0,0.000885,0,0
0:1:37.544,158.65,20.2016,0,0.000885,0,0
0:1:37.643,158.65,20.2016,0,0.000885,0,0
0:1:37.741,157.067,20.0017,0,0.000885,0,0
0:1:37.839,155.425,19.788,0,0.000885,0,0
0:1:37.938,155.425,19.788,0,0.000885,0,0
0:1:38.040,153.428,19.5328,0,0.000885,0,0
0:1:38.140,151.613,19.3053,0,0.000885,0,0
0:1:38.247,149.442,19.0295,0,0.000885,0,0
0:1:38.345,149.442,19.0295,0,0.000885,0,0